Time (s),Accel X (m/s^2),Accel Y (m/s^2),Accel Z (m/s^2)
0.0,1.83055983123779,2.50605637893677,-0.158764815616608
0.000605693519079346,1.99821119842529,0.0559513984680176,-0.242590499210358
0.00121138703815869,1.96468092498779,2.5012663398742703,0.222043289852142
0.00181708055723804,-1.55599778594971,2.36954026565552,2.52365705938339
0.00242277407631738,-1.09136399688721,-1.07210280075073,-0.982651534366608
0.00302846759539673,-2.9451091140747097,-1.07689283981323,0.351374344539642
0.00363416111447607,-3.8264763015747096,-2.5210896171569797,-0.8006300499916079
0.00423985463355542,2.1969978195190403,-2.0588508476257297,-2.33104753046036
0.00484554815263477,1.62458815155029,1.54086350784302,2.18116926641464
0.00545124167171411,1.5000471359252898,1.61750413284302,-1.16706803827286
0.00605693519079346,3.1454255538940403,-0.425447527313232,0.217253250789642
0.0066626287098728,-1.06022874298096,3.4856193672180202,1.3405174109458902
0.00726832222895215,-2.34874925079346,-0.463767839813232,0.590876297664642
0.0078740157480315,-1.5631828445434601,-2.8803425468444797,0.909413895320892
0.00847970926711084,-2.22181321563721,-0.413472429656982,-2.08196549921036
0.00908540278619019,0.27619215545654296,-3.76649977340698,-0.525202803897858
0.00969109630526953,1.9143855148315398,0.5397453437805181,0.401669754695892
0.0102967898243489,1.79223951873779,2.23062913284302,-0.352761397647858
0.0109024833434282,2.01258131561279,-0.195525652313232,1.4698484656333901
0.0115081768625076,-0.7369011062622071,3.10481126174927,1.83389143438339
0.0121138703815869,-0.633915266418457,0.0008659492492675899,-0.276120772647858
0.0127195639006663,-0.463868879699707,-2.5282746757507297,-0.850925460147858
0.0133252574197456,-3.18940110626221,-0.5380134452819819,0.724997391414642
0.013930950938825,-0.49260911407470703,-2.52587965621948,-1.80174821405411
0.0145366444579043,1.9479157882690399,-0.6194441093444819,-0.0725441124916077
0.0151423379769836,1.50962721405029,2.0893229804992703,1.1992112586021402
0.015748031496063,2.1275422531127903,0.283478253936768,-0.33120622186660803
0.0163537250151423,0.565989518737793,3.1742668281555204,1.4099729773521401
0.0169594185342217,-0.698580793762207,1.90011643753052,1.5249339148521401
0.017565112053301,-0.566854719543457,-3.1869050468444797,-0.6976442101478579
0.0181708055723804,-3.4241130203247097,-0.375152117156982,-1.2844239953041099
0.0187764990914597,-2.3032438796997097,-2.56659498825073,0.152587723445892
0.0193821926105391,1.3323957687377899,-1.67804274215698,-1.0281569054603599
0.0199878861296184,1.76589430389404,3.3299430976867703,0.0232566687583923
0.0205935796486978,2.1203571945190403,-0.367967058563232,0.909413895320892
0.0211992731677771,2.58499098358154,2.56353684768677,-0.573103194522858
0.0218049666868564,-1.46738206329346,2.87009934768677,2.04944319219589
0.0224106602059358,-1.3787663406372102,-2.12351637496948,-0.49885758905410804
0.0230163537250151,-2.55472093048096,-0.7799104179382319,-0.256960616397858
0.0236220472440945,-4.42044114532471,-1.80737379684448,-0.750334639835358
0.0242277407631738,2.05569166717529,-2.6144953788757297,-1.65565202264786
0.0248334342822532,2.9490339523315403,1.67977464065552,1.04832502813339
0.0254391278013325,1.38508619842529,1.7731804023742699,-1.28681901483536
0.0260448213204119,2.59696608123779,-0.236240984344482,1.38123274297714
0.0266505148394912,-0.940477766418457,3.4592741523742703,0.8207981726646421
0.0272562083585706,-2.62417649688721,-0.7391950859069819,1.02197981328964
0.0278619018776499,-0.818331770324707,-2.0588508476257297,0.38969465703964196
0.0284675953967293,-3.11994553985596,-0.07577467575073239,-2.6328199913978603
0.0290732889158086,0.41510328826904297,-4.264663835906981,0.26754866094589197
0.0296789824348879,2.34548903045654,1.11934007034302,-0.506042647647858
0.0302846759539673,1.2725202804565399,2.4725261054992704,-0.206665206241608
0.0308903694730466,2.5466706710815403,-0.8134406913757319,1.52732893438339
0.031496062992126,-0.621940168762207,2.77908860549927,1.06030012578964
0.0321017565112053,-1.17997971954346,0.336168683624268,-0.44856217889785804
0.0327074500302847,-0.356093000793457,-2.7246662773132297,0.00170149297714229
0.033313143549364,-2.9187638992309597,-0.0877497734069824,0.22443830938339202
0.0339188370684434,-0.629125227355957,-2.46600416793823,-1.09042741327286
0.0345245305875227,1.8808552413940398,-0.6362092460632319,-0.39826676874160805
0.0351302241066021,1.08570875701904,1.98633714065552,0.011281571102142299
0.0357359176256814,2.2401081710815403,-0.327251726531982,0.250783524227142
0.0363416111447607,0.726455827331543,3.7155412422180203,0.7561326453208921
0.0369473046638401,-0.693790754699707,2.59706712112427,1.0674851843833901
0.0375529981829194,-0.19562669219970702,-3.5126277030944797,-0.11565446405410801
0.0381586917019988,-3.3043620437622097,-1.09365797653198,-1.1047975304603599
0.0387643852210781,-2.19307298126221,-1.81216383590698,-0.985046553897858
0.0393700787401575,1.51920729217529,-2.54264479293823,0.9956345984458921
0.0399757722592368,1.38748121795654,4.52984788284302,-1.82569840936661
0.0405814657783162,1.8545100265502898,-0.890081316375732,0.7010471961021421
0.0411871592973955,2.75743238983154,0.9157634101867681,1.0459300086021401
0.0417928528164749,-0.820726789855957,5.00885178909302,-0.055778975772857696
0.0423985463355542,-2.19307298126221,-3.1605598320007298,1.3357273718833902
0.0430042398546336,-2.30803391876221,0.163727277374268,-1.7993531945228598
0.0436099333737129,-4.14501389923096,-2.3678083671569796,0.851933426570892
0.0442156268927922,2.44607985076904,-2.54982985153198,-3.15972428827286
0.0448213204118716,1.9311506515502899,2.28092454299927,0.772897782039642
0.0454270139309509,0.925242448425293,1.05946458206177,0.107082352352142
0.0460327074500303,4.0579279953002905,0.0128410469055176,0.38969465703964196
0.0466384009691096,-1.72843919219971,3.94785813674927,1.45068830938339
0.047244094488189,-2.96666428985596,-0.7176399101257319,-0.704829268741608
0.0478497880072683,-0.918922590637207,-3.1030793632507296,1.0291648718833901
0.0484554815263477,-2.7654826492309597,1.24388108596802,-2.40289811639786
0.049061175045427,0.24745192108154299,-4.537696062469481,0.26994368047714196
0.0496668685645064,2.20897291717529,1.15766038284302,-1.60296159296036
0.0502725620835857,0.807886491394043,1.67498460159302,0.933364090633392
0.050878255602665,2.70713697967529,0.022421125030517602,0.662726883602142
0.0514839491217444,-0.672235578918457,3.37544846878052,1.03874495000839
0.0520896426408237,-1.2590153640747102,0.17809739456176799,-0.017458663272857698
0.0526953361599031,0.542039323425293,-3.1366096366882297,-0.5180177453041079
0.0533010296789824,-3.25646165313721,-0.305696550750732,0.633986649227142
0.0539067231980618,-1.15363450469971,-1.74270826950073,-2.1442360070228603
0.0545124167171411,1.74673414764404,-1.59421705856323,0.466335282039642
0.0551181102362205,1.0761286788940398,2.7742985664367703,0.25796858282089197
0.0557238037552998,2.24968824920654,-0.612259050750732,-0.08451921014785771
0.0563294972743792,0.836626725769043,3.47843430862427,0.724997391414642
0.0569351907934585,-1.05064866485596,2.6880778633117703,1.08664534063339
0.0575408843125379,0.16362623748779298,-3.50783766403198,-0.568313155460358
0.0581465778316172,-3.14629075469971,0.264318097686768,-1.4401002648353598
0.0587522713506965,-3.4145329421997097,-2.41331373825073,0.25796858282089197
0.0593579648697759,2.4532649093627903,-2.2456623710632297,-1.2556837609291098
0.0599636583888552,1.31323561248779,3.1742668281555204,-0.431797042179108
0.0605693519079346,2.1203571945190403,0.158937238311768,0.16935286016464202
0.0611750454270139,2.7789875656127903,1.60792405471802,0.629196610164642
0.0617807389460933,-1.96315110626221,3.50717454299927,1.7380906531333902
0.0623864324651726,-0.7776164382934571,-1.45051588668823,-0.683274092960358
0.062992125984252,-2.77985276641846,-1.73552321090698,0.7585276648521421
0.0635978195033313,-4.233629621887211,-0.7942805351257319,-1.67720719842911
0.0642035130224107,2.13233229217529,-3.3353962577819796,-1.01378678827286
0.06480920654149,1.81379469451904,2.1252482734680203,-0.405451827335358
0.0654149000605694,1.23180494842529,1.32291673049927,-0.728779464054108
0.0660205935796487,3.0855500656127903,-0.8589460624694819,2.1308738562583898
0.066626287098728,-0.997958235168457,4.357406476593019,-0.206665206241608
0.0672319806178074,-2.12840745391846,-0.420657488250732,0.5357908484458921
0.0678376741368867,-1.19195481719971,-1.97263014450073,0.212463211727142
0.0684433676559661,-2.67207688751221,-0.849365984344482,-1.3969899132728598
0.0690490611750454,0.489348893737793,-3.63716871871948,-0.6760890343666079
0.0696547546941248,1.4186164718627898,0.453524640655518,-0.228220382022858
0.0702604482132041,1.5599226242065398,2.5946721015930203,-0.769494796085358
0.0708661417322835,2.1011970382690404,-0.456582781219482,1.39320784063339
0.0714718352513628,-0.396808332824707,3.25809251174927,-0.256960616397858
0.0720775287704422,-0.478238996887207,0.302638410186768,0.210068192195892
0.0726832222895215,-0.708160871887207,-3.1869050468444797,0.9189939734458921
0.0732889158086008,-2.85170335235596,0.453524640655518,-0.9395411828041079
0.0738946093276802,-0.950057844543457,-2.6767658866882296,-0.5802882531166079
0.0745003028467595,1.6197981124877898,-0.765540300750732,-0.834160323429108
0.0751059963658389,0.886922135925293,1.44266770706177,0.6148264929771421
0.0757116898849182,2.29519362030029,-0.023084246063232398,-0.304861007022858
0.0763173834039976,0.824651628112793,4.07239915237427,1.2207664343833902
0.0769230769230769,-0.715345930480957,2.28331956253052,1.52732893438339
0.0775287704421563,-0.511769270324707,-3.35695143356323,-0.992231612491608
0.0781344639612356,-3.2253263992309598,-1.15113844528198,-1.26526383905411
0.078740157480315,-2.5427458328247097,-1.86964430465698,0.0472068640708923
0.0793458509993943,1.24378004608154,-1.64211744918823,-0.055778975772857696
0.0799515445184737,1.8377448898315398,3.0138005195617703,-0.482092452335358
0.080557238037553,2.9394538742065404,-0.547593523406982,0.205278153133392
0.0811629315566323,2.53230055389404,1.63187425003052,0.0424168250083923
0.0817686250757117,-1.6015031570434601,4.18975510940552,2.02549299688339
0.082374318594791,-1.2422502273559601,-1.75707838668823,-0.0677540734291077
0.0829800121138704,-2.51161057891846,-1.61816725387573,-0.949121260929108
0.0835857056329497,-4.0516081375122095,-1.12479323043823,-0.6976442101478579
0.0841913991520291,1.82576979217529,-2.9665632499694796,-1.5335060265541098
0.0847970926711084,2.33111891326904,1.69414475784302,0.861513504695892
0.0854027861901878,1.08810377655029,1.40195237503052,-0.29049088983535803
0.0860084797092671,2.9226887374877903,-0.5404084648132319,1.1010154578208902
0.0866141732283465,-1.39074143829346,4.10592942581177,0.583691239070892
0.0872198667474258,-2.26252854766846,-0.260191179656982,-0.508437667179108
0.0878255602665051,-1.20153489532471,-2.4851643241882297,0.662726883602142
0.0884312537855845,-2.98342942657471,-0.284141374969482,-1.4089650109291099
0.0890369473046638,0.463003678894043,-3.4886775077819796,0.032836746883392304
0.0896426408237432,1.6533283859252899,0.6355461250305181,-1.31795426874161
0.0902483343428225,1.52639235076904,2.29050462112427,-0.8964308312416079
0.0908540278619019,2.04611158905029,-1.10802809371948,2.47096662969589
0.0914597213809812,-0.31298264923095703,3.73470139846802,-0.0222487023353577
0.0920654149000606,-1.0793888992309602,0.499030011749268,0.18372297735214202
0.0926711084191399,-0.344117903137207,-3.08152418746948,-0.45095719842910803
0.0932768019382193,-2.64333665313721,-0.353596941375732,-0.19948014764785799
0.0938824954572986,-1.38834641876221,-2.6168903984069796,-1.03534196405411
0.094488188976378,1.6317732101440399,-0.7152448905944819,0.00649153203964229
0.0950938824954573,1.16474440155029,2.0318425117492698,0.550160965633392
0.0956995760145366,2.17783766326904,0.108641828155518,-1.1191676476478598
0.096305269533616,1.06654860076904,3.07846604690552,1.9440623328208901
0.0969109630526953,-0.514164289855957,2.70005296096802,1.01479475469589
0.0975166565717747,-0.454288801574707,-3.06236403121948,-1.06168717889786
0.098122350090854,-3.41213792266846,-1.06970778121948,-0.5994484093666079
0.0987280436099334,-3.0648600906372097,-2.34625319137573,0.5765061804771421
0.0993337371290127,1.74673414764404,-1.66846266403198,-1.20299333124161
0.0999394306480921,1.88325026092529,2.9635051094055203,-0.376711592960358
0.100545124167171,2.3933894210815403,-0.480532976531982,0.832773270320892
0.101150817686251,2.98016920623779,1.42829758987427,0.765712723445892
0.10175651120533,-2.16912278594971,4.26160569534302,1.99675276250839
0.102362204724409,-1.77873460235596,-1.35232008590698,-0.611423507022858
0.102967898243489,-1.84819016876221,-2.6073103202819796,0.7752928015708921
0.103573591762568,-3.72588548126221,-0.791885515594482,-1.2173634484291098
0.104179285281647,1.13839918670654,-2.35343824996948,-2.50109391717911
0.104784978800727,2.01258131561279,1.33249680862427,1.15849592657089
0.105390672319806,1.3707160812377899,1.64624436721802,-1.4401002648353598
0.105996365838886,2.95621901092529,-0.942771746063232,1.6446848914146401
0.106602059357965,-1.20871995391846,3.74667649612427,1.3740476843833902
0.107207752877044,-2.1475676101684598,0.649916242218018,-0.427007003116608
0.107813446396124,-1.1344743484497102,-2.7438264335632296,1.05551008672714
0.108419139915203,-2.89481370391846,-0.346411882781982,-2.21848161249161
0.109024833434282,0.388758073425293,-3.95570631637573,-0.25217057733535797
0.109630526953362,2.3406989913940404,0.499030011749268,-1.1024025109291098
0.110236220472441,1.36592604217529,2.85572923049927,0.028046707820892303
0.11084191399152,2.01497633514404,-0.770330339813232,1.42434309453964
0.1114476075106,0.252241960144043,3.15510667190552,0.23880842657089202
0.112053301029679,-1.4649870437622101,0.769667218780518,0.842353348445892
0.112658994548758,-0.42315354766845703,-3.3330012382507297,-0.209060225772858
0.113264688067838,-2.7391374343872097,-0.193130632781982,-0.635373702335358
0.113870381586917,-1.41469163360596,-1.71875807418823,-0.9778614953041079
0.114476075105996,1.5718977218627899,-1.48644117965698,0.531000809383392
0.115081768625076,1.0928938156127899,2.21386399612427,-0.630583663272858
0.115687462144155,2.4197346359252903,-0.0973298515319824,0.495075516414642
0.116293155663234,0.834231706237793,2.67370774612427,2.3368455359458897
0.116898849182314,-1.05064866485596,4.08437425003052,-0.764704757022858
0.117504542701393,-0.032765364074707,-3.7090193046569797,0.746552567195892
0.118110236220472,-2.5690910476684596,-1.12718824996948,-0.913195967960358
0.118715929739552,-3.5678141921997097,-1.80737379684448,-0.733569503116608
0.119321623258631,1.65572340545654,-2.8276521171569797,-0.108469405460358
0.11992731677771,1.84253492889404,3.47843430862427,-0.613818526554108
0.12053301029679,1.71559889373779,-0.195525652313232,1.1489158484458901
0.121138703815869,3.4543830734252903,0.8415178047180181,0.23401838750839202
0.121744397334949,-1.6015031570434601,4.26639573440552,0.586086258602142
0.122350090854028,-1.20632493438721,-1.23017408981323,-0.26175065546035803
0.122955784373107,-1.96315110626221,-1.31878981246948,0.370534500789642
0.123561477892187,-4.3318254226684605,-1.47446608200073,-0.611423507022858
0.124167171411266,1.6964387374877898,-3.03122877731323,-2.0101149132728597
0.124772864930345,2.04371656951904,1.26304124221802,1.5584641882896402
0.125378558449425,1.29647047576904,2.7240031562805203,-1.98137467889786
0.125984251968504,2.79335768280029,-0.691294695281982,1.3141721961021402
0.126589945487583,-0.732111067199707,3.28204270706177,1.7117454382896402
0.127195639006663,-1.69730393829346,0.7960124336242681,-1.0281569054603599
0.127801332525742,-1.61108323516846,-3.28510084762573,1.2303465125083901
0.128407026044821,-2.64812669219971,1.35644700393677,-2.9226173546791103
0.129012719563901,-0.17646653594970702,-5.31847242965698,1.64707991094589
0.12961841308298,2.81491285858154,1.22232591018677,-1.45926042108536
0.130224106602059,0.9396125656127929,2.43420579299927,-0.49885758905410804
0.130829800121139,2.06527174530029,-1.06970778121948,0.31784407110214197
0.131435493640218,0.721665788269043,3.60776536331177,0.868698563289642
0.132041187159297,-2.07811204376221,0.00565598831176759,2.18595930547714
0.132646880678377,0.12051588592529301,-2.1953669609069797,-1.5071608117103599
0.133252574197456,-2.57148606719971,-0.9020564140319819,0.008886551570892291
0.133858267716535,-1.1177092117309602,-2.2217121757507297,-1.42812516717911
0.134463961235615,1.71080885467529,-1.47207106246948,-0.055778975772857696
0.135069654754694,1.0066731124877901,2.0797429023742704,-0.19948014764785799
0.135675348273773,2.12275221405029,0.209232648468018,0.0543919226646423
0.136281041792853,0.886922135925293,2.7383732734680204,0.629196610164642
0.136886735311932,-0.732111067199707,3.0569108711242703,0.26036360235214195
0.137492428831012,-0.133356184387207,-2.77256666793823,-0.07733415155410771
0.138098122350091,-2.93313401641846,-1.19903883590698,-0.7814698937416079
0.13870381586917,-3.2181413406372097,-1.91754469528198,0.645961746883392
0.13930950938825,1.60063795623779,-2.58336012496948,-0.472512374210358
0.139915202907329,1.56231764373779,3.05212083206177,-1.0545021203041098
0.140520896426408,1.77068434295654,0.0367912422180176,0.650751785945892
0.141126589945488,3.20051100311279,0.400834210968018,0.966894364070892
0.141732283464567,-1.1440544265747101,4.9633464179992695,0.29868391485214196
0.142337976983646,-2.0637419265747097,-1.41938063278198,0.744157547664642
0.142943670502726,-1.9176457351684602,-2.5019294609069798,0.588481278133392
0.143549364021805,-4.159384016418461,-0.454187761688232,-1.6412819054603598
0.144155057540884,1.07852369842529,-3.29468092575073,-1.3203492882728598
0.144760751059964,2.82688795623779,1.7133049140930199,-0.11804948358535801
0.145366444579043,1.58387281951904,1.72767503128052,-0.156369796085358
0.145972138098122,2.81730787811279,-0.159600359344482,0.107082352352142
0.146577831617202,-1.1560295242309602,3.48801438674927,1.5752293250083902
0.147183525136281,-1.81705491485596,-0.688899675750732,0.849538407039642
0.14778921865536,-1.3572111648559602,-1.05294264450073,-1.26526383905411
0.14839491217444,-3.68517014923096,-0.6601594413757319,0.40885481328964196
0.149000605693519,0.563594499206543,-3.8790656913757298,-1.3490895226478599
0.149606299212598,2.2568733078002903,0.302638410186768,-1.1694630578041099
0.150211992731678,1.3802961593627898,2.25697434768677,0.411249832820892
0.150817686250757,2.33830397186279,-0.011109148406982398,1.1177805945396402
0.151423379769836,0.10375074920654301,2.50366135940552,1.4171580359458902
0.152029073288916,-1.2590153640747102,0.750507062530518,-0.386291671085358
0.152634766807995,-0.768036360168457,-3.03841383590698,0.6148264929771421
0.153240460327075,-2.6864470046997098,0.587645734405518,-0.709619307804108
0.153846153846154,-0.926107649230957,-2.4851643241882297,-1.08563737421036
0.154451847365233,1.57908278045654,-1.83371901168823,0.0496018836021423
0.155057540884313,1.0066731124877901,2.18033372268677,-0.743149581241608
0.155663234403392,2.5131403976440403,-0.0733796562194824,0.109477371883392
0.156268927922471,1.06654860076904,3.54070481643677,1.54888411016464
0.156874621441551,-0.868627180480957,2.47731614456177,0.346584305477142
0.15748031496063,0.321697526550293,-2.17381178512573,-1.4185450890541098
0.158086008479709,-3.02653977813721,-1.30920973434448,0.480705399227142
0.158691701998789,-3.15587083282471,-2.6336555351257296,-0.28091081171035803
0.159297395517868,1.5934528976440399,-1.54392164840698,-1.91670915155411
0.159903089036947,1.2821003585815398,2.8868644844055202,0.662726883602142
0.160508782556027,2.3933894210815403,0.283478253936768,0.454360184383392
0.161114476075106,2.83407301483154,-0.312881609344482,0.787267899227142
0.161720169594185,-0.803961653137207,5.14057786331177,-0.0270387413978577
0.162325863113265,-2.63854661407471,-1.81216383590698,2.29852522344589
0.162931556632344,-2.0182365554809603,-1.18466871871948,-0.6018434288978579
0.163537250151423,-3.4408781570434597,-0.6936897148132319,-2.1969264367103603
0.164142943670503,0.944402604675293,-4.5233259452819805,-0.343181319522858
0.164748637189582,2.37183424530029,1.93843675003052,-1.24131364374161
0.165354330708661,1.1623493820190398,1.90251145706177,-0.453352217960358
0.165960024227741,3.13584547576904,0.0703215156555176,1.42434309453964
0.16656571774682,-0.552484602355957,3.0138005195617703,1.12017561407089
0.167171411265899,-1.95357102813721,-0.583518816375732,-0.297675948429108
0.167777104784979,-1.6398234695434601,-2.61928541793823,0.09989729375839229
0.168382798304058,-2.91397386016846,0.824752667999268,-0.8796656945228579
0.168988491823137,0.10614576873779301,-4.28861403121948,0.588481278133392
0.169594185342217,2.15628248748779,0.408019269561768,-2.24961686639786
0.170199878861296,0.8198615890502929,2.4653410469055204,-0.106074385929108
0.170805572380376,2.4436848312377903,-0.403892351531982,1.64228987188339
0.171411265899455,0.15404615936279298,3.0736760078430203,0.181327957820892
0.172016959418534,-1.30931077423096,0.7576921211242681,0.42801496953964197
0.172622652937614,-0.301007551574707,-2.9066877616882296,0.804033035945892
0.173228346456693,-2.75111253204346,0.261923078155518,-0.826975264835358
0.173834039975772,-0.904552473449707,-2.86597242965698,-0.644953780460358
0.174439733494852,1.7132038742065399,-1.84808912887573,0.09989729375839229
0.175045427013931,0.676160417175293,2.42941575393677,0.0448118445396423
0.17565112053301,2.15628248748779,0.281083234405518,-0.45814225702285805
0.17625681405209,1.15995436248779,3.3371281562805204,1.03395491094589
0.176862507571169,-0.782406477355957,1.74444016799927,2.09494856328964
0.177468201090248,0.0821955734252929,-2.20973707809448,-2.12268083124161
0.178073894609328,-3.58218430938721,-0.664949480438232,0.09989729375839229
0.178679588128407,-2.88044358673096,-1.90796461715698,1.1393357703208902
0.179285281647486,1.4617268234252898,-2.3749934257507297,-1.9358693078041098
0.179890975166566,1.2222248703002898,3.0114055000305204,0.028046707820892303
0.180496668685645,1.86409010467529,-0.389522234344482,1.92011213750839
0.181102362204724,3.2388313156127904,0.8367277656555181,-0.525202803897858
0.181708055723804,-0.578829817199707,5.195663312530519,-0.00308854608535771
0.182313749242883,-2.15475266876221,-1.54631666793823,0.871093582820892
0.182919442761962,-1.82184495391846,-1.85048414840698,0.356164383602142
0.183525136281042,-3.6540348953247097,-1.02180739059448,-1.0760572960853598
0.184130829800121,0.645025163269043,-3.3066560234069797,-1.1526979210853598
0.1847365233192,2.4269196945190403,0.769667218780518,1.01958479375839
0.18534221683828,1.68206862030029,2.39109544143677,-1.8209083703041098
0.185947910357359,2.26884840545654,-0.442212664031982,1.8362864539146402
0.186553603876439,-0.296217512512207,3.92630296096802,0.186117996883392
0.187159297395518,-1.80028977813721,-0.523643328094482,1.7596458289146402
0.187764990914597,-1.50570237579346,-2.1714167655944796,0.485495438289642
0.188370684433677,-2.5259806961059597,0.690631574249268,-2.76694108514786
0.188976377952756,-0.396808332824707,-4.85383864059448,0.784872879695892
0.189582071471835,2.68079176483154,1.16724046096802,-1.7298976281166099
0.190187764990915,1.12402906951904,1.47619798049927,1.9440623328208901
0.190793458509994,2.23771315155029,0.156542218780518,-1.17185807733536
0.191399152029073,0.45581862030029296,2.97548020706177,1.6446848914146401
0.192004845548153,-1.4985173171997102,0.506215070343018,1.71414045782089
0.192610539067232,-0.102220930480957,-2.57857008590698,-1.6149366906166098
0.193216232586311,-2.69363206329346,-1.11760817184448,0.5357908484458921
0.193821926105391,-1.40990159454346,-1.68043776168823,-1.12874772577286
0.19442761962447,1.50244215545654,-1.52236647262573,-0.201875167179108
0.195033313143549,1.11684401092529,1.84503098831177,0.0591819617271423
0.195639006662629,2.3670442062377903,0.350538800811768,-0.197085128116608
0.196244700181708,0.7192707687377929,2.31445481643677,1.01479475469589
0.196850393700787,-0.813541731262207,3.4233488594055204,0.157377762508392
0.197456087219867,0.0007649093627929539,-2.6480256523132297,0.08552717657089229
0.198061780738946,-2.36551438751221,-1.05773268356323,-0.666508956241608
0.198667474258025,-3.7642057937622098,-1.96784010543823,0.372929520320892
0.199273167777105,1.10486891326904,-2.59294020309448,-1.15509294061661
0.199878861296184,1.63416822967529,2.5946721015930203,0.200488114070892
0.200484554815263,1.5599226242065398,0.9564787422180181,0.24838850469589202
0.201090248334343,3.42324781951904,0.554115460968018,0.351374344539642
0.201695941853422,-1.12489427032471,3.8951677070617703,0.993239578914642
0.202301635372502,-1.5536027664184602,-0.569148699188232,-0.24498551874160798
0.202907328891581,-1.64940354766846,-2.1857868827819797,0.708232254695892
0.20351302241066,-4.34380052032471,0.293058332061768,-2.46756364374161
0.20411871592974,0.496533952331543,-3.7353645195007297,-0.09409928827285771
0.204724409448819,2.89155348358154,0.812777570343018,0.5166306921958921
0.205330102967898,1.17192946014404,2.02226243362427,-0.870085616397858
0.205935796486978,2.5131403976440403,-0.011109148406982398,-0.266540694522858
0.206541490006057,-0.427943586730957,3.3970036445617704,1.9177171179771402
0.207147183525136,-2.12122239532471,0.47986985549926797,0.8160081336021421
0.207752877044216,-1.23027512969971,-2.5713850273132297,-0.431797042179108
0.208358570563295,-2.89481370391846,-0.971511980438232,-0.7790748742103579
0.208964264082374,0.412708268737793,-2.67197584762573,-0.553943038272858
0.209569957601454,1.8113996749877899,0.101456769561768,-0.355156417179108
0.210175651120533,1.30605055389404,2.4485759101867703,-0.546757979679108
0.210781344639612,1.8329548507690399,-0.629024187469482,1.0842503211021401
0.211387038158692,0.0726154953002929,3.09283616409302,-0.33839128046035805
0.211992731677771,-0.988378157043457,1.04988450393677,1.55127912969589
0.21259842519685,-0.700975813293457,-2.7677766288757297,0.0735520789146423
0.21320411871593,-1.76196946563721,-0.126070085906982,-1.1910182335853599
0.213809812235009,-1.6565886062622102,-2.39654860153198,-0.0246437218666077
0.214415505754088,1.3491609054565399,-0.9355866874694819,-0.8605055382728579
0.215021199273168,1.07373365936279,1.37560716018677,0.416039871883392
0.215626892792247,2.25208326873779,0.5972258125305181,-0.812605147647858
0.216232586311326,1.64374830780029,3.26527757034302,0.744157547664642
0.216838279830406,-0.530929426574707,2.7407682929992703,1.16328596563339
0.217443973349485,-0.375253157043457,-2.3678083671569796,-0.35036637811660803
0.218049666868565,-2.79422288360596,-1.69001783981323,-0.12283952264785801
0.218655360387644,-3.1678459304809596,-1.36908522262573,-0.446167159366608
0.219261053906723,1.15516432342529,-1.92712477340698,-1.09521745233536
0.219866747425803,1.85211500701904,1.93604173049927,1.12975569219589
0.220472440944882,1.6748835617065398,0.125406964874268,1.17526106328964
0.221078134463961,2.84365309295654,1.10736497268677,-1.1263527062416099
0.221683827983041,-0.8566520828247071,4.71905442581177,2.03986311407089
0.22228952150212,-2.07811204376221,-1.02659742965698,0.770502762508392
0.222895215021199,-1.81705491485596,-2.09956617965698,-0.929961104679108
0.223500908540279,-4.18333421173096,-0.9188215507507319,-0.755124678897858
0.224106602059358,1.10486891326904,-2.72945631637573,-1.17664811639786
0.224712295578437,2.81012281951904,0.6618913398742681,0.9597093054771421
0.225317989097517,0.910872331237793,2.31684983596802,-1.4951857140541098
0.225923682616596,2.2233430343627902,-0.7990705741882319,0.669911942195892
0.226529376135675,-0.23155198516845701,3.58142014846802,1.30459211797714
0.227135069654755,-2.35593430938721,0.8630729804992681,1.3237522742271401
0.227740763173834,-0.763246321105957,-2.8444172538757297,-0.357551436710358
0.228346456692913,-2.5858561843872097,-0.0278742851257324,-1.0664772179603599
0.228952150211993,-1.00514329376221,-3.9676814140319796,0.971684403133392
0.229557843731072,2.67121168670654,0.463104718780518,-2.4100831749916103
0.230163537250151,0.970747819519043,1.90730149612427,0.9956345984458921
0.230769230769231,1.95510084686279,0.020026105499267602,0.463940262508392
0.23137492428831,0.728850846862793,2.6282023750305203,1.12975569219589
0.231980617807389,-1.6613786453247101,1.13850022659302,1.34291243047714
0.232586311326469,0.156441178894043,-2.8731574882507296,-1.0928224328041098
0.233192004845548,-2.50442552032471,-0.791885515594482,-0.125234542179108
0.233797698364627,-1.60868821563721,-1.76665846481323,-0.726384444522858
0.234403391883707,1.90720045623779,-1.91993971481323,0.507050614070892
0.235009085402786,1.2389900070190398,2.4054655586242704,-0.589868331241608
0.235614778921866,2.35506910858154,-0.159600359344482,-0.285700850772858
0.236220472440945,1.33479078826904,2.5012663398742703,1.26627180547714
0.236826165960024,-0.514164289855957,3.7490715156555203,0.5046555945396419
0.237431859479104,0.331277604675293,-2.37020338668823,0.24359846563339202
0.238037552998183,-2.4996354812622097,-1.77623854293823,-0.5371779015541079
0.238643246517262,-3.85521653594971,-2.18099684371948,0.0160716101646423
0.239248940036342,0.872552018737793,-2.1546516288757296,-1.13832780389786
0.239854633555421,1.38508619842529,2.7814836250305204,0.413644852352142
0.2404603270745,1.98144606170654,0.5804606758117681,-0.211455245304108
0.24106602059358,3.04483473358154,0.166122296905518,-0.7359645226478579
0.241671714112659,-1.07220384063721,4.59930344924927,1.21118635625839
0.242277407631738,-1.4769621414184602,-0.564358660125732,0.375324539852142
0.242883101150818,-1.81705491485596,-2.9929084648132296,1.2590867468833902
0.243488794669897,-4.207284407043461,0.0607414375305176,-2.77412614374161
0.244094488188976,0.791121354675293,-3.78086989059448,0.485495438289642
0.244700181708056,2.7622224288940402,0.8798381172180181,0.729787430477142
0.245305875227135,1.77547438201904,3.57184007034302,-2.83160661249161
0.245911568746214,2.00060621795654,-2.0588508476257297,3.07451155157089
0.246517262265294,0.11572584686279301,4.869940656280519,-0.8820607140541079
0.247122955784373,-2.61459641876221,-0.0685896171569824,2.2697849890708897
0.247728649303452,-1.06501878204346,-2.17620680465698,-0.764704757022858
0.248334342822532,-2.9019987625122097,-0.391917253875732,-1.0377369835853598
0.248940036341611,-0.528534407043457,-3.93654616012573,-0.412636885929108
0.24954572986069,3.1214753585815402,0.690631574249268,-2.03167008905411
0.25015142337977,0.527669206237793,1.67498460159302,2.93799543828964
0.250757116898849,2.17783766326904,0.113431867218018,-0.867690596866608
0.251362810417929,0.257031999206543,1.83066087112427,1.7093504187583901
0.251968503937008,-1.64940354766846,1.94083176956177,0.40885481328964196
0.252574197456087,-0.056715559387207,-2.55940992965698,-0.242590499210358
0.253179890975167,-2.42778489532471,-0.825415789031982,-0.00308854608535771
0.253785584494246,-1.6613786453247101,-1.96784010543823,-1.2604737999916098
0.254391278013325,1.7730793624877899,-1.63253737106323,-0.00069352655410771
0.254996971532405,0.750406022644043,2.5874870429992702,-1.1047975304603599
0.255602665051484,1.94552076873779,0.295453351593018,0.7968479773521421
0.256208358570563,1.27012526092529,1.89772141799927,1.2542967078208902
0.256814052089643,-0.49260911407470703,3.59100022659302,0.11905745000839199
0.257419745608722,0.125305924987793,-2.6073103202819796,0.25796858282089197
0.258025439127801,-2.50442552032471,-0.7799104179382319,-1.2221534874916098
0.258631132646881,-3.89593186798096,-2.2480573905944796,1.1824461218833902
0.25923682616596,1.39945631561279,-2.1450715507507296,-1.7179225304603598
0.259842519685039,1.5934528976440399,2.3455900703430204,0.37771955938339197
0.260448213204119,1.56471266326904,0.7768522773742681,-0.211455245304108
0.261053906723198,3.3178669601440403,0.396044171905518,-0.453352217960358
0.261659600242277,-0.744086164855957,4.6040934883117695,1.64228987188339
0.262265293761357,-1.9942863601684602,-0.5547785820007319,0.0136765906333923
0.262870987280436,-1.74759934844971,-2.8635774101257296,0.5549510046958921
0.263476680799515,-3.8863517898559596,-0.456582781219482,-1.06408219842911
0.264082374318595,0.221106706237793,-3.4623322929382296,-0.357551436710358
0.264688067837674,2.7023469406127902,1.55523362503052,-0.7024342492103579
0.265293761356753,1.33479078826904,1.6534294258117699,-0.9419362023353579
0.265899454875833,2.9155036788940403,-0.811045671844482,0.866303543758392
0.266505148394912,-0.14054124298095702,3.9622282539367704,0.933364090633392
0.267110841913992,-3.07683518829346,-0.221870867156982,2.11650373907089
0.267716535433071,-0.669840559387207,-1.75707838668823,-1.32513932733536
0.26832222895215,-2.3966496414184597,-0.985882097625732,-0.632978682804108
0.26892792247123,-0.439918684387207,-3.64674879684448,-1.04731706171036
0.269533615990309,2.44607985076904,0.369698957061768,-1.80414323358536
0.270139309509388,1.18150953826904,1.98394212112427,2.44462141485214
0.270745003028468,2.02934645233154,0.0152360664367676,-0.395871749210358
0.271350696547547,0.482163835144043,2.24978928909302,0.281918778133392
0.271956390066626,-1.10812913360596,1.31812669143677,1.26627180547714
0.272562083585706,-0.219576887512207,-2.88273756637573,-0.417426924991608
0.273167777104785,-2.43257493438721,-0.308091570281982,-0.786259932804108
0.273773470623864,-1.72604417266846,-2.3510432304382296,-0.649743819522858
0.274379164142944,1.65572340545654,-1.60858717575073,-0.5180177453041079
0.274984857662023,1.06654860076904,2.05100266799927,-0.223430342960358
0.275590551181102,2.68558180389404,0.5157951484680181,0.332214188289642
0.276196244700182,1.01625319061279,2.1252482734680203,1.7716209265708902
0.276801938219261,-0.775221418762207,3.83768723831177,-0.22103532342910798
0.27740763173834,0.022320085144043,-2.8707624687194797,0.186117996883392
0.27801332525742,-2.36551438751221,-1.48165114059448,-0.216245284366608
0.278619018776499,-3.58218430938721,-1.40740553512573,-0.45095719842910803
0.279224712295578,1.21024977264404,-2.38696852340698,-1.0928224328041098
0.279830405814658,1.55273756561279,2.66891770706177,0.969289383602142
0.280436099333737,2.10598707733154,0.285873273468018,0.626801590633392
0.281041792852816,3.1885359054565403,0.887023175811768,-0.7766798546791079
0.281647486371896,-1.77394456329346,4.11071946487427,2.7296287390708898
0.282253179890975,-1.29494065704346,0.379279035186768,-0.127629561710358
0.282858873410055,-1.85058518829346,-3.36413649215698,1.61115461797714
0.283464566929134,-3.80971116485596,0.0176310859680176,-2.95614762811661
0.284070260448213,0.0750105148315429,-3.6491438163757297,-0.484487471866608
0.284675953967293,2.8819734054565402,0.338563703155518,0.9956345984458921
0.285281647486372,2.05808668670654,3.4999894844055204,-2.14184098749161
0.285887341005451,2.1275422531127903,-2.03250563278198,3.53196028203964
0.286493034524531,0.338462663269043,4.24963059768677,-1.31795426874161
0.28709872804361,-3.02653977813721,-0.303301531219482,1.84347151250839
0.287704421562689,-0.832701887512207,-2.06364088668823,-0.22582536249160798
0.288310115081769,-2.40383470001221,0.355328839874268,-1.8544386437416098
0.288915808600848,-1.03867356719971,-4.444290300750731,0.887858719539642
0.289521502119927,3.0352546554565403,0.436759503936768,-2.14902604608536
0.290127195639007,0.563594499206543,1.43069260940552,1.38123274297714
0.290732889158086,2.07245680389404,0.348143781280518,-0.726384444522858
0.291338582677165,0.544434342956543,2.3288249336242703,1.29501203985214
0.291944276196245,-1.66377366485596,0.7552971015930181,1.28782698125839
0.292549969715324,0.144466081237793,-2.4875593437194796,-0.9203810265541079
0.293155663234403,-2.4732902664184597,-0.6793195976257319,-0.38868669061660804
0.293761356753483,-1.78831468048096,-2.1786018241882297,-0.783864913272858
0.294367050272562,1.97186598358154,-1.55589674606323,0.09510725469589229
0.294972743791641,0.817466569519043,2.5683268867492703,-0.8173951867103579
0.295578437310721,2.35506910858154,-0.403892351531982,0.9189939734458921
0.2961841308298,1.83534987030029,2.98506028518677,0.212463211727142
0.296789824348879,-0.705765852355957,2.81980393753052,1.10820051641464
0.297395517867959,0.019925065612793,-2.26003248825073,-0.436587081241608
0.298001211387038,-3.61810960235596,-1.27328444137573,-0.6593238976478579
0.298606904906118,-3.25406663360596,-2.02532057418823,0.7776878211021421
0.299212598425197,1.46651686248779,-2.4085236991882297,-1.4185450890541098
0.299818291944276,1.50483717498779,2.58269700393677,-0.08451921014785771
0.300423985463356,2.00300123748779,0.6594963203430181,0.250783524227142
0.301029678982435,3.27236158905029,0.156542218780518,0.22443830938339202
0.301635372501514,-1.06501878204346,5.1166276679992695,0.930969071102142
0.302241066020594,-2.23139329376221,-0.5619636405944819,-0.146789717960358
0.302846759539673,-1.59910813751221,-3.30186598434448,0.7202073523521421
0.303452453058752,-3.87437669219971,0.348143781280518,-2.39571305780411
0.304058146577832,0.348042741394043,-3.2395954765319797,-0.209060225772858
0.304663840096911,2.75503737030029,0.489449933624268,0.942944168758392
0.30526953361599,1.1527693038940399,2.93236985549927,-1.31795426874161
0.30587522713507,2.1035920578002902,-1.46728102340698,1.78838606328964
0.306480920654149,0.046270280456543,4.3645915351867695,-0.683274092960358
0.307086614173228,-2.33916917266846,-0.267376238250732,2.35121565313339
0.307692307692308,-0.832701887512207,-2.1881819023132296,-1.4401002648353598
0.308298001211387,-3.07444016876221,-0.159600359344482,-0.623398604679108
0.308903694730466,-0.296217512512207,-4.35567457809448,0.5812962195396421
0.309509388249546,2.74785231170654,0.9636638008117681,-2.97770280389786
0.310115081768625,0.518089128112793,1.67019456253052,2.11650373907089
0.310720775287704,2.35267408905029,-0.0542194999694824,-0.41024186639785803
0.311326468806784,0.264217057800293,2.1132731758117704,1.9272971961021401
0.311932162325863,-1.29015061798096,1.50972825393677,1.06988020391464
0.312537855844942,0.051060319519042996,-2.9569831718444797,-0.9994166710853579
0.313143549364022,-2.7391374343872097,-0.8924763359069819,0.26036360235214195
0.313749242883101,-1.5847380203247101,-1.08407789840698,-1.44249528436661
0.31435493640218,1.51441725311279,-2.4707942070007296,0.38011457891464195
0.31496062992126,1.09528883514404,2.58030198440552,-1.37782975702286
0.315566323440339,1.98384108123779,0.175702375030518,0.09031721563339229
0.316172016959419,1.04020338592529,2.00070725784302,1.56564924688339
0.316777710478498,-0.528534407043457,3.93109300003052,0.222043289852142
0.317383403997577,0.0702204757690429,-2.7007160820007297,0.265153641414642
0.317989097516657,-2.77506272735596,-1.72354811325073,0.147797684383392
0.318594791035736,-3.8600065750122097,-1.72833815231323,-0.302465987491608
0.319200484554815,1.4689118820190399,-2.2121320976257297,-1.68918229608536
0.319806178073895,1.60542799530029,2.3815153633117703,1.26148176641464
0.320411871592974,2.12993727264404,1.34207688674927,-1.5335060265541098
0.321017565112053,2.93466383514404,-0.6338142265319819,1.0674851843833901
0.321623258631133,-1.2374601882934602,5.0304069648742695,0.732182450008392
0.322228952150212,-1.72604417266846,-0.686504656219482,0.147797684383392
0.322834645669291,-2.02063157501221,-2.9210578788757298,0.7609226843833921
0.323440339188371,-4.05639817657471,0.8031974922180181,-3.37048600702286
0.32404603270745,0.41510328826904297,-5.27057203903198,1.08185530157089
0.324651726226529,3.31307692108154,2.34319505081177,-1.79695817499161
0.325257419745609,0.8988972335815429,2.0797429023742704,0.104687332820892
0.325863113264688,2.9059236007690403,-0.669739519500732,0.942944168758392
0.326468806783767,-0.339327864074707,3.2006120429992704,1.12017561407089
0.327074500302847,-2.6026213211059597,-0.360781999969482,1.14652082891464
0.327680193821926,-0.25310716094970703,-1.65169752731323,-1.01618180780411
0.328285887341005,-3.59176438751221,-0.669739519500732,0.7585276648521421
0.328891580860085,-0.444708723449707,-3.26115065231323,-1.89036393671036
0.329497274379164,2.53230055389404,-0.9355866874694819,0.214858231258392
0.330102967898244,0.906082292175293,3.16468675003052,-0.46053727655410803
0.330708661417323,2.1706526046752903,-0.447002703094482,0.291498856258392
0.331314354936402,0.22829176483154298,2.3479850898742702,1.2590867468833902
0.331920048455482,-1.28775559844971,1.14808030471802,1.0411399695396402
0.332525741974561,-0.188441633605957,-2.7869367851257296,0.18372297735214202
0.33313143549364,-2.45173509063721,0.182887433624268,-1.60296159296036
0.33373712901272,-1.4386418289184602,-2.59533522262573,0.5357908484458921
0.334342822531799,1.8497199874877899,-1.88401442184448,0.0184666296958923
0.334948516050878,0.834231706237793,2.6210173164367703,-0.848530440616608
0.335554209569958,2.00300123748779,-0.41826246871948203,0.24838850469589202
0.336159903089037,1.91678053436279,2.8245939765930204,0.0232566687583923
0.336765596608116,-1.1823747390747101,2.6210173164367703,1.8913719031333902
0.337371290127196,0.419893327331543,-2.31032789840698,-0.27133073358535803
0.337976983646275,-2.70800218048096,-0.868526140594482,-0.312046065616608
0.338582677165354,-4.11148362579346,-2.51629957809448,-0.0461988976478577
0.339188370684434,2.2904035812377903,-1.83850905075073,-2.72143571405411
0.339794064203513,1.35634596405029,2.27373948440552,1.7165354773521402
0.340399757722592,1.9574958663940398,1.08580979690552,0.0543919226646423
0.341005451241672,3.0520197921752903,-0.585913835906982,1.1489158484458901
0.341611144760751,-0.861442121887207,5.42798020706177,0.6986521765708921
0.34221683827983,-2.0637419265747097,-1.44333082809448,1.5464890906333901
0.34282253179891,-1.9176457351684602,-2.00137037887573,-0.383896651554108
0.343428225317989,-3.14389573516846,0.0320012031555176,-1.18143815546036
0.344033918837068,0.00315992889404295,-4.09940748825073,-0.28091081171035803
0.344639612356148,3.02327955780029,1.76120530471802,-1.0281569054603599
0.345245305875227,0.992302995300293,1.30854661331177,0.485495438289642
0.345850999394306,2.39817946014404,0.216417707061768,-0.644953780460358
0.346456692913386,0.15404615936279298,2.9946403633117704,2.05183821172714
0.347062386432465,-2.5499308914184597,0.5157951484680181,0.861513504695892
0.347668079951545,-1.1440544265747101,-2.41570875778198,-0.07972917108535771
0.348273773470624,-2.49724046173096,-0.5140632499694819,-0.49885758905410804
0.348879466989703,-0.506979231262207,-3.4599372734069798,-1.13832780389786
0.349485160508783,2.21855299530029,-0.0542194999694824,-0.8173951867103579
0.350090854027862,1.06175856170654,2.41983567581177,0.624406571102142
0.350696547546941,1.91678053436279,-0.5188532890319819,0.648356766414642
0.351302241066021,0.767171159362793,2.77908860549927,0.416039871883392
0.3519079345851,-1.77873460235596,0.946898664093018,1.13694075078964
0.352513628104179,-0.128566145324707,-2.45642408981323,-0.7623097374916079
0.353119321623259,-2.42538987579346,-0.789490496063232,-0.137209639835358
0.353725015142338,-1.44582688751221,-1.77623854293823,-0.6976442101478579
0.354330708661417,1.4784919601440398,-1.63732741012573,-0.0318287804603577
0.354936402180497,0.812676530456543,1.96717698440552,-0.302465987491608
0.355542095699576,2.50595533905029,0.750507062530518,-0.503647628116608
0.356147789218655,1.4353816085815398,1.45224778518677,1.89855696172714
0.356753482737735,-0.526139387512207,3.97420335159302,-0.5228077843666079
0.357359176256814,-0.059110578918457,-2.80849196090698,1.34770246953964
0.357964869775893,-2.2673185867309598,-1.57026686325073,-0.9155909874916079
0.358570563294973,-3.6372697586059597,-1.13197828903198,-1.3969899132728598
0.359176256814052,1.3970612960815398,-3.21804030075073,0.384904617977142
0.359781950333131,1.8377448898315398,3.2341423164367704,-1.1646730187416099
0.360387643852211,1.5934528976440399,0.726556867218018,0.770502762508392
0.36099333737129,3.36576735076904,-0.0805647148132324,-0.09409928827285771
0.361599030890369,-0.7776164382934571,4.75497971878052,0.131032547664642
0.362204724409449,-1.75717942657471,-0.8733161796569819,1.5584641882896402
0.362810417928528,-1.8194499343872101,-2.46600416793823,-0.357551436710358
0.363416111447607,-4.06597825469971,0.0631364570617676,-1.21017838983536
0.364021804966687,0.264217057800293,-4.03234694137573,0.12384748907089199
0.364627498485766,3.1885359054565403,0.8223576484680181,-0.951516280460358
0.365233192004846,1.3371858078002898,2.82938401565552,-0.436587081241608
0.365838885523925,2.15149244842529,-1.38345533981323,1.3453074500083901
0.366444579043004,0.309722428894043,4.16101487503052,-0.925171065616608
0.367050272562084,-3.24688157501221,-0.7751203788757319,2.29852522344589
0.367655966081163,-0.748876203918457,-2.01334547653198,-1.00899674921036
0.368261659600242,-2.52837571563721,0.276293195343018,-0.283305831241608
0.368867353119322,-0.748876203918457,-4.31256422653198,0.272338700008392
0.369473046638401,2.8628132492065403,0.573275617218018,-2.86753190546036
0.37007874015748,0.23787184295654298,1.25825120315552,1.81712629766464
0.37068443367656,2.47721510467529,1.22232591018677,-1.5718263390541098
0.371290127195639,0.189971452331543,1.44985276565552,2.5595823523521397
0.371895820714718,-1.20632493438721,1.7133049140930199,0.382509598445892
0.372501514233798,-0.027975325012207,-3.35455641403198,0.41843489141464196
0.373107207752877,-2.5259806961059597,-1.34753004684448,0.372929520320892
0.373712901271956,-1.46738206329346,0.0391862617492676,-2.8124464562416103
0.374318594791036,0.977932878112793,-3.5629231132507297,2.12608381719589
0.374924288310115,1.90241041717529,2.64257249221802,-2.18974137811661
0.375529981829194,1.7994245773315398,0.144567121124268,0.768107742977142
0.376135675348274,0.992302995300293,2.35038010940552,1.01479475469589
0.376741368867353,-0.37285813751220703,3.42095383987427,0.406459793758392
0.377347062386432,0.192366471862793,-3.0767341484069797,1.5967845007896402
0.377952755905512,-2.39185960235596,-0.200315691375732,-2.33823258905411
0.378558449424591,-4.39649095001221,-2.5641999687194796,0.911808914852142
0.379164142943671,2.08203688201904,-1.82892897262573,-2.2208766320228603
0.37976983646275,1.5168122726440398,1.45224778518677,1.21837141485214
0.380375529981829,1.48088697967529,1.16963548049927,-0.264145674991608
0.380981223500909,2.86041822967529,0.5589055000305181,0.416039871883392
0.381586917019988,-0.983588117980957,3.67722092971802,2.2003294226646397
0.382192610539067,-1.5248625320434601,0.357723859405518,-1.3490895226478599
0.382798304058147,-2.23857835235596,-4.049112078094479,1.9656175086021401
0.383403997577226,-3.48638352813721,1.57199876174927,-3.07350358514786
0.384009691096305,-0.392018293762207,-4.28621901168823,1.4003928992271402
0.384615384615385,2.82688795623779,1.02832932815552,-1.2461036828041099
0.385221078134464,1.0713386398315399,2.38391038284302,-1.5454811242103599
0.385826771653543,2.3670442062377903,-1.86245924606323,2.57155745000839
0.386432465172623,0.906082292175293,5.40403001174927,-0.7000392296791079
0.387038158691702,-3.30915208282471,-1.21101393356323,3.55591047735214
0.387643852210781,-0.17167649688720701,-1.55829176559448,-2.51785905389786
0.388249545729861,-2.69123704376221,-0.823020769500732,-0.31923112421035804
0.38885523924894,-0.672235578918457,-3.06475905075073,-0.7191993859291079
0.389460932768019,2.96819410858154,0.381674054718018,-1.53111100702286
0.390066626287099,0.427078385925293,1.97436204299927,1.09862043828964
0.390672319806178,2.4963752609252903,-0.365572039031982,0.281918778133392
0.391278013325257,0.544434342956543,2.1659636054992704,1.0507200476646401
0.391883706844337,-1.9224357742309601,2.60904221878052,-0.273725753116608
0.392489400363416,0.17320631561279298,-3.89343580856323,1.23513655157089
0.393095093882495,-2.19786302032471,-0.447002703094482,-1.33471940546036
0.393700787401575,-1.8625602859497101,-1.62535231246948,-1.00899674921036
0.394306480920654,1.59105787811279,-1.43614576950073,-0.386291671085358
0.394912174439733,0.827046647644043,1.73965012893677,-0.874875655460358
0.395517867958813,2.71432203826904,0.180492414093018,-0.25935563592910804
0.396123561477892,0.9994880538940429,2.73358323440552,1.5321189734458902
0.396729254996972,-0.490214094543457,3.90714280471802,0.6411717078208921
0.397334948516051,0.11093580780029301,-3.4527522148132297,0.511840653133392
0.39794064203513,-3.0648600906372097,-1.33315992965698,-1.64607194452286
0.39854633555421,-3.6636149734497097,-1.54152662887573,0.16935286016464202
0.399152029073289,1.72038893280029,-2.08040602340698,-1.01857682733536
0.399757722592368,2.10598707733154,2.40307053909302,-0.254565596866608
0.400363416111448,1.8209797531127898,-0.0661945976257324,0.207673172664642
0.400969109630527,3.06399488983154,0.6403361640930181,0.265153641414642
0.401574803149606,-0.904552473449707,4.956161359405519,1.92969221563339
0.402180496668686,-1.77394456329346,0.0870866523742676,-0.553943038272858
0.402786190187765,-1.99189134063721,-3.97965651168823,1.45068830938339
0.403391883706844,-3.09599534454346,0.17809739456176799,-2.80047135858536
0.403997577225924,0.015135026550293,-3.5198127616882298,-0.0150636437416077
0.404603270745003,2.77659254608154,1.30136155471802,0.26994368047714196
0.405208964264082,1.33000074920654,1.70372483596802,-0.803025069522858
0.405814657783162,2.10838209686279,-1.28525953903198,1.39320784063339
0.406420351302241,0.338462663269043,4.61367356643677,-0.38150163202285803
0.40702604482132,-3.15108079376221,-1.06970778121948,1.60396955938339
0.4076317383404,-0.0974308914184571,-1.70917799606323,-1.13353776483536
0.408237431859479,-2.71997727813721,-0.427842546844482,0.48789045782089197
0.408843125378558,-0.787196516418457,-3.23480543746948,-1.48321061639786
0.409448818897638,2.31914381561279,-0.0470344413757324,-1.9693995812416099
0.410054512416717,0.903687272644043,1.21514085159302,1.31656721563339
0.410660205935796,2.66402662811279,0.6762614570617681,-0.455747237491608
0.411265899454876,-0.004025129699707051,2.6018571601867704,1.4818235632896402
0.411871592973955,-1.18955979766846,1.77557542190552,0.480705399227142
0.412477286493035,0.015135026550293,-3.7353645195007297,-0.33839128046035805
0.413082980012114,-2.47808030548096,-0.8948713554382319,-0.0294337609291077
0.413688673531193,-1.6949089187622102,-0.9379817070007319,-0.407846846866608
0.414294367050273,1.3419758468627898,-1.74510328903198,-0.197085128116608
0.414900060569352,1.42101149139404,2.1755436836242703,-0.994626632022858
0.415505754088431,2.3335139328002903,-0.432632585906982,0.281918778133392
0.416111447607511,1.29168043670654,2.59706712112427,0.26036360235214195
0.41671714112659,-1.2039299148559601,3.61495042190552,1.4818235632896402
0.417322834645669,0.21871168670654298,-2.0684309257507296,-0.103679366397858
0.417928528164749,-2.29605882110596,-1.63253737106323,-1.0329469445228598
0.418534221683828,-3.8001310867309597,-1.88161940231323,0.0591819617271423
0.419139915202907,1.7898444992065399,-2.27679762496948,-1.4041749718666099
0.419745608721987,1.69404371795654,2.3479850898742702,0.43759504766464197
0.420351302241066,1.85211500701904,1.17203050003052,-0.149184737491608
0.420956995760145,2.91789869842529,-0.0446394218444824,0.0448118445396423
0.421562689279225,-0.461473860168457,4.48194749221802,0.904623856258392
0.422168382798304,-1.7643644851684601,-0.348806902313232,1.48421858282089
0.422774076317383,-1.8026847976684601,-2.3941535820007296,-0.11565446405410801
0.423379769836463,-3.5773942703247097,-0.9355866874694819,-1.39938493280411
0.423985463355542,0.297747331237793,-3.1701399101257297,-0.6186085656166079
0.424591156874621,2.56104078826904,1.19837571487427,-0.867690596866608
0.425196850393701,1.15995436248779,1.62229417190552,-0.16594987421035798
0.42580254391278,2.74066725311279,-0.8373908866882319,0.8806736609458921
0.426408237431859,-0.044740461730957,4.08437425003052,0.281918778133392
0.427013930950939,-2.7559025711059597,0.228392804718018,2.2697849890708897
0.427619624470018,-0.638705305480957,-2.71987623825073,-1.3371144249916098
0.428225317989098,-2.42059983673096,-0.229055925750732,-1.2005983117103598
0.428831011508177,-1.10812913360596,-3.8455354179382297,0.6579368445396421
0.429436705027256,2.81012281951904,0.458314679718018,-2.15142106561661
0.430042398546336,1.04738844451904,1.42590257034302,1.62073469610214
0.430648092065415,1.90241041717529,-0.0685896171569824,-0.8964308312416079
0.431253785584494,0.934822526550293,2.49647630081177,1.63749983282089
0.431859479103574,-1.4051115554809601,1.37560716018677,1.4602683875083902
0.432465172622653,-0.12138108673095699,-1.95826002731323,-1.17185807733536
0.433070866141732,-1.99668137969971,-1.21101393356323,0.0304417273521423
0.433676559660812,-1.74759934844971,-1.85287916793823,-1.37303971796036
0.434282253179891,1.38748121795654,-2.0588508476257297,0.0759470984458923
0.43488794669897,1.19348463592529,2.3216398750305203,-0.862900557804108
0.43549364021805,1.96228590545654,0.271503156280518,1.0842503211021401
0.436099333737129,1.1312141281127899,2.0965080390930204,0.526210770320892
0.436705027256208,-0.559669660949707,3.33473313674927,0.150192703914642
0.437310720775288,0.486953874206543,-2.50911451950073,0.6555418250083921
0.437916414294367,-2.46850022735596,-0.7775153984069819,-1.2556837609291098
0.438522107813446,-3.8767717117309597,-2.0780110038757296,0.562136063289642
0.439127801332526,1.4090363937377899,-1.98700026168823,-1.2389186242103598
0.439733494851605,1.3371858078002898,1.73965012893677,0.08552717657089229
0.440339188370684,2.27603346405029,0.951688703155518,-0.216245284366608
0.440944881889764,2.56104078826904,0.367303937530518,0.6196165320396421
0.441550575408843,-0.550089582824707,4.802880109405519,0.392089676570892
0.442156268927922,-1.14884446563721,-0.348806902313232,0.626801590633392
0.442761962447002,-2.17630784454346,-2.9929084648132296,0.454360184383392
0.443367655966081,-3.50314866485596,0.285873273468018,-2.08915055780411
0.44397334948516,-0.813541731262207,-4.71492750778198,0.643566727352142
0.44457904300424,3.20051100311279,2.4078605781555202,-2.15142106561661
0.445184736523319,1.4401716476440398,1.51691331253052,1.09143537969589
0.445790430042399,2.31914381561279,-0.188340593719482,0.681887039852142
0.446396123561478,-0.566854719543457,2.8150138984680204,0.813613114070892
0.447001817080557,-2.34156419219971,-0.0063191093444824094,0.689072098445892
0.447607510599637,-0.724926008605957,-1.31399977340698,0.152587723445892
0.448213204118716,-3.17982102813721,-0.152415300750732,0.25796858282089197
0.448818897637795,-0.485424055480957,-3.4551472343444796,-2.5561793663978603
0.449424591156875,2.2041828781127903,-1.32357985153198,-0.146789717960358
0.450030284675954,1.60542799530029,2.6377824531555203,0.890253739070892
0.450635978195033,2.10598707733154,-0.200315691375732,0.827983231258392
0.451241671714113,0.125305924987793,3.72033128128052,1.01718977422714
0.451847365233192,-1.4122966140747102,0.192467511749268,1.00281965703964
0.452453058752271,0.429473405456543,-2.8971076835632297,-1.6053566124916099
0.453058752271351,-2.8061979812622098,-0.29851149215698203,0.0424168250083923
0.45366444579043,-1.29015061798096,-1.81455885543823,-0.829370284366608
0.454270139309509,1.62219313201904,-1.69001783981323,-0.24977555780410798
0.454875832828589,0.441448503112793,1.90251145706177,-0.22582536249160798
0.455481526347668,2.57780592498779,0.410414289093018,-0.747939620304108
0.456087219866747,1.6150080734252898,1.84263596878052,2.3703758093833898
0.456692913385827,-0.396808332824707,3.9023527656555204,0.531000809383392
0.457298606904906,-0.0998259109497071,-2.6576057304382297,-0.0581739953041077
0.457904300423985,-3.00258958282471,-1.50320631637573,0.27712873907089197
0.458509993943065,-3.39058274688721,-1.27088942184448,-1.38261979608536
0.459115687462144,1.38508619842529,-2.63844557418823,-0.831765303897858
0.459721380981224,1.99342115936279,2.3647502265930203,1.2758518836021402
0.460327074500303,1.92157057342529,1.06664964065552,-0.494067549991608
0.460932768019382,2.74545729217529,0.331378644561768,-0.0246437218666077
0.461538461538462,-0.25310716094970703,4.18017503128052,1.7644358679771401
0.462144155057541,-2.03021165313721,-0.494903093719482,0.571716141414642
0.46274984857662,-2.44215501251221,-2.82525709762573,0.842353348445892
0.4633555420957,-3.35944749298096,0.930133527374268,-2.85076676874161
0.463961235614779,0.649815202331543,-4.07785231246948,0.6962571570396421
0.464566929133858,3.16458571014404,0.628361066436768,-0.9587013390541079
0.465172622652938,1.1910896163940399,2.13722337112427,-1.1862281945228599
0.465778316172017,2.24968824920654,-1.10802809371948,2.6793333289146397
0.466384009691096,-0.154911360168457,5.408820050811769,-1.12156266717911
0.466989703210176,-2.93073899688721,-1.71157301559448,2.44222639532089
0.467595396729255,0.209131608581543,-1.71396803512573,-1.5239259484291099
0.468201090248334,-3.5438639968872097,-0.264981218719482,0.157377762508392
0.468806783767414,-0.775221418762207,-3.1294245780944796,-1.6867872765541099
0.469412477286493,2.92747877655029,0.0727165351867676,-1.32513932733536
0.470018170805572,0.546829362487793,1.32531175003052,2.3105003211021398
0.470623864324652,2.00539625701904,0.8031974922180181,-1.7945631554603598
0.471229557843731,0.08938063201904291,1.73486008987427,1.8530515906333902
0.47183525136281,-0.887787336730957,1.88095628128052,0.7944529578208921
0.47244094488189,0.051060319519042996,-2.8108869804382297,-0.07733415155410771
0.473046638400969,-2.93313401641846,-0.990672136688232,0.25557356328964204
0.473652331920048,-1.57755296173096,-1.12000319137573,-1.77540299921036
0.474258025439128,1.1575593429565398,-3.23720045700073,0.947734207820892
0.474863718958207,1.37311110076904,3.53112473831177,-1.9191041710853598
0.475469412477286,1.6581184249877898,-0.121280046844482,1.86981672735214
0.476075105996366,1.30365553436279,1.85221604690552,0.806428055477142
0.476680799515445,-0.059110578918457,3.8951677070617703,0.186117996883392
0.477286493034525,-0.533324446105957,-3.33060621871948,0.8207981726646421
0.477892186553604,-2.1140373367309597,-0.0158991874694824,-1.96700456171036
0.478497880072683,-4.51624192657471,-2.40612867965698,1.83389143438339
0.479103573591763,1.77547438201904,-1.57266188278198,-3.34653581171036
0.479709267110842,1.22461988983154,1.05227952346802,2.00393782110214
0.480314960629921,1.7132038742065399,1.67737962112427,-0.8772706749916079
0.480920654149001,3.2053010421752903,-0.0733796562194824,0.13342756719589202
0.48152634766808,-0.348907942199707,4.51308274612427,1.80515120000839
0.482132041187159,-1.8314250320434602,0.118221906280518,0.217253250789642
0.482737734706239,-2.2697136062622096,-3.74015455856323,0.981264481258392
0.483343428225318,-3.6109245437622097,0.8750480781555181,-2.65198014764786
0.483949121744397,-0.466263899230957,-4.63828688278198,1.7476707312583901
0.484554815263477,3.09273512420654,1.80192063674927,-2.2472218468666103
0.485160508782556,0.889317155456543,1.81389573440552,0.444780106258392
0.485766202301635,3.34421217498779,-0.672134539031982,0.8375633093833921
0.486371895820715,0.194761491394043,3.54070481643677,0.5597410437583921
0.486977589339794,-2.94031907501221,0.6642863594055181,1.42434309453964
0.487583282858873,-0.571644758605957,-2.02053053512573,-0.563523116397858
0.488188976377953,-2.88762864532471,-0.6601594413757319,0.202883133602142
0.488794669897032,-0.696185774230957,-2.53306471481323,-2.03167008905411
0.489400363416111,2.67839674530029,-0.851761003875732,-0.5826832726478579
0.490006056935191,1.12402906951904,2.28331956253052,0.983659500789642
0.49061175045427,1.7946345382690398,0.118221906280518,0.0448118445396423
0.491217443973349,0.757591081237793,2.46055100784302,1.2902220007896401
0.491823137492429,-1.5583928054809602,1.14089524612427,1.2207664343833902
0.492428831011508,-0.154911360168457,-2.85160231246948,-1.0329469445228598
0.493034524530587,-2.09966721954346,-0.104514910125732,-0.38150163202285803
0.493640218049667,-1.89369553985596,-1.54152662887573,-0.395871749210358
0.494245911568746,1.98863112030029,-2.57857008590698,-0.316836104679108
0.494851605087826,0.613889909362793,2.01986741409302,-0.5826832726478579
0.495457298606905,1.4569367843627898,0.625966046905518,-0.108469405460358
0.496062992125984,2.12514723358154,2.0821379219055203,1.2926170203208902
0.496668685645064,-0.595594953918457,4.07718919143677,0.7561326453208921
0.497274379164143,0.055850358581543,-2.8563923515319796,0.0496018836021423
0.497880072683222,-2.57388108673096,-1.8193488945007301,-0.496462569522858
0.498485766202302,-3.63487473907471,-1.05533766403198,-0.553943038272858
0.499091459721381,1.62219313201904,-2.5139045585632296,-0.695249190616608
0.49969715324046,0.989907975769043,1.89532639846802,0.0759470984458923
0.50030284675954,1.69404371795654,1.34207688674927,-1.01139176874161
0.500908540278619,2.8795783859252904,-0.0566145195007324,0.507050614070892
0.501514233797698,-0.447103742980957,4.56098313674927,1.09862043828964
0.502119927316778,-1.42427171173096,0.0846916328430176,0.583691239070892
0.502725620835857,-2.22899827423096,-3.32102614059448,0.200488114070892
0.503331314354936,-3.48159348907471,0.951688703155518,-1.46644547967911
0.503937007874016,-0.226761946105957,-4.56643629684448,1.25669172735214
0.504542701393095,3.03046461639404,1.45943284378052,-2.66874528436661
0.505148394912174,1.52399733123779,1.62947923049927,0.947734207820892
0.505754088431254,2.15867750701904,-0.6577644218444819,1.2423216101646402
0.506359781950333,0.15404615936279298,4.61846360549927,-0.302465987491608
0.506965475469413,-2.91397386016846,-1.21101393356323,2.63143293828964
0.507571168988492,0.0845905929565429,-1.31160475387573,-2.71425065546036
0.508176862507571,-2.95468919219971,-1.32118483200073,1.55127912969589
0.50878255602665,-1.18716477813721,-2.14986158981323,-2.1705812218666103
0.50938824954573,2.5993611007690403,-1.23735914840698,-0.307256026554108
0.509993943064809,1.31323561248779,2.09171800003052,0.942944168758392
0.510599636583889,1.60782301483154,0.5972258125305181,-0.685669112491608
0.511205330102968,0.771961198425293,1.75881028518677,2.01112287969589
0.511811023622047,-0.938082746887207,2.24978928909302,0.18851301641464202
0.512416717141127,-0.31298264923095703,-3.0839192070007297,-0.0150636437416077
0.513022410660206,-1.9823112625122101,-0.691294695281982,-0.8006300499916079
0.513628104179285,-1.82903001251221,-1.6397224296569801,-0.019853682804107698
0.514233797698365,1.63416822967529,-1.69720289840698,-0.707224288272858
0.514839491217444,0.774356217956543,1.67977464065552,-0.0366188195228577
0.515445184736523,2.30477369842529,0.8439128242492681,-0.36952653436660804
0.516050878255603,1.95989088592529,1.15287034378052,2.22427961797714
0.516656571774682,-0.698580793762207,4.63283372268677,-0.712014327335358
0.517262265293761,-0.624335188293457,-2.4851643241882297,0.631591629695892
0.517867958812841,-2.1571476882934597,-2.3678083671569796,0.202883133602142
0.51847365233192,-3.7570207351684597,-0.5595686210632319,-1.86401872186661
0.519079345850999,0.8390217453002929,-2.25284742965698,-0.32162614374160803
0.519685039370079,2.15867750701904,1.94322678909302,0.942944168758392
0.520290732889158,2.1610725265502904,0.970848859405518,-0.7766798546791079
0.520896426408237,2.81012281951904,0.0487663398742676,-0.24019547967910798
0.521502119927317,-0.753666242980957,5.09746751174927,2.17158918828964
0.522107813446396,-2.05655686798096,-0.6529743827819819,2.01112287969589
0.522713506965475,-1.55599778594971,-3.1605598320007298,-0.44137712030410803
0.523319200484555,-3.85761155548096,0.793617414093018,-2.1370509484291103
0.523924894003634,0.08698561248779291,-4.08743239059448,0.301078934383392
0.524530587522714,3.1717707687377903,1.16724046096802,-0.32881120233535804
0.525136281041793,0.470188737487793,1.90730149612427,0.552555985164642
0.525741974560872,2.7622224288940402,-0.8373908866882319,-0.158764815616608
0.526347668079951,0.189971452331543,3.7993669258117704,0.38969465703964196
0.526953361599031,-2.8684684890747096,0.0367912422180176,1.4482932898521401
0.52755905511811,-0.150121321105957,-2.65521071090698,-0.5563380578041079
0.52816474863719,-2.7391374343872097,-0.360781999969482,-0.163554854679108
0.528770442156269,-0.990773176574707,-2.49953444137573,-1.08324235467911
0.529376135675348,2.4796101242065403,-0.605073992156982,-1.5766163781166098
0.529981829194428,0.985117936706543,2.17075364456177,0.8782786414146421
0.530587522713507,2.08203688201904,-0.0997248710632324,0.384904617977142
0.531193216232586,0.609099870300293,2.5874870429992702,0.33700422735214197
0.531798909751666,-1.2159050125122102,1.74683518753052,1.63270979375839
0.532404603270745,-0.250712141418457,-2.9234528984069796,-1.17664811639786
0.533010296789824,-2.18109788360596,-0.442212664031982,-0.7000392296791079
0.533615990308904,-2.28168870391846,-1.74270826950073,0.171747879695892
0.534221683827983,1.62698317108154,-2.22650221481323,-1.51434587030411
0.534827377347062,1.80660963592529,2.4916862617492703,-0.5826832726478579
0.535433070866142,1.55752760467529,-0.284141374969482,1.30938215703964
0.536038764385221,1.31802565155029,1.97675706253052,0.09271223516464229
0.5366444579043,-0.320167707824707,3.89037766799927,1.1105955359458901
0.53725015142338,0.156441178894043,-2.38936354293823,0.0807371375083923
0.537855844942459,-2.3104289382934597,-1.23256910934448,-0.889245772647858
0.538461538461538,-3.93904221954346,-1.88401442184448,0.930969071102142
0.539067231980618,1.46412184295654,-2.03011061325073,-1.8975489953041098
0.539672925499697,1.44735670623779,1.68935471878052,0.8591184851646421
0.540278619018776,1.73236403045654,1.58397385940552,-1.15988297967911
0.540884312537856,3.0089094406127903,-0.6625544609069819,0.11187239141464199
0.541490006056935,-0.24113206329345702,5.31062425003052,0.9956345984458921
0.542095699576015,-2.1667277664184597,0.0727165351867676,1.18484114141464
0.542701393095094,-1.74520432891846,-3.68746412887573,0.12145246953964199
0.543307086614173,-3.33070725860596,1.54086350784302,-2.63042497186661
0.543912780133253,-0.454288801574707,-5.05502028121948,2.00393782110214
0.544518473652332,3.2987068038940404,1.27022630081177,-1.9574244835853598
0.545124167171411,1.03541334686279,1.91448655471802,0.43999006719589195
0.545729860690491,2.65444654998779,-1.38585035934448,0.942944168758392
0.54633555420957,0.11572584686279301,4.50110764846802,-0.786259932804108
0.546941247728649,-3.30915208282471,-0.5739387382507319,3.0385862586021397
0.547546941247729,0.031900163269043,-1.73073317184448,-1.7730079796791098
0.548152634766808,-2.9451091140747097,-0.8421809257507319,0.5405808875083921
0.548758328285887,-0.475843977355957,-2.36301832809448,-1.5598512413978598
0.549364021804967,2.79096266326904,-0.672134539031982,-1.4999757531166098
0.549969715324046,0.707295671081543,1.98154710159302,1.6063645789146401
0.550575408843125,2.04371656951904,0.0176310859680176,-0.19948014764785799
0.551181102362205,0.16841627655029298,2.11087815628052,1.4219480750083902
0.551786795881284,-1.2805705398559601,2.17075364456177,1.0411399695396402
0.552392489400363,0.0678254562377929,-3.17732496871948,-0.865295577335358
0.552998182919443,-2.19307298126221,-0.6984797538757319,-0.405451827335358
0.553603876438522,-2.02542161407471,-1.74989332809448,-0.12044450311660801
0.554209569957601,1.98623610076904,-2.12112135543823,-0.5180177453041079
0.554815263476681,0.867761979675293,2.06776780471802,-0.5395729210853579
0.55542095699576,1.9574958663940398,0.465499738311768,0.483100418758392
0.556026650514839,1.44256666717529,1.45464280471802,1.7261155554771401
0.556632344033919,-0.621940168762207,4.211310285186769,0.0783421179771423
0.557238037552998,-0.07348069610595709,-2.41570875778198,0.207673172664642
0.557843731072078,-2.55472093048096,-1.66606764450073,-0.7383595421791079
0.558449424591157,-3.2253263992309598,-1.64451246871948,0.286708817195892
0.559055118110236,1.2174348312377898,-2.08998610153198,-1.4688404992103599
0.559660811629316,1.5814777999877898,1.53846848831177,0.593271317195892
0.560266505148395,1.96228590545654,0.930133527374268,-0.7982350304603579
0.560872198667474,2.9226887374877903,0.554115460968018,-0.29049088983535803
0.561477892186554,-0.5572746414184571,4.54182298049927,2.1500340125083897
0.562083585705633,-1.6565886062622102,-0.490113054656982,0.207673172664642
0.562689279224712,-1.51288743438721,-3.0096736015319796,0.207673172664642
0.563294972743792,-4.04921311798096,0.288268292999268,-1.12395768671036
0.563900666262871,-0.09024583282470709,-3.69704420700073,-0.374316573429108
0.56450635978195,3.0424397140502903,1.55762864456177,-1.5382960656166098
0.56511205330103,1.19827467498779,0.7816423164367681,0.966894364070892
0.565717746820109,2.57780592498779,-0.5595686210632319,0.665121903133392
0.566323440339188,-0.07108567657470709,3.84726731643677,0.032836746883392304
0.566929133858268,-2.48766038360596,0.388859113311768,1.39799787969589
0.567534827377347,-0.559669660949707,-2.3845735038757296,0.382509598445892
0.568140520896426,-2.41580979766846,-0.906846453094482,-0.743149581241608
0.568746214415506,-0.914132551574707,-2.7605915702819797,-1.5598512413978598
0.569351907934585,2.00779127655029,-0.526038347625732,-0.654533858585358
0.569957601453664,1.63895826873779,2.25457932815552,0.5812962195396421
0.570563294972744,2.18502272186279,-0.327251726531982,0.34897932500839196
0.571168988491823,0.491743913269043,2.8748893867492704,0.5980613562583921
0.571774682010902,-1.22788011016846,1.63905930862427,1.80515120000839
0.572380375529982,-0.332142805480957,-2.6216804374694798,-1.40656999139786
0.572986069049061,-2.12601243438721,-1.33315992965698,-0.192295089054108
0.57359176256814,-1.63742845001221,-1.02180739059448,-0.8365553429603579
0.57419745608722,1.0593635421752898,-1.86724928512573,-0.6018434288978579
0.574803149606299,1.44975172576904,2.07734788284302,-0.6162135460853579
0.575408843125379,1.7994245773315398,0.120616925811768,0.262758621883392
0.576014536644458,1.43777662811279,1.48577805862427,1.31177717657089
0.576620230163537,-0.605175032043457,4.77892991409302,0.16935286016464202
0.577225923682617,-0.495004133605957,-2.74622145309448,1.52253889532089
0.577831617201696,-2.17630784454346,-1.82892897262573,-1.4401002648353598
0.578437310720775,-4.473131575012211,-1.01462233200073,-1.08563737421036
0.579043004239855,1.10007887420654,-2.8468122734069796,-0.345576339054108
0.579648697758934,2.6328913742065403,2.18991380081177,-0.09170426874160771
0.580254391278013,1.5551325851440398,1.00677415237427,0.18851301641464202
0.580860084797093,2.86760328826904,-0.0781696952819824,-0.19469010858535798
0.581465778316172,-0.212391828918457,4.64001878128052,1.88179182500839
0.582071471835251,-2.12840745391846,-0.276956316375732,1.46266340703964
0.582677165354331,-1.5320475906372102,-2.5570149101257296,-0.553943038272858
0.58328285887341,-3.5678141921997097,-0.236240984344482,0.09510725469589229
0.583888552392489,0.015135026550293,-3.2395954765319797,-1.1024025109291098
0.584494245911569,2.93466383514404,1.18879563674927,-0.8413453820228579
0.585099939430648,1.0761286788940398,1.66540452346802,0.547765946102142
0.585705632949727,2.95621901092529,-1.20622389450073,0.33700422735214197
0.586311326468807,-0.0662956375122071,3.6652458320617702,0.43759504766464197
0.586917019987886,-2.53795579376221,0.7984074531555181,1.8362864539146402
0.587522713506965,-0.389623274230957,-2.20973707809448,-0.592263350772858
0.588128407026045,-3.21574632110596,-1.07210280075073,-0.9610963585853579
0.588734100545124,-0.679420637512207,-2.66000074996948,-2.23285172967911
0.589339794064203,2.5634358078002903,-0.7990705741882319,0.0184666296958923
0.589945487583283,0.702505632019043,2.4054655586242704,1.1944212195396402
0.590551181102362,2.07006178436279,0.202047589874268,-0.867690596866608
0.591156874621442,0.8198615890502929,1.8929313789367699,1.91053205938339
0.591762568140521,-1.3835563796997101,2.01268235549927,0.507050614070892
0.5923682616596,0.058245378112793,-2.68634596481323,-1.5718263390541098
0.59297395517868,-2.14277757110596,-0.7607502616882319,0.190908035945892
0.593579648697759,-2.1739128250122097,-1.46967604293823,-0.0509889367103577
0.594185342216838,1.71080885467529,-2.0396906913757302,-0.803025069522858
0.594791035735918,0.836626725769043,1.99112717971802,0.104687332820892
0.595396729254997,1.6916486984252899,0.566090558624268,-0.364736495304108
0.596002422774076,1.97665602264404,1.34207688674927,1.5680442664146401
0.596608116293156,-0.655470442199707,4.17298997268677,1.02197981328964
0.597213809812235,0.23308180389404298,-1.65409254684448,-0.333601241397858
0.597819503331314,-2.67207688751221,-2.81807203903198,0.363349442195892
0.598425196850394,-3.73786057891846,-0.569148699188232,-1.7466627648353599
0.599030890369473,1.46412184295654,-2.66239576950073,-1.12395768671036
0.599636583888552,1.74433912811279,1.60073899612427,1.3620725867271402
0.600242277407632,1.72517897186279,2.0629777656555204,-1.3323243859291098
0.600847970926711,2.5466706710815403,-1.06731276168823,0.806428055477142
0.60145366444579,-0.301007551574707,5.09986253128052,1.32614729375839
0.60205935796487,-2.03260667266846,-0.111699968719482,1.4339231726646402
0.602665051483949,-1.84819016876221,-3.55094801559448,-0.623398604679108
0.603270745003028,-3.8432414382934597,0.8582829414367681,-2.05562028436661
0.603876438522108,-0.24113206329345702,-4.22155348434448,1.9057420203208901
0.604482132041187,2.73348219451904,0.9397136054992681,-2.4005030968666103
0.605087825560267,0.894107194519043,2.29768967971802,-0.0150636437416077
0.605693519079346,2.7023469406127902,-1.60140211715698,2.3464256140708897
0.606299212598425,0.24266188201904298,4.00294358596802,-0.7599147179603579
0.606904906117504,-3.35944749298096,0.5565104804992681,1.28303694219589
0.607510599636584,-0.250712141418457,-2.1019611991882297,-0.49885758905410804
0.608116293155663,-2.04697678985596,-1.42896071090698,0.272338700008392
0.608721986674743,-1.2254850906372101,-2.72227125778198,-2.09154557733536
0.609327680193822,2.60415113983154,-0.360781999969482,-0.745544600772858
0.609933373712901,0.776751237487793,1.20077073440552,2.63861799688339
0.610539067231981,2.27124342498779,0.6163859687805181,-1.5335060265541098
0.61114476075106,0.309722428894043,1.70372483596802,2.4063011023521397
0.611750454270139,-1.68532884063721,1.85940110549927,1.39799787969589
0.612356147789219,0.561199479675293,-2.38936354293823,-1.6053566124916099
0.612961841308298,-1.7978947586059602,-0.8158357109069819,0.032836746883392304
0.613567534827377,-2.49724046173096,-1.43135573043823,-1.01139176874161
0.614173228346457,1.30365553436279,-2.90189772262573,-0.12283952264785801
0.614778921865536,1.44256666717529,2.5443766914367703,-0.683274092960358
0.615384615384615,1.70362379608154,0.202047589874268,1.01718977422714
0.615990308903695,1.8808552413940398,1.13610520706177,1.09143537969589
0.616596002422774,-0.815936750793457,4.15622483596802,0.274733719539642
0.617201695941853,0.594729753112793,-1.83371901168823,-0.242590499210358
0.617807389460933,-1.9942863601684602,-1.50799635543823,-0.151579757022858
0.618413082980012,-4.140223860168461,-0.983487078094482,-0.46053727655410803
0.619018776499091,1.14797926483154,-2.90189772262573,-2.12268083124161
0.619624470018171,1.86888014373779,1.23190598831177,1.07227522344589
0.62023016353725,2.4604499679565404,1.89532639846802,-0.501252608585358
0.620835857056329,2.58499098358154,-0.0254792655944824,0.035231766414642304
0.621441550575409,-0.588409895324707,4.44841721878052,2.00393782110214
0.622047244094488,-1.6565886062622102,-0.8014655937194819,1.3668626257896401
0.622652937613568,-1.79549973907471,-2.48276930465698,-1.27963395624161
0.623258631132647,-3.7402555984497097,0.0391862617492676,-0.33839128046035805
0.623864324651726,-0.277057356262207,-3.45035719528198,-1.0449220421791099
0.624470018170806,2.57541090545654,0.7552971015930181,-0.508437667179108
0.625075711689885,1.24138502655029,1.89053635940552,0.492680496883392
0.625681405208964,3.0352546554565403,-0.566753679656982,-0.256960616397858
0.626287098728044,-0.133356184387207,3.15271165237427,1.25669172735214
0.626892792247123,-2.78703782501221,0.9181584297180181,1.00760969610214
0.627498485766202,-0.789591535949707,-2.84920729293823,0.11666243047714199
0.628104179285282,-2.59064622344971,-0.629024187469482,-1.3419044640541098
0.628709872804361,-0.511769270324707,-2.39654860153198,-0.6784840538978579
0.62931556632344,2.0844319015502903,-0.435027605438232,-0.8820607140541079
0.62992125984252,1.0593635421752898,1.20795579299927,0.667516922664642
0.630526953361599,1.88325026092529,0.317008527374268,0.34897932500839196
0.631132646880678,0.137281022644043,2.29050462112427,1.45787336797714
0.631738340399758,-1.10333909454346,1.91209153518677,0.986054520320892
0.632344033918837,0.00555494842529295,-1.74510328903198,-1.23173356561661
0.632949727437916,-2.0014714187622102,-1.76186842575073,0.195698075008392
0.633555420956996,-1.76675950469971,-1.01701735153198,-0.752729659366608
0.634161114476075,0.29535231170654297,-2.2121320976257297,-0.30007096796035804
0.634766807995154,1.24138502655029,1.88095628128052,-1.4640504601478599
0.635372501514234,2.1035920578002902,-0.0973298515319824,0.9405491492271421
0.635978195033313,1.76589430389404,1.73486008987427,1.5153538367271402
0.636583888552392,-0.13575120391845702,4.43883714065552,0.8543284461021421
0.637189582071472,-0.698580793762207,-2.5474348320007296,0.547765946102142
0.637795275590551,-1.85537522735596,-1.92951979293823,-1.71552751092911
0.638400969109631,-4.08992845001221,-1.15113844528198,-0.312046065616608
0.63900666262871,0.621074967956543,-1.47686110153198,-1.35627458124161
0.639612356147789,2.29519362030029,1.00916917190552,0.593271317195892
0.640218049666869,1.97665602264404,1.15287034378052,-1.79216813592911
0.640823743185948,2.72869215545654,-0.221870867156982,0.6770970007896421
0.641429436705027,-0.301007551574707,4.70707932815552,2.73441877813339
0.642035130224107,-2.15954270782471,0.585250714874268,0.511840653133392
0.642640823743186,-1.7164640945434602,-3.45754225387573,0.0376267859458923
0.643246517262265,-3.35226243438721,0.422389386749268,-1.8065382531166099
0.643852210781345,-0.530929426574707,-3.9916316093444797,0.8998338171958921
0.644457904300424,3.1023152023315403,0.910973371124268,-1.01857682733536
0.645063597819503,1.22461988983154,2.10369309768677,0.104687332820892
0.645669291338583,2.77419752655029,-1.39064039840698,1.4171580359458902
0.646274984857662,0.273797135925293,3.59818528518677,-0.455747237491608
0.646880678376741,-2.94031907501221,1.16963548049927,0.8184031531333921
0.647486371895821,-0.49260911407470703,-2.2720075859069797,-0.688064132022858
0.6480920654149,-2.4301799148559597,-1.59421705856323,0.0400218054771423
0.648697758933979,-0.930897688293457,-1.45530592575073,-1.91191911249161
0.649303452453059,1.81379469451904,-1.56308180465698,-0.019853682804107698
0.649909145972138,1.35155592498779,1.80431565628052,0.217253250789642
0.650514839491217,1.7778694015502898,0.705001691436768,-0.45095719842910803
0.651120533010297,0.18757643280029299,1.2941764961242699,2.20272444219589
0.651726226529376,-0.703370832824707,2.8605192695617703,0.432805008602142
0.652331920048455,-0.20041673126220702,-2.68634596481323,-0.23540544061660798
0.652937613567535,-2.05655686798096,-1.03138746871948,-0.7191993859291079
0.653543307086614,-2.11643235626221,-1.61337721481323,-0.47011735467910803
0.654149000605693,1.3323957687377899,-2.13309645309448,-0.625793624210358
0.654754694124773,1.48328199920654,2.73597825393677,-0.745544600772858
0.655360387643852,1.5168122726440398,-0.281746355438232,0.8567234656333921
0.655966081162932,2.08682692108154,0.887023175811768,0.7154173132896421
0.656571774682011,-0.296217512512207,4.596908429718019,0.6196165320396421
0.65717746820109,-0.751271223449707,-1.76186842575073,0.6172215125083921
0.65778316172017,-1.9344108718872102,-1.80737379684448,-1.21975846796036
0.658388855239249,-4.00131272735596,-1.49123121871948,-0.9395411828041079
0.658994548758328,0.858181901550293,-2.71269117965698,-0.553943038272858
0.659600242277408,1.88564528045654,1.69174973831177,0.748947586727142
0.660205935796487,1.84732496795654,2.1923088203430203,-1.50237077264786
0.660811629315566,2.60175612030029,-1.14634840621948,1.45068830938339
0.661417322834646,0.039085221862793,4.67594407424927,1.04353498907089
0.662023016353725,-2.21941819610596,0.130197003936768,1.16328596563339
0.662628709872804,-1.5751579421997102,-3.1605598320007298,-0.529992842960358
0.663234403391884,-3.6636149734497097,0.400834210968018,-1.02576188592911
0.663840096910963,-0.911737532043457,-4.44189528121948,0.5765061804771421
0.664445790430042,3.71304518280029,1.74444016799927,-2.5801295617103603
0.665051483949122,0.28577223358154297,1.54565354690552,2.01351789922714
0.665657177468201,3.11668531951904,-0.444607683563232,-0.5419679406166079
0.66626287098728,0.726455827331543,2.54916673049927,1.4985887000083902
0.66686856450636,-3.2085612625122097,1.24867112503052,0.35855940313339196
0.667474258025439,-0.08066575469970709,-1.69241285934448,-1.30358415155411
0.668079951544518,-2.95947923126221,-1.24214918746948,0.8758836218833921
0.668685645063598,-0.626730207824707,-2.2624275077819798,-2.09633561639786
0.669291338582677,2.65205153045654,-1.52476149215698,-0.43898210077285804
0.669897032101756,0.479768815612793,2.30966477737427,0.9189939734458921
0.670502725620836,1.9574958663940398,0.36011887893676797,-0.103679366397858
0.671108419139915,0.815071549987793,1.82108079299927,1.1656809851646401
0.671714112658994,-1.32607591094971,1.66540452346802,2.2099095007896397
0.672319806178074,0.12051588592529301,-2.00616041793823,-1.62212174921036
0.672925499697153,-1.98949632110596,-1.37866530075073,0.008886551570892291
0.673531193216233,-2.26492356719971,-1.36669020309448,-0.16594987421035798
0.674136886735312,1.32760572967529,-1.99658033981323,-0.970676436710358
0.674742580254391,0.673765397644043,2.01986741409302,-0.6617189171791079
0.675348273773471,2.23531813201904,0.511005109405518,0.145402664852142
0.67595396729255,1.5503425460815399,0.949293683624268,1.71893049688339
0.676559660811629,-1.3452360671997101,4.510687726593019,0.176537918758392
0.677165354330709,0.554014421081543,-1.97263014450073,0.356164383602142
0.677771047849788,-1.88651048126221,-2.2384773124694797,-0.647348799991608
0.678376741368867,-4.06597825469971,-0.588308855438232,-1.18383317499161
0.678982434887947,0.652210221862793,-2.55940992965698,-0.153974776554108
0.679588128407026,2.00060621795654,1.30615159378052,0.5214207312583921
0.680193821926105,1.8928303390502899,1.67737962112427,-1.34669450311661
0.680799515445185,2.3430940109252902,0.123011945343018,-0.144394698429108
0.681405208964264,-0.128566145324707,4.30232102737427,2.1404539343833897
0.682010902483343,-1.3787663406372102,0.319403546905518,1.06030012578964
0.682616596002423,-1.92962083282471,-2.65521071090698,-0.494067549991608
0.683222289521502,-3.55823411407471,0.020026105499267602,-1.3754347374916098
0.683827983040581,-0.502189192199707,-4.59278151168823,0.5980613562583921
0.684433676559661,2.47721510467529,1.41871751174927,-2.33583756952286
0.68503937007874,1.07852369842529,2.12045823440552,0.753737625789642
0.68564506359782,2.7262971359252903,-1.24454420700073,1.3620725867271402
0.686250757116899,0.762381120300293,3.70117112503052,-0.247380538272858
0.686856450635978,-2.97384934844971,0.647521222686768,1.6015745398521402
0.687462144155058,-0.638705305480957,-1.66606764450073,-0.376711592960358
0.688067837674137,-2.39904466094971,-1.62056227340698,0.528605789852142
0.688673531193216,-0.894972395324707,-1.56068678512573,-3.1788844445228603
0.689279224712296,1.7084138351440399,-1.62535231246948,0.942944168758392
0.689884918231375,1.42101149139404,1.97196702346802,-0.412636885929108
0.690490611750454,1.9694709640502899,0.6355461250305181,-0.6760890343666079
0.691096305269534,-0.284242414855957,1.16963548049927,2.53802717657089
0.691701998788613,-0.791986555480957,2.71921311721802,-0.403056807804108
0.692307692307692,-0.24113206329345702,-3.14139967575073,0.274733719539642
0.692913385826772,-1.5152824539184602,-0.743985124969482,-0.963491378116608
0.693519079345851,-2.22420823516846,-1.94628492965698,-0.18990006952285798
0.69412477286493,1.1407942062377898,-2.43965895309448,-0.750334639835358
0.69473046638401,1.73715406951904,2.5587468086242704,-0.18990006952285798
0.695336159903089,1.42340651092529,0.156542218780518,1.51774885625839
0.695941853422168,2.01258131561279,1.66540452346802,-0.19469010858535798
0.696547546941248,-0.667445539855957,3.97659837112427,0.562136063289642
0.697153240460327,-0.327352766418457,-1.58942701950073,0.645961746883392
0.697758933979406,-1.78831468048096,-1.89119948043823,-0.922776046085358
0.698364627498486,-3.83605637969971,-1.16550856246948,-0.6593238976478579
0.698970321017565,0.245056901550293,-2.54024977340698,-0.623398604679108
0.699576014536644,1.8808552413940398,0.805592511749268,0.480705399227142
0.700181708055724,1.99821119842529,2.1396183906555204,-1.50955583124161
0.700787401574803,2.42931471405029,-0.317671648406982,1.1177805945396402
0.701393095093882,-0.233947004699707,4.41967698440552,2.1404539343833897
0.701998788612962,-2.17151780548096,0.113431867218018,1.2542967078208902
0.702604482132041,-1.35481614532471,-2.9234528984069796,-1.1790431359291098
0.703210175651121,-3.6636149734497097,0.0918766914367676,-0.992231612491608
0.7038158691702,-0.681815657043457,-4.14251783981323,0.969289383602142
0.704421562689279,3.02327955780029,1.33968186721802,-1.91191911249161
0.705027256208359,0.436658464050293,1.8929313789367699,0.7345774695396421
0.705632949727438,2.81012281951904,-0.6002839530944819,0.6411717078208921
0.706238643246517,0.510904069519043,2.83656907424927,0.6363816687583921
0.706844336765597,-2.6792619461059597,1.15526536331177,0.8543284461021421
0.707450030284676,-0.806356672668457,-2.03729567184448,-0.8389503624916079
0.708055723803755,-2.37509446563721,-2.09717116012573,0.45915022344589196
0.708661417322835,-0.669840559387207,-1.71636305465698,-1.54069108514786
0.709267110841914,1.62458815155029,-1.26130934371948,-0.24977555780410798
0.709872804360993,1.29647047576904,1.70132981643677,0.586086258602142
0.710478497880073,1.72278395233154,0.7744572578430181,-0.477302413272858
0.711084191399152,0.17799635467529298,1.49535813674927,1.04832502813339
0.711689884918231,-0.399203352355957,2.5755119453430204,0.722602371883392
0.712295578437311,-0.212391828918457,-2.4348689140319797,-0.434192061710358
0.71290127195639,-1.86735032501221,-1.66367262496948,-0.585078292179108
0.713506965475469,-1.9128556961059602,-1.47686110153198,-0.266540694522858
0.714112658994549,0.592334733581543,-1.54871168746948,-0.573103194522858
0.714718352513628,1.40424635467529,1.60073899612427,-0.0390138390541077
0.715324046032707,1.80900465545654,0.0367912422180176,-0.08691422967910771
0.715929739551787,1.9095954757690399,1.31573167190552,0.983659500789642
0.716535433070866,-0.267477278137207,4.32866624221802,0.583691239070892
0.717141126589945,-0.576434797668457,-1.69241285934448,0.765712723445892
0.717746820109025,-2.07571702423096,-2.6576057304382297,-0.870085616397858
0.718352513628104,-3.71151536407471,-0.743985124969482,-1.4951857140541098
0.718958207147184,-0.19562669219970702,-2.8372321952819797,0.926179032039642
0.719563900666263,2.1874177413940403,1.49535813674927,-0.187505049991608
0.720169594185342,2.12993727264404,1.40195237503052,-0.8173951867103579
0.720775287704422,2.39817946014404,-0.130860124969482,0.22922834844589202
0.721380981223501,0.518089128112793,4.96095139846802,1.43631819219589
0.72198667474258,-2.7056071609497097,-0.526038347625732,2.11650373907089
0.72259236826166,-1.5416276687622101,-2.53306471481323,-2.23764176874161
0.723198061780739,-3.08402024688721,0.142172101593018,-0.611423507022858
0.723803755299818,-1.2254850906372101,-3.97247145309448,0.109477371883392
0.724409448818898,3.62921949920654,1.69893479690552,-2.82681657342911
0.725015142337977,0.637840104675293,1.02353928909302,2.19314436407089
0.725620835857056,2.6496565109252903,-0.564358660125732,0.11187239141464199
0.726226529376136,0.666580339050293,4.000548566436771,0.7800828406333921
0.726832222895215,-3.2852018875122098,-1.00264723434448,1.73569563360214
0.727437916414294,0.0726154953002929,-0.274561296844482,-3.9668458703041103
0.728043609933374,-2.5259806961059597,-2.1283064140319796,3.2613230750083897
0.728649303452453,-0.360883039855957,-2.03250563278198,-2.07957047967911
0.729254996971532,1.98384108123779,-0.355991960906982,-1.2820289757728598
0.729860690490612,0.582754655456543,0.812777570343018,2.7895042273521398
0.730466384009691,2.6400764328002904,1.41153245315552,-1.66044206171036
0.73107207752877,-0.226761946105957,0.6978166328430181,2.5500022742271398
0.73167777104785,-0.672235578918457,3.12876145706177,-0.09649430780410771
0.732283464566929,-0.279452375793457,-2.93542799606323,1.3405174109458902
0.732889158086008,-1.78591966094971,-0.7823054374694819,-0.36952653436660804
0.733494851605088,-1.1608195632934601,-1.43135573043823,-1.6436769249916099
0.734100545124167,0.019925065612793,-1.87203932418823,-0.12283952264785801
0.734706238643246,0.915662370300293,2.1851237617492703,-0.434192061710358
0.735311932162326,2.6328913742065403,-0.607469011688232,0.466335282039642
0.735917625681405,2.02216139373779,1.99112717971802,1.28782698125839
0.736523319200485,-0.880602278137207,4.060424054718021,0.6603318640708921
0.737129012719564,0.15883619842529298,-1.43135573043823,-0.403056807804108
0.737734706238643,-2.10924729766846,-2.05645582809448,-0.0653590538978577
0.738340399757723,-3.67798509063721,-0.9403767265319819,-1.01618180780411
0.738946093276802,0.546829362487793,-2.5905451835632296,-0.6162135460853579
0.739551786795881,2.10838209686279,1.33728684768677,0.983659500789642
0.740157480314961,2.10598707733154,1.98154710159302,-1.7179225304603598
0.74076317383404,2.41494459686279,-0.729615007781982,0.684282059383392
0.741368867353119,-0.11898606719970699,4.44123216018677,2.2003294226646397
0.741974560872199,-2.21462815704346,0.870258039093018,0.0735520789146423
0.742580254391278,-1.97512620391846,-3.4695173515319797,0.662726883602142
0.743185947910357,-2.61699143829346,0.7361369453430181,-1.7346876671791098
0.743791641429437,-0.985983137512207,-3.8311653007507296,-0.0725441124916077
0.744397334948516,2.78377760467529,0.9373185859680181,-1.8328834679603598
0.745003028467595,1.5766877609252898,1.68935471878052,0.727392410945892
0.745608721986675,2.3167487960815403,-1.17508864059448,1.63749983282089
0.746214415505754,0.585149674987793,4.25681565628052,-0.0629640343666077
0.746820109024833,-3.3881877273559597,0.0320012031555176,1.5895994421958901
0.747425802543913,0.156441178894043,-1.60140211715698,-1.69876237421036
0.748031496062992,-2.6289665359497096,-1.3403449882507301,0.8399583289146421
0.748637189582071,-1.38595139923096,-1.86724928512573,-2.03885514764786
0.749242883101151,2.39578444061279,-1.11281813278198,-0.08212419061660771
0.74984857662023,0.724060807800293,1.14808030471802,1.03874495000839
0.75045427013931,2.26884840545654,1.12652512893677,-1.8759938195228598
0.751059963658389,0.10375074920654301,0.870258039093018,3.19665754766464
0.751665657177468,-1.28296555938721,2.87967942581177,-0.635373702335358
0.752271350696547,0.376782975769043,-2.45881910934448,-0.491672530460358
0.752877044215627,-2.11882737579346,-1.66127760543823,0.404064774227142
0.753482737734706,-1.8362150711059602,-0.473347917938232,-2.02209001092911
0.754088431253786,1.00427809295654,-2.6144953788757297,0.574111160945892
0.754694124772865,1.1360041671752898,2.84614915237427,-0.9419362023353579
0.755299818291944,1.5814777999877898,-0.355991960906982,1.1129905554771402
0.755905511811024,1.6317732101440399,1.12173508987427,0.6411717078208921
0.756511205330103,-0.523744367980957,5.20763841018677,0.18372297735214202
0.757116898849182,-0.289032453918457,-2.2456623710632297,1.1824461218833902
0.757722592368262,-1.8146598953247102,-2.05645582809448,-1.52632096796036
0.758328285887341,-4.252789778137211,-0.8924763359069819,-0.146789717960358
0.75893397940642,0.561199479675293,-2.8276521171569797,-0.6760890343666079
0.7595396729255,2.42931471405029,1.38518723831177,-0.44137712030410803
0.760145366444579,2.0365315109252897,1.5336784492492699,-0.48927751092910804
0.760751059963658,2.4628449874877902,-0.6745295585632319,0.921388992977142
0.761356753482738,-0.107010969543457,4.99927171096802,1.96801252813339
0.761962447001817,-2.07571702423096,0.137382062530518,1.24471662969589
0.762568140520896,-1.2039299148559601,-2.6312605155944797,-1.46644547967911
0.763173834039976,-3.73307053985596,-0.751170183563232,0.00409651250839229
0.763779527559055,-0.681815657043457,-3.29707594528198,-1.06408219842911
0.764385221078134,2.89634352264404,1.27501633987427,-1.2987941124916098
0.764990914597214,0.702505632019043,0.8822331367492681,2.1236887976646397
0.765596608116293,2.9226887374877903,0.0846916328430176,-1.9262892296791099
0.766202301635373,0.09177565155029291,2.2018888984680203,2.13326887578964
0.766807995154452,-2.3703044265747097,1.65582444534302,0.6148264929771421
0.767413688673531,-0.526139387512207,-1.57266188278198,-1.1047975304603599
0.768019382192611,-3.00977464141846,-1.64211744918823,1.1129905554771402
0.76862507571169,-0.739296125793457,-1.29004957809448,-2.8196315148353603
0.769230769230769,2.41254957733154,-2.0588508476257297,1.04832502813339
0.769836462749849,1.21503981170654,2.35756516799927,-0.295280928897858
0.770442156268928,1.82337477264404,0.204442609405518,0.190908035945892
0.771047849788007,0.453423600769043,1.55283860549927,1.77880598516464
0.771653543307087,-0.9165275711059571,2.6617326484680204,-0.125234542179108
0.772259236826166,-0.19083665313720702,-3.1030793632507296,-0.13960465936660799
0.772864930345245,-1.44822190704346,-0.7224299491882319,-1.56224626092911
0.773470623864325,-2.2002580398559597,-1.82174391403198,1.06030012578964
0.774076317383404,1.3419758468627898,-1.58463698043823,-1.15988297967911
0.774682010902483,1.38508619842529,2.10369309768677,-0.8581105187416079
0.775287704421563,1.9143855148315398,-0.166785417938232,1.18005110235214
0.775893397940642,2.05569166717529,1.62468919143677,0.011281571102142299
0.776499091459721,-0.775221418762207,4.2184953437805195,1.23513655157089
0.777104784978801,-0.104615950012207,-0.5547785820007319,-0.7383595421791079
0.77771047849788,-1.75717942657471,-2.7965168632507296,0.523815750789642
0.778316172016959,-3.3810026687622097,-1.20382887496948,-0.8413453820228579
0.778921865536039,0.21871168670654298,-2.10675123825073,-1.8759938195228598
0.779527559055118,1.49765211639404,1.11934007034302,1.2542967078208902
0.780133252574197,2.30237867889404,1.99591721878052,-1.00899674921036
0.780738946093277,2.3598591476440403,-0.748775164031982,1.1944212195396402
0.781344639612356,0.451028581237793,4.39572678909302,1.5369090125083902
0.781950333131435,-2.39904466094971,0.0511613594055176,0.806428055477142
0.782556026650515,-2.13559251251221,-2.5977302421569797,-1.37303971796036
0.783161720169594,-3.23730149688721,0.242762921905518,-1.29160905389786
0.783767413688674,-1.05064866485596,-3.68985914840698,-0.149184737491608
0.784373107207753,3.68190992889404,0.851097882843018,-1.2844239953041099
0.784978800726832,0.975537858581543,1.06664964065552,1.1225706336021402
0.785584494245912,2.6927668624877903,-0.224265886688232,-0.7623097374916079
0.786190187764991,0.271402116394043,4.01491868362427,1.71414045782089
0.78679588128407,-3.12952561798096,-0.267376238250732,0.933364090633392
0.78740157480315,-0.339327864074707,-1.86006422653198,-2.60886979608536
0.788007268322229,-2.83014817657471,-0.360781999969482,1.8291013953208901
0.788612961841308,-0.576434797668457,-2.1378864921569796,-1.48081559686661
0.789218655360388,2.30237867889404,-1.45051588668823,-0.865295577335358
0.789824348879467,1.08570875701904,1.43308762893677,1.0626951453208902
0.790430042398546,1.76589430389404,0.446339582061768,-0.0701490929603577
0.791035735917626,0.060640397644043,1.95520188674927,1.78359602422714
0.791641429436705,-1.0841789382934601,2.3216398750305203,0.8184031531333921
0.792247122955784,0.582754655456543,-2.4085236991882297,-0.769494796085358
0.792852816474864,-2.00865647735596,-0.9355866874694819,-0.434192061710358
0.793458509993943,-2.28887376251221,-0.851761003875732,-1.03534196405411
0.794064203513022,1.4569367843627898,-2.7869367851257296,0.22922834844589202
0.794669897032102,1.1575593429565398,2.13722337112427,-0.6976442101478579
0.795275590551181,1.98623610076904,0.350538800811768,-0.28091081171035803
0.79588128407026,1.4353816085815398,0.8199626289367681,1.6135496375083902
0.79648697758934,-0.581224836730957,5.15255296096802,0.0208616492271423
0.797092671108419,0.391153092956543,-2.4444489921569796,0.990844559383392
0.797698364627498,-1.67095872344971,-1.80737379684448,-1.1790431359291098
0.798304058146578,-4.327035383605961,-0.111699968719482,-1.15988297967911
0.798909751665657,0.757591081237793,-3.0072785820007297,0.461545242977142
0.799515445184736,1.92875563201904,0.625966046905518,0.262758621883392
0.800121138703816,1.94312574920654,2.0486076484680202,-1.8927589562416098
0.800726832222895,2.32153883514404,-0.401497332000732,1.47942854375839
0.801332525741975,-0.09024583282470709,4.69270921096802,0.823193192195892
0.801938219261054,-1.7332292312622102,0.0320012031555176,1.4602683875083902
0.802543912780133,-1.19674485626221,-2.8539973320007297,-1.1622779992103598
0.803149606299213,-3.8863517898559596,0.396044171905518,-1.42333512811661
0.803755299818292,-1.00993333282471,-3.81679518356323,0.6603318640708921
0.804360993337371,3.31307692108154,0.7768522773742681,-1.2508937218666099
0.804966686856451,0.5803596359252929,1.84263596878052,1.00760969610214
0.80557238037553,2.57541090545654,-0.770330339813232,-0.324021163272858
0.806178073894609,0.661790299987793,2.34080003128052,1.35967756719589
0.806783767413689,-2.47089524688721,1.77557542190552,0.236413407039642
0.807389460932768,-0.6171501296997071,-1.94867994918823,-0.39826676874160805
0.807995154451847,-2.63854661407471,-0.988277117156982,-0.46053727655410803
0.808600847970927,-0.945267805480957,-2.31990797653198,-1.56943131952286
0.809206541490006,2.24489821014404,-1.70917799606323,-0.0629640343666077
0.809812235009085,0.668975358581543,1.95041184768677,-0.374316573429108
0.810417928528165,2.1610725265502904,0.6618913398742681,-0.7024342492103579
0.811023622047244,0.611494889831543,2.01268235549927,1.2902220007896401
0.811629315566323,-0.866232160949707,2.34080003128052,0.883068680477142
0.812235009085403,0.240266862487793,-2.56899000778198,-0.745544600772858
0.812840702604482,-2.18588792266846,-1.42896071090698,-0.484487471866608
0.813446396123562,-2.3271940750122098,-0.6745295585632319,-0.211455245304108
0.814052089642641,1.16474440155029,-2.4085236991882297,-0.228220382022858
0.81465778316172,1.59584791717529,1.71090989456177,-1.23173356561661
0.815263476680799,1.74673414764404,-0.286536394500732,0.9165989539146421
0.815869170199879,1.5168122726440398,1.38997727737427,-0.00308854608535771
0.816474863718958,-0.626730207824707,4.94658128128052,1.0411399695396402
0.817080557238038,-0.286637434387207,-1.95346998825073,1.2902220007896401
0.817686250757117,-1.2805705398559601,-2.20973707809448,-1.9262892296791099
0.818291944276196,-4.08992845001221,-0.8373908866882319,-0.913195967960358
0.818897637795276,0.130095964050293,-2.89950270309448,0.214858231258392
0.819503331314355,2.3766242843627903,1.63666428909302,0.15977278203964201
0.820109024833434,1.2605451828002898,1.79952561721802,-0.0414088585853577
0.820714718352514,2.73827223358154,-0.528433367156982,1.59438948125839
0.821320411871593,0.525274186706543,4.177780011749269,1.55606916875839
0.821926105390672,-2.05895188751221,0.367303937530518,0.11666243047714199
0.822531798909752,-1.74759934844971,-2.99530348434448,-1.29639909296036
0.823137492428831,-3.4648283523559598,-0.0637995780944824,0.341794266414642
0.82374318594791,-0.873417219543457,-2.92584791793823,-0.501252608585358
0.82434887946699,3.0615998703002902,0.197257550811768,-1.21496842889786
0.824954572986069,1.00188307342529,1.7731804023742699,0.351374344539642
0.825560266505148,2.76461744842529,-0.9403767265319819,0.44957014532089196
0.826165960024228,0.757591081237793,3.3131779609680203,0.7800828406333921
0.826771653543307,-2.63854661407471,1.83784592971802,0.5765061804771421
0.827377347062386,-0.408783430480957,-2.5905451835632296,-0.18990006952285798
0.827983040581466,-2.51879563751221,-0.9619319023132319,-0.8413453820228579
0.828588734100545,-1.4386418289184602,-2.67916090621948,-0.9610963585853579
0.829194427619624,2.27124342498779,-1.19424879684448,-0.585078292179108
0.829800121138704,1.35634596405029,2.0629777656555204,0.140612625789642
0.830405814657783,1.96468092498779,0.0415812812805176,-0.0270387413978577
0.831011508176863,0.297747331237793,1.77797044143677,0.650751785945892
0.831617201695942,-1.5967131179809602,2.1252482734680203,0.8207981726646421
0.832222895215021,0.704900651550293,-1.92472975387573,-0.7383595421791079
0.8328285887341,-2.09248216094971,-1.87682936325073,0.43759504766464197
0.83343428225318,-2.02542161407471,-0.494903093719482,-1.26526383905411
0.834039975772259,1.24617506561279,-2.36062330856323,-0.36952653436660804
0.834645669291339,0.925242448425293,1.52170335159302,0.00409651250839229
0.835251362810418,2.13472731170654,0.6786564765930181,-0.316836104679108
0.835857056329497,1.60782301483154,0.5613005195617681,0.7345774695396421
0.836462749848577,-0.049530500793457,4.896285871124269,0.6172215125083921
0.837068443367656,-0.368068098449707,-1.68283278121948,1.75725080938339
0.837674136886735,-2.0541618484497097,-3.2204353202819798,-0.946726241397858
0.838279830405815,-3.5869743484497096,-0.24103102340698201,-1.8161183312416098
0.838885523924894,0.12051588592529301,-3.15816481246948,1.2902220007896401
0.839491217443973,2.37422926483154,1.63187425003052,-0.482092452335358
0.840096910963053,1.9359406906127898,1.88335130081177,-0.788654952335358
0.840702604482132,2.64486647186279,-0.8781062187194819,1.4722434851646402
0.841308298001211,0.201946549987793,4.96095139846802,1.4123679968833902
0.841913991520291,-2.10206223907471,0.166122296905518,0.574111160945892
0.84251968503937,-1.4817521804809601,-2.2456623710632297,-1.72271256952286
0.843125378558449,-4.04681809844971,-0.425447527313232,0.514235672664642
0.843731072077529,-0.490214094543457,-3.4958625663757297,-0.9371461632728579
0.844336765596608,3.3585822921752904,0.525375226593018,-1.29160905389786
0.844942459115687,0.755196061706543,1.68456467971802,1.18484114141464
0.845548152634767,2.31914381561279,-0.5739387382507319,-0.204270186710358
0.846153846153846,0.501323991394043,3.1670817695617703,1.2686668250083901
0.846759539672925,-2.4900554031372097,0.6810514961242681,1.02197981328964
0.847365233192005,-0.660260481262207,-1.88401442184448,-1.42812516717911
0.847970926711084,-2.5092155593872096,-0.490113054656982,0.586086258602142
0.848576620230164,-0.693790754699707,-1.74270826950073,-1.5502711632728599
0.849182313749243,2.32153883514404,-1.95586500778198,0.432805008602142
0.849788007268322,0.386363053894043,1.58397385940552,0.147797684383392
0.850393700787402,1.9191755538940398,0.7169767890930181,-0.6401637413978579
0.850999394306481,0.671370378112793,1.28220139846802,2.36558577032089
0.85160508782556,-0.930897688293457,3.22935227737427,0.7154173132896421
0.85221078134464,0.29535231170654297,-3.1964851249694797,0.461545242977142
0.852816474863719,-1.81226487579346,-1.3403449882507301,-1.09042741327286
0.853422168382798,-2.33916917266846,-0.0901447929382324,-0.544362960147858
0.854027861901878,0.786331315612793,-3.04559889450073,0.281918778133392
0.854633555420957,1.57908278045654,2.4845012031555203,-1.29639909296036
0.855239248940036,1.60063795623779,-0.176365496063232,1.19681623907089
0.855844942459116,2.01737135467529,1.27980637893677,-0.247380538272858
0.856450635978195,-0.420758528137207,4.97292649612427,0.744157547664642
0.857056329497274,-0.174071516418457,-1.86964430465698,1.42434309453964
0.857662023016354,-1.4937272781372102,-1.76665846481323,-1.4736305382728598
0.858267716535433,-4.16417405548096,-0.863736101531982,0.011281571102142299
0.858873410054512,0.534854264831543,-2.6767658866882296,-1.29160905389786
0.859479103573592,2.04611158905029,0.807987531280518,-0.0342237999916077
0.860084797092671,1.66769850311279,2.5683268867492703,-1.30837419061661
0.86069049061175,2.63049635467529,-0.710454851531982,1.8578416296958902
0.86129618413083,0.436658464050293,4.53942796096802,1.11538557500839
0.861901877649909,-1.8194499343872101,0.293058332061768,0.6172215125083921
0.862507571168988,-1.41469163360596,-2.6049153007507297,-1.00660172967911
0.863113264688068,-3.88874680938721,0.281083234405518,-0.613818526554108
0.863718958207147,-1.04346360626221,-3.8287702812194797,0.451965164852142
0.864324651726227,3.3011018234252902,0.913368390655518,-2.08915055780411
0.864930345245306,0.429473405456543,0.824752667999268,1.7596458289146402
0.865536038764385,2.97298414764404,0.194862531280518,-1.9047340538978599
0.866141732283465,0.683345475769043,2.30726975784302,2.44462141485214
0.866747425802544,-2.92115891876221,2.16117356643677,0.413644852352142
0.867353119321623,-0.686605696105957,-2.02771559371948,-0.731174483585358
0.867958812840703,-2.7295573562622097,-1.8193488945007301,0.5765061804771421
0.868564506359782,-0.782406477355957,-0.966721941375732,-2.70227555780411
0.869170199878861,1.4018513351440398,-2.33667311325073,0.9597093054771421
0.869775893397941,1.6964387374877898,2.75992844924927,-1.80174821405411
0.87038158691702,2.3167487960815403,-0.499693132781982,1.0794602820396402
0.870987280436099,0.048665299987792995,1.56960374221802,1.01479475469589
0.871592973955179,-0.780011457824707,3.1263664375305202,-0.24019547967910798
0.872198667474258,-0.114196028137207,-3.00248854293823,1.4722434851646402
0.872804360993337,-1.15842454376221,-0.8373908866882319,-1.1910182335853599
0.873410054512417,-2.20265305938721,-1.67564772262573,-0.465327315616608
0.874015748031496,1.0234382492065401,-1.87682936325073,-1.1407228234291098
0.874621441550575,1.40664137420654,1.64384934768677,0.753737625789642
0.875227135069655,1.12402906951904,0.146962140655518,0.0543919226646423
0.875832828588734,2.03413649139404,1.77557542190552,-1.03055192499161
0.876438522107813,-0.23634202423095702,3.87121751174927,3.0122410437583897
0.877044215626893,0.486953874206543,-0.427842546844482,-0.31923112421035804
0.877649909145972,-1.72604417266846,-3.41443190231323,-0.7168043663978579
0.878255602665051,-4.07316331329346,-0.128465105438232,-1.49758073358536
0.878861296184131,-0.164491438293457,-3.0958943046569796,0.962104325008392
0.87946698970321,2.0197663742065397,1.27262132034302,-0.11325944452285801
0.880072683222289,1.95989088592529,1.67498460159302,-0.0605690148353577
0.880678376741369,2.87718336639404,-1.14155836715698,1.60875959844589
0.881284070260448,0.771961198425293,5.70580247268677,1.0411399695396402
0.881889763779528,-2.41101975860596,-0.0829597343444824,2.0015428015708903
0.882495457298607,-1.4554069656372102,-1.84090407028198,-3.17648942499161
0.883101150817686,-3.81450120391846,-0.8134406913757319,1.22316145391464
0.883706844336766,-0.842281965637207,-2.82286207809448,-1.0329469445228598
0.884312537855845,3.21009108123779,0.340958722686768,-0.831765303897858
0.884918231374924,1.35634596405029,1.94562180862427,1.5680442664146401
0.885523924894004,2.9586140304565403,-0.231450945281982,-1.74426774530411
0.886129618413083,1.00188307342529,2.1420134101867703,2.3703758093833898
0.886735311932162,-2.78464280548096,2.80543382034302,0.18372297735214202
0.887341005451242,-0.768036360168457,-2.84920729293823,0.26994368047714196
0.887946698970321,-2.52358567657471,-1.15832350387573,0.471125321102142
0.8885523924894,-1.35481614532471,-1.39064039840698,-2.13465592889786
0.88915808600848,2.15628248748779,-2.46600416793823,0.325029129695892
0.889763779527559,1.13839918670654,2.32642991409302,-0.6018434288978579
0.890369473046638,2.28561354217529,0.5397453437805181,0.444780106258392
0.890975166565718,0.28577223358154297,1.04269944534302,1.0626951453208902
0.891580860084797,-1.17997971954346,3.1670817695617703,-0.010273604679107701
0.892186553603876,0.180391374206543,-2.4875593437194796,0.5381858679771421
0.892792247122956,-1.61108323516846,-1.36908522262573,-0.273725753116608
0.893397940642035,-2.4661052078247097,-0.7368000663757319,-0.906010909366608
0.894003634161115,0.862971940612793,-2.77496168746948,-0.297675948429108
0.894609327680194,1.72038893280029,2.19709885940552,-0.27133073358535803
0.895215021199273,1.28689039764404,0.458314679718018,0.32023909063339195
0.895820714718352,1.7778694015502898,1.04030442581177,-0.31923112421035804
0.896426408237432,-0.0950358718872071,4.6040934883117695,1.14173078985214
0.897032101756511,-0.248317121887207,-1.25651930465698,0.962104325008392
0.897637795275591,-1.50091233673096,-2.81567701950073,-0.484487471866608
0.89824348879467,-4.10190354766846,-0.355991960906982,-0.922776046085358
0.898849182313749,-0.248317121887207,-3.26115065231323,0.25557356328964204
0.899454875832829,2.3502790695190403,1.40674241409302,-0.285700850772858
0.900060569351908,1.63416822967529,2.3192448554992704,-1.22694352655411
0.900666262870987,3.0089094406127903,-0.969116960906982,1.7380906531333902
0.901271956390067,0.11333082733154301,4.11550950393677,1.2686668250083901
0.901877649909146,-2.04218675079346,0.8151725898742681,-0.422216964054108
0.902483343428225,-1.40750657501221,-2.7773567070007297,-1.20299333124161
0.903089036947305,-4.20967942657471,-0.5595686210632319,0.5022605750083919
0.903694730466384,-0.392018293762207,-2.9737483085632297,-1.42333512811661
0.904300423985463,3.13105543670654,-0.0661945976257324,0.245993485164642
0.904906117504543,0.678555436706543,1.89532639846802,1.31177717657089
0.905511811023622,3.03046461639404,-0.253006121063232,-2.42445329217911
0.906117504542701,0.453423600769043,2.0893229804992703,2.1907493445396398
0.906723198061781,-2.89002366485596,2.5012663398742703,0.09031721563339229
0.90732889158086,-0.447103742980957,-2.4971394218444796,-0.0509889367103577
0.907934585099939,-2.2433683914184597,-1.03378248825073,-0.314441085147858
0.908540278619019,-1.29494065704346,-2.1426765312194798,-1.6700221398353599
0.909145972138098,1.9910261398315399,-2.0684309257507296,0.526210770320892
0.909751665657177,1.57908278045654,2.9946403633117704,-0.987441573429108
0.910357359176257,1.6102180343627899,-0.547593523406982,1.19202620000839
0.910963052695336,0.757591081237793,2.35996018753052,0.18372297735214202
0.911568746214416,-1.7978947586059602,1.66061448440552,2.31289534063339
0.912174439733495,0.132490983581543,-2.30074782028198,-1.1646730187416099
0.912780133252574,-1.50809739532471,-1.06491774215698,-0.335996260929108
0.913385826771653,-2.52358567657471,-0.966721941375732,-0.007878585147857711
0.913991520290733,1.23180494842529,-2.54024977340698,-1.1790431359291098
0.914597213809812,1.3108405929565399,1.50493821487427,0.7561326453208921
0.915202907328892,1.67727858123779,0.7026066719055181,-0.32162614374160803
0.915808600847971,1.6916486984252899,1.11215501174927,-0.09649430780410771
0.91641429436705,-0.825516828918457,4.72623948440552,0.6411717078208921
0.91701998788613,0.383968034362793,-1.72354811325073,1.2902220007896401
0.917625681405209,-0.882997297668457,-2.1714167655944796,-0.889245772647858
0.918231374924288,-4.192914289855961,-0.351201921844482,-1.0760572960853598
0.918837068443368,0.257031999206543,-3.5796882499694798,0.22443830938339202
0.919442761962447,1.5982429367065398,1.72767503128052,-0.704829268741608
0.920048455481526,1.4617268234252898,2.1491984687805203,-0.151579757022858
0.920654149000606,3.4783332687377904,-1.06970778121948,0.9956345984458921
0.921259842519685,0.010344987487793,4.48913255081177,0.509445633602142
0.921865536038764,-2.1308024734497097,0.5636955390930181,0.353769364070892
0.922471229557844,-1.08657395782471,-2.31272291793823,-1.2341285851478598
0.923076923076923,-4.38451585235596,-0.346411882781982,0.861513504695892
0.923682616596002,-0.614755110168457,-2.9402180351257297,-1.8927589562416098
0.924288310115082,3.03285963592529,-0.0661945976257324,-0.0677540734291077
0.924894003634161,0.920452409362793,2.41744065628052,0.813613114070892
0.92549969715324,2.8220979171752902,-0.0302693046569824,-1.36345963983536
0.92610539067232,0.537249284362793,1.73486008987427,2.99308088750839
0.926711084191399,-2.50203050079346,2.25457932815552,-0.982651534366608
0.927316777710478,-0.859047102355957,-2.01334547653198,-0.0988893273353577
0.927922471229558,-2.09966721954346,-1.45530592575073,1.36446760625839
0.928528164748637,-0.902157453918457,-1.19903883590698,-2.63042497186661
0.929133858267717,1.32521071014404,-2.4252888359069797,0.547765946102142
0.929739551786796,1.42819654998779,2.4677360664367702,-0.810210128116608
0.930345245305875,2.00779127655029,0.103851789093018,0.6196165320396421
0.930950938824954,0.292957292175293,1.41871751174927,1.26148176641464
0.931556632344034,-1.18476975860596,3.19582200393677,0.31784407110214197
0.932162325863113,-0.248317121887207,-3.01446364059448,0.710627274227142
0.932768019382193,-1.02190843048096,-0.8182307304382319,-1.40656999139786
0.933373712901272,-2.54753587188721,-1.42896071090698,0.190908035945892
0.933979406420351,0.918057389831543,-1.94149489059448,-1.0545021203041098
0.934585099939431,1.53597242889404,1.30375657424927,0.423224930477142
0.93519079345851,1.68446363983154,0.443944562530518,-0.513227706241608
0.935796486977589,1.7084138351440399,1.14089524612427,0.315449051570892
0.936402180496669,-0.301007551574707,4.4244670234680195,1.47942854375839
0.937007874015748,-0.0950358718872071,-0.705664812469482,-0.156369796085358
0.937613567534827,-1.69251389923096,-3.46472731246948,0.310659012508392
0.938219261053907,-3.7642057937622098,0.190072492218018,-1.7346876671791098
0.938824954572986,-0.669840559387207,-3.1893000663757296,0.6603318640708921
0.939430648092065,2.67121168670654,1.21274583206177,-0.24498551874160798
0.940036341611145,1.6317732101440399,2.04381760940552,-0.48927751092910804
0.940642035130224,2.57780592498779,-0.988277117156982,1.3357273718833902
0.941247728649303,0.668975358581543,4.69510423049927,0.9549192664146421
0.941853422168383,-2.6696818679809597,0.470289777374268,1.0890403601646401
0.942459115687462,-1.3452360671997101,-2.60012526168823,-1.54308610467911
0.943064809206541,-3.83126634063721,-0.231450945281982,-0.611423507022858
0.943670502725621,-1.04825364532471,-3.27791578903198,0.0424168250083923
0.9442761962447,3.43043287811279,0.142172101593018,-1.6197267296791098
0.94488188976378,0.683345475769043,1.84503098831177,0.885463700008392
0.945487583282859,2.31195875701904,-0.502088152313232,0.547765946102142
0.946093276801938,1.01146315155029,2.46294602737427,0.923784012508392
0.946698970321018,-2.57388108673096,2.42702073440552,0.545370926570892
0.947304663840097,-0.981193098449707,-2.13070143356323,-0.0988893273353577
0.947910357359176,-2.22181321563721,-1.58942701950073,0.190908035945892
0.948516050878256,-1.07220384063721,-1.52715651168823,-2.34302262811661
0.949121744397335,1.7347590499877898,-2.18099684371948,0.226833328914642
0.949727437916414,1.68685865936279,1.91927659378052,0.46873030157089196
0.950333131435494,1.97186598358154,0.786432355499268,-0.44137712030410803
0.950938824954573,0.307327409362793,1.06904466018677,1.35967756719589
0.951544518473652,-0.854257063293457,2.6186222969055204,0.542975907039642
0.952150211992732,-0.030370344543457002,-2.43007887496948,0.028046707820892303
0.952755905511811,-1.4769621414184602,-1.35232008590698,-0.6377687218666079
0.95336159903089,-2.20265305938721,-1.1008430351257301,-0.6593238976478579
0.95396729254997,1.1623493820190398,-2.68634596481323,-0.137209639835358
0.954572986069049,1.5766877609252898,2.13722337112427,-0.5826832726478579
0.955178679588128,1.23659498748779,0.408019269561768,0.8591184851646421
0.955784373107208,1.7515241867065399,1.38039719924927,0.22922834844589202
0.956390066626287,-0.741691145324707,4.510687726593019,0.667516922664642
0.956995760145366,-0.23155198516845701,-1.67804274215698,0.787267899227142
0.957601453664446,-0.782406477355957,-2.19057692184448,-1.21017838983536
0.958207147183525,-3.79294602813721,-0.509273210906982,-0.7000392296791079
0.958812840702604,-0.14054124298095702,-2.85160231246948,-0.26893571405410804
0.959418534221684,2.08203688201904,0.870258039093018,0.13821760625839202
0.960024227740763,1.67727858123779,1.99591721878052,-1.33471940546036
0.960629921259842,2.72869215545654,-0.7176399101257319,1.4602683875083902
0.961235614778922,0.11093580780029301,4.02449876174927,1.85065657110214
0.961841308298001,-1.7547844070434602,0.9037883125305181,0.0400218054771423
0.962447001817081,-1.4434318679809601,-2.6911360038757297,-0.793444991397858
0.96305269533616,-3.51272874298096,-0.169180437469482,0.145402664852142
0.963658388855239,-0.545299543762207,-3.03841383590698,-0.47011735467910803
0.964264082374319,2.9394538742065404,0.0343962226867676,-1.07845231561661
0.964869775893398,1.08331373748779,2.25697434768677,0.451965164852142
0.965475469412477,2.49398024139404,-0.7942805351257319,0.394484696102142
0.966081162931557,0.874947038269043,2.16356858596802,0.986054520320892
0.966686856450636,-2.53795579376221,2.1923088203430203,0.28910383672714196
0.967292549969715,-1.14165940704346,-2.70550612106323,0.6603318640708921
0.967898243488795,-1.97512620391846,-0.667344499969482,-1.49758073358536
0.968503937007874,-1.2374601882934602,-2.1881819023132296,-1.2245485070228599
0.969109630526953,1.72517897186279,-2.35583326950073,0.708232254695892
0.969715324046033,1.84253492889404,2.69286790237427,-0.6401637413978579
0.970321017565112,1.9095954757690399,0.484659894561768,0.344189285945892
0.970926711084191,0.290562272644043,1.83784592971802,1.00760969610214
0.971532404603271,-1.19674485626221,2.01507737503052,1.2926170203208902
0.97213809812235,0.11093580780029301,-2.2025520195007298,-0.254565596866608
0.972743791641429,-1.41469163360596,-1.02180739059448,-0.47011735467910803
0.973349485160509,-1.8362150711059602,-1.31399977340698,-0.573103194522858
0.973955178679588,0.968352799987793,-2.4947444023132297,-0.264145674991608
0.974560872198667,1.2725202804565399,2.07495286331177,0.16935286016464202
0.975166565717747,1.10007887420654,0.5636955390930181,0.166957840633392
0.975772259236826,1.98144606170654,0.9013932929992681,0.26994368047714196
0.976377952755905,-0.260292219543457,4.49631760940552,0.811218094539642
0.976983646274985,0.055850358581543,-1.09365797653198,0.645961746883392
0.977589339794064,-1.5583928054809602,-2.71269117965698,-0.934751143741608
0.978195033313144,-3.74265061798096,-0.6170490898132319,-0.47969743280410804
0.978800726832223,0.419893327331543,-2.91147780075073,0.22443830938339202
0.979406420351302,1.6581184249877898,1.5336784492492699,-0.989836592960358
0.980012113870382,2.1035920578002902,2.21146897659302,-0.613818526554108
0.980617807389461,2.8388630538940403,-1.55350172653198,1.81712629766464
0.98122350090854,0.27619215545654296,4.862755597686769,0.131032547664642
0.98182919442762,-2.33437913360596,0.422389386749268,1.32135725469589
0.982434887946699,-1.25662034454346,-2.9737483085632297,-1.2245485070228599
0.983040581465778,-3.49356858673096,0.0343962226867676,-0.6018434288978579
0.983646274984858,-1.0961540359497102,-3.48149244918823,-0.39108171014785803
0.984251968503937,3.58610914764404,0.415204328155518,-1.19820329217911
0.984857662023016,0.381573014831543,1.82826585159302,1.77401594610214
0.985463355542096,2.54906569061279,-0.377547136688232,-0.7191993859291079
0.986069049061175,0.803096452331543,2.6617326484680204,1.68540022344589
0.986674742580254,-2.95708421173096,1.67019456253052,0.29868391485214196
0.987280436099334,-0.332142805480957,-2.3079328788757296,-0.664113936710358
