Time (s),Accel X (m/s^2),Accel Y (m/s^2),Accel Z (m/s^2)
0.0,0.6649193555831909,-3.8530856234550503,-0.22991345500946
0.000605693519079346,0.571513593864441,-0.615019217205048,-2.12916394329071
0.00121138703815869,0.10927482433319101,1.1117898648262001,-0.11734753704070999
0.00181708055723804,-2.08456306629181,0.0172659390449524,0.24190539264679
0.00242277407631738,-1.1073950975418099,-0.346777029705048,0.77838976764679
0.00302846759539673,2.39891349620819,0.671106271076202,0.74006945514679
0.00363416111447607,0.8253856641769409,1.61713898591995,0.0646739473342898
0.00423985463355542,1.33791984386444,2.8745242398262,-0.15327283000946
0.00484554815263477,0.569118574333191,-2.29153288908005,0.12933947467804
0.00545124167171411,-0.39128425769805897,-3.15852995939255,-1.87768689250946
0.00605693519079346,-1.69656990222931,1.3225515835762,0.80713000202179
0.0066626287098728,-3.62216560535431,0.16815216951370202,-0.12692761516571
0.00726832222895215,0.6242040235519409,-1.49159636564255,-0.77837292766571
0.0078740157480315,2.7030809766769397,0.302273263263702,0.83826525592804
0.00847970926711084,3.2491454298019398,2.13925324373245,-1.07296033000946
0.00908540278619019,0.8852611524581909,2.5440115445136997,0.42871691608429
0.00969109630526953,-2.65697273426056,-0.425812674236298,-0.12932263469695998
0.0102967898243489,-1.07865486316681,-3.6016085726738,0.81431506061554
0.0109024833434282,-1.7875806444168099,0.07474640779495241,-0.06465710735321019
0.0115081768625076,-1.68219978504181,0.845942696857452,0.58918322467804
0.0121138703815869,0.6265990430831909,-1.5562618929863,0.50775256061554
0.0127195639006663,2.31508781261444,-0.286901541423798,-2.22256970500946
0.0133252574197456,3.0024584180831897,1.19082550935745,1.48252550983429
0.013930950938825,-1.39479744129181,2.38354523591995,1.38911974811554
0.0145366444579043,-2.52045662097931,0.546565255451202,-1.27893200969696
0.0151423379769836,0.0326341993331909,-3.38845183439255,1.05381701374054
0.015748031496063,-0.561330644416809,0.17773224763870202,-0.6658070096969599
0.0163537250151423,-0.19249763660430902,0.776487130451202,-1.50645886516571
0.0169594185342217,-0.35296394519805896,-3.47946257658005,0.55565295124054
0.017565112053301,1.07925773448944,1.25788605623245,-0.19159314250946
0.0181708055723804,1.31396964855194,2.0554275601386998,2.25611681842804
0.0187764990914597,-1.14811042957306,2.8026736538887,-0.66101697063446
0.0193821926105391,-1.0475196092605599,-0.749140310955048,0.83587023639679
0.0199878861296184,1.65406242198944,-3.1321847445488,-1.14960095500946
0.0205935796486978,0.696054609489441,-0.947926932048798,-0.50055066204071
0.0211992731677771,-0.338593828010559,1.0064090054512,-0.45744031047821
0.0218049666868564,-1.38042732410431,0.551355294513702,-0.76879284954071
0.0224106602059358,-1.51454841785431,-1.24251433439255,2.19624133014679
0.0230163537250151,2.4971092969894397,1.74168000154495,-1.28372204875946
0.0236220472440945,0.557143476676941,0.992038888263702,1.34121935749054
0.0242277407631738,1.20379875011444,3.4493289273262,-0.92686413860321
0.0248334342822532,0.593068769645691,-2.3418282992363,-0.35684949016571
0.0254391278013325,-0.44157966785430897,-3.0220138461113,-0.93883923625946
0.0260448213204119,-1.67501472644806,1.89975129060745,0.12215441608429001
0.0266505148394912,-3.23896248035431,-0.983852225017548,1.61425158405304
0.0272562083585706,0.420627363395691,-1.1515035922050498,-0.92207409954071
0.0278619018776499,2.7988817579269396,0.728586739826202,-0.27062878704071
0.0284675953967293,3.22280021495819,1.6243240445137002,0.76401965045929
0.0290732889158086,0.6433641798019409,3.3343679898262,-0.61551159954071
0.0296789824348879,-2.3001148241043103,-1.5610519320487999,0.46943224811554
0.0302846759539673,-1.49538826160431,-3.0651241976738,-0.009571658134460231
0.0308903694730466,-1.8259009569168099,0.558540353107452,-0.59874646282196
0.031496062992126,-2.2737696092605604,0.268742989826202,-0.016756716728210202
0.0321017565112053,0.937951582145691,-1.1059982211113,0.30896593952179
0.0327074500302847,2.97132316417694,-1.05570281095505,-0.0933973417282102
0.033313143549364,2.51147941417694,2.00992218904495,-0.81190320110321
0.0339188370684434,-1.63190437488556,3.0158303921699496,0.8717955293655401
0.0345245305875227,-2.45100105457306,-1.0293575961113,-0.29457898235321
0.0351302241066021,1.2277489454269401,-5.012275076580051,-0.07663220500946019
0.0357359176256814,-1.17924568347931,2.0410574429512,0.48619738483429
0.0363416111447607,-1.85703621082306,4.5222976773262,-0.14369275188445998
0.0369473046638401,1.34989494152069,-5.9199874789238,-0.74244763469696
0.0375529981829194,2.5665648633956897,-1.4604611117363,-1.52082898235321
0.0381586917019988,-0.5301953905105591,4.10795929841995,1.97589953327179
0.0387643852210781,-1.2055908983230599,3.03020050935745,0.0383287324905398
0.0393700787401575,-0.427209550666809,0.196892403888702,1.68131213092804
0.0399757722592368,0.7870653516769409,-3.2423556429863,-1.36515271282196
0.0405814657783162,1.68280265636444,-3.4052169711113,-1.14481091594696
0.0411871592973955,-2.4462110155105603,1.99076203279495,-0.49336560344696
0.0417928528164749,-0.127832109260559,1.50217804841995,-0.29218396282196
0.0423985463355542,0.940346601676941,-1.7406783968925499,2.38065783405304
0.0430042398546336,-0.11585701160430899,2.1943386929511997,-1.81541638469696
0.0436099333737129,-0.08232673816680909,-0.729980154705048,1.81543322467804
0.0442156268927922,1.06728263683319,2.1176980679511996,-0.36163952922821
0.0448213204118716,1.27804435558319,-0.938346853923798,-0.0215467557907102
0.0454270139309509,0.655339277458191,-2.0065255648613,-1.06338025188446
0.0460327074500303,-2.4198658006668103,2.2278689663886997,0.69456408405304
0.0466384009691096,-3.6341407030105604,-1.29520476408005,0.39997668170929
0.047244094488189,1.57742179698944,-2.2627926547050503,-1.79146618938446
0.0478497880072683,1.17026847667694,0.671106271076202,1.33642931842804
0.0484554815263477,2.59770011730194,3.10205109529495,-1.04901013469696
0.049061175045427,1.40977042980194,2.9080545132637,1.28134386920929
0.0496668685645064,-1.4283277147293099,-0.310851736736298,-0.92207409954071
0.0502725620835857,-0.228422929573059,-5.251777029705051,0.81431506061554
0.050878255602665,-3.32518318347931,0.630390939044952,-0.74005261516571
0.0514839491217444,-2.65457771472931,1.8734060757637,-0.0550770292282102
0.0520896426408237,1.36666007823944,-1.6089523226737998,1.00352160358429
0.0526953361599031,2.86115226573944,-0.895236502361298,-2.44770154094696
0.0533010296789824,2.1546215040206897,-0.327616873455048,1.01310168170929
0.0539067231980618,-1.63908943347931,3.6553006070136997,0.0958092012405398
0.0545124167171411,-1.88817146472931,0.596860665607452,1.28373888874054
0.0551181102362205,0.935556562614441,-2.56456511564255,-0.27062878704071
0.0557238037552998,-1.23433113269806,-0.641364432048798,-1.30048718547821
0.0563294972743792,-0.635576249885559,-0.442577810955048,-0.77837292766571
0.0569351907934585,-0.0392163866043091,-3.12499968595505,1.08734728717804
0.0575408843125379,0.832570722770691,2.4194705288887,-0.85980359172821
0.0581465778316172,1.57263175792694,1.7871853726387001,1.48971056842804
0.0587522713506965,-0.525405351448059,1.86622101716995,0.11017931842804
0.0593579648697759,-0.467924882698059,-0.0761398226737976,0.19160998249054
0.0599636583888552,1.49838615245819,-3.0675192172050503,-0.79034802532196
0.0605693519079346,-0.235607988166809,-0.888051443767548,-0.77597790813446
0.0611750454270139,-0.676291581916809,0.503454903888702,-0.16524792766571
0.0617807389460933,-1.00201423816681,0.484294747638702,0.15089465045929001
0.0623864324651726,-1.82829597644806,-0.916791678142548,1.79866808795929
0.062992125984252,3.2683055860519397,1.2602810757637,-1.54477917766571
0.0635978195033313,1.19421867198944,0.606440743732452,2.01182482624054
0.0642035130224107,0.6433641798019409,3.8780374234199497,-1.04901013469696
0.06480920654149,0.5284032423019409,-2.2029171664238003,0.0838341035842898
0.0654149000605694,-0.987644120979309,-3.9081710726738,-0.70652234172821
0.0660205935796487,-1.27983650379181,1.42553742341995,0.13412951374054
0.066626287098728,-3.8161621873855602,-0.140805350017548,0.64666369342804
0.0672319806178074,0.288901289176941,-0.353962088298798,-0.6250916776657099
0.0678376741368867,3.6275585157394397,0.448369454669952,0.51972765827179
0.0684433676559661,2.8395970899581897,1.65545929841995,-0.21314831829071
0.0690490611750454,0.640969160270691,2.8936843960761998,0.68019396686554
0.0696547546941248,-2.62823249988556,-0.945531912517548,0.61313341999054
0.0702604482132041,-1.43311775379181,-2.7489816195488,0.99873156452179
0.0708661417322835,-1.72052009754181,-0.291691580486298,0.15089465045929001
0.0714718352513628,-1.76363044910431,0.292693185138702,-0.74005261516571
0.0720775287704422,0.909211347770691,-1.40537566251755,0.27064562702179
0.0726832222895215,2.6360204298019396,-0.049794607830047605,-1.34120251750946
0.0732889158086008,2.8395970899581897,1.8350857632637,1.10890246295929
0.0738946093276802,-1.8905664842605598,2.43144562654495,1.03465685749054
0.0745003028467595,-1.93367683582306,-0.9718771273612979,-0.14608777141571
0.0751059963658389,-0.309853593635559,-3.3309713656425504,0.98436144733429
0.0757116898849182,-0.9684839647293091,2.0075271695137,-2.28723523235321
0.0763173834039976,-0.235607988166809,-0.8521261507987979,0.60115832233429
0.0769230769230769,0.0302391798019409,-2.4615792757988,-1.19271130657196
0.0775287704421563,0.487687910270691,1.1237649624824502,0.33052111530304
0.0781344639612356,1.20140373058319,1.8901712124824501,2.34233752155304
0.078740157480315,-0.5709107225418091,2.6565774624824496,-0.14129773235321
0.0793458509993943,-1.07386482410431,-0.356357107830048,0.54128283405304
0.0799515445184737,1.1032079298019402,-3.2639108187675503,-1.55675427532196
0.080557238037553,0.875681074333191,-1.2975997836113,-0.88854382610321
0.0811629315566323,0.482897871208191,1.4279324429512001,0.10059924030304
0.0817686250757117,-2.26897957019806,-0.13122527189254798,0.38800158405304
0.082374318594791,-1.05949470691681,-0.586278982830048,0.46224718952179
0.0829800121138704,2.04924064464569,0.505849923419952,0.34489123249054
0.0835857056329497,0.561933515739441,1.9356765835762,-0.34247937297821
0.0841913991520291,0.993037031364441,2.3548050015449498,0.77838976764679
0.0847970926711084,0.858915937614441,-1.87958952970505,-0.94123425579071
0.0854027861901878,-0.429604570198059,-3.1082345492363,-0.5053407011032099
0.0860084797092671,-1.7061499803543099,1.3369217007637,1.07058215045929
0.0866141732283465,-3.49283455066681,0.307063302326202,-0.98194958782196
0.0872198667474258,-0.18291755847930902,-2.3561984164238003,0.9316710176467901
0.0878255602665051,3.0359886915206897,1.07107453279495,-0.26583874797821
0.0884312537855845,2.84199210948944,1.8877761929512,0.050303830146789796
0.0890369473046638,0.854125898551941,3.4253787320136997,-0.009571658134460231
0.0896426408237432,-2.27137458972931,-1.28562468595505,0.96999133014679
0.0902483343428225,-1.86661628894806,-3.59442351408005,-0.39277478313446
0.0908540278619019,-1.21756599597931,1.1668753140449502,-1.41784314250946
0.0914597213809812,-2.63781257801056,0.0460061734199524,1.43223009967804
0.0920654149000606,0.468527754020691,-1.41016570158005,-1.18313122844696
0.0926711084191399,3.0623339063644397,-0.701239920330048,-0.82627331829071
0.0932768019382193,2.58572501964569,1.0782595913887,2.42855822467804
0.0938824954572986,-0.975669023323059,3.6816458218574497,-0.83106335735321
0.094488188976378,-2.6090723436355603,-0.543168631267548,0.66103381061554
0.0950938824954573,0.358356855583191,-2.7417965609550503,0.50296252155304
0.0956995760145366,-0.487085038948059,0.508244942951202,-1.2741419706344599
0.096305269533616,-0.345778886604309,-0.512033377361298,0.16047472858429002
0.0969109630526953,-0.168547441291809,-1.9466500765800498,-1.40107800579071
0.0975166565717747,0.530798261833191,0.273533028888702,0.95562121295929
0.098122350090854,1.72112296886444,2.7356131070137,0.45027209186554
0.0987280436099334,-0.7529322069168091,1.8638259976387002,0.77359972858429
0.0993337371290127,-0.860708085823059,-0.35875212736129797,-0.16764294719696
0.0999394306480921,1.48162101573944,-2.93339812345505,-0.67059704875946
0.100545124167171,0.480502851676941,-1.5011764437675499,0.56283800983429
0.101150817686251,0.135620039176941,1.71293976716995,-1.14481091594696
0.10175651120533,-1.87380134754181,-0.301271658611298,0.22753527545929
0.102362204724409,-1.19122078113556,-0.650944510173798,0.13173449420929
0.102967898243489,2.5138744337081897,0.515430001544952,0.50296252155304
0.103573591762568,1.1247631055831901,1.83748078279495,0.61073840045929
0.104179285281647,0.815805586051941,3.2577273648262,0.0622789278030398
0.104784978800727,0.46613273448944104,-2.2795577914238003,-0.10537243938445999
0.105390672319806,-0.024846269416809102,-3.36929167814255,-1.17594616985321
0.105996365838886,-1.79955574207306,1.38721711091995,0.92688097858429
0.106602059357965,-3.28207283191681,0.268742989826202,-0.22991345500946
0.107207752877044,0.0733495313644409,-1.48201628751755,-0.46941540813446
0.107813446396124,2.6935008985519397,0.920188302326202,0.15568468952179002
0.108419139915203,3.57965812511444,1.5620535367012,0.27064562702179
0.109024833434282,0.937951582145691,2.8122537320137,0.14610461139679
0.109630526953362,-2.48692634754181,-1.16108367033005,0.36644640827179
0.110236220472441,-1.28941658191681,-3.5201779086113003,0.22993029499054002
0.11084191399152,-1.87380134754181,0.165757149982452,-0.0263367948532102
0.1114476075106,-1.8857764451980599,0.9441384976387021,-0.49576062297821
0.112053301029679,0.775090254020691,-1.80294890470505,-0.16524792766571
0.112658994548758,2.3965184766769396,-0.775485525798798,-0.88854382610321
0.113264688067838,3.1748998243331896,2.0578225796699496,0.17963488483429
0.113870381586917,-1.60555916004181,2.4074954312324497,1.07058215045929
0.114476075105996,-2.45818611316681,-0.0929049593925476,-0.29218396282196
0.115081768625076,0.310456464958191,-3.01003874845505,0.86700549030304
0.115687462144155,-1.16008552722931,0.18252228670120202,-1.01547986125946
0.116293155663234,0.22663078136444098,0.695056466388702,-1.35796765422821
0.116898849182314,-0.204472734260559,-3.1848751742363,0.75922961139679
0.117504542701393,0.0661644727706909,1.07107453279495,-0.74723767375946
0.118110236220472,1.51275626964569,2.14883332185745,1.76513781452179
0.118715929739552,-0.827177812385559,2.12967316560745,0.70174914264679
0.119321623258631,-0.855918046760559,0.333408517169952,-0.65143689250946
0.11992731677771,0.952321699333191,-3.6063986117363003,-0.13890271282195998
0.12053301029679,0.6457591993331909,-0.373122244548798,-1.82739148235321
0.121138703815869,0.0589794141769409,0.438789376544952,0.48140734577179
0.121744397334949,-1.53610359363556,0.486689767169952,-0.34487439250946
0.122350090854028,-1.62711433582306,-0.677289725017548,2.14594591999054
0.122955784373107,2.29832267589569,0.711821603107452,0.026353634834289798
0.123561477892187,1.41935050792694,1.8494558804512,-0.07902722454071019
0.124167171411266,0.581093671989441,2.7835134976386997,0.58918322467804
0.124772864930345,0.535588300895691,-1.88916960783005,-1.04901013469696
0.125378558449425,-0.448764726448059,-3.4770675570488003,0.0526988496780398
0.125984251968504,-1.71812507801056,1.4039822476387,0.0383287324905398
0.126589945487583,-3.10005134754181,-0.0114742953300476,0.0479088106155398
0.127195639006663,0.0613744337081909,-1.59697722501755,-0.45504529094696
0.127801332525742,2.84678214855194,0.781277169513702,-0.0910023221969602
0.128407026044821,3.41679679698944,1.5309182827949501,1.31966418170929
0.129012719563901,0.8421508008956909,3.2625174038886997,-0.0454969511032102
0.12961841308298,-2.3528052537918103,-0.710819998455048,-0.12213757610321
0.130224106602059,-1.60555916004181,-3.47467253751755,0.0886241426467898
0.130829800121139,-1.76123542957306,0.374123849201202,-0.45025525188446
0.131435493640218,-2.04145271472931,0.450764474201202,0.0287486543655398
0.132041187159297,0.973876875114441,-0.756325369548798,-0.59156140422821
0.132646880678377,2.66236564464569,-1.3742404086113,-0.55324109172821
0.133252574197456,2.9162377149581897,1.3321316617012,0.96759631061554
0.133858267716535,-1.48580818347931,3.0900759976387,0.68019396686554
0.134463961235615,-2.7886988084793103,-0.231816092205048,-0.16285290813446
0.135069654754694,0.36554191417694104,-2.77053679533005,0.40955675983429
0.135675348273773,-0.855918046760559,0.0986966031074524,-1.03943005657196
0.136281041792853,0.178730390739441,-0.0306344515800476,-0.60832654094696
0.136886735311932,-0.364939042854309,-3.29265105314255,0.94843615436554
0.137492428831012,0.940346601676941,1.51654816560745,-0.93404919719696
0.138098122350091,1.2828343946456902,2.2326590054512,1.84656847858429
0.13870381586917,-1.22954109363556,2.1991287320137,0.63468859577179
0.13930950938825,-0.240398027229309,0.331013497638702,-0.41432995891571
0.139915202907329,0.990642011833191,-3.2998361117363,-0.11974255657196
0.140520896426408,0.33680167980194103,-1.0485177523612998,-0.79274304485321
0.141126589945488,-0.0056861131668090705,1.0638894742012002,-0.44786023235321
0.141732283464567,-1.5265235155105599,0.115461739826202,0.10538927936554
0.142337976983646,-1.33492195301056,-0.787460623455048,0.73527941608429
0.142943670502726,2.09953605480194,0.821992501544952,-0.07423718547821019
0.143549364021805,1.01698722667694,1.3465017788887002,0.96999133014679
0.144155057540884,1.08165275402069,3.3104177945137,-0.9244691190719599
0.144760751059964,0.729584882926941,-1.79336882658005,-0.43828015422821
0.145366444579043,-0.204472734260559,-3.6447189242363,-0.9843446073532099
0.145972138098122,-2.14443855457306,1.0303592007637001,0.69695910358429
0.146577831617202,-3.5575000780105603,0.127436837482452,0.25388049030304
0.147183525136281,0.468527754020691,-0.876076346111298,-0.81190320110321
0.14778921865536,2.4372338087081897,0.316643380451202,1.25499865436554
0.14839491217444,3.12699943370819,1.6770144742012,-0.58916638469696
0.149000605693519,1.06249259777069,2.7643533413887,0.0550938692092898
0.149606299212598,-2.33125007801056,-1.07486296720505,0.84784533405304
0.150211992731678,-1.6893848436355599,-2.80885710783005,-0.32331921672821
0.150817686250757,-1.79476570301056,0.137016915607452,-0.08142224407196019
0.151423379769836,-1.8259009569168099,0.285508126544952,-0.0526820096969602
0.152029073288916,0.894841230583191,-0.914396658611298,-1.09930554485321
0.152634766807995,2.47555412120819,-0.871286307048798,-0.44307019329071
0.153240460327075,2.6767357618331897,1.2602810757637,1.27655383014679
0.153846153846154,-1.04991462879181,3.1523465054511997,0.6921690645217901
0.154451847365233,-2.7551685350418103,-0.610229178142548,0.84305529499054
0.155057540884313,0.126039961051941,-2.9310031039238003,-0.28499890422821
0.155663234403392,-1.02356941394806,0.151387032794952,-0.38798474407196
0.156268927922471,0.133225019645691,0.501059884357452,-0.78076794719696
0.156874621441551,-0.106276933479309,-2.73700652189255,-0.25386365032196
0.15748031496063,0.250580976676941,0.5848855679512021,0.0191685762405398
0.158086008479709,1.77381339855194,2.42186554841995,1.31247912311554
0.158691701998789,-0.8104126756668091,1.6386941617012,1.09932238483429
0.159297395517868,-0.8894483201980591,0.6447610562324521,-0.77597790813446
0.159903089036947,1.1247631055831901,-3.2279855257988,-0.06705212688446019
0.160508782556027,0.657734296989441,-1.0149874789238,-1.48490368938446
0.161114476075106,-0.0392163866043091,0.951323556232452,-0.06944714641571019
0.161720169594185,-1.33252693347931,0.0891165249824524,0.81910509967804
0.162325863113265,-1.8091358201980599,-0.476108084392548,0.7113292207717901
0.162931556632344,1.8432689649581901,0.702241524982452,-0.18440808391571
0.163537250151423,1.53670646495819,1.43990754060745,0.49098742389679
0.164142943670503,0.9020262891769409,3.0421756070137,0.0646739473342898
0.164748637189582,0.320036543083191,-1.9634152132987999,-0.46702038860321
0.165354330708661,-0.40086433582305897,-3.79081511564255,-0.73526257610321
0.165960024227741,-1.4283277147293099,2.0793777554512,-0.30655408000946
0.16656571774682,-3.52157478504181,-0.5527487093925479,1.55437609577179
0.167171411265899,0.0326341993331909,-0.991037283611298,-1.61662976360321
0.167777104784979,2.2408422071456897,0.383703927326202,0.40476672077179
0.168382798304058,3.27070060558319,1.8015554898262,-0.38079968547820997
0.168988491823137,1.26127921886444,3.5187844937324497,-0.59395642375946
0.169594185342217,-2.46776619129181,-1.24730437345505,1.19751818561554
0.170199878861296,-0.7888574998855591,-3.3932418734550502,-0.24428357219696
0.170805572380376,-1.58879402332306,0.125041817951202,0.29459582233429
0.171411265899455,-2.20431404285431,0.709426583576202,-0.0263367948532102
0.172016959418534,0.640969160270691,-0.897631521892548,-0.30415906047821
0.172622652937614,2.40849357433319,-0.856916189861298,-0.71370740032196
0.173228346456693,3.1222093946456897,1.03754425935745,0.67061388874054
0.173834039975772,-1.34929207019806,3.1427664273261997,0.72330431842804
0.174439733494852,-2.8222290819168103,-0.210260916423798,0.20358508014679
0.175045427013931,0.308061445426941,-3.00045867033005,0.0934141817092898
0.17565112053301,-1.18164070301056,0.5250100796699521,-0.61072156047821
0.17625681405209,0.37751701183319103,-0.207865896892548,-0.49336560344696
0.176862507571169,0.262556074333191,-2.51666472501755,-1.29569714641571
0.177468201090248,0.10208976573944101,0.536985177326202,0.42392687702179
0.178073894609328,1.70435783214569,1.8805911343574502,2.08607043170929
0.178679588128407,-0.707426835823059,2.5488015835762,0.15568468952179002
0.179285281647486,-0.764907304573059,-0.215050955486298,0.57720812702179
0.179890975166566,1.13194816417694,-3.1226046664238,-1.64057995891571
0.180496668685645,0.571513593864441,-1.24730437345505,-0.56282116985321
0.181102362204724,0.178730390739441,0.953718575763702,0.14849963092804
0.181708055723804,-1.67501472644806,0.635180978107452,-0.28739392375946
0.182313749242883,-1.57921394519806,-0.935951834392548,1.35319445514679
0.182919442761962,2.19533683605194,0.649551095294952,-0.49815564250946
0.183525136281042,1.11278800792694,1.66503937654495,0.5125425996780401
0.184130829800121,0.995432050895691,3.34155304841995,-0.27302380657196
0.1847365233192,0.801435468864441,-1.88437956876755,0.0335386934280398
0.18534221683828,-0.11585701160430899,-3.5034127718925503,-0.65143689250946
0.185947910357359,-1.86182624988556,1.21956574373245,-0.38798474407196
0.186553603876439,-3.4640943162918103,-0.19110076017379798,0.84305529499054
0.187159297395518,0.188310468864441,-0.907211600017548,-0.07184216594696019
0.187764990914597,2.75098136730194,0.687871407794952,0.31375597858429
0.188370684433677,2.95695304698944,1.4710427945137001,0.45745715045929003
0.188976377952756,1.11997306652069,3.2577273648262,-0.46462536907196
0.189582071471835,-2.20191902332306,-1.36226531095505,1.71005236530304
0.190187764990915,-1.45946296863556,-3.05314910001755,-0.16285290813446
0.190793458509994,-1.67980476551056,0.527405099201202,-0.52689587688446
0.191399152029073,-2.13485847644806,0.199287423419952,0.82629015827179
0.192004845548153,0.9235814649581909,-0.607834158611298,-1.53759411907196
0.192610539067232,2.36538322277069,-1.59697722501755,0.0790440645217898
0.193216232586311,3.08149406261444,1.46385773591995,-0.13890271282195998
0.193821926105391,-1.07146980457306,3.05894074373245,1.47534045124054
0.19442761962447,-2.8294141405105604,0.175337228107452,0.50056750202179
0.195033313143549,0.233815839958191,-2.5621700961113003,-0.90051892375946
0.195639006662629,-0.7098218553543091,-1.1083932406425498,0.78557482624054
0.196244700181708,0.0446092969894409,1.33452668123245,-2.57224255657196
0.196850393700787,-0.604440995979309,-2.9405831820488,0.65863879108429
0.197456087219867,0.657734296989441,0.474714669513702,0.33531115436554
0.198061780738946,2.06840080089569,2.73800812654495,0.29459582233429
0.198667474258025,-1.30618171863556,1.3465017788887002,1.76513781452179
0.199273167777105,-0.7912525194168091,0.8435476773262021,-0.8454334745407099
0.199878861296184,1.0912328321456901,-3.6686691195488,0.12933947467804
0.200484554815263,0.449367597770691,-0.557538748455048,-1.53759411907196
0.201090248334343,-0.185312578010559,0.563330392169952,0.54128283405304
0.201695941853422,-1.90493660144806,0.218447579669952,-0.22751843547821
0.202301635372502,-1.3301319139480599,-0.543168631267548,0.76880968952179
0.202907328891581,1.87919425792694,0.474714669513702,0.41674181842804
0.20351302241066,1.13434318370819,1.87580109529495,-0.23470349407196
0.20411871592974,1.00261710948944,2.39312531404495,0.49098742389679
0.204724409448819,0.46613273448944104,-0.9120016390800479,-1.82978650188446
0.205330102967898,-0.434394609260559,-4.0614523226738,0.35686633014679
0.205935796486978,-1.45227791004181,1.4854129117012,0.20119006061554
0.206541490006057,-3.5167847459793102,0.283113107013702,0.0383287324905398
0.207147183525136,0.233815839958191,-1.7502584750175498,0.35207629108429
0.207752877044216,3.11981437511444,0.853127755451202,0.026353634834289798
0.208358570563295,2.6958959180831896,1.5381033413887,0.0574888887405398
0.208964264082374,1.01219718761444,3.05415070466995,0.12454943561554001
0.209569957601454,-2.64020759754181,-0.818595877361298,0.45985216999054
0.210175651120533,-1.01398933582306,-3.0747042757988003,-0.69215222454071
0.210781344639612,-1.85703621082306,0.170547189044952,-0.55084607219696
0.211387038158692,-2.3432251756668103,0.261557931232452,0.52691271686554
0.211992731677771,1.02896232433319,-0.763510428142548,-1.16397107219696
0.21259842519685,2.07558585948944,-1.2544894320488,-0.18440808391571
0.21320411871593,3.21082511730194,1.09502472810745,0.9316710176467901
0.213809812235009,-1.04512458972931,3.0397805874824497,0.35447131061554
0.214415505754088,-2.99706550769806,-0.30845671720504797,0.83587023639679
0.215021199273168,0.197890546989441,-2.36817351408005,-0.73286755657196
0.215626892792247,-0.822387773323059,-0.516823416423798,0.74006945514679
0.216232586311326,0.269741132926941,0.388493966388702,-1.09691052532196
0.216838279830406,-0.345778886604309,-2.72742644376755,-1.42742322063446
0.217443973349485,0.0398192579269409,0.240002755451202,0.5125425996780401
0.218049666868565,1.8049486524581901,2.3524099820137,1.55198107624054
0.218655360387644,-0.7289820116043091,2.54640656404495,-0.15806286907196
0.219261053906723,-0.956508867073059,-0.0162643343925476,0.46224718952179
0.219866747425803,1.60137199230194,-3.33576140470505,-0.11734753704070999
0.220472440944882,0.7655101758956909,-0.854521170330048,-0.76160779094696
0.221078134463961,-0.28350837879180896,0.821992501544952,0.50056750202179
0.221683827983041,-1.13134529285431,0.383703927326202,0.10538927936554
0.22228952150212,-1.86661628894806,-0.959902029705048,0.95801623249054
0.222895215021199,2.11869621105194,0.927373360919952,-1.14481091594696
0.223500908540279,1.14152824230194,1.0495193570137,0.89574572467804
0.224106602059358,0.976271894645691,3.5355496304511997,-0.51252575969696
0.224712295578437,0.873286054801941,-1.44848601408005,0.25148547077179
0.225317989097517,-0.436789628791809,-3.9225411898613003,-0.5053407011032099
0.225923682616596,-1.35887214832306,1.4135623257637,-0.60114148235321
0.226529376135675,-3.32997322254181,-0.222236014080048,1.04423693561554
0.227135069654755,-0.0056861131668090705,-0.988642264080048,-0.92925915813446
0.227740763173834,2.45160392589569,0.278323067951202,0.68258898639679
0.228346456692913,3.1725048048019397,1.3632669156074502,0.21795519733429
0.228952150211993,1.31396964855194,3.1260012906074497,0.13891955280304
0.229557843731072,-2.53722175769806,-0.684474783611298,0.62031847858429
0.230163537250151,-1.75405037097931,-3.5824484164238,-0.46223034954071
0.230769230769231,-1.52173347644806,0.46992463045120203,-0.60832654094696
0.23137492428831,-2.22586921863556,-0.0785348422050476,1.36277453327179
0.231980617807389,1.11039298839569,-0.248581228923798,-1.90403210735321
0.232586311326469,2.05642570323944,-1.4221407992363,-0.41672497844696
0.233192004845548,3.07670402355194,1.5261282437324502,0.39997668170929
0.233797698364627,-0.808017656135559,2.7116629117012,1.60706652545929
0.234403391883707,-2.74798347644806,0.376518868732452,-0.48857556438446
0.235009085402786,0.233815839958191,-2.8112521273613003,-0.41911999797821
0.235614778921866,-0.719401933479309,-0.507243338298798,0.45985216999054
0.236220472440945,0.169150312614441,0.745351876544952,-1.62860486125946
0.236826165960024,-0.48229499988555896,-2.9357931429863,0.0718590059280398
0.237431859479104,0.7223998243331909,1.3081814663887001,-1.02745495891571
0.238037552998183,1.4073754102706901,1.5237332242012,2.22737658405304
0.238643246517262,-0.7098218553543091,2.9631399624824497,-0.13171765422821
0.239248940036342,-1.3900074022293099,-0.346777029705048,0.72330431842804
0.239854633555421,1.68280265636444,-2.88549773283005,-1.13283581829071
0.2404603270745,0.17633537120819098,-1.0700729281425498,-1.00829480266571
0.24106602059358,-0.07753669910430909,0.807622384357452,0.49817248249054
0.241671714112659,-1.29660164051056,0.247187814044952,-0.040706912040710204
0.242277407631738,-1.6079541795730599,-0.660524588298798,1.39630480670929
0.242883101150818,2.04684562511444,1.14292511873245,-0.13411267375945998
0.243488794669897,0.748745039176941,0.922583321857452,1.11129748249054
0.244094488188976,1.1511083204269401,3.44693390779495,-0.42151501750946
0.244700181708056,0.6050438673019409,-1.77420867033005,0.10059924030304
0.245305875227135,-0.151782304573059,-3.47467253751755,-1.42742322063446
0.245911568746214,-1.61992927722931,1.5381033413887,0.27543566608429
0.246517262265294,-3.62935066394806,-0.00189421720504762,1.63341174030304
0.247122955784373,-0.13262214832305902,-0.574303885173798,-1.19510632610321
0.247728649303452,2.67434074230194,-0.447367850017548,1.15680285358429
0.248334342822532,3.0790990430831897,2.01471222810745,-1.76033093547821
0.248940036341611,1.29959953136444,2.6398123257637,0.97717638874054
0.24954572986069,-2.18515388660431,-0.19589079923629799,0.97717638874054
0.25015142337977,-1.56005378894806,-2.8735226351738,-0.94123425579071
0.250757116898849,-1.64387947254181,-0.828175955486298,0.91490588092804
0.251362810417929,-1.91691169910431,0.936953439044952,-0.33529431438446
0.251968503937008,0.672104414176941,-1.5059664828300499,0.16526476764679002
0.252574197456087,2.2168920118331896,-0.284506521892548,-1.59746960735321
0.253179890975167,2.8300170118331898,1.21477570466995,0.81910509967804
0.253785584494246,-0.7313770311355591,2.41228547029495,0.92448595905304
0.254391278013325,-2.7192432420730603,0.17294220857620202,-0.18440808391571
0.254996971532405,-0.07993171863555909,-3.24954070158005,0.0958092012405398
0.255602665051484,-0.266743242073059,0.9441384976387021,-1.25737683391571
0.256208358570563,-0.0966968553543091,-0.140805350017548,1.51366076374054
0.256814052089643,-0.135017167854309,-2.4472091586113,-1.6333949003219599
0.257419745608722,0.233815839958191,0.7836721890449521,-0.40953991985321
0.258025439127801,1.39779533214569,1.78958039216995,2.29204211139679
0.258631132646881,-0.168547441291809,2.9272146695137,-0.63946179485321
0.25923682616596,-1.33731697254181,-0.188705740642548,1.33163927936554
0.259842519685039,1.15589835948944,-2.9597433382988,-1.18073620891571
0.260448213204119,0.521218183708191,-1.31436492033005,-1.09930554485321
0.261053906723198,0.348776777458191,0.759721993732452,0.43590197467804
0.261659600242277,-1.41395759754181,0.481899728107452,-0.55084607219696
0.262265293761357,-1.74207527332306,-0.540773611736298,0.93406603717804
0.262870987280436,1.91272453136444,0.268742989826202,0.74725451374054
0.263476680799515,1.04572746105194,1.38242707185745,0.00479845905303977
0.264082374318595,0.6864745313644409,3.0230154507636997,-0.16764294719696
0.264688067837674,1.07925773448944,-1.1586886507988,-0.44546521282196
0.265293761356753,-0.257163163948059,-3.96325652189255,-0.76400281047821
0.265899454875833,-1.58160896472931,1.81353058748245,-0.33289929485321
0.266505148394912,-3.4736743944168103,-0.243791189861298,1.33642931842804
0.267110841913992,-0.434394609260559,-1.2449093539237999,-1.40107800579071
0.267716535433071,2.92342277355194,0.587280587482452,0.45985216999054
0.26832222895215,2.96413810558319,1.2554910367012,0.51493761920929
0.26892792247123,1.47922599620819,3.4732791226387,-0.47899548625946
0.269533615990309,-2.4557910936355603,-1.2592794711113,1.62862170124054
0.270139309509388,-1.11458015613556,-2.8304122836113,-1.30527722454071
0.270745003028468,-1.62711433582306,-0.0761398226737976,0.20598009967804
0.271350696547547,-2.5899121873855604,1.0159890835762,-0.83345837688446
0.271956390066626,0.7655101758956909,-1.2880197054862998,-0.52450085735321
0.272562083585706,2.50908439464569,-1.36226531095505,-0.29218396282196
0.273167777104785,3.16771476573944,1.51654816560745,-0.25625866985321
0.273773470623864,-1.0642847459793099,2.6493924038887,1.66933703327179
0.274379164142944,-2.74319343738556,0.577700509357452,0.0311436738967898
0.274984857662023,0.22184074230194098,-3.0148287875175503,0.15328966999054
0.275590551181102,-0.0272412889480591,-0.5934640414237979,-0.35684949016571
0.276196244700182,-0.29308845691680896,0.690266427326202,-0.93644421672821
0.276801938219261,-0.34098884754180897,-1.9155148226738,0.00958849811553977
0.27740763173834,0.614623945426941,-0.504848318767548,0.51733263874054
0.27801332525742,1.67561759777069,2.22547394685745,0.79275988483429
0.278619018776499,-1.35887214832306,2.5871218960761997,1.15919787311554
0.279224712295578,-0.9493238084793091,0.101091622638702,0.45985216999054
0.279830405814658,1.2445140821456901,-2.8016720492363003,-0.35205945110321
0.280436099333737,0.18591544933319099,-1.21377410001755,-0.29697400188446
0.281041792852816,0.303271406364441,0.498664864826202,0.25148547077179
0.281647486371896,-1.87140632801056,0.762117013263702,-0.7855579862594599
0.282253179890975,-0.9517188280105591,-0.253371267986298,0.93406603717804
0.282858873410055,1.8863793165206901,0.153782052326202,0.62271349811554
0.283464566929134,0.7080297071456909,2.10572297029495,-0.55324109172821
0.284070260448213,0.7223998243331909,2.3739651577949497,0.9915465059280401
0.284675953967293,0.997827070426941,-1.32873503751755,0.22274523639679
0.285281647486372,-0.489480058479309,-3.6207687289238,-0.38319470500946
0.285887341005451,-1.66543464832306,1.6722244351387001,-1.67411023235321
0.286493034524531,-3.87124763660431,0.06516632966995241,1.59509142780304
0.28709872804361,0.0326341993331909,-1.3886105257988,0.0383287324905398
0.287704421562689,3.14376457042694,-0.162360525798798,0.61073840045929
0.288310115081769,2.14504142589569,1.5955838101387,0.24430041217804
0.288915808600848,1.51275626964569,3.48046418123245,-0.85022351360321
0.289521502119927,-2.49171638660431,-0.823385916423798,0.76162463092804
0.290127195639007,-1.26307136707306,-3.0148287875175503,-0.78316296672821
0.290732889158086,-1.35647712879181,-0.686869803142548,0.50535754108429
0.291338582677165,-2.6928980272293104,0.730981759357452,-0.0550770292282102
0.291944276196245,0.995432050895691,-0.313246756267548,-1.05140515422821
0.292549969715324,2.23605216808319,-1.6185324007988,-0.39756482219696
0.293155663234403,3.37608146495819,1.46385773591995,-0.35445447063446
0.293761356753483,-1.1241602342605599,2.8888943570137,1.76034777545929
0.294367050272562,-3.16950691394806,0.06516632966995241,0.58199816608429
0.294972743791641,0.557143476676941,-2.56456511564255,-0.9651844511032099
0.295578437310721,-0.5517505662918091,-0.550353689861298,0.12933947467804
0.2961841308298,-0.561330644416809,0.546565255451202,-1.33641247844696
0.296789824348879,0.0134740430831909,-2.7346115023613002,-0.06705212688446019
0.297395517867959,0.8637059766769409,1.05670441560745,-0.87417370891571
0.298001211387038,1.53910148448944,1.8638259976387002,1.98787463092804
0.298606904906118,-0.467924882698059,2.6038870327949497,0.5724180879592901
0.299212598425197,-1.30139167957306,0.0986966031074524,0.30417590045929
0.299818291944276,1.73788810558319,-3.09625945158005,-0.25865368938446
0.300423985463356,0.492477949333191,-1.25209441251755,-1.35557263469696
0.301029678982435,-0.0416114061355591,0.754931954669952,0.29459582233429
0.301635372501514,-1.56005378894806,0.158572091388702,0.17723986530304
0.302241066020594,-1.63190437488556,-0.277321463298798,0.44787707233429
0.302846759539673,1.97260001964569,0.472319649982452,0.00479845905303977
0.303452453058752,1.0481224805831901,0.994433907794952,0.51014758014679
0.304058146577832,0.777485273551941,3.3319729702949497,0.0550938692092898
0.304663840096911,0.892446211051941,-1.0173824984550501,-0.92207409954071
0.30526953361599,0.152385175895691,-3.8890109164238003,-0.19159314250946
0.30587522713507,-1.45227791004181,1.18603547029495,0.30657091999054
0.306480920654149,-3.35631843738556,0.520220040607452,0.6322935762405401
0.307086614173228,-0.465529863166809,-1.3694503695487998,0.20837511920929
0.307692307692308,3.02640861339569,0.606440743732452,0.34010119342804
0.308298001211387,2.7030809766769397,1.2986013882637,0.32812609577179
0.308903694730466,1.21337882823944,3.4397488492012,-0.99631970500946
0.309509388249546,-1.97918220691681,-0.662919607830048,1.27894884967804
0.310115081768625,-1.61034919910431,-3.4387472445488,-0.00717663860321023
0.310720775287704,-1.5648438280105599,0.23760773591995202,-0.28260388469696
0.311326468806784,-2.5755420701980603,0.249582833576202,0.94125109577179
0.311932162325863,0.971481855583191,-0.200680838298798,-1.27893200969696
0.312537855844942,2.28634757823944,-1.8867745882987998,0.98675646686554
0.313143549364022,3.1126293165206897,1.6003738492012,-0.62988171672821
0.313749242883101,-0.901423417854309,3.0661258023261997,0.5125425996780401
0.31435493640218,-2.83420417957306,-0.124040213298798,1.33642931842804
0.31496062992126,0.451762617301941,-1.9250949007987999,-1.50166882610321
0.315566323440339,-0.6738965623855591,-0.756325369548798,0.60834338092804
0.316172016959419,-0.13741218738555902,0.508244942951202,-1.17594616985321
0.316777710478498,0.0781395704269409,-2.37775359220505,-0.6849671659469599
0.317383403997577,0.126039961051941,0.386098946857452,0.62750353717804
0.317989097516657,1.75704826183319,2.26379425935745,1.03226183795929
0.318594791035736,-0.17333748035430901,2.30211457185745,0.43111193561554
0.319200484554815,-1.20798591785431,-0.0234493929862976,0.53649279499054
0.319806178073895,1.5702367383956901,-2.9812985140800503,-1.22624158000946
0.320411871592974,0.6840795118331909,-1.5131515414238,-1.48490368938446
0.321017565112053,-0.218842851448059,0.8842630093574521,0.60834338092804
0.321623258631133,-1.4067725389480599,0.826782540607452,0.40476672077179
0.322228952150212,-1.3516870897293098,-0.878471365642548,0.9508311738967901
0.322834645669291,2.34861808605194,0.699846505451202,-0.41432995891571
0.323440339188371,0.755930097770691,1.1788504117012,0.46703722858429003
0.32404603270745,0.755930097770691,3.3199978726387,-0.69454724407196
0.324651726226529,0.928371504020691,-1.4628561312675499,0.57002306842804
0.325257419745609,-0.760117265510559,-3.85787566251755,-0.54845105266571
0.325863113264688,-1.17445564441681,1.74168000154495,-0.45504529094696
0.326468806783767,-3.95746833972931,-0.152780447673798,0.66582384967804
0.327074500302847,-0.0368213670730591,-1.1850338656425499,-0.040706912040710204
0.327680193821926,2.67434074230194,0.366938790607452,1.01549670124054
0.328285887341005,2.7126610548019396,1.9284915249824501,-1.29330212688446
0.328891580860085,1.37863517589569,2.6877127163887,0.38800158405304
0.329497274379164,-2.12527839832306,-0.0354244906425476,-0.0886073026657102
0.330102967898244,-1.7827906053543099,-3.5824484164238,0.50535754108429
0.330708661417323,-1.21996101551056,0.582490548419952,-0.87896374797821
0.331314354936402,-2.2402393358230603,-0.0881149203300476,1.57353625202179
0.331920048455482,0.518823164176941,-0.718005057048798,-1.65016003704071
0.332525741974561,1.86721916027069,-1.57781706876755,-0.62269665813446
0.33313143549364,3.17010978527069,1.03275422029495,1.19512316608429
0.33373712901272,-0.815202714729309,3.4445388882637,0.10778429889679
0.334342822531799,-3.3108130662918103,-0.234211111736298,0.83347521686554
0.334948516050878,0.698449629020691,-4.4207052523613,-1.6333949003219599
0.335554209569958,-0.295483476448059,0.247187814044952,-0.46223034954071
0.336159903089037,-1.7492603319168099,4.3259060757637,0.99873156452179
0.336765596608116,0.195495527458191,-4.4997408968925505,-0.85261853313446
0.337371290127196,2.4037035352706897,-1.8724044711113,-0.96039441204071
0.337976983646275,-0.168547441291809,3.2433572476387,2.06930529499054
0.338582677165354,-0.300273515510559,3.1954568570136996,-0.35205945110321
0.339188370684434,-1.37324226551056,0.522615060138702,1.60946154499054
0.339794064203513,1.21337882823944,-3.0124337679863,-0.39037976360321
0.340399757722592,1.37145011730194,-2.8160421664238,-0.90291394329071
0.341005451241672,-1.39240242176056,1.3632669156074502,-0.51971081829071
0.341611144760751,-0.254768144416809,0.513034982013702,0.53888781452179
0.34221683827983,-0.297878495979309,-0.346777029705048,0.76641466999054
0.34282253179891,-0.190102617073059,0.781277169513702,0.59876330280304
0.343428225317989,0.772695234489441,0.726191720294952,-0.040706912040710204
0.344033918837068,0.700844648551941,1.9979470913887,-0.0454969511032102
0.344639612356148,0.954716718864441,-0.167150564861298,-0.35924450969696
0.345245305875227,0.940346601676941,-3.0507540804863003,-1.54477917766571
0.345850999394306,-1.67980476551056,1.4902029507637,0.91969591999054
0.346456692913386,-3.13358162097931,0.110671700763702,0.96999133014679
0.347062386432465,-0.08472175769805909,-3.16331999845505,-0.51731579875946
0.347668079951545,1.74028312511444,0.8842630093574521,0.77599474811554
0.348273773470624,2.76774650402069,1.6530642788887,-0.20596325969696
0.348879466989703,1.8863793165206901,3.60979523591995,-0.84782849407196
0.349485160508783,-1.8905664842605598,-0.286901541423798,0.91969591999054
0.350090854027862,-0.781672441291809,-4.4398654086113005,-1.36515271282196
0.350696547546941,-2.16120369129181,-0.145595389080048,0.69456408405304
0.351302241066021,-2.86294441394806,1.4949929898262,0.39997668170929
0.3519079345851,1.53191642589569,-0.787460623455048,-0.96757947063446
0.352513628104179,2.1115111524581898,-1.2281442172050498,-0.0023865995407102297
0.353119321623259,2.8587572462081896,0.474714669513702,0.43590197467804
0.353725015142338,-0.6116260545730591,2.7356131070137,0.49817248249054
0.354330708661417,-2.68810798816681,0.383703927326202,1.51605578327179
0.354936402180497,0.533193281364441,-2.2627926547050503,-0.33529431438446
0.355542095699576,-1.32294685535431,-0.337196951580048,-0.92686413860321
0.356147789218655,-0.161362382698059,-0.727585135173798,-0.28978894329071
0.356753482737735,0.7223998243331909,-2.42086394376755,-1.60225964641571
0.357359176256814,0.00628898448944093,1.18603547029495,0.67540392780304
0.357964869775893,1.50796623058319,2.5919119351387,1.72202746295929
0.358570563294973,-0.175732499885559,1.82790070466995,0.20119006061554
0.359176256814052,-1.20798591785431,-0.00668425626754762,0.22993029499054002
0.359781950333131,1.67082755870819,-2.58372527189255,-0.64904187297821
0.360387643852211,0.147595136833191,-1.9298849398612998,-0.34247937297821
0.36099333737129,0.18112541027069098,1.4710427945137001,-1.07056531047821
0.361599030890369,-1.53849861316681,-0.444972830486298,1.44420519733429
0.362204724409449,-1.44269783191681,0.0891165249824524,0.0958092012405398
0.362810417928528,1.77381339855194,0.225632638263702,0.7520445528030401
0.363416111447607,1.26367423839569,1.09502472810745,0.21556017780304002
0.364021804966687,1.15350333995819,3.73912629060745,-0.94362927532196
0.364627498485766,0.248185957145691,-1.73588835783005,1.03944689655304
0.365233192004846,-0.228422929573059,-3.67106413908005,-1.62860486125946
0.365838885523925,-1.64866951160431,0.484294747638702,0.38800158405304
0.366444579043004,-3.3946387498855604,0.862707833576202,0.34968127155304
0.367050272562084,-0.27153328113555897,-0.741955252361298,-0.07423718547821019
0.367655966081163,3.17729484386444,0.07714142732620241,0.8119200410842901
0.368261659600242,2.95455802745819,1.4446975796699502,-0.81669324016571
0.368867353119322,0.973876875114441,3.1954568570136996,-0.39756482219696
0.369473046638401,-2.32885505847931,-0.607834158611298,-0.10776745891570999
0.37007874015748,-1.50736335926056,-2.89986785001755,0.54128283405304
0.37068443367656,-1.6462744920730599,-0.346777029705048,1.11608752155304
0.371290127195639,-2.04145271472931,0.216052560138702,0.21795519733429
0.371895820714718,0.5643285352706909,-1.1970089632988,-1.0346400175094599
0.372501514233798,2.41567863292694,-0.41862761564254797,-1.41305310344696
0.373107207752877,2.50189933605194,0.841152657794952,1.39390978717804
0.373712901271956,-0.896633378791809,3.18827179841995,0.00479845905303977
0.374318594791036,-2.68810798816681,-0.512033377361298,1.11848254108429
0.374924288310115,-0.08951179676055909,-2.8639425570488,-0.23470349407196
0.375529981829194,-0.6140210741043091,0.41004914216995203,-0.40953991985321
0.376135675348274,-0.144597245979309,-0.140805350017548,-0.13411267375945998
0.376741368867353,0.631389082145691,-2.1430416781425503,-1.37233777141571
0.377347062386432,-0.146992265510559,-0.260556326580048,0.73527941608429
0.377952755905512,1.60137199230194,2.6925027554512,0.64666369342804
0.378558449424591,-0.556540605354309,2.2805593960762,0.85024035358429
0.379164142943671,-1.38282234363556,0.127436837482452,0.40716174030304003
0.37976983646275,1.56065666027069,-3.1273947054863003,-0.47660046672821
0.380375529981829,0.449367597770691,-1.5371017367363,-1.0945155057907099
0.380981223500909,0.042214277458190896,1.1620852749824502,-0.53647595500946
0.381586917019988,-1.35408210926056,-0.049794607830047605,0.49338244342804
0.382192610539067,-1.52173347644806,0.036426095294952394,-0.08142224407196019
0.382798304058147,1.57742179698944,0.0795364468574524,0.96520129108429
0.383403997577226,1.11278800792694,1.3512918179512001,-0.14129773235321
0.384009691096305,1.36187003917694,2.8745242398262,-0.12453259563446
0.384615384615385,0.427812421989441,-1.60176726408005,0.13412951374054
0.385221078134464,-0.396074296760559,-3.4603024203300503,-1.80104626750946
0.385826771653543,-1.4067725389480599,0.520220040607452,0.95801623249054
0.386432465172623,-3.26051765613556,0.216052560138702,0.15568468952179002
0.387038158691702,-0.487085038948059,-1.5131515414238,-0.35924450969696
0.387643852210781,2.4707640821456898,0.192102364826202,0.90293078327179
0.388249545729861,3.18447990245819,1.9548367398262,-1.38910290813446
0.38885523924894,1.50078117198944,2.3643850796699497,1.16159289264679
0.389460932768019,-2.08456306629181,-0.133620291423798,-0.59395642375946
0.390066626287099,-1.34450203113556,-3.8099752718925504,-0.16524792766571
0.390672319806178,-1.6295093553543099,0.22802765779495202,1.15680285358429
0.391278013325257,-2.69050300769806,1.6123489468574501,-0.77118786907196
0.391883706844337,1.38103019542694,-2.5765402132988,0.17963488483429
0.392489400363416,2.1809667188644397,-0.801830740642548,-1.39149792766571
0.393095093882495,2.6168602735519397,1.57881867341995,0.16047472858429002
0.393700787401575,-0.245188066291809,2.30211457185745,1.46576037311554
0.394306480920654,-3.08568123035431,0.733376778888702,0.26346056842804
0.394912174439733,0.293691328239441,-3.48425261564255,0.36884142780304
0.395517867958813,-0.499060136604309,-0.049794607830047605,-1.01308484172821
0.396123561477892,-1.06667976551056,0.661526192951202,0.0838341035842898
0.396729254996972,1.15350333995819,-2.3466183382988,-1.25737683391571
0.397334948516051,0.5451683790206909,0.0819314663887024,0.44308703327179
0.39794064203513,0.480502851676941,2.1655984585762,1.72202746295929
0.39854633555421,0.205075605583191,2.37875519685745,-0.42391003704071
0.399152029073289,-1.94325691394806,0.230422677326202,1.46336535358429
0.399757722592368,1.3858202344894401,-2.1119064242363,-1.92558728313446
0.400363416111448,1.43372062511444,-2.76095671720505,0.86461047077179
0.400969109630527,-0.695451738166809,2.20631379060745,-0.18680310344696
0.401574803149606,-1.21756599597931,-0.250976248455048,0.44787707233429
0.402180496668686,-1.55765876941681,-0.866496267986298,0.32094103717804
0.402786190187765,1.1678734571456901,1.1261599820137,-0.43828015422821
0.403391883706844,1.34510490245819,0.496269845294952,1.50887072467804
0.403997577225924,1.13434318370819,3.6481155484199497,-0.88614880657196
0.404603270745003,0.650549238395691,-0.995827322673798,-0.14848279094695999
0.405208964264082,-0.194892656135559,-4.36561980314255,-0.70652234172821
0.405814657783162,-1.66064460926056,1.5692385952949501,0.0455137910842898
0.406420351302241,-3.36350349597931,0.486689767169952,1.24781359577179
0.40702604482132,-0.39367927722930895,-1.19940398283005,-0.86698865032196
0.4076317383404,2.4635790235519397,0.558540353107452,0.66103381061554
0.408237431859479,3.1293944532394398,1.2866262906074502,-0.20835827922820999
0.408843125378558,1.4241405469894401,3.8469021695137,-0.5652161893844599
0.409448818897638,-2.3599903123855603,-0.325221853923798,0.96520129108429
0.410054512416717,-0.8702881639480591,-3.43156218595505,-0.79753308391571
0.410660205935796,-1.81632087879181,-0.629389334392548,0.55804797077179
0.411265899454876,-2.68810798816681,1.4949929898262,-0.47420544719696
0.411871592973955,1.06249259777069,-1.2736495882988,-0.52929089641571
0.412477286493035,2.36298820323944,-1.48680632658005,-0.74005261516571
0.413082980012114,3.18687492198944,1.5644485562324502,0.23711535358429
0.413688673531193,-1.0858399217605599,2.4913211148262,1.27655383014679
0.414294367050273,-2.8318091600418103,1.0471243374824502,-0.0838172636032102
0.414900060569352,0.142805097770691,-3.05314910001755,-0.0622620878219602
0.415505754088431,-0.865498124885559,-0.0833248812675476,-1.04661511516571
0.416111447607511,-0.0200562303543091,-0.0761398226737976,0.35447131061554
0.41671714112659,0.0805345899581909,-1.87958952970505,-1.41065808391571
0.417322834645669,0.183520429801941,0.251977853107452,0.19640002155304
0.417928528164749,1.78578849620819,1.2938113492012,2.53393908405304
0.418534221683828,-0.07993171863555909,3.44693390779495,-0.62269665813446
0.419139915202907,-1.66064460926056,-0.440182791423798,1.35319445514679
0.419745608721987,1.46485587902069,-2.52624480314255,-2.03336316204071
0.420351302241066,0.6864745313644409,-1.7526534945488,-0.54366101360321
0.420956995760145,0.042214277458190896,1.10460480623245,0.0119835176467898
0.421562689279225,-1.51454841785431,0.170547189044952,-0.16285290813446
0.422168382798304,-1.48101814441681,-0.667709646892548,0.81431506061554
0.422774076317383,1.73309806652069,0.354963692951202,0.0143785371780398
0.423379769836463,1.11997306652069,1.3129715054512001,0.52691271686554
0.423985463355542,1.04572746105194,3.3319729702949497,-0.0933973417282102
0.424591156874621,0.322431562614441,-1.04133269376755,-0.25865368938446
0.425196850393701,-0.31224861316680896,-4.2817941195488,-0.37121960735320997
0.42580254391278,-1.31815681629181,1.14771515779495,-0.70173230266571
0.426408237431859,-3.6868311326980603,1.2507009976387,0.0766490449905398
0.427013930950939,-0.355358964729309,-1.9203048617362999,0.96999133014679
0.427619624470018,3.25633048839569,0.390888985919952,-0.34966443157196
0.428225317989098,2.74858634777069,1.2650711148262002,0.49098742389679
0.428831011508177,1.42174552745819,3.4876492398262,-0.19159314250946
0.429436705027256,-2.1300684373855603,-0.454552908611298,1.12806261920929
0.430042398546336,-1.5863990037918099,-2.76574675626755,-0.54845105266571
0.430648092065415,-1.67261970691681,-0.349172049236298,0.11736437702179
0.431253785584494,-2.1372534959793104,-0.473713064861298,0.91730090045929
0.431859479103574,0.9020262891769409,-0.047399588298797604,-2.01659802532196
0.432465172622653,2.0947460157394397,-1.5275216586112998,0.8909556856155401
0.433070866141732,2.68392082042694,1.2794412320137,-0.77118786907196
0.433676559660812,-0.245188066291809,2.9607449429512,1.07058215045929
0.434282253179891,-3.1287915819168104,-0.413837576580048,1.09453234577179
0.43488794669897,0.298481367301941,-1.9346749789238,-1.89924206829071
0.43549364021805,-0.642761308479309,-0.277321463298798,0.82389513874054
0.436099333737129,-0.410444413948059,0.462739571857452,-1.59267956829071
0.436705027256208,0.561933515739441,-2.9262130648613,-0.22033337688446
0.437310720775288,-0.305063554573059,0.0891165249824524,0.15568468952179002
0.437916414294367,1.5486815626144401,2.58951691560745,0.5317027559280401
0.438522107813446,-0.429604570198059,2.22547394685745,1.76513781452179
0.439127801332526,-1.15769050769806,0.254372872638702,0.0574888887405398
0.439733494851605,1.6851976758956901,-3.0220138461113,-0.80232312297821
0.440339188370684,0.0709545118331909,-1.5083615023613,-0.57958630657196
0.440944881889764,0.0278441602706909,1.5692385952949501,-0.84303845500946
0.441550575408843,-1.40198249988556,-0.262951346111298,0.93885607624054
0.442156268927922,-1.83308601551056,-0.0234493929862976,-0.55324109172821
0.442761962447002,1.6420873243331902,0.390888985919952,0.62989855670929
0.443367655966081,1.16068839855194,0.505849923419952,0.91969591999054
0.44397334948516,1.05291251964569,3.8804324429512,-1.69087536907196
0.44457904300424,0.614623945426941,-1.7622335726737999,1.82022326374054
0.445184736523319,-0.101486894416809,-3.4722775179863,-1.81781140422821
0.445790430042399,-1.47383308582306,0.982458810138702,-0.11255749797820999
0.446396123561478,-3.32039314441681,0.216052560138702,0.24909045124054
0.447001817080557,-0.458344804573059,-1.2880197054862998,-0.40235486125946
0.447607510599637,2.62165031261444,0.414839181232452,0.9316710176467901
0.448213204118716,3.0096434766769398,1.8829861538887,-0.75442273235321
0.448818897637795,1.77860343761444,2.5823318570137,0.9915465059280401
0.449424591156875,-2.12288337879181,-0.10009001798629799,-0.41911999797821
0.450030284675954,-1.6031641405105599,-3.52736296720505,0.24430041217804
0.450635978195033,-1.30618171863556,-0.35875212736129797,0.6514537324905401
0.451241671714113,-2.33843513660431,0.960903634357452,-0.6849671659469599
0.451847365233192,0.401467207145691,-1.4652511507988,-0.0598670682907102
0.452453058752271,2.5162694532394396,-0.370727225017548,-1.91840222454071
0.453058752271351,3.32339103527069,0.833967599201202,1.2406285371780401
0.45366444579043,-0.7122168748855591,2.8888943570137,0.91011584186554
0.454270139309509,-2.7886988084793103,0.685476388263702,-0.17482800579071
0.454875832828589,0.10448478527069101,-3.6327438265800502,1.29571398639679
0.455481526347668,-0.47271492176055896,0.457949532794952,-1.75554089641571
0.456087219866747,-0.434394609260559,-0.0258444125175476,0.28501574420929
0.456692913385827,0.0278441602706909,-2.3561984164238003,-0.69694226360321
0.457298606904906,0.399072187614441,0.620810860919952,0.48859240436554
0.457904300423985,1.3307347852706901,1.9117263882637001,1.79387804889679
0.458509993943065,-0.408049394416809,2.8649441617012,-1.08972546672821
0.459115687462144,-1.35647712879181,-0.339591971111298,1.76034777545929
0.459721380981224,1.26127921886444,-2.5621700961113003,-1.41784314250946
0.460327074500303,0.576303632926941,-1.7287032992362998,-0.30655408000946
0.460932768019382,-0.305063554573059,1.50696808748245,-0.26104870891570997
0.461538461538462,-1.04991462879181,-0.162360525798798,0.88137560749054
0.462144155057541,-1.0906299608230599,-0.193495779705048,0.42153185749054
0.46274984857662,1.65885246105194,0.754931954669952,-0.37121960735320997
0.4633555420957,1.34031486339569,1.2315408413887001,1.73400256061554
0.463961235614779,1.02177726573944,3.5786599820136997,-0.0574720487594602
0.464566929133858,1.11278800792694,-1.3790304476738,-0.63227673625946
0.465172622652938,-0.27153328113555897,-3.50820281095505,-1.11128064250946
0.465778316172017,-1.64148445301056,0.793252267169952,0.99633654499054
0.466384009691096,-3.0784961717605603,0.709426583576202,0.36644640827179
0.466989703210176,-0.484690019416809,-1.6568527132988,-0.18680310344696
0.467595396729255,3.02640861339569,0.448369454669952,-0.19638318157196
0.468201090248334,2.68871085948944,1.1117898648262001,0.16047472858429002
0.468806783767414,1.3474999219894401,3.4110086148262,0.51733263874054
0.469412477286493,-2.43423591785431,-0.564723807048798,0.85024035358429
0.470018170805572,-1.41395759754181,-3.01003874845505,-0.77358288860321
0.470623864324652,-1.11697517566681,-0.10009001798629799,0.0574888887405398
0.471229557843731,-2.60667732410431,0.331013497638702,0.0455137910842898
0.47183525136281,0.832570722770691,-0.674894705486298,-1.71722058391571
0.47244094488189,2.34861808605194,-1.3598702914238,0.88856066608429
0.473046638400969,3.0958641798019397,1.3560818570137,0.22274523639679
0.473652331920048,-0.796042558479309,2.6350222867012,-0.38319470500946
0.474258025439128,-2.77672371082306,0.0460061734199524,1.29092394733429
0.474863718958207,0.11645988292694101,-2.8591525179863,-0.28739392375946
0.475469412477286,-0.915793535041809,0.213657540607452,-0.81429822063446
0.476075105996366,0.09490470714569091,0.333408517169952,0.15328966999054
0.476680799515445,0.17154533214569098,-2.67952605314255,-0.80950818157196
0.477286493034525,0.0613744337081909,0.580095528888702,-0.30176404094696
0.477892186553604,1.49359611339569,1.8159256070137,2.54591418170929
0.478497880072683,-0.26434822254180895,2.7164529507636996,-0.0886073026657102
0.479103573591763,-1.1457154100418099,-0.272531424236298,1.22625841999054
0.479709267110842,1.29720451183319,-2.7537716586113,-1.30288220500946
0.480314960629921,0.411047285270691,-1.3047848422050499,-1.10649060344696
0.480920654149001,-0.158967363166809,0.697451485919952,0.57720812702179
0.48152634766808,-0.717006913948059,-0.13122527189254798,0.26825060749054
0.482132041187159,-1.9887622850418099,-0.0905099398612976,0.026353634834289798
0.482737734706239,1.57742179698944,0.378913888263702,0.46224718952179
0.483343428225318,2.14983146495819,0.853127755451202,0.94364611530304
0.483949121744397,0.7439550001144409,2.9535598843574498,-1.05380017375946
0.484554815263477,0.731979902458191,-1.1898239047050498,-0.06944714641571019
0.485160508782556,-0.580490800666809,-3.5465231234550503,-1.08733044719696
0.485766202301635,-1.67261970691681,1.1453201382637002,-0.39516980266571
0.486371895820715,-3.0353858201980604,0.0292410367012024,0.71372424030304
0.486977589339794,-0.661921464729309,-1.61134734220505,-0.33050427532196
0.487583282858873,2.8060668165206897,0.781277169513702,0.5125425996780401
0.488188976377953,3.27309562511444,1.43032746248245,0.10778429889679
0.488794669897032,1.4289305860519401,3.52357453279495,-0.66341199016571
0.489400363416111,-2.4893213670730603,-0.921581717205048,0.90772082233429
0.490006056935191,-1.72052009754181,-3.4100070101738003,0.0191685762405398
0.49061175045427,-1.58400398426056,-0.0881149203300476,0.70414416217804
0.491217443973349,-2.22107917957306,1.1836404507637002,-0.78795300579071
0.491823137492429,0.138015058708191,-1.2880197054862998,-0.62030163860321
0.492428831011508,2.56895988292694,-1.1036032015800499,-0.24907361125945998
0.493034524530587,3.3114159376144396,1.4878079312324501,-0.07423718547821019
0.493640218049667,-0.396074296760559,2.7595633023262,0.92209093952179
0.494245911568746,-3.0521509569168104,-0.286901541423798,1.08016222858429
0.494851605087826,-0.14220222644805902,-2.78969695158005,-0.34487439250946
0.495457298606905,-0.695451738166809,-0.047399588298797604,-0.7855579862594599
0.496062992125984,0.159570234489441,0.024450997638702402,-0.44307019329071
0.496668685645064,0.672104414176941,-2.61725554533005,-0.22512341594696
0.497274379164143,-0.175732499885559,0.467529610919952,0.20358508014679
0.497880072683222,1.76902335948944,2.3979153531074497,1.27655383014679
0.498485766202302,-0.329013749885559,1.91412140779495,0.81671008014679
0.499091459721381,-1.34210701160431,0.47950470857620203,-0.57479626750946
0.49969715324046,1.05770255870819,-3.59442351408005,8.41999053976861e-06
0.50030284675954,0.576303632926941,-0.928766775798798,-1.20229138469696
0.500908540278619,0.138015058708191,1.0974197476387,0.37123644733429
0.501514233797698,-1.69417488269806,0.287903146076202,0.0574888887405398
0.502119927316778,-1.49538826160431,-0.531193533611298,0.30417590045929
0.502725620835857,1.95822990245819,-0.133620291423798,1.18554308795929
0.503331314354936,1.1846385938644401,2.0171072476387,-0.0335218534469602
0.503937007874016,0.981061933708191,2.67094757966995,0.00479845905303977
0.504542701393095,0.638574140739441,-1.65445769376755,-0.65383191204071
0.505148394912174,0.10927482433319101,-3.7740499789238,-0.7256824979782099
0.505754088431254,-1.01398933582306,1.70814972810745,-0.29218396282196
0.506359781950333,-4.0676392381668105,0.268742989826202,0.88137560749054
0.506965475469413,0.0254491407394409,-1.0054074007988,-0.8645936307907099
0.507571168988492,3.04317375011444,-0.0833248812675476,0.95322619342804
0.508176862507571,2.7701415235519398,1.7225198452949502,-0.73526257610321
0.50878255602665,1.33791984386444,3.1092361538886997,-0.53408093547821
0.50938824954573,-2.41747078113556,-0.955111990642548,1.29331896686554
0.509993943064809,-1.39240242176056,-2.55019499845505,-1.11128064250946
0.510599636583889,-1.59837410144806,-0.495268240642548,0.10778429889679
0.511205330102968,-1.85703621082306,0.745351876544952,-0.68736218547821
0.511811023622047,0.688869550895691,-1.2616744906425499,0.18921496295929
0.512416717141127,2.53542960948944,-1.0964181429863,-0.11255749797820999
0.513022410660206,2.85157218761444,1.81353058748245,-0.00717663860321023
0.513628104179285,-0.939743730354309,2.99188019685745,1.34361437702179
0.514233797698365,-2.8294141405105604,0.0963015835762024,-0.39995984172821
0.514839491217444,0.32482658214569105,-2.6196505648613,-0.14129773235321
0.515445184736523,-0.17812751941680902,0.041216134357452396,0.48380236530304
0.516050878255603,-0.235607988166809,0.211262521076202,-0.22272839641571
0.516656571774682,-0.357753984260559,-1.44369597501755,-1.03943005657196
0.517262265293761,0.490082929801941,-0.330011892986298,0.82389513874054
0.517867958812841,2.06840080089569,2.6038870327949497,-0.39756482219696
0.51847365233192,-0.987644120979309,2.30690461091995,1.42504504108429
0.519079345850999,-0.937348710823059,-0.0713497836112976,1.02028674030304
0.519685039370079,1.1247631055831901,-2.5621700961113003,-1.07296033000946
0.520290732889158,0.16675529308319098,-1.8652194125175499,-0.27062878704071
0.520896426408237,0.736769941520691,1.3728469937324501,-1.45855847454071
0.521502119927317,-2.13485847644806,-0.399467459392548,1.58311633014679
0.522107813446396,-1.1505054491043099,0.194497384357452,0.43111193561554
0.522713506965475,1.87200919933319,0.175337228107452,0.74006945514679
0.523319200484555,0.899631269645691,1.79437043123245,-0.54366101360321
0.523924894003634,1.27564933605194,2.4482107632637,1.01549670124054
0.524530587522714,0.530798261833191,-0.823385916423798,-0.94602429485321
0.525136281041793,-0.135017167854309,-4.03031706876755,-0.57000622844696
0.525741974560872,-1.01638435535431,1.3273416226387,-0.41911999797821
0.526347668079951,-3.63174568347931,0.40046906404495203,0.70653918170929
0.526953361599031,-0.226027910041809,-1.4796212679863,0.21316515827179
0.52755905511811,3.06472892589569,0.759721993732452,-0.32092419719695997
0.52816474863719,2.9497679883956898,0.776487130451202,1.06818713092804
0.528770442156269,1.38821525402069,4.1247244351387,-1.47532361125946
0.529376135675348,-2.59709724597931,-1.4556710726738,1.66215197467804
0.529981829194428,-1.15290046863556,-2.9693234164238,-1.44179333782196
0.530587522713507,-1.89775154285431,-0.638969412517548,0.53409777545929
0.531193216232586,-1.91691169910431,0.563330392169952,0.70414416217804
0.531798909751666,0.578698652458191,-0.310851736736298,-2.16508923625946
0.532404603270745,2.38214835948944,-1.4844113070487999,-0.16045788860321
0.533010296789824,3.36650138683319,1.05670441560745,0.96999133014679
0.533615990308904,-1.31336677722931,2.6014920132637,0.82150011920929
0.534221683827983,-2.58512214832306,0.249582833576202,0.33531115436554
0.534827377347062,0.262556074333191,-2.7346115023613002,-0.47181042766571
0.535433070866142,-0.103881913948059,0.0867215054512024,-0.30415906047821
0.536038764385221,-0.515825273323059,0.170547189044952,-0.6658070096969599
0.5366444579043,0.00389396495819093,-2.63641570158005,-0.76160779094696
0.53725015142338,0.482897871208191,0.956113595294952,-0.29218396282196
0.537855844942459,1.85524406261444,2.5176663296699497,1.35319445514679
0.538461538461538,-0.558935624885559,1.89975129060745,0.90053576374054
0.539067231980618,-1.35647712879181,0.125041817951202,-0.72089245891571
0.539672925499697,1.07686271495819,-3.52257292814255,-0.22751843547821
0.540278619018776,0.937951582145691,-0.476108084392548,-1.51124890422821
0.540884312537856,0.018264082145690898,0.893843087482452,-0.19877820110320998
0.541490006056935,-1.28223152332306,0.0986966031074524,0.0598839082717898
0.542095699576015,-1.59358406238556,-0.595859060955048,1.54479601764679
0.542701393095094,1.35468498058319,0.328618478107452,0.52451769733429
0.543307086614173,1.43611564464569,1.5907937710762001,-0.35205945110321
0.543912780133253,1.0050121290206901,3.3223928921699497,0.25627550983429
0.544518473652332,0.715214765739441,-1.0580978304863,-0.45025525188446
0.545124167171411,-0.5134302537918091,-4.3129293734550505,-0.68017712688446
0.545729860690491,-0.942138749885559,1.67940949373245,-0.21793835735321
0.54633555420957,-3.71557136707306,0.196892403888702,0.79754992389679
0.546941247728649,0.0613744337081909,-0.957507010173798,-0.59156140422821
0.547546941247729,2.5402196485519397,0.211262521076202,0.92688097858429
0.548152634766808,3.17968986339569,1.4662527554512002,-0.49097058391570997
0.548758328285887,1.19661369152069,2.5272464077949497,-0.23949353313446
0.549364021804967,-2.26179451160431,-0.274926443767548,0.45985216999054
0.549969715324046,-0.937348710823059,-3.0124337679863,0.53888781452179
0.550575408843125,-2.02229255847931,-0.282111502361298,-0.40714490032196
0.551181102362205,-2.28574470691681,0.874682931232452,-0.36163952922821
0.551786795881284,0.413442304801941,-1.7670236117362998,0.6921690645217901
0.552392489400363,2.58812003917694,-0.562328787517548,-1.88726697063446
0.552998182919443,2.93060783214569,1.2554910367012,0.33770617389679003
0.553603876438522,-1.18643074207306,2.7140579312324498,1.33163927936554
0.554209569957601,-2.85336433582306,-0.0881149203300476,0.5317027559280401
0.554815263476681,0.44457755870819105,-2.57414519376755,-0.93165417766571
0.55542095699576,-0.568515703010559,-0.227026053142548,0.11975939655304
0.556026650514839,-0.13262214832305902,0.417234200763702,-0.59635144329071
0.556632344033919,-0.0416114061355591,-2.47834441251755,-1.02266491985321
0.557238037552998,0.195495527458191,0.261557931232452,0.51972765827179
0.557843731072078,1.85763908214569,2.32606476716995,1.41306994342804
0.558449424591157,-0.618811113166809,1.87101105623245,0.81671008014679
0.559055118110236,-0.8942383592605591,0.405259103107452,0.0479088106155398
0.559660811629316,1.19661369152069,-3.44114226408005,-0.34247937297821
0.560266505148395,0.628994062614441,-0.849731131267548,-1.92798230266571
0.560872198667474,-0.0440064256668091,0.273533028888702,0.8310801973342901
0.561477892186554,-1.3301319139480599,0.395679024982452,-0.0287318143844602
0.562083585705633,-1.96002205066681,-0.626994314861298,1.44660021686554
0.562689279224712,1.7833934766769401,0.675896310138702,-0.54845105266571
0.563294972743792,1.71154289073944,1.38721711091995,0.44548205280304
0.563900666262871,0.8062255079269409,2.9200296109199497,0.76162463092804
0.56450635978195,0.31764152355194103,-0.849731131267548,-1.12325574016571
0.56511205330103,-0.525405351448059,-4.21712859220505,-0.20356824016570998
0.565717746820109,-1.10500007801056,1.79437043123245,-1.05380017375946
0.566323440339188,-3.53594490222931,-0.164755545330048,1.44420519733429
0.566929133858268,0.0781395704269409,-1.2784396273613,-0.70412732219696
0.567534827377347,2.80367179698944,0.532195138263702,0.33770617389679003
0.568140520896426,3.05754386730194,1.1596902554512,0.99394152545929
0.568746214415506,1.5654466993331901,3.7415213101386997,-0.71610241985321
0.569351907934585,-2.50369148426056,-0.729980154705048,1.16877795124054
0.569957601453664,-1.21996101551056,-3.4147970492363,-0.10058240032195999
0.570563294972744,-1.61274421863556,0.388493966388702,-0.9651844511032099
0.571168988491823,-1.89296150379181,0.417234200763702,0.60355334186554
0.571774682010902,0.360751875114441,-0.789855642986298,-0.95799939250946
0.572380375529982,2.30311271495819,-1.2161691195488,-0.0431019315719602
0.572986069049061,3.0120384962081896,0.850732735919952,1.16159289264679
0.57359176256814,-1.25109626941681,3.21701203279495,0.26346056842804
0.57419745608722,-2.4462110155105603,-0.179125662517548,0.94364611530304
0.574803149606299,-0.0296363084793091,-2.95255827970505,-0.39756482219696
0.575408843125379,-0.896633378791809,0.357358712482452,-0.43349011516571
0.576014536644458,0.207470625114441,0.484294747638702,-0.57719128704071
0.576620230163537,-0.257163163948059,-2.8950778109550503,-1.02266491985321
0.577225923682617,0.411047285270691,1.06628449373245,-0.55084607219696
0.577831617201696,1.77860343761444,1.87101105623245,1.91602404499054
0.578437310720775,-0.427209550666809,2.6014920132637,0.0455137910842898
0.579043004239855,-1.24151619129181,0.125041817951202,0.40237170124054
0.579648697758934,1.1247631055831901,-3.3285763461113,-1.22863659954071
0.580254391278013,1.13673820323944,-1.11797331876755,-0.63946179485321
0.580860084797093,-0.103881913948059,0.716611642169952,0.55086291217804
0.581465778316172,-1.3468970506668099,0.422024239826202,-0.0550770292282102
0.582071471835251,-1.49299324207306,-0.780275564861298,1.16877795124054
0.582677165354331,1.74028312511444,0.726191720294952,-0.54126599407196
0.58328285887341,0.8876561719894409,0.642366036701202,1.45618029499054
0.583888552392489,1.23972404308319,3.90198761873245,-1.69566540813446
0.584494245911569,0.451762617301941,-1.69756804533005,0.24430041217804
0.585099939430648,0.0877196485519409,-3.2327755648613,-0.9843446073532099
0.585705632949727,-1.61274421863556,1.11418488435745,0.53888781452179
0.586311326468807,-3.78502693347931,0.06995636873245241,0.30417590045929
0.586917019987886,-0.08472175769805909,-1.0317526156425498,-0.31613415813446
0.587522713506965,2.45878898448944,-0.054584646892547606,1.41546496295929
0.588128407026045,3.56528800792694,2.0218972867012,-1.49687878704071
0.588734100545124,1.27564933605194,2.6685525601387,0.71851427936554
0.589339794064203,-2.44381599597931,-0.284506521892548,0.51972765827179
0.589945487583283,-1.50017830066681,-3.66148406095505,0.37123644733429
0.590551181102362,-1.56005378894806,0.580095528888702,-1.07056531047821
0.591156874621442,-2.23544929676056,0.412444161701202,0.39758166217804003
0.591762568140521,0.5475633985519409,-1.3502902132988,-0.88375378704071
0.5923682616596,2.2911376173019398,-0.955111990642548,-1.30048718547821
0.59297395517868,2.8587572462081896,0.879472970294952,1.23823351764679
0.593579648697759,-0.796042558479309,3.49004425935745,0.55086291217804
0.594185342216838,-3.08568123035431,-0.0737448031425476,1.06339709186554
0.594791035735918,0.00628898448944093,-2.6962911898613,-0.42391003704071
0.595396729254997,-0.487085038948059,-0.550353689861298,0.14610461139679
0.596002422774076,-0.34338386707305896,0.886658028888702,-1.08733044719696
0.596608116293156,-0.36254402332305896,-2.48792449064255,-0.62030163860321
0.597213809812235,0.6649193555831909,0.608835763263702,-0.0359168729782102
0.597819503331314,1.4025853712081902,1.95244172029495,1.49689562702179
0.598425196850394,-0.42241951160430896,2.1033279507637,0.99633654499054
0.599030890369473,-1.4714380662918098,0.608835763263702,-0.35684949016571
0.599636583888552,1.29241447277069,-3.09625945158005,-1.2741419706344599
0.600242277407632,0.8828661329269409,-1.1203683382988,-0.44786023235321
0.600847970926711,-0.000896074104309071,0.855522774982452,0.0934141817092898
0.60145366444579,-0.7912525194168091,0.247187814044952,-0.35445447063446
0.60205935796487,-2.2234741991043103,-0.416232596111298,1.38432970905304
0.602665051483949,1.73549308605194,1.1788504117012,-0.30415906047821
0.603270745003028,1.5055712110519401,0.810017403888702,0.87898058795929
0.603876438522108,1.07925773448944,3.2673074429512,-0.27541882610321
0.604482132041187,0.6074388868331909,-1.00780242033005,-1.34120251750946
0.605087825560267,-0.245188066291809,-4.2434738070488,-0.24428357219696
0.605693519079346,-1.1720606248855598,1.5309182827949501,0.19400500202179
0.606299212598425,-3.67485603504181,0.319038399982452,0.32573107624054
0.606904906117504,-0.13741218738555902,-1.3790304476738,-0.34966443157196
0.607510599636584,2.77732658214569,0.194497384357452,0.46943224811554
0.608116293155663,2.9952733594894396,1.32015656404495,0.93646105670929
0.608721986674743,1.35468498058319,3.58584504060745,-0.0239417753219602
0.609327680193822,-2.30490486316681,-0.873681326580048,0.49577746295929
0.609933373712901,-1.29660164051056,-3.14894988126755,0.0622789278030398
0.610539067231981,-2.03905769519806,0.105881661701202,0.49098742389679
0.61114476075106,-2.45818611316681,0.474714669513702,0.16765978717804
0.611750454270139,0.856520918083191,-0.0809298617362976,-1.54238415813446
0.612356147789219,2.01092033214569,-1.8532443148613,0.88137560749054
0.612961841308298,3.34734123058319,1.5572634976387,-1.15918103313446
0.613567534827377,-1.46904304676056,2.4290506070137,1.46097033405304
0.614173228346457,-2.64020759754181,0.366938790607452,1.01070666217804
0.614778921865536,0.37751701183319103,-2.3729635531425504,-0.88375378704071
0.615384615384615,-0.9110034959793091,-0.227026053142548,0.25627550983429
0.615990308903695,0.22663078136444098,0.656736153888702,-1.18552624797821
0.616596002422774,-0.12304207019805899,-3.3956368929863,-0.51013074016571
0.617201695941853,0.7056346876144409,0.829177560138702,0.16047472858429002
0.617807389460933,1.32833976573944,2.08656281404495,1.62383166217804
0.618413082980012,-0.7122168748855591,2.6685525601387,0.0191685762405398
0.619018776499091,-1.20798591785431,-0.0258444125175476,0.90532580280304
0.619624470018171,1.53431144542694,-3.1034445101738,-1.39868298625946
0.62023016353725,1.03854240245819,-1.21377410001755,-0.81429822063446
0.620835857056329,-0.209262773323059,0.929768380451202,0.0838341035842898
0.621441550575409,-1.27504646472931,0.0843264859199524,0.41195177936554
0.622047244094488,-1.76842048816681,-0.346777029705048,1.02268175983429
0.622652937613568,1.79057853527069,0.455554513263702,-0.52210583782196
0.623258631132647,1.04572746105194,1.0519143765449501,0.24669543170929
0.623864324651726,0.516428144645691,3.41819367341995,-0.0263367948532102
0.624470018170806,1.24211906261444,-0.837756033611298,-0.30415906047821
0.625075711689885,-0.11585701160430899,-4.0662423617363,-0.50055066204071
0.625681405208964,-1.4498828905105599,1.10460480623245,-0.18440808391571
0.626287098728044,-3.55271003894806,-0.0785348422050476,0.52691271686554
0.626892792247123,-0.139807206916809,-1.0389376742363,-0.73526257610321
0.627498485766202,2.56416984386444,0.338198556232452,1.39630480670929
0.628104179285282,2.9593480665206897,1.4375125210762,-0.34726941204071
0.628709872804361,1.2660692579269401,3.5403396695137,-0.76160779094696
0.62931556632344,-2.5731470506668104,-1.4077706820487998,1.33642931842804
0.62992125984252,-1.29660164051056,-2.4472091586113,-1.33162243938446
0.630526953361599,-1.84506111316681,-0.349172049236298,0.66342883014679
0.631132646880678,-2.20191902332306,0.613625802326202,-0.51252575969696
0.631738340399758,0.8661009962081909,-0.775485525798798,-1.13523083782196
0.632344033918837,2.3701732618331897,-1.5059664828300499,-0.39756482219696
0.632949727437916,3.1485546094894397,1.3656619351387,0.61313341999054
0.633555420956996,-1.3684522264480599,2.4003103726387,1.76753283405304
0.634161114476075,-2.4701612108230604,0.656736153888702,-0.41672497844696
0.634766807995154,-0.0128711717605591,-3.49862273283005,0.66103381061554
0.635372501514234,-0.815202714729309,0.536985177326202,-1.55914929485321
0.635978195033313,-0.20207771472930902,-0.270136404705048,0.43590197467804
0.636583888552392,-0.254768144416809,-2.4280490023613,-0.98913464641571
0.637189582071472,0.6242040235519409,1.14292511873245,-0.29218396282196
0.637795275590551,1.73788810558319,1.1501101773262001,2.58423449420929
0.638400969109631,-0.487085038948059,2.7763284390449496,-1.32204236125946
0.63900666262871,-1.32294685535431,-0.265346365642548,1.50168566608429
0.639612356147789,1.49120109386444,-2.9645333773613003,-0.87896374797821
0.640218049666869,0.8062255079269409,-1.1850338656425499,-0.74963269329071
0.640823743185948,0.26734611339569103,1.23872589998245,-0.20596325969696
0.641429436705027,-1.57442390613556,-0.227026053142548,0.33770617389679003
0.642035130224107,-1.46185798816681,-0.406652517986298,0.5317027559280401
0.642640823743186,1.77620841808319,0.721401681232452,0.0167735567092898
0.643246517262265,0.930766523551941,1.0399392788887,0.89574572467804
0.643852210781345,0.935556562614441,3.0517556851387,-0.85261853313446
0.644457904300424,0.8876561719894409,-1.33831511564255,-0.13650769329071
0.645063597819503,-0.015266191291809101,-3.3094161898613,-1.27653699016571
0.645669291338583,-1.48580818347931,1.1309500210762,-0.16285290813446
0.646274984857662,-3.6509058397293104,-0.00907927579879762,1.32445422077179
0.646880678376741,0.212260664176941,-1.39579558439255,-0.0933973417282102
0.647486371895821,2.9856932813644397,0.271138009357452,0.29459582233429
0.6480920654149,3.01443351573944,1.89975129060745,-0.64664685344696
0.648697758933979,1.17266349620819,3.06852082185745,0.62510851764679
0.649303452453059,-2.33843513660431,-0.409047537517548,1.04663195514679
0.649909145972138,-1.27504646472931,-3.3070211703300503,-0.9651844511032099
0.650514839491217,-1.59837410144806,0.395679024982452,-0.97476452922821
0.651120533010297,-2.5060865037918103,-0.00668425626754762,1.09453234577179
0.651726226529376,1.0864427930831901,-0.626994314861298,-0.80711316204071
0.652331920048455,2.51866447277069,-0.928766775798798,-0.44067517375945997
0.652937613567535,2.16899162120819,1.15250519685745,-0.31613415813446
0.653543307086614,-0.887053300666809,2.82901886873245,0.67300890827179
0.654149000605693,-2.8892896287918104,0.23281769685745202,-0.06944714641571019
0.654754694124773,0.11406486339569101,-4.83983367033005,-0.004781619071960229
0.655360387643852,0.535588300895691,1.0734695523262001,-0.78316296672821
0.655966081162932,-2.38394050769806,3.8900125210762,1.28134386920929
0.656571774682011,0.511638105583191,-4.20275847501755,-1.18073620891571
0.65717746820109,3.0790990430831897,-1.7574435336113,-2.40698620891571
0.65778316172017,-0.877473222541809,2.7236380093574497,3.66199328327179
0.658388855239249,-0.33140876941680897,4.7043191617012,-1.47771863079071
0.658994548758328,-1.18164070301056,-0.849731131267548,2.66806017780304
0.659600242277408,1.08404777355194,-2.46397429533005,-1.76272595500946
0.660205935796487,1.49359611339569,-2.6244406039238,-1.88726697063446
0.660811629315566,-1.27983650379181,1.2099856656074501,-0.11255749797820999
0.661417322834646,-0.568515703010559,1.01359406404495,0.59876330280304
0.662023016353725,0.439787519645691,-0.914396658611298,1.90883898639679
0.662628709872804,-0.417629472541809,1.0543093960762,-0.79753308391571
0.663234403391884,0.0637694532394409,0.7237967007637021,0.52451769733429
0.663840096910963,1.34510490245819,1.7392849820137,1.28373888874054
0.664445790430042,0.770300214958191,0.165757149982452,-1.42023816204071
0.665051483949122,0.7631151563644409,-3.0842843539238003,-0.65383191204071
0.665657177468201,-1.8426660936355599,1.10460480623245,1.7795079317092901
0.66626287098728,-3.6173755662918103,0.735771798419952,-1.07056531047821
0.66686856450636,0.312851484489441,-2.8711276156425503,-0.12453259563446
0.667474258025439,1.57263175792694,0.800437325763702,0.83587023639679
0.668079951544518,2.53782462902069,1.91412140779495,-0.33529431438446
0.668685645063598,1.90553947277069,3.0709158413887,0.74006945514679
0.669291338582677,-1.45706794910431,-0.183915701580048,0.41434679889679
0.669897032101756,-0.527800370979309,-4.4111251742363,-0.16285290813446
0.670502725620836,-2.6857129686355603,0.036426095294952394,0.026353634834289798
0.671108419139915,-2.4390259569168102,1.4494876187324501,0.74485949420929
0.671714112658994,0.7655101758956909,-1.05091277189255,-0.25146863079070997
0.672319806178074,2.20970695323944,-0.631784353923798,-1.59507458782196
0.672925499697153,2.8132518751144397,-0.349172049236298,1.40588488483429
0.673531193216233,-1.03793953113556,3.2050369351387,-0.9053089628219599
0.674136886735312,-2.71684822254181,0.800437325763702,1.61185656452179
0.674742580254391,0.5451683790206909,-2.1023263461113,-0.79753308391571
0.675348273773471,-0.975669023323059,-0.37791228361129797,-1.03224499797821
0.67595396729255,-0.616416093635559,-0.782670584392548,-0.0478919706344602
0.676559660811629,0.655339277458191,-2.3274581820488,-1.26935193157196
0.677165354330709,-0.163757402229309,1.00880402498245,0.56283800983429
0.677771047849788,1.38342521495819,2.4051004117012,0.28741076374054003
0.678376741368867,-0.408049394416809,1.6841995327949502,1.00591662311554
0.678982434887947,-1.01398933582306,0.41004914216995203,-0.37361462688446
0.679588128407026,1.77860343761444,-3.2519357211113,-0.28260388469696
0.680193821926105,0.0278441602706909,-0.866496267986298,-0.41193493938446
0.680799515445185,-0.240398027229309,0.625600899982452,0.35207629108429
0.681405208964264,-1.36605720691681,-0.30845671720504797,0.82389513874054
0.682010902483343,-1.88817146472931,0.620810860919952,-0.74723767375946
0.682616596002423,2.2144969923019397,-0.112065115642548,0.81671008014679
0.683222289521502,1.91990958995819,0.984853829669952,0.51014758014679
0.683827983040581,0.5020580274581911,3.2481472867012,-0.12453259563446
0.684433676559661,0.430207441520691,-1.16587370939255,-1.01547986125946
0.68503937007874,-0.489480058479309,-4.42310027189255,-0.39995984172821
0.68564506359782,-0.764907304573059,0.587280587482452,0.63708361530304
0.686250757116899,-3.49283455066681,0.826782540607452,-0.6658070096969599
0.686856450635978,-0.887053300666809,-1.0772579867363,0.33291613483429
0.687462144155058,3.94849113292694,0.216052560138702,0.0718590059280398
0.688067837674137,3.14615958995819,0.999223946857452,-0.07902722454071019
0.688673531193216,1.02417228527069,3.4301687710762,-0.06465710735321019
0.689279224712296,-2.74079841785431,-0.947926932048798,1.15680285358429
0.689884918231375,-1.37803230457306,-2.6555758578300503,-0.33050427532196
0.690490611750454,-1.63190437488556,-0.409047537517548,-0.0526820096969602
0.691096305269534,-2.2234741991043103,0.17773224763870202,-0.36403454875946
0.691701998788613,0.720004804801941,-0.483293142986298,-0.67299206829071
0.692307692307692,2.26479240245819,-0.847336111736298,-0.64425183391571
0.692913385826772,3.2419603712081897,1.57402863435745,0.20598009967804
0.693519079345851,-1.03554451160431,2.4961111538887,1.10650744342804
0.69412477286493,-2.9347949998855603,-0.279716482830048,0.00958849811553977
0.69473046638401,0.178730390739441,-3.1226046664238,0.55325793170929
0.695336159903089,-0.367334062385559,0.845942696857452,-1.55435925579071
0.695941853422168,0.0853246290206909,-0.0857199007987976,-0.40714490032196
0.696547546941248,0.48529289073944104,-2.5525900179863004,-0.92686413860321
0.697153240460327,0.260161054801941,0.369333810138702,0.11736437702179
0.697758933979406,1.5654466993331901,2.00513214998245,1.87770373249054
0.698364627498486,-0.645156328010559,2.83859894685745,-0.52689587688446
0.698970321017565,-1.36605720691681,-0.0833248812675476,0.55565295124054
0.699576014536644,1.67801261730194,-3.5393380648613,-0.34966443157196
0.700181708055724,0.849335859489441,-0.667709646892548,-1.5735194120407099
0.700787401574803,0.238605879020691,0.560935372638702,1.1208775606155401
0.701393095093882,-1.37324226551056,0.369333810138702,-0.39516980266571
0.701998788612962,-1.96481208972931,-0.576698904705048,0.72569933795929
0.702604482132041,1.51515128917694,-0.0354244906425476,0.49338244342804
0.703210175651121,1.25888419933319,1.49738800935745,-0.47660046672821
0.7038158691702,1.07925773448944,2.5583816617012,0.74725451374054
0.704421562689279,0.995432050895691,-1.1036032015800499,-0.31134411907195997
0.705027256208359,-0.154177324104309,-4.04468718595505,-0.12213757610321
0.705632949727438,-1.42593269519806,1.7919754117012001,-0.89333386516571
0.706238643246517,-3.5934253709793103,0.189707345294952,1.18793810749054
0.706844336765597,-0.408049394416809,-1.7670236117362998,-0.32810925579071
0.707450030284676,2.4396288282394396,0.534590157794952,-0.61790661907196
0.708055723803755,3.07670402355194,1.8207156460762002,0.22274523639679
0.708661417322835,1.13913322277069,2.6781326382637,0.40476672077179
0.709267110841914,-2.22586921863556,-0.811410818767548,0.77838976764679
0.709872804360993,-1.3636621873855599,-3.3142062289238003,-0.75921277141571
0.710478497880073,-1.82350593738556,0.0268460171699524,-0.22512341594696
0.711084191399152,-1.7492603319168099,0.989643868732452,0.8909556856155401
0.711689884918231,0.28650626964569104,-1.45327605314255,-0.84782849407196
0.712295578437311,2.04684562511444,-0.979062185955048,-0.66101697063446
0.71290127195639,3.0024584180831897,1.39200714998245,0.88377062702179
0.713506965475469,-0.721796953010559,3.0278054898262,-0.33529431438446
0.714112658994549,-2.74798347644806,0.151387032794952,0.89814074420929
0.714718352513628,-0.0966968553543091,-2.5885153109550503,0.0479088106155398
0.715324046032707,-0.46313484363555896,-0.409047537517548,0.5915782442092901
0.715929739551787,-0.29308845691680896,0.122646798419952,-1.26456189250946
0.716535433070866,-0.00808113269805907,-2.7058712679863,-0.79274304485321
0.717141126589945,0.173940351676941,0.16815216951370202,0.74725451374054
0.717746820109025,1.87200919933319,2.66136750154495,1.19991320514679
0.718352513628104,-0.5349854295730591,2.0290823452949502,1.35558947467804
0.718958207147184,-1.47383308582306,0.6040457242012021,-0.99392468547821
0.719563900666263,1.29480949230194,-3.1896652132988,-0.40235486125946
0.720169594185342,0.482897871208191,-1.3478951937675498,-1.1543909940719599
0.720775287704422,0.190705488395691,1.09981476716995,-0.11255749797820999
0.721380981223501,-1.8426660936355599,-0.0785348422050476,0.35207629108429
0.72198667474258,-1.52173347644806,-0.227026053142548,-0.0981873807907102
0.72259236826166,1.87440421886444,0.0220559781074524,0.99873156452179
0.723198061780739,1.00261710948944,1.8781961148262,-0.54845105266571
0.723803755299818,0.988246992301941,3.0278054898262,0.34249621295929
0.724409448818898,0.530798261833191,-1.7718136507987998,0.80713000202179
0.725015142337977,-0.204472734260559,-3.5129928500175502,-1.66213513469696
0.725620835857056,-1.33492195301056,1.2459109585762,-0.53647595500946
0.726226529376136,-3.61977058582306,0.00289582185745238,1.36277453327179
0.726832222895215,-0.0943018358230591,-1.13234343595505,-0.0622620878219602
0.727437916414294,2.27197746105194,0.273533028888702,0.68019396686554
0.728043609933374,2.96413810558319,1.4015872281074502,0.14131457233429
0.728649303452453,1.73070304698944,3.0900759976387,-0.48618054485321
0.729254996971532,-2.44381599597931,-0.334801932048798,0.25627550983429
0.729860690490612,-1.4067725389480599,-2.9980636507988003,0.21316515827179
0.730466384009691,-1.70135994129181,-0.222236014080048,0.00479845905303977
0.73107207752877,-2.11569832019806,0.800437325763702,0.22514025592804002
0.73167777104785,0.490082929801941,-1.05091277189255,-1.19750134563446
0.732283464566929,2.26239738292694,-1.2065890414237999,-0.40953991985321
0.732889158086008,3.11741935558319,1.1165799038887,1.03944689655304
0.733494851605088,-0.360149003791809,3.22659211091995,-0.10537243938445999
0.734100545124167,-3.28207283191681,-0.605439139080048,1.94955431842804
0.734706238643246,0.188310468864441,-2.1334616000175504,-1.98306775188446
0.735311932162326,-0.5301953905105591,-0.835361014080048,0.6322935762405401
0.735917625681405,-0.28111335926055897,0.762117013263702,-1.20229138469696
0.736523319200485,0.140410078239441,-2.3825436312675503,-0.92686413860321
0.737129012719564,0.7080297071456909,-0.0641647250175476,0.97238634967804
0.737734706238643,1.86242912120819,2.4673709195136997,1.19512316608429
0.738340399757723,-1.01877937488556,2.1033279507637,1.43941515827179
0.738946093276802,-1.19122078113556,1.0830496304512,-0.9843446073532099
0.739551786795881,1.59179191417694,-3.8099752718925504,0.23472033405304
0.740157480314961,0.691264570426941,-0.844941092205048,-1.8130213651657099
0.74076317383404,-0.209262773323059,1.0399392788887,0.050303830146789796
0.741368867353119,-0.978064042854309,-0.365937185955048,0.71372424030304
0.741974560872199,-1.73489021472931,0.218447579669952,-0.40235486125946
0.742580254391278,1.45767082042694,0.388493966388702,0.64905871295929
0.743185947910357,1.15829337902069,1.14292511873245,0.30896593952179
0.743791641429437,1.03375236339569,2.94876984529495,-0.15806286907196
0.744397334948516,0.9235814649581909,-0.959902029705048,-0.29218396282196
0.745003028467595,-0.494270097541809,-3.78123503751755,-0.58437634563446
0.745608721986675,-1.13853035144806,1.30578644685745,-0.42151501750946
0.746214415505754,-3.5143897264480604,0.326223458576202,0.58439318561554
0.746820109024833,-0.6116260545730591,-1.6808029086112999,-0.0526820096969602
0.747425802543913,2.5306395704269398,0.477109689044952,0.51493761920929
0.748031496062992,2.91384269542694,1.4111673062324501,0.36644640827179
0.748637189582071,1.37863517589569,3.3319729702949497,-1.36036267375946
0.749242883101151,-2.3863355272293103,-0.634179373455048,1.15440783405304
0.74984857662023,-1.38761238269806,-3.41240202970505,0.16765978717804
0.75045427013931,-1.41635261707306,0.038821114826202395,-0.84303845500946
0.751059963658389,-1.87619636707306,0.431604317951202,1.49210558795929
0.751665657177468,0.621809004020691,-0.574303885173798,-1.7531458768844599
0.752271350696547,2.3198778516769396,-1.3407101351738,-0.78795300579071
0.752877044215627,3.16052970714569,0.836362618732452,1.66933703327179
0.753482737734706,-0.8535230272293091,3.28407257966995,-0.40714490032196
0.754088431253786,-2.8318091600418103,-0.239001150798798,1.28613390827179
0.754694124772865,0.576303632926941,-2.29153288908005,-0.83585339641571
0.755299818291944,-0.28111335926055897,0.156177071857452,-0.38798474407196
0.755905511811024,-0.736167070198059,-0.159965506267548,0.31375597858429
0.756511205330103,0.33680167980194103,-2.1957321078300502,-1.9327723417282099
0.757116898849182,0.303271406364441,0.273533028888702,1.4202550020217901
0.757722592368262,1.1247631055831901,2.55598664216995,1.12566759967804
0.758328285887341,-0.448764726448059,2.2613992398261997,0.050303830146789796
0.75893397940642,-1.33971199207306,-0.10727507658004799,0.25148547077179
0.7595396729255,1.8648241407394401,-2.6292306429863,-1.53280408000946
0.760145366444579,0.391887129020691,-1.45806609220505,0.0526988496780398
0.760751059963658,0.173940351676941,1.0399392788887,0.20598009967804
0.761356753482738,-1.14811042957306,0.0100808804512024,0.36165636920929
0.761962447001817,-1.9025415819168099,-0.262951346111298,0.22274523639679
0.762568140520896,1.47204093761444,0.328618478107452,-0.06705212688446019
0.763173834039976,1.33312980480194,1.01359406404495,0.39039660358429
0.763779527559055,1.37145011730194,3.7151760952949497,-0.40474988079071
0.764385221078134,0.329616621208191,-0.804225760173798,-0.44067517375945997
0.764990914597214,-0.0583765428543091,-4.01115691251755,-0.51971081829071
0.765596608116293,-1.1720606248855598,0.747746896076202,1.03465685749054
0.766202301635373,-3.1719019334793104,0.568120431232452,0.23711535358429
0.766807995154452,-0.446369706916809,-1.1083932406425498,-0.14608777141571
0.767413688673531,2.4300487501144397,-0.00189421720504762,1.15201281452179
0.768019382192611,3.4383519727706897,1.7249148648262,-1.76991101360321
0.76862507571169,0.8038304883956909,2.6541824429511998,0.70174914264679
0.769230769230769,-2.1109082811355604,-0.183915701580048,0.88137560749054
0.769836462749849,-1.39479744129181,-3.37887175626755,-0.8645936307907099
0.770442156268928,-1.97439216785431,-0.17673064298629798,-0.10776745891570999
0.771047849788007,-1.89775154285431,0.508244942951202,0.43829699420929
0.771653543307087,0.899631269645691,-1.0437277132987999,-0.50773572063446
0.772259236826166,2.11869621105194,-1.09881316251755,-0.65622693157196
0.772864930345245,3.13657951183319,1.0902346890449501,0.43829699420929
0.773470623864325,-0.621206132698059,2.9511648648262,0.24909045124054
0.774076317383404,-3.0114356248855603,-0.0354244906425476,0.42153185749054
0.774682010902483,0.391887129020691,-2.6220455843925503,-0.62988171672821
0.775287704421563,-0.578095781135559,-0.444972830486298,0.0167735567092898
0.775893397940642,-0.07993171863555909,0.577700509357452,-0.61551159954071
0.776499091459721,-0.13262214832305902,-2.3801486117363,-1.08733044719696
0.777104784978801,0.16675529308319098,-0.0641647250175476,0.77838976764679
0.77771047849788,1.47922599620819,1.9692068570137,1.53042590045929
0.778316172016959,-0.07514167957305909,2.5775418179511997,0.42153185749054
0.778921865536039,-1.45706794910431,0.376518868732452,0.19400500202179
0.779527559055118,1.50078117198944,-3.2184054476738,-0.67778210735321
0.780133252574197,0.892446211051941,-1.48680632658005,-0.84303845500946
0.780738946093277,-0.585280839729309,1.4327224820137001,-0.48378552532196
0.781344639612356,-1.23433113269806,-0.24618620939254798,0.77359972858429
0.781950333131435,-1.4666480272293099,-0.112065115642548,-0.30655408000946
0.782556026650515,1.4025853712081902,-0.0114742953300476,0.93406603717804
0.783161720169594,1.24211906261444,1.5381033413887,-0.25865368938446
0.783767413688674,1.0433324415206902,2.70447785310745,0.83587023639679
0.784373107207753,0.597858808708191,-1.3694503695487998,-0.23470349407196
0.784978800726832,-0.204472734260559,-2.8447824007988003,-2.16987927532196
0.785584494245912,-1.27983650379181,-0.483293142986298,2.60818468952179
0.786190187764991,-2.99706550769806,1.21477570466995,-1.60944470500946
0.78679588128407,-0.736167070198059,-1.7287032992362998,0.73767443561554
0.78740157480315,2.78451164073944,0.656736153888702,0.34010119342804
0.788007268322229,3.10304923839569,1.2866262906074502,-0.27062878704071
0.788612961841308,1.49838615245819,2.6925027554512,0.35926134967804
0.789218655360388,-1.9672071092605599,0.23281769685745202,-0.75681775188446
0.789824348879467,-1.6510645311355598,-4.0949825961113,1.76034777545929
0.790430042398546,-1.31815681629181,0.601650704669952,-0.86219861125946
0.791035735917626,-2.0797730272293102,-0.133620291423798,0.88616564655304
0.791641429436705,0.499663007926941,-0.923976736736298,-0.77597790813446
0.792247122955784,2.1306713087081897,-0.840151053142548,-1.36275769329071
0.792852816474864,2.84438712902069,0.560935372638702,0.94125109577179
0.793458509993943,-0.6715015428543091,3.20743195466995,0.62750353717804
0.794064203513022,-2.64499763660431,0.0172659390449524,1.63101672077179
0.794669897032102,-0.0511914842605591,-2.42086394376755,-0.90051892375946
0.795275590551181,-0.846337968635559,-0.049794607830047605,-0.52210583782196
0.79588128407026,-0.0990918748855591,-0.0881149203300476,-0.76639783000946
0.79648697758934,0.372726972770691,-2.0424508578300498,-1.22145154094696
0.797092671108419,-0.08472175769805909,0.620810860919952,0.33770617389679003
0.797698364627498,1.87679923839569,1.9213064663887,1.28613390827179
0.798304058146578,-0.254768144416809,2.4530008023262,0.32573107624054
0.798909751665657,-1.40198249988556,0.189707345294952,0.63947863483429
0.799515445184736,1.4624608594894402,-3.08188933439255,-0.26104870891570997
0.800121138703816,0.312851484489441,-1.1395284945488,-1.17115613079071
0.800726832222895,0.11406486339569101,0.946533517169952,0.0910191621780398
0.801332525741975,-0.879868242073059,-0.121645193767548,0.25867052936554
0.801938219261054,-1.82111091785431,-0.0737448031425476,0.0431187715530398
0.802543912780133,0.949926679801941,0.144201974201202,0.66582384967804
0.803149606299213,1.16068839855194,1.3321316617012,0.45745715045929003
0.803755299818292,1.2229589063644402,3.2289871304511997,-0.12453259563446
0.804360993337371,0.8062255079269409,-1.21856413908005,-0.49576062297821
0.804966686856451,0.233815839958191,-3.8985909945488,-0.97715954875946
0.80557238037553,-1.44030281238556,1.1932205288887001,-0.48139050579071
0.806178073894609,-3.60540046863556,0.402864083576202,1.25739367389679
0.806783767413689,-0.11585701160430899,-1.3790304476738,0.00958849811553977
0.807389460932768,2.28634757823944,0.465134591388702,-0.5652161893844599
0.807995154451847,3.1389745313644397,1.4183523648262,0.11736437702179
0.808600847970927,1.82889884777069,2.7068728726386997,0.24190539264679
0.809206541490006,-1.94325691394806,-0.183915701580048,0.34968127155304
0.809812235009085,-1.6462744920730599,-2.6675509554863,-0.57000622844696
0.810417928528165,-1.8690113084793099,-0.401862478923798,-0.33050427532196
0.811023622047244,-1.50017830066681,0.968088692951202,-0.39037976360321
0.811629315566323,0.6625243360519409,-1.3886105257988,0.42871691608429
0.812235009085403,2.07558585948944,-0.830570975017548,-1.41544812297821
0.812840702604482,2.9952733594894396,0.769302071857452,1.08974230670929
0.813446396123562,-0.525405351448059,3.3152078335761996,0.12215441608429001
0.814052089642641,-3.04257087879181,0.170547189044952,0.27304064655304
0.81465778316172,-0.223632890510559,-3.4626974398613,0.48619738483429
0.815263476680799,-0.647551347541809,0.580095528888702,-1.30527722454071
0.815869170199879,-0.566120683479309,-0.0426095492362976,0.44308703327179
0.816474863718958,0.7223998243331909,-1.81252898283005,-1.31006726360321
0.817080557238038,0.188310468864441,0.139411935138702,0.27543566608429
0.817686250757117,1.17984855480194,2.0817727749824497,0.83347521686554
0.818291944276196,-0.37212410144805896,2.3572000210761996,1.05142199420929
0.818897637795276,-1.1073950975418099,-0.0809298617362976,1.31966418170929
0.819503331314355,1.35468498058319,-2.43044402189255,-1.17594616985321
0.820109024833434,0.363146894645691,-1.68319792814255,0.49817248249054
0.820714718352514,0.272136152458191,0.977668771076202,-0.50294568157196
0.821320411871593,-0.942138749885559,-0.219840994548798,0.75443957233429
0.821926105390672,-1.93846687488556,0.0843264859199524,0.11257433795929
0.822531798909752,1.11039298839569,0.170547189044952,0.31136095905304
0.823137492428831,1.41935050792694,0.951323556232452,1.03465685749054
0.82374318594791,1.2660692579269401,3.3535281460762,-0.73286755657196
0.82434887946699,0.549958418083191,-1.13234343595505,-0.43349011516571
0.824954572986069,-0.388889238166809,-3.4603024203300503,-1.7531458768844599
0.825560266505148,-1.22235603504181,0.577700509357452,0.99394152545929
0.826165960024228,-3.25333259754181,1.2866262906074502,-0.07184216594696019
0.826771653543307,-0.743352128791809,-1.9442550570488,-0.10297741985320999
0.827377347062386,2.4971092969894397,0.06995636873245241,-0.19398816204070998
0.827983040581466,3.10783927745819,1.7656301968574502,-0.15566784954071
0.828588734100545,1.38342521495819,2.8864993374824497,1.03705187702179
0.829194427619624,-2.32166999988556,0.201682442951202,-0.14608777141571
0.829800121138704,-1.43311775379181,-3.7213595492363,-0.040706912040710204
0.830405814657783,-1.49059822254181,-0.0809298617362976,-0.75442273235321
0.831011508176863,-2.1564136522293103,0.240002755451202,0.7113292207717901
0.831617201695942,0.619413984489441,-0.521613455486298,-1.02984997844696
0.832222895215021,2.0803758985519396,-1.2496993929862998,0.36884142780304
0.8328285887341,2.85396720714569,0.975273751544952,-0.040706912040710204
0.83343428225318,-0.484690019416809,3.0062503140449497,-0.20356824016570998
0.834039975772259,-2.98988044910431,-0.150385428142548,1.64538683795929
0.834645669291339,-0.170942460823059,-2.3178781039238,-0.84064343547821
0.835251362810418,-0.49187507801055896,-0.152780447673798,0.27304064655304
0.835857056329497,-0.216447831916809,0.196892403888702,-0.82387829875946
0.836462749848577,0.233815839958191,-2.18136199064255,-1.6932703886032099
0.837068443367656,-0.106276933479309,0.103486642169952,0.89574572467804
0.837674136886735,1.37863517589569,2.0817727749824497,1.40348986530304
0.838279830405815,-0.0296363084793091,2.5943069546699498,0.24669543170929
0.838885523924894,-1.42114265613556,0.16336213045120201,0.55804797077179
0.839491217443973,1.0864427930831901,-2.9262130648613,-1.02984997844696
0.840096910963053,0.875681074333191,-1.8316891390800498,-0.37840466594696
0.840702604482132,0.0829296094894409,1.11418488435745,-0.42630505657196
0.841308298001211,-1.38282234363556,0.208867501544952,-0.0311268339157102
0.841913991520291,-1.61513923816681,-0.183915701580048,-0.0502869901657102
0.84251968503937,1.29959953136444,-0.0306344515800476,0.39039660358429
0.843125378558449,1.34510490245819,0.9632986538887021,0.49577746295929
0.843731072077529,1.12236808605194,3.23138214998245,-0.17243298625946
0.844336765596608,0.636179121208191,-1.3886105257988,0.42632189655304
0.844942459115687,-0.024846269416809102,-3.0028536898613,-1.96630261516571
0.845548152634767,-1.58160896472931,0.0627713101387024,1.16159289264679
0.846153846153846,-3.6341407030105604,0.536985177326202,-0.33289929485321
0.846759539672925,-0.300273515510559,-1.17545378751755,-0.0981873807907102
0.847365233192005,2.6264403516769397,-0.294086600017548,1.36756457233429
0.847970926711084,3.1317894727706896,2.26379425935745,-0.93644421672821
0.848576620230164,1.5702367383956901,2.40270539216995,1.30768908405304
0.849182313749243,-2.3360401170730603,0.283113107013702,-1.00589978313446
0.849788007268322,-1.45706794910431,-3.3477365023613,0.46224718952179
0.850393700787402,-1.08823494129181,0.012475899982452401,0.29938586139679
0.850999394306481,-2.00073738269806,0.922583321857452,0.70414416217804
0.85160508782556,0.511638105583191,-1.43890593595505,-0.63227673625946
0.85221078134464,2.3366429883956896,-1.0006173617363001,-1.53998913860321
0.852816474863719,3.34015617198944,0.805227364826202,1.65017687702179
0.853422168382798,-0.7122168748855591,3.1762967007636997,-0.12453259563446
0.854027861901878,-3.0521509569168104,0.719006661701202,-0.0598670682907102
0.854633555420957,-0.139807206916809,-2.7489816195488,0.25867052936554
0.855239248940036,-0.146992265510559,-0.507243338298798,-0.38558972454071
0.855844942459116,-0.415234453010559,0.448369454669952,-0.79513806438446
0.856450635978195,-0.106276933479309,-2.2699777132988,-1.01308484172821
0.857056329497274,0.820595625114441,0.141806954669952,0.47901232624054
0.857662023016354,0.8852611524581909,2.31648468904495,1.66454699420929
0.858267716535433,-0.364939042854309,2.78590851716995,-0.52689587688446
0.858873410054512,-1.46185798816681,-0.454552908611298,1.25499865436554
0.859479103573592,1.31157462902069,-2.6436007601738,-1.00589978313446
0.860084797092671,0.5643285352706909,-1.41495574064255,-1.30767224407196
0.86069049061175,-0.27392830066680895,0.896238107013702,-0.0191517362594602
0.86129618413083,-0.764907304573059,-0.143200369548798,0.76401965045929
0.861901877649909,-2.01510749988556,-0.330011892986298,0.11736437702179
0.862507571168988,1.21816886730194,0.158572091388702,0.29699084186554
0.863113264688068,1.2876244337081901,1.3991922085762,-0.14129773235321
0.863718958207147,0.933161543083191,3.1260012906074497,0.73048937702179
0.864324651726227,0.7631151563644409,-1.3311300570487998,-0.040706912040710204
0.864930345245306,-0.135017167854309,-3.1441598422050503,-2.30160534954071
0.865536038764385,-1.32294685535431,0.342988595294952,1.82980334186554
0.866141732283465,-3.26291267566681,1.37763703279495,-0.57240124797821
0.866747425802544,-0.647551347541809,-1.7837887484550499,0.43829699420929
0.867353119321623,2.40609855480194,-0.0761398226737976,0.33770617389679003
0.867958812840703,3.3976366407394396,2.0123172085762002,-1.38670788860321
0.868564506359782,1.31157462902069,2.4482107632637,0.86940050983429
0.869170199878861,-2.1037232225418103,0.0915115445137024,0.32812609577179
0.869775893397941,-1.63908943347931,-3.6016085726738,0.0287486543655398
0.87038158691702,-1.48580818347931,-0.253371267986298,-0.26344372844696
0.870987280436099,-2.12527839832306,1.0686795132637001,0.0694639863967898
0.871592973955179,0.609833906364441,-1.3814254672050499,-0.17961804485321
0.872198667474258,2.2935326368331896,-0.9718771273612979,-1.25977185344696
0.872804360993337,2.7102660352706898,0.992038888263702,0.64666369342804
0.873410054512417,-0.705031816291809,2.7571682827949497,1.08974230670929
0.874015748031496,-2.93000496082306,0.560935372638702,-0.06705212688446019
0.874621441550575,0.142805097770691,-2.8783126742363003,-0.11974255657196
0.875227135069655,-0.350568925666809,0.263952950763702,-0.30894909954071
0.875832828588734,-0.130227128791809,0.0843264859199524,-0.28020886516571
0.876438522107813,0.300876386833191,-2.2723727328300503,-1.57591443157196
0.877044215626893,0.360751875114441,0.201682442951202,0.85024035358429
0.877649909145972,1.18703361339569,1.7225198452949502,1.16398791217804
0.878255602665051,-0.158967363166809,3.0517556851387,-0.34726941204071
0.878861296184131,-1.40916755847931,-0.296481619548798,0.96041125202179
0.87946698970321,1.62771720714569,-2.38733367033005,-1.66453015422821
0.880072683222289,0.382307050895691,-2.30111296720505,0.70893420124054
0.880678376741369,0.00868400402069093,1.6003738492012,-1.43460827922821
0.881284070260448,-1.3900074022293099,-0.25816130704879797,1.03705187702179
0.881889763779528,-1.79476570301056,-0.056979666423797606,-0.82387829875946
0.882495457298607,1.2277489454269401,0.0100808804512024,0.96999133014679
0.883101150817686,0.940346601676941,1.21956574373245,0.95801623249054
0.883706844336766,1.11278800792694,3.4852542202949497,-0.55563611125946
0.884312537855845,1.01698722667694,-1.2353292757988,0.54128283405304
0.884918231374924,-0.0559815233230591,-3.2998361117363,-2.14592908000946
0.885523924894004,-1.45706794910431,0.07235138826370241,0.94364611530304
0.886129618413083,-3.26291267566681,1.0303592007637001,-0.20596325969696
0.886735311932162,-0.508640214729309,-1.8053439242362999,0.7113292207717901
0.887341005451242,2.8156468946456896,0.46034455232620203,0.0191685762405398
0.887946698970321,2.5497997266769397,1.3656619351387,-0.8645936307907099
0.8885523924894,1.47683097667694,3.0469656460762,0.14131457233429
0.88915808600848,-1.96481208972931,-0.133620291423798,0.55325793170929
0.889763779527559,-1.39240242176056,-3.1657150179863,-0.56042615032196
0.890369473046638,-1.78039558582306,-0.698844900798798,0.35207629108429
0.890975166565718,-1.9839722459793099,0.939348458576202,0.57720812702179
0.891580860084797,0.674499433708191,-0.967087088298798,-0.70412732219696
0.892186553603876,1.96541496105194,-1.5131515414238,-0.74723767375946
0.892792247122956,2.5665648633956897,1.5644485562324502,-0.17722302532196
0.893397940642035,-0.484690019416809,2.2877444546699497,1.26457873249054
0.894003634161115,-2.71684822254181,0.596860665607452,0.0167735567092898
0.894609327680194,-0.0272412889480591,-2.0544259554863,-0.90770398235321
0.895215021199273,-0.647551347541809,-1.0006173617363001,0.23951037311554
0.895820714718352,-0.269138261604309,0.659131173419952,-1.29569714641571
0.896426408237432,0.30566642589569104,-2.7106613070488,-0.51252575969696
0.897032101756511,0.255371015739441,0.28071808748245203,-0.07423718547821019
0.897637795275591,0.940346601676941,2.0506375210762,1.52324084186554
0.89824348879467,-0.676291581916809,2.0602175992012,0.45985216999054
0.898849182313749,-1.02356941394806,0.515430001544952,-0.0023865995407102297
0.899454875832829,1.37624015636444,-3.24475066251755,-0.13890271282195998
0.900060569351908,1.11039298839569,-1.5035714632988,-1.35557263469696
0.900666262870987,-0.405654374885559,1.14771515779495,-0.72089245891571
0.901271956390067,-1.1289502733230599,0.0939065640449524,0.94604113483429
0.901877649909146,-1.68698982410431,0.00768586091995238,0.5915782442092901
0.902483343428225,0.880471113395691,-0.049794607830047605,0.8119200410842901
0.903089036947305,1.6420873243331902,1.2219607632637002,-0.16045788860321
0.903694730466384,1.26127921886444,3.1331863492011998,0.22753527545929
0.904300423985463,0.8038304883956909,-0.6533395297050479,0.0550938692092898
0.904906117504543,-0.24279304676055902,-3.8626657015800503,-1.37473279094696
0.905511811023622,-1.58160896472931,0.534590157794952,0.51014758014679
0.906117504542701,-3.06412605457306,1.2219607632637002,-0.43109509563445997
0.906723198061781,-0.5541455858230591,-1.93706999845505,0.16526476764679002
0.90732889158086,3.02640861339569,0.201682442951202,-0.0838172636032102
0.907934585099939,3.10065421886444,1.69856964998245,0.30896593952179
0.908540278619019,1.15829337902069,2.54640656404495,1.79148302936554
0.909145972138098,-1.81632087879181,0.546565255451202,-1.19031628704071
0.909751665657177,-1.9025415819168099,-3.3333663851738002,0.61073840045929
0.910357359176257,-1.35408210926056,-0.35875212736129797,1.02268175983429
0.910963052695336,-2.3432251756668103,0.821992501544952,-0.32810925579071
0.911568746214416,0.640969160270691,-1.1443185336113,-0.15566784954071
0.912174439733495,2.24802726573944,-1.09881316251755,-0.57958630657196
0.912780133252574,2.40849357433319,0.805227364826202,0.90532580280304
0.913385826771653,-0.49187507801055896,3.3152078335761996,0.0766490449905398
0.913991520290733,-2.89407966785431,0.319038399982452,0.70653918170929
0.914597213809812,0.0709545118331909,-3.04356902189255,0.38081652545929
0.915202907328892,-0.39367927722930895,-0.859311209392548,-0.88614880657196
0.915808600847971,-0.523010331916809,1.6410891812324502,-1.43460827922821
0.91641429436705,0.30566642589569104,-1.83647917814255,0.35926134967804
0.91701998788613,0.09729972667694091,-0.739560232830048,-0.36403454875946
0.917625681405209,1.47922599620819,2.2278689663886997,0.66821886920929
0.918231374924288,-0.736167070198059,2.5296414273262,1.52324084186554
0.918837068443368,-1.47622810535431,1.0447293179512,-0.68257214641571
0.919442761962447,1.2708592969894401,-3.47946257658005,0.54607287311554
0.920048455481526,0.669709394645691,-0.789855642986298,-2.23933484172821
0.920654149000606,0.0637694532394409,0.527405099201202,0.21795519733429
0.921259842519685,-1.54089363269806,0.00768586091995238,0.64666369342804
0.921865536038764,-0.688266679573059,-0.13601531095504799,-0.35445447063446
0.922471229557844,1.75225822277069,-0.10727507658004799,1.17117297077179
0.923076923076923,0.27453117198944105,1.1740603726387,0.65384875202179
0.923682616596002,0.8229906446456909,2.7140579312324498,0.0814390840530398
0.924288310115082,0.5427733594894409,-0.449762869548798,-0.8047181425094599
0.924894003634161,-0.166152421760559,-4.2195236117363,-0.27062878704071
0.92549969715324,-0.7122168748855591,1.29620636873245,-0.45265027141571
0.92610539067232,-4.18020515613556,0.637575997638702,0.86700549030304
0.926711084191399,-0.511035234260559,-1.5179415804863,-0.62988171672821
0.927316777710478,2.7030809766769397,-0.516823416423798,1.27894884967804
0.927922471229558,2.9689281446456897,1.9931570523262,-1.25977185344696
0.928528164748637,1.12236808605194,3.10684113435745,-0.45983533000946
0.929133858267717,-1.82829597644806,-0.183915701580048,1.03944689655304
0.929739551786796,-0.961298906135559,-3.0507540804863003,-0.40714490032196
0.930345245305875,-1.69896492176056,-1.0700729281425498,0.67779894733429
0.930950938824954,-2.2234741991043103,1.2051956265449502,-0.38798474407196
0.931556632344034,0.45655265636444103,-0.6126241976737979,-0.12692761516571
0.932162325863113,2.6695507032394397,-1.5610519320487999,-0.69933728313446
0.932768019382193,2.8300170118331898,0.872287911701202,0.0407237520217898
0.933373712901272,-0.855918046760559,2.6350222867012,1.0610020723342901
0.933979406420351,-2.6330225389480604,0.407654122638702,0.23232531452179
0.934585099939431,0.205075605583191,-2.2556075961113002,-0.22991345500946
0.93519079345851,-0.40325935535430896,-0.174335623455048,0.23232531452179
0.935796486977589,-1.01638435535431,-0.320431814861298,-0.46702038860321
0.936402180496669,0.367936933708191,-1.7382833773613,-1.92319226360321
0.937007874015748,0.38470207042694105,-0.128830252361298,1.00831164264679
0.937613567534827,1.45527580089569,2.1272781460762,1.31726916217804
0.938219261053907,-0.661921464729309,2.4506057827949497,0.6322935762405401
0.938824954572986,-1.34210701160431,0.263952950763702,0.74964953327179
0.939430648092065,1.42174552745819,-2.5525900179863004,-0.52450085735321
0.940036341611145,0.351171796989441,-1.7502584750175498,-0.56282116985321
0.940642035130224,0.442182539176941,1.0207791226387,-0.41432995891571
0.941247728649303,-1.31815681629181,0.326223458576202,0.27543566608429
0.941853422168383,-1.85464119129181,-0.140805350017548,-0.11255749797820999
0.942459115687462,1.5870018751144401,0.17773224763870202,0.46703722858429003
0.943064809206541,1.44809074230194,0.901028146076202,0.62510851764679
0.943670502725621,0.8229906446456909,2.9990652554512,-0.0478919706344602
0.9442761962447,0.712819746208191,-0.801830740642548,0.00479845905303977
0.94488188976378,-0.144597245979309,-3.7836300570488,-1.41784314250946
0.945487583282859,-1.04512458972931,0.651946114826202,0.17963488483429
0.946093276801938,-3.3275782030105603,0.805227364826202,0.43590197467804
0.946698970321018,-0.6930567186355591,-1.2688595492363,-0.39277478313446
0.947304663840097,2.65518058605194,-0.198285818767548,0.75683459186554
0.947910357359176,2.92102775402069,1.9620217984199502,-1.36754773235321
0.948516050878256,1.35947501964569,2.39312531404495,0.96999133014679
0.949121744397335,-1.87619636707306,-0.128830252361298,0.72330431842804
0.949727437916414,-1.37324226551056,-2.88549773283005,-1.01547986125946
0.950333131435494,-1.79237068347931,-1.0916281039237998,0.56283800983429
0.950938824954573,-2.20191902332306,0.891448067951202,-0.0383118925094602
0.951544518473652,0.5236132032394409,-0.8521261507987979,-1.18792126750946
0.952150211992732,2.07558585948944,-1.75983855314255,-0.0454969511032102
0.952755905511811,3.25633048839569,1.4375125210762,0.14849963092804
0.95336159903089,-0.666711503791809,2.6469973843574497,0.70653918170929
0.95396729254997,-2.46776619129181,0.7836721890449521,-0.07902722454071019
0.954572986069049,-0.000896074104309071,-3.0986544711113,0.36405138874054
0.955178679588128,-0.355358964729309,0.117856759357452,-0.014361697196960201
0.955784373107208,-0.40086433582305897,0.467529610919952,-0.51492077922821
0.956390066626287,0.5858837110519409,-2.71305632658005,-0.76160779094696
0.956995760145366,0.248185957145691,0.453159493732452,-0.18680310344696
0.957601453664446,0.957111738395691,1.8901712124824501,1.92560412311554
0.958207147183525,-0.175732499885559,2.86254914216995,0.26346056842804
0.958812840702604,-1.50257332019806,-0.0402145297050476,0.50296252155304
0.959418534221684,1.5438915235519401,-2.83280730314255,-1.04661511516571
0.960024227740763,0.8852611524581909,-1.09402312345505,-1.06577527141571
0.960629921259842,-0.11585701160430899,0.587280587482452,0.58199816608429
0.961235614778922,-0.585280839729309,0.216052560138702,0.35207629108429
0.961841308298001,-1.8043457811355599,-0.303666678142548,-0.0215467557907102
0.962447001817081,1.0864427930831901,0.151387032794952,0.50535754108429
0.96305269533616,1.38821525402069,1.15729523591995,-0.0119666776657102
0.963658388855239,0.854125898551941,3.06373078279495,0.10059924030304
0.964264082374319,0.978666914176941,-0.981457205486298,0.0239586153030398
0.964869775893398,-0.44157966785430897,-3.58484343595505,-1.68369031047821
0.965475469412477,-1.32294685535431,0.503454903888702,0.38081652545929
0.966081162931557,-3.29883796863556,0.635180978107452,-0.45504529094696
0.966686856450636,-0.38170417957305897,-1.5490768343925498,0.7113292207717901
0.967292549969715,2.23844718761444,-0.0426095492362976,1.11129748249054
0.967898243488795,3.1916649610519396,1.79916047029495,-0.32331921672821
0.968503937007874,1.35947501964569,2.4146804898261998,0.94604113483429
0.969109630526953,-1.93128181629181,0.6040457242012021,-0.81669324016571
0.969715324046033,-1.6295093553543099,-3.07709929533005,0.33770617389679003
0.970321017565112,-1.72052009754181,-0.303666678142548,0.16047472858429002
0.970926711084191,-1.70375496082306,0.742956857013702,0.35926134967804
0.971532404603271,0.449367597770691,-1.08923308439255,-0.62269665813446
0.97213809812235,1.9246996290206901,-1.3263400179862999,-0.86938366985321
0.972743791641429,2.80127677745819,1.0519143765449501,0.96759631061554
0.973349485160509,-0.494270097541809,2.7499832242011997,0.54367785358429
0.973955178679588,-2.49411140613556,0.826782540607452,-0.11495251750945999
0.974560872198667,-0.326618730354309,-2.7106613070488,-0.18680310344696
0.975166565717747,-0.204472734260559,0.034031075763702394,-0.38558972454071
0.975772259236826,-0.309853593635559,0.17294220857620202,0.61792345905304
0.976377952755905,0.0709545118331909,-2.03766081876755,-1.89205700969696
0.976983646274985,0.33440666027069105,0.371728829669952,-0.57000622844696
0.977589339794064,0.8852611524581909,2.0266873257637,1.38432970905304
0.978195033313144,0.09969474620819091,2.9272146695137,0.14610461139679
0.978800726832223,-1.6678296678543099,-0.289296560955048,1.47294543170929
0.979406420351302,1.41695548839569,-2.5046896273613,-1.68369031047821
0.980012113870382,0.856520918083191,-1.7334933382988,-0.27062878704071
0.980617807389461,0.142805097770691,0.977668771076202,-0.48857556438446
0.98122350090854,-1.09302498035431,0.275928048419952,0.33531115436554
0.98182919442762,-1.83548103504181,-0.638969412517548,1.32205920124054
0.982434887946699,1.05291251964569,0.369333810138702,0.0311436738967898
0.983040581465778,1.1511083204269401,1.17645539216995,0.59397326374054
0.983646274984858,1.26367423839569,3.2529373257636998,-1.10888562297821
0.984251968503937,0.640969160270691,-0.794645682048798,0.0143785371780398
0.984857662023016,-0.130227128791809,-3.5776583773613,-1.27893200969696
0.985463355542096,-1.17924568347931,0.929768380451202,-0.0838172636032102
0.986069049061175,-3.45211921863556,-0.0306344515800476,1.30529406452179
0.986674742580254,-0.415234453010559,-1.2688595492363,-1.02745495891571
0.987280436099334,2.2144969923019397,-0.0737448031425476,0.92927599811554
0.987886129618413,2.94497794933319,1.75126007966995,-0.6250916776657099
0.988491823137492,1.72112296886444,2.9080545132637,0.41913683795929
0.989097516656572,-2.35759529285431,-0.231816092205048,0.61073840045929
0.989703210175651,-1.6510645311355598,-3.3477365023613,-0.97476452922821
0.99030890369473,-1.31097175769806,-0.698844900798798,0.0814390840530398
0.99091459721381,-2.1109082811355604,1.31536652498245,-0.74963269329071
0.991520290732889,0.518823164176941,-1.0245675570488,-0.36642956829071
0.992125984251969,2.5162694532394396,-1.60655730314255,0.0383287324905398
0.992731677771048,2.6958959180831896,1.21956574373245,-0.33768933391571
0.993337371290127,-0.13741218738555902,2.9415847867012,0.85503039264679
0.993943064809206,-2.65457771472931,0.582490548419952,0.55325793170929
0.994548758328286,-0.19249763660430902,-2.78011687345505,0.20598009967804
0.995154451847365,-0.566120683479309,-1.00301238126755,-0.24667859172821
0.995760145366445,-0.32422371082305895,1.2842312710762,-1.25737683391571
0.996365838885524,0.332011640739441,-1.7526534945488,0.35207629108429
0.996971532404603,0.0350292188644409,-0.480898123455048,-0.99152966594696
0.997577225923683,1.61334708995819,2.2087088101387,0.73527941608429
0.998182919442762,-0.999619218635559,1.9404666226387002,1.78429797077179
0.998788612961841,-0.899028398323059,1.01359406404495,-1.03943005657196
0.999394306480921,1.1079979688644401,-2.9262130648613,0.33770617389679003
