Time (s),Accel X (m/s^2),Accel Y (m/s^2),Accel Z (m/s^2)
0.0,-0.0063987250328064,0.0530831754684448,-0.15836271429061902
0.000606060606060606,0.0462917046546936,-0.243899246406555,0.36854158258438097
0.00121212121212121,0.134907427310944,0.105773605155945,0.34938142633438096
0.00181818181818182,0.0055763726234436,0.263844894218445,-0.122437421321869
0.00242424242424242,-0.111779584407806,-0.138518387031555,0.174545000553131
0.00303030303030303,-0.0327439398765564,-0.06906282062530521,0.119459551334381
0.00363636363636364,-0.0063987250328064,0.0315279996871948,0.133829668521881
0.00424242424242424,-0.126149701595306,0.0770333707809448,0.18173005914688098
0.00484848484848485,-0.06627421331405639,-0.0666678010940552,0.00210359430313089
0.00545454545454545,-0.0830393500328064,0.00757780437469482,0.0907193169593809
0.00606060606060606,0.04150166559219361,-0.124148269844055,-0.014661542415619101
0.00666666666666667,0.0822169976234436,-0.169653640937805,0.100299395084381
0.00727272727272727,0.0438966851234436,0.0770333707809448,0.14580476617813098
0.00787878787878788,0.0127614312171936,0.0674532926559448,0.30866609430313097
0.00848484848484848,-0.0926194281578064,-0.219949051094055,0.198495195865631
0.00909090909090909,0.115747271060944,-0.205578933906555,0.20568025445938098
0.0096969696969697,0.144487505435944,-0.0331375276565552,-0.0481918158531191
0.0103030303030303,-0.274640912532806,0.00757780437469482,0.114669512271881
0.0109090909090909,-0.135729779720306,0.09140348796844479,0.0955093560218809
0.0115151515151515,0.0223415093421936,-0.102593094062805,0.208075273990631
0.0121212121212121,-0.0854343695640564,0.0171578824996948,0.356566484928131
0.0127272727272727,0.134907427310944,0.09619352703094479,-0.00268644475936911
0.0133333333333333,0.211548052310944,-0.0570877229690552,0.275135820865631
0.0139393939393939,-0.0447190375328064,0.0219479215621948,-0.0050814642906191095
0.0145454545454545,-0.157284955501556,0.0363180387496948,0.0739541802406309
0.0151515151515152,0.0678468804359436,0.005182784843444819,0.155384844303131
0.0157575757575758,-0.07345927190780639,-0.0546927034378052,-0.0362167181968691
0.0163636363636364,-0.126149701595306,-0.114568191719055,0.0931143364906309
0.016969696969697,0.115747271060944,0.220734542655945,0.24160554742813098
0.0175757575757576,0.0438966851234436,0.251869796562195,0.265555742740631
0.0181818181818182,0.0247365288734436,-0.006792312812805181,0.0811392388343809
0.0187878787878788,-0.0207688422203064,-0.248689285469055,-0.0625619330406191
0.0193939393939394,-0.0016086859703064,-0.162468582344055,0.157779863834381
0.02,-0.0159788031578064,0.09379850749969479,0.119459551334381
0.0206060606060606,-0.0279539008140564,-0.0355325471878052,0.32782625055313097
0.0212121212121212,-0.157284955501556,0.153673995780945,0.174545000553131
0.0218181818181818,0.0199464898109436,0.09379850749969479,-0.0721420111656191
0.0224242424242424,0.163647661685944,-0.07864289875030521,0.220050371646881
0.023030303030303,-0.059089154720306396,0.184809249687195,-0.0242416205406191
0.0236363636363636,-0.226740521907806,-0.07385285968780521,0.17694002008438098
0.0242424242424242,-0.06627421331405639,-0.112173172187805,-0.060166913509369105
0.0248484848484848,0.0175514702796936,-0.16725862140655498,-0.057771893978119104
0.0254545454545455,-0.106989545345306,-0.08343293781280521,0.121854570865631
0.0260606060606061,-0.056694135189056395,-0.0163723909378052,-0.0913021674156191
0.0266666666666667,0.0462917046546936,-0.152888504219055,0.14101472711563098
0.0272727272727273,-0.056694135189056395,-0.06906282062530521,0.0955093560218809
0.0278787878787879,-0.0806443305015564,-0.12654328937530498,0.363751543521881
0.0284848484848485,-0.109384564876556,-0.133728347969055,0.18173005914688098
0.0290909090909091,-0.06627421331405639,-0.128938308906555,0.0811392388343809
0.0296969696969697,0.0750319390296936,0.0363180387496948,-0.0529818549156191
0.0303030303030303,-0.0878293890953064,0.00278776531219482,0.17214998102188098
0.0309090909090909,-0.06866923284530639,0.00278776531219482,0.303876055240631
0.0315151515151515,0.0295265679359436,0.00278776531219482,0.0116836724281309
0.0321212121212121,0.0654518609046936,-0.13133332843780499,0.220050371646881
0.0327272727272727,-0.0040037055015564,0.129723800468445,0.370936602115631
0.0333333333333333,0.0199464898109436,-0.00200227375030518,0.155384844303131
0.0339393939393939,0.0846120171546936,-0.148098465156555,-0.10327726507186899
0.0345454545454545,-0.142914838314056,0.0315279996871948,0.016473711490630902
0.0351515151515151,0.058266802310943604,0.08900846843719479,0.0811392388343809
0.0357575757575758,-0.06627421331405639,0.00278776531219482,0.126644609928131
0.0363636363636364,0.0750319390296936,-0.119358230781555,0.107484453678131
0.036969696969697,0.115747271060944,-0.07145784015655521,0.0428189263343809
0.0375757575757576,-0.0375339789390564,-0.184023758125305,0.0188687310218809
0.0381818181818182,0.189992876529694,-0.116963211250305,0.13622468805313098
0.0387878787878788,0.0917970757484436,-0.0499026643753052,-0.000291425228119114
0.0393939393939394,0.115747271060944,-0.0403225862503052,0.138619707584381
0.04,0.158857622623444,0.0123678434371948,0.057189043521880895
0.0406060606060606,-0.0878293890953064,-0.193603836250305,-0.0242416205406191
0.0412121212121212,-0.116569623470306,-0.0427176057815552,0.323036211490631
0.0418181818181818,0.0175514702796936,-0.0642727815628052,0.43799714899063097
0.0424242424242424,-0.0399289984703064,-0.0283474885940552,0.279925859928131
0.043030303030303,0.101377153873444,0.148883956718445,-0.201473065853119
0.0436363636363636,-0.140519818782806,-0.310959793281555,0.20568025445938098
0.0442424242424242,-0.159679975032806,-0.0187674104690552,0.14580476617813098
0.0448484848484848,-0.123754682064056,0.0315279996871948,0.129039629459381
0.0454545454545455,0.000786333560943597,-0.00439729328155518,0.208075273990631
0.0460606060606061,0.0055763726234436,0.0435030973434448,0.164964922428131
0.0466666666666667,-0.0423240180015564,-0.169653640937805,-0.055376874446869104
0.0472727272727273,-0.190815228939056,-0.0355325471878052,-0.0529818549156191
0.0478787878787879,-0.260270795345306,-0.160073562812805,0.375726641178131
0.0484848484848485,0.0702418999671936,-0.0546927034378052,-0.014661542415619101
0.0490909090909091,-0.176445111751556,0.08900846843719479,-0.055376874446869104
0.0496969696969697,-0.269850873470306,0.00278776531219482,0.129039629459381
0.0503030303030303,-0.116569623470306,-0.006792312812805181,0.18652009820938098
0.0509090909090909,0.0175514702796936,-0.07864289875030521,0.06916414117813091
0.0515151515151515,-0.0063987250328064,0.005182784843444819,0.0907193169593809
0.0521212121212121,-0.138124799251556,-0.0978030550003052,0.109879473209381
0.0527272727272727,-0.0135837836265564,-0.119358230781555,0.14101472711563098
0.0533333333333333,-0.07345927190780639,-0.0499026643753052,0.06437410211563091
0.0539393939393939,-0.102199506282806,-0.152888504219055,0.129039629459381
0.0545454545454545,0.156462603092194,0.16804411296844501,0.119459551334381
0.0551515151515152,-0.166865033626556,-0.0403225862503052,0.0787442193031309
0.0557575757575758,-0.334516400814056,-0.18162873859405498,0.162569902896881
0.0563636363636364,-0.0040037055015564,0.0171578824996948,0.0500039849281309
0.056969696969697,-0.0231638617515564,0.08661344890594479,0.13622468805313098
0.0575757575757576,-0.0327439398765564,0.129723800468445,-0.000291425228119114
0.0581818181818182,0.132512407779694,-0.0139773714065552,-0.189497968196869
0.0587878787878788,0.110957231998444,-0.13133332843780499,0.18652009820938098
0.0593939393939394,-0.0207688422203064,-0.0403225862503052,0.14580476617813098
0.06,0.0223415093421936,0.203969405937195,-0.0386117377281191
0.0606060606060606,0.036711626529693606,-0.13133332843780499,0.423627031803131
0.0612121212121212,-0.07585429143905639,0.09619352703094479,0.0739541802406309
0.0618181818181818,0.0678468804359436,0.09858854656219479,0.006893633365630891
0.0624242424242424,-0.0183738226890564,-0.24150422687530498,0.325431231021881
0.063030303030303,-0.049509076595306394,-0.0331375276565552,-0.215843183040619
0.0636363636363636,-0.198000287532806,-0.0163723909378052,0.0835342583656309
0.0642424242424242,-0.07585429143905639,-0.0163723909378052,0.102694414615631
0.0648484848484848,0.101377153873444,-0.119358230781555,0.167359941959381
0.0654545454545455,-0.07585429143905639,-0.0259524690628052,0.25837068414688097
0.0660606060606061,0.0462917046546936,-0.203183914375305,0.174545000553131
0.0666666666666667,0.0319215874671936,-0.0594827425003052,0.265555742740631
0.0672727272727273,-0.0159788031578064,0.00278776531219482,0.18173005914688098
0.0678787878787879,0.223523149967194,-0.152888504219055,0.15059480524063099
0.0684848484848485,0.142092485904694,-0.17204866046905498,0.12424959039688101
0.0690909090909091,-0.06387919378280639,-0.0570877229690552,0.0739541802406309
0.0696969696969697,-0.0040037055015564,0.115353683280945,0.030843828678130902
0.0703030303030303,-0.0806443305015564,-0.08343293781280521,-0.029031659603119098
0.0709090909090909,0.130117388248444,0.0506881559371948,-0.316434003353119
0.0715151515151515,-0.0135837836265564,0.00757780437469482,0.342196367740631
0.0721212121212121,0.0726369194984436,-0.258269363594055,0.43799714899063097
0.0727272727272727,0.118142290592194,-0.0331375276565552,-0.10327726507186899
0.0733333333333333,0.0989821343421936,0.165649093437195,0.0476089653968809
0.0739393939393939,0.144487505435944,-0.0379275667190552,0.160174883365631
0.0745454545454545,-0.0926194281578064,-0.12654328937530498,0.129039629459381
0.0751515151515151,0.252263384342194,-0.10019807453155499,0.0476089653968809
0.0757575757575758,0.235498247623444,-0.0163723909378052,-0.009871503353119109
0.0763636363636364,-0.049509076595306394,0.220734542655945,0.17694002008438098
0.076969696969697,0.0870070366859436,-0.133728347969055,0.37812166070938097
0.0775757575757576,0.0151564507484436,-0.267849441719055,0.162569902896881
0.0781818181818182,0.0295265679359436,-0.0163723909378052,0.162569902896881
0.0787878787878788,0.0678468804359436,0.0411080778121948,0.184125078678131
0.0793939393939394,-0.07345927190780639,-0.157678543281555,0.239210527896881
0.08,-0.0351389594078064,0.0123678434371948,0.0452139458656309
0.0806060606060606,-0.0040037055015564,-0.07864289875030521,0.323036211490631
0.0812121212121212,0.0438966851234436,-0.08582795734405521,0.0883242974281309
0.0818181818181818,-0.056694135189056395,-0.00200227375030518,0.00928865289688089
0.0824242424242424,-0.0111887640953064,-0.0499026643753052,0.344591387271881
0.083030303030303,0.0510817437171936,0.0506881559371948,0.174545000553131
0.0836363636363636,-0.241110639095306,-0.23192414875030498,0.188915117740631
0.0842424242424242,-0.0782493109703064,-0.08582795734405521,0.030843828678130902
0.0848484848484849,-0.0878293890953064,-0.0283474885940552,0.17214998102188098
0.0854545454545454,-0.0926194281578064,-0.0211624300003052,-0.000291425228119114
0.0860606060606061,-0.06627421331405639,-0.193603836250305,0.15059480524063099
0.0866666666666667,-0.061484174251556396,0.0363180387496948,0.260765703678131
0.0872727272727273,0.187597856998444,-0.107383133125305,0.174545000553131
0.0878787878787879,0.0295265679359436,-0.24629426593780498,0.23202546930313098
0.0884848484848485,-0.183630170345306,0.0291329801559448,0.18173005914688098
0.0890909090909091,-0.051904096126556394,-0.08103791828155521,0.20568025445938098
0.0896969696969697,-0.0159788031578064,-0.234319168281555,0.188915117740631
0.0903030303030303,0.0630568413734436,-0.08343293781280521,0.143409746646881
0.0909090909090909,-0.138124799251556,0.0171578824996948,0.164964922428131
0.0915151515151515,-0.104594525814056,-0.0499026643753052,0.138619707584381
0.0921212121212121,0.271423540592194,-0.00439729328155518,0.100299395084381
0.0927272727272727,0.187597856998444,0.0291329801559448,-0.120042401790619
0.0933333333333333,-0.051904096126556394,-0.162468582344055,-0.0841171088218691
0.0939393939393939,0.0199464898109436,-0.121753250312805,0.014078691959380898
0.0945454545454545,0.039106646060943606,0.122538741874695,0.0931143364906309
0.0951515151515152,0.0271315484046936,-0.0187674104690552,-0.0266366400718691
0.0957575757575758,-0.0327439398765564,-0.116963211250305,0.0883242974281309
0.0963636363636364,-0.186025189876556,-0.140913406562805,0.279925859928131
0.096969696969697,-0.0135837836265564,-0.23671418781280498,0.0380288872718809
0.0975757575757576,-0.0854343695640564,-0.12654328937530498,0.0236587700843809
0.0981818181818182,0.0534767632484436,0.0578732145309448,0.121854570865631
0.0987878787878788,0.120537310123444,-0.07864289875030521,0.234420488834381
0.0993939393939394,0.0175514702796936,-0.133728347969055,0.20568025445938098
0.1,0.166042681217194,0.208759444999695,0.0787442193031309
0.100606060606061,0.0319215874671936,-0.0331375276565552,0.19610017633438098
0.101212121212121,0.0654518609046936,-0.0594827425003052,0.14101472711563098
0.101818181818182,0.213943071842194,-0.00918733234405518,0.869100664615631
0.102424242424242,-0.114174603939056,-0.0211624300003052,0.361356523990631
0.103030303030303,0.166042681217194,0.122538741874695,-0.220633222103119
0.103636363636364,-0.0375339789390564,-0.07864289875030521,0.411651934146881
0.104242424242424,-0.0830393500328064,0.105773605155945,-0.0625619330406191
0.104848484848485,-0.0399289984703064,-0.0427176057815552,-0.0793270697593691
0.105454545454545,-0.138124799251556,0.0674532926559448,-0.06735197210311909
0.106060606060606,0.0870070366859436,0.129723800468445,-0.143992597103119
0.106666666666667,-0.0399289984703064,0.00997282390594482,-0.0242416205406191
0.107272727272727,-0.214765424251556,-0.0546927034378052,-0.0266366400718691
0.107878787878788,-0.154889935970306,0.0243429410934448,0.0188687310218809
0.108484848484848,-0.241110639095306,-0.0307425081253052,0.14580476617813098
0.109090909090909,-0.353676557064056,-0.0187674104690552,0.263160723209381
0.10969696969697,0.0295265679359436,-0.107383133125305,-0.0410067572593691
0.11030303030303,-0.219555463314056,0.0554781949996948,-0.160757733821869
0.110909090909091,-0.255480756282806,0.148883956718445,-0.0457967963218691
0.111515151515152,0.0438966851234436,-0.116963211250305,-0.0913021674156191
0.112121212121212,-0.06866923284530639,-0.116963211250305,0.06437410211563091
0.112727272727273,-0.140519818782806,-0.0283474885940552,0.251185625553131
0.113333333333333,-0.181235150814056,-0.07624787921905521,0.167359941959381
0.113939393939394,-0.209975385189056,-0.124148269844055,0.133829668521881
0.114545454545455,-0.0327439398765564,-0.0355325471878052,0.18173005914688098
0.115151515151515,-0.0279539008140564,-0.0499026643753052,0.20568025445938098
0.115757575757576,0.173227739810944,-0.0403225862503052,0.301481035709381
0.116363636363636,0.0462917046546936,0.134513839530945,0.0452139458656309
0.116969696969697,-0.219555463314056,-0.0187674104690552,-0.0865121283531191
0.117575757575758,-0.0926194281578064,-0.162468582344055,-0.143992597103119
0.118181818181818,0.0271315484046936,-0.155283523750305,0.033238848209380896
0.118787878787879,-0.157284955501556,-0.260664383125305,0.0715591607093809
0.119393939393939,-0.0998044867515564,0.0602682340621948,0.0212637505531309
0.12,0.178017778873444,0.112958663749695,-0.0913021674156191
0.120606060606061,-0.0351389594078064,-0.0475076448440552,0.20089021539688098
0.121212121212121,-0.138124799251556,0.0506881559371948,-0.16794279241561902
0.121818181818182,0.182807817935944,-0.107383133125305,0.15059480524063099
0.122424242424242,-0.0375339789390564,-0.06906282062530521,0.49787263727188097
0.123030303030303,-0.07106425237655639,0.108168624687195,-0.134412518978119
0.123636363636364,-0.0040037055015564,-0.0331375276565552,0.272740801334381
0.124242424242424,0.0103664116859436,0.144093917655945,0.20089021539688098
0.124848484848485,0.194782915592194,-0.160073562812805,0.272740801334381
0.125454545454545,0.113352251529694,-0.112173172187805,0.212865313053131
0.126060606060606,-0.0135837836265564,-0.0642727815628052,0.162569902896881
0.126666666666667,-0.23392558050155599,0.005182784843444819,0.20568025445938098
0.127272727272727,-0.176445111751556,0.00278776531219482,-0.0936971869468691
0.127878787878788,-0.054299115657806395,0.005182784843444819,0.033238848209380896
0.128484848484848,0.0798219780921936,0.117748702812195,0.059584063053130895
0.129090909090909,-0.0111887640953064,0.005182784843444819,-0.0266366400718691
0.12969696969697,0.0271315484046936,-0.24629426593780498,0.617623613834381
0.13030303030303,0.103772173404694,0.0387130582809448,0.878680742740631
0.130909090909091,-0.17405009222030599,0.0482931364059448,0.734979570865631
0.131515151515152,-0.0111887640953064,-0.0618777620315552,0.313456133365631
0.132121212121212,0.058266802310943604,0.0123678434371948,0.600858477115631
0.132727272727273,-0.0327439398765564,-0.284614578437805,0.248790606021881
0.133333333333333,-0.106989545345306,-0.08343293781280521,-0.122437421321869
0.133939393939394,-0.183630170345306,-0.107383133125305,0.208075273990631
0.134545454545455,0.039106646060943606,0.158464034843445,0.164964922428131
0.135151515151515,-0.202790326595306,-0.06906282062530521,0.06916414117813091
0.135757575757576,0.0079713921546936,-0.140913406562805,0.14580476617813098
0.136363636363636,0.0702418999671936,-0.0451126253128052,0.296690996646881
0.136969696969697,-0.0878293890953064,-0.0522976839065552,-0.0434017767906191
0.137575757575758,0.178017778873444,-0.0475076448440552,0.133829668521881
0.138181818181818,-0.059089154720306396,-0.0403225862503052,0.17214998102188098
0.138787878787879,0.0462917046546936,0.0578732145309448,0.121854570865631
0.139393939393939,-0.183630170345306,-0.234319168281555,0.06437410211563091
0.14,0.0199464898109436,0.0554781949996948,-0.0984872260093691
0.140606060606061,0.0510817437171936,-0.0522976839065552,0.13622468805313098
0.141212121212121,-0.140519818782806,0.156069015312195,-0.14878263616561901
0.141818181818182,0.0678468804359436,-0.16725862140655498,0.294295977115631
0.142424242424242,-0.0183738226890564,-0.219949051094055,-0.029031659603119098
0.143030303030303,-0.0279539008140564,-0.0355325471878052,-0.0362167181968691
0.143636363636364,-0.145309857845306,-0.0570877229690552,0.160174883365631
0.144242424242424,-0.166865033626556,0.115353683280945,-0.029031659603119098
0.144848484848485,0.0534767632484436,-0.184023758125305,0.449972246646881
0.145454545454545,-0.0040037055015564,-0.09540803546905521,0.06916414117813091
0.146060606060606,0.0438966851234436,0.00039274578094482,0.19131013727188098
0.146666666666667,0.101377153873444,-0.0163723909378052,0.006893633365630891
0.147272727272727,-0.0399289984703064,0.0291329801559448,0.00928865289688089
0.147878787878788,0.146882524967194,-0.07145784015655521,0.119459551334381
0.148484848484848,0.0654518609046936,-0.00200227375030518,0.100299395084381
0.149090909090909,0.0319215874671936,-0.07145784015655521,0.13622468805313098
0.14969696969697,0.204362993717194,0.0650582731246948,0.157779863834381
0.15030303030303,0.0055763726234436,0.244684737968445,0.164964922428131
0.150909090909091,-0.0303489203453064,0.00997282390594482,-0.0218466010093691
0.151515151515152,0.0965871148109436,-0.06906282062530521,0.117064531803131
0.152121212121212,-0.310566205501556,-0.160073562812805,0.0116836724281309
0.152727272727273,-0.056694135189056395,-0.0546927034378052,-0.0960922064781191
0.153333333333333,0.0678468804359436,-0.07145784015655521,0.13622468805313098
0.153939393939394,-0.186025189876556,-0.128938308906555,0.0787442193031309
0.154545454545455,-0.07106425237655639,-0.07624787921905521,0.208075273990631
0.155151515151515,-0.104594525814056,0.00278776531219482,0.0859292778968809
0.155757575757576,-0.217160443782806,0.0818234098434448,-0.055376874446869104
0.156363636363636,0.0750319390296936,0.153673995780945,-0.0841171088218691
0.156969696969697,-0.056694135189056395,-0.08582795734405521,0.105089434146881
0.157575757575758,0.146882524967194,-0.128938308906555,0.14580476617813098
0.158181818181818,0.0774269585609436,-0.145703445625305,0.174545000553131
0.158787878787879,-0.238715619564056,-0.10019807453155499,-0.0242416205406191
0.159393939393939,-0.159679975032806,0.105773605155945,-0.30924894475936904
0.16,-0.0207688422203064,0.0482931364059448,0.23202546930313098
0.160606060606061,-0.0016086859703064,-0.138518387031555,0.23681550836563098
0.161212121212121,-0.0830393500328064,-0.0355325471878052,-0.285298749446869
0.161818181818182,-0.0854343695640564,-0.150493484687805,-0.029031659603119098
0.162424242424242,-0.207580365657806,-0.00439729328155518,-0.0314266791343691
0.163030303030303,-0.123754682064056,-0.0475076448440552,0.193705156803131
0.163636363636364,-0.205185346126556,0.0147628629684448,0.0835342583656309
0.164242424242424,-0.116569623470306,0.0195529020309448,0.0907193169593809
0.164848484848485,-0.152494916439056,-0.277429519844055,0.21047029352188099
0.165454545454545,0.101377153873444,0.0147628629684448,-0.16315275335311902
0.166060606060606,-0.128544721126556,0.0530831754684448,0.0236587700843809
0.166666666666667,-0.121359662532806,-0.08582795734405521,-0.0913021674156191
0.167272727272727,-0.274640912532806,-0.0139773714065552,0.167359941959381
0.167878787878788,-0.408762006282806,0.0171578824996948,0.13622468805313098
0.168484848484848,0.0678468804359436,-0.0499026643753052,-0.136807538509369
0.169090909090909,-0.106989545345306,0.141698898124695,0.152989824771881
0.16969696969697,0.0247365288734436,0.0243429410934448,0.12424959039688101
0.17030303030303,0.0247365288734436,0.00039274578094482,0.174545000553131
0.170909090909091,0.036711626529693606,0.005182784843444819,0.006893633365630891
0.171515151515152,0.108562212467194,-0.234319168281555,0.25837068414688097
0.172121212121212,-0.0327439398765564,0.09619352703094479,0.277530840396881
0.172727272727273,-0.0159788031578064,0.0770333707809448,0.016473711490630902
0.173333333333333,0.04150166559219361,-0.18162873859405498,0.0380288872718809
0.173939393939394,0.151672564029694,-0.0403225862503052,-0.0769320502281191
0.174545454545455,-0.049509076595306394,-0.248689285469055,0.19131013727188098
0.175151515151515,-0.061484174251556396,0.0267379606246948,0.0859292778968809
0.175757575757576,0.151672564029694,0.235104659843445,0.0883242974281309
0.176363636363636,0.0175514702796936,-0.17683869953155498,-0.127227460384369
0.176969696969697,-0.118964643001556,-0.0427176057815552,0.030843828678130902
0.177575757575758,-0.0375339789390564,-0.00918733234405518,0.0811392388343809
0.178181818181818,-0.0016086859703064,0.160859054374695,0.105089434146881
0.178787878787879,-0.322541303157806,0.0219479215621948,0.179335039615631
0.179393939393939,-0.29619608831405597,0.00278776531219482,-0.18710294866561902
0.18,-0.0399289984703064,-0.07385285968780521,0.253580645084381
0.180606060606061,-0.0087937445640564,-0.19120881671905499,0.382911699771881
0.181212121212121,-0.0423240180015564,0.203969405937195,-0.0769320502281191
0.181818181818182,-0.0782493109703064,-0.155283523750305,0.179335039615631
0.182424242424242,0.0151564507484436,0.0315279996871948,0.00449861383438089
0.183030303030303,0.0199464898109436,0.0171578824996948,0.157779863834381
0.183636363636364,-0.0303489203453064,-0.07385285968780521,0.222445391178131
0.184242424242424,0.163647661685944,0.0698483121871948,-0.0242416205406191
0.184848484848485,-0.0231638617515564,0.153673995780945,0.279925859928131
0.185454545454545,0.000786333560943597,-0.119358230781555,0.0835342583656309
0.186060606060606,-0.0375339789390564,-0.375625320625305,0.0931143364906309
0.186666666666667,-0.159679975032806,-0.109778152656555,-0.206263104915619
0.187272727272727,0.137302446842194,0.0147628629684448,0.0404239068031309
0.187878787878788,-0.051904096126556394,-0.0259524690628052,0.119459551334381
0.188484848484848,-0.138124799251556,-0.0115823518753052,0.0907193169593809
0.189090909090909,0.0223415093421936,0.0243429410934448,0.301481035709381
0.18969696969697,-0.0183738226890564,-0.0211624300003052,-0.203868085384369
0.19030303030303,-0.0926194281578064,0.0195529020309448,0.061979082584380896
0.190909090909091,0.0151564507484436,0.0722433317184448,-0.0625619330406191
0.191515151515152,0.134907427310944,-0.0427176057815552,-0.170337811946869
0.192121212121212,0.0175514702796936,-0.30377473468780497,0.490687578678131
0.192727272727273,0.0846120171546936,-0.17204866046905498,0.17694002008438098
0.193333333333333,0.257053423404694,-0.150493484687805,0.208075273990631
0.193939393939394,0.0151564507484436,0.0291329801559448,0.265555742740631
0.194545454545455,-0.07106425237655639,-0.0139773714065552,-0.055376874446869104
0.195151515151515,0.137302446842194,-0.0978030550003052,-0.266138593196869
0.195757575757576,0.0079713921546936,-0.140913406562805,0.0811392388343809
0.196363636363636,-0.0423240180015564,-0.23671418781280498,0.239210527896881
0.196969696969697,-0.054299115657806395,0.0195529020309448,0.0428189263343809
0.197575757575758,-0.0806443305015564,0.117748702812195,0.222445391178131
0.198181818181818,-0.0854343695640564,-0.287009597969055,0.26795076227188097
0.198787878787879,0.0558717827796936,-0.239109207344055,-0.11285734319686899
0.199393939393939,-0.06387919378280639,0.146488937187195,-0.15836271429061902
0.2,-0.245900678157806,-0.116963211250305,0.0763491997718809
0.200606060606061,0.060661821842193604,0.0411080778121948,-0.196683026790619
0.201212121212121,-0.056694135189056395,0.0578732145309448,-0.0457967963218691
0.201818181818182,-0.147704877376556,-0.136123367500305,-0.0457967963218691
0.202424242424242,-0.06387919378280639,0.00757780437469482,-0.136807538509369
0.203030303030303,-0.121359662532806,0.10098356609344501,0.19610017633438098
0.203636363636364,-0.0016086859703064,-0.0187674104690552,0.0380288872718809
0.204242424242424,-0.0471140570640564,-0.152888504219055,-0.10327726507186899
0.204848484848485,-0.06387919378280639,-0.162468582344055,0.0835342583656309
0.205454545454545,-0.051904096126556394,-0.222344070625305,0.0811392388343809
0.206060606060606,-0.253085736751556,0.180019210624695,0.105089434146881
0.206666666666667,-0.0351389594078064,0.08900846843719479,0.179335039615631
0.207272727272727,-0.07106425237655639,-0.222344070625305,0.162569902896881
0.207878787878788,-0.207580365657806,-0.0451126253128052,-0.00747648382186911
0.208484848484848,-0.217160443782806,-0.0187674104690552,0.0859292778968809
0.209090909090909,-0.049509076595306394,0.0411080778121948,0.19131013727188098
0.20969696969697,-0.049509076595306394,0.215944503593445,0.152989824771881
0.21030303030303,-0.142914838314056,-0.116963211250305,0.00928865289688089
0.210909090909091,-0.0902244086265564,-0.0499026643753052,-0.0841171088218691
0.211515151515152,0.058266802310943604,0.13211881999969502,0.0931143364906309
0.212121212121212,-0.0087937445640564,0.108168624687195,0.061979082584380896
0.212727272727273,0.0462917046546936,0.00039274578094482,0.014078691959380898
0.213333333333333,-0.104594525814056,-0.219949051094055,0.014078691959380898
0.213939393939394,-0.102199506282806,-0.09301301593780521,-0.0984872260093691
0.214545454545455,-0.116569623470306,-0.145703445625305,-0.0218466010093691
0.215151515151515,-0.200395307064056,0.00278776531219482,0.23202546930313098
0.215757575757576,0.0055763726234436,0.0722433317184448,0.0500039849281309
0.216363636363636,-0.0998044867515564,0.0363180387496948,-0.00747648382186911
0.216969696969697,0.0510817437171936,-0.07385285968780521,0.21047029352188099
0.217575757575758,-0.0854343695640564,-0.121753250312805,0.0955093560218809
0.218181818181818,0.0654518609046936,0.09140348796844479,0.138619707584381
0.218787878787879,-0.0135837836265564,0.112958663749695,0.346986406803131
0.219393939393939,0.039106646060943606,-0.104988113594055,0.126644609928131
0.22,0.0486867241859436,-0.36365022296905497,0.466737383365631
0.220606060606061,-0.162074994564056,-0.0403225862503052,-0.203868085384369
0.221212121212121,-0.166865033626556,-0.0451126253128052,-0.254163495540619
0.221818181818182,-0.118964643001556,0.09140348796844479,0.356566484928131
0.222424242424242,-0.106989545345306,0.249474777030945,-0.239793378353119
0.223030303030303,-0.126149701595306,-0.116963211250305,0.13143464899063098
0.223636363636364,0.0151564507484436,-0.08343293781280521,-0.189497968196869
0.224242424242424,-0.07106425237655639,-0.07145784015655521,0.129039629459381
0.224848484848485,0.134907427310944,0.10098356609344501,0.0380288872718809
0.225454545454545,0.0199464898109436,0.0267379606246948,0.121854570865631
0.226060606060606,-0.0159788031578064,-0.217554031562805,0.346986406803131
0.226666666666667,-0.0040037055015564,-0.128938308906555,-0.06495695257186909
0.227272727272727,0.0654518609046936,-0.200788894844055,0.102694414615631
0.227878787878788,0.0654518609046936,0.0722433317184448,-0.06735197210311909
0.228484848484848,-0.0375339789390564,-0.07864289875030521,0.0811392388343809
0.229090909090909,0.0199464898109436,-0.145703445625305,0.0715591607093809
0.22969696969697,0.060661821842193604,-0.200788894844055,0.270345781803131
0.23030303030303,-0.0231638617515564,-0.253479324531555,0.279925859928131
0.230909090909091,-0.238715619564056,0.13211881999969502,-0.0434017767906191
0.231515151515152,-0.217160443782806,-0.107383133125305,0.26795076227188097
0.232121212121212,0.0534767632484436,-0.06906282062530521,0.148199785709381
0.232727272727273,0.0726369194984436,-0.07145784015655521,0.0260537896156309
0.233333333333333,0.0127614312171936,-0.08103791828155521,0.21047029352188099
0.233939393939394,0.271423540592194,0.0602682340621948,0.402071856021881
0.234545454545455,-0.0399289984703064,-0.00200227375030518,0.0907193169593809
0.235151515151515,-0.114174603939056,-0.162468582344055,0.0188687310218809
0.235757575757576,-0.06387919378280639,-0.313354812812805,0.0907193169593809
0.236363636363636,0.0151564507484436,-0.210368972969055,0.0979043755531309
0.236969696969697,-0.140519818782806,0.115353683280945,0.148199785709381
0.237575757575758,-0.114174603939056,0.110563644218445,0.160174883365631
0.238181818181818,-0.06387919378280639,-0.08822297687530521,0.255975664615631
0.238787878787879,-0.130939740657806,-0.0570877229690552,0.291900957584381
0.239393939393939,0.0510817437171936,0.0674532926559448,0.198495195865631
0.24,-0.049509076595306394,0.0171578824996948,0.102694414615631
0.240606060606061,0.0654518609046936,0.18720426921844502,0.133829668521881
0.241212121212121,-0.17405009222030599,-0.0187674104690552,0.306271074771881
0.241818181818182,-0.207580365657806,-0.263059402656555,0.313456133365631
0.242424242424242,0.122932329654694,0.0626632535934448,-0.278113690853119
0.243030303030303,-0.0998044867515564,0.00039274578094482,0.0907193169593809
0.243636363636364,-0.0854343695640564,0.108168624687195,0.00928865289688089
0.244242424242424,0.108562212467194,0.00997282390594482,0.0979043755531309
0.244848484848485,0.194782915592194,-0.12654328937530498,0.162569902896881
0.245454545454545,-0.147704877376556,-0.157678543281555,0.19610017633438098
0.246060606060606,-0.0854343695640564,-0.102593094062805,0.40925691461563096
0.246666666666667,0.0774269585609436,0.0435030973434448,0.0404239068031309
0.247272727272727,0.0127614312171936,-0.0427176057815552,0.224840410709381
0.247878787878788,0.216338091373444,0.0458981168746948,0.00928865289688089
0.248484848484848,0.168437700748444,-0.0139773714065552,0.198495195865631
0.249090909090909,-0.0854343695640564,-0.00439729328155518,0.306271074771881
0.24969696969697,0.04150166559219361,-0.00200227375030518,0.0979043755531309
0.25030303030303,0.034316606998443605,-0.08343293781280521,0.0715591607093809
0.250909090909091,-0.06387919378280639,0.0530831754684448,-0.294878827571869
0.251515151515152,-0.07585429143905639,-0.0403225862503052,0.416441973209381
0.252121212121212,-0.226740521907806,-0.18162873859405498,0.859520586490631
0.252727272727273,0.194782915592194,0.117748702812195,0.19610017633438098
0.253333333333333,0.0798219780921936,0.08421842937469479,-0.0984872260093691
0.253939393939394,0.0103664116859436,-0.152888504219055,0.057189043521880895
0.254545454545455,-0.0111887640953064,-0.0594827425003052,-0.00268644475936911
0.255151515151515,-0.202790326595306,-0.136123367500305,-0.0410067572593691
0.255757575757576,0.120537310123444,-0.0379275667190552,0.006893633365630891
0.256363636363636,0.139697466373444,0.0770333707809448,-0.0697469916343691
0.256969696969697,-0.0207688422203064,-0.0594827425003052,0.0380288872718809
0.257575757575758,-0.0135837836265564,-0.07864289875030521,0.167359941959381
0.258181818181818,0.039106646060943606,0.0147628629684448,0.13622468805313098
0.258787878787879,0.163647661685944,0.153673995780945,0.06676912164688091
0.259393939393939,-0.0231638617515564,0.00278776531219482,0.282320879459381
0.26,0.058266802310943604,-0.356465164375305,0.339801348209381
0.260606060606061,0.173227739810944,-0.0331375276565552,-0.0481918158531191
0.261212121212121,-0.07585429143905639,0.08661344890594479,0.306271074771881
0.261818181818182,-0.0207688422203064,0.208759444999695,0.346986406803131
0.262424242424242,-0.0111887640953064,0.146488937187195,-0.122437421321869
0.263030303030303,-0.07585429143905639,-0.330119949531555,0.105089434146881
0.263636363636364,-0.214765424251556,-0.07385285968780521,-0.321224042415619
0.264242424242424,-0.106989545345306,0.00997282390594482,0.20568025445938098
0.264848484848485,-0.0087937445640564,0.0435030973434448,0.28950593805313096
0.265454545454545,0.060661821842193604,0.0339230192184448,0.188915117740631
0.266060606060606,-0.0327439398765564,0.08661344890594479,0.279925859928131
0.266666666666667,-0.0854343695640564,-0.155283523750305,-0.120042401790619
0.267272727272727,-0.0040037055015564,-0.06906282062530521,0.19610017633438098
0.267878787878788,0.168437700748444,0.225524581718445,0.0811392388343809
0.268484848484848,-0.051904096126556394,0.112958663749695,0.239210527896881
0.269090909090909,-0.049509076595306394,-0.00439729328155518,0.0428189263343809
0.26969696969697,-0.0159788031578064,-0.12654328937530498,0.14101472711563098
0.27030303030303,-0.17405009222030599,-0.0427176057815552,0.208075273990631
0.270909090909091,-0.0111887640953064,0.09379850749969479,-0.10567228460311899
0.271515151515151,-0.054299115657806395,0.22791960124969501,-0.060166913509369105
0.272121212121212,-0.162074994564056,0.0219479215621948,0.24639558649063098
0.272727272727273,-0.260270795345306,-0.143308426094055,0.117064531803131
0.273333333333333,-0.056694135189056395,-0.0546927034378052,0.248790606021881
0.273939393939394,-0.0351389594078064,0.201574386405945,0.282320879459381
0.274545454545455,-0.186025189876556,0.208759444999695,0.0476089653968809
0.275151515151515,-0.0159788031578064,-0.112173172187805,0.311061113834381
0.275757575757576,-0.0279539008140564,-0.210368972969055,0.0955093560218809
0.276363636363636,-0.07585429143905639,-0.133728347969055,0.0380288872718809
0.276969696969697,0.0031813530921936,0.151278976249695,0.212865313053131
0.277575757575758,-0.315356244564056,0.263844894218445,0.354171465396881
0.278181818181818,-0.133334760189056,0.110563644218445,-0.00268644475936911
0.278787878787879,0.110957231998444,0.08900846843719479,-0.15357267522811902
0.279393939393939,-0.0782493109703064,-0.0546927034378052,0.164964922428131
0.28,-0.236320600032806,-0.17204866046905498,0.342196367740631
0.280606060606061,0.0534767632484436,0.326115402030945,0.411651934146881
0.281212121212121,-0.0063987250328064,0.0458981168746948,0.15059480524063099
0.281818181818182,-0.0231638617515564,-0.102593094062805,0.452367266178131
0.282424242424242,0.170832720279694,-0.08103791828155521,0.179335039615631
0.283030303030303,-0.06387919378280639,-0.243899246406555,0.0715591607093809
0.283636363636364,-0.051904096126556394,0.148883956718445,0.0212637505531309
0.284242424242424,-0.219555463314056,-0.0594827425003052,0.12424959039688101
0.284848484848485,-0.07106425237655639,0.0267379606246948,-0.014661542415619101
0.285454545454545,0.0894020562171936,-0.212763992500305,-0.0889071478843691
0.286060606060606,0.036711626529693606,-0.255874344062805,-0.0170565619468691
0.286666666666667,-0.0423240180015564,0.110563644218445,-0.06495695257186909
0.287272727272727,-0.229135541439056,-0.09301301593780521,0.385306719303131
0.287878787878788,-0.157284955501556,-0.169653640937805,0.224840410709381
0.288484848484849,-0.0902244086265564,-0.0259524690628052,0.0523990044593809
0.289090909090909,0.0917970757484436,-0.0211624300003052,0.203285234928131
0.28969696969697,-0.123754682064056,0.144093917655945,0.313456133365631
0.29030303030303,-0.056694135189056395,0.10098356609344501,0.014078691959380898
0.290909090909091,0.0438966851234436,-0.207973953437805,0.162569902896881
0.291515151515152,-0.0351389594078064,-0.19120881671905499,-0.029031659603119098
0.292121212121212,0.0103664116859436,-0.07864289875030521,0.12424959039688101
0.292727272727273,0.149277544498444,-0.143308426094055,0.380516680240631
0.293333333333333,0.122932329654694,0.105773605155945,0.320641191959381
0.293939393939394,-0.360861615657806,0.0602682340621948,0.0236587700843809
0.294545454545455,-0.0327439398765564,-0.102593094062805,-0.10327726507186899
0.295151515151515,0.0199464898109436,-0.09301301593780521,0.129039629459381
0.295757575757576,0.0295265679359436,-0.203183914375305,0.0404239068031309
0.296363636363636,-0.0255588812828064,0.120143722343445,0.19131013727188098
0.296969696969697,-0.0111887640953064,0.230314620780945,0.13143464899063098
0.297575757575758,0.103772173404694,-0.150493484687805,0.059584063053130895
0.298181818181818,0.0031813530921936,-0.162468582344055,-0.0721420111656191
0.298787878787879,-0.133334760189056,-0.0499026643753052,0.152989824771881
0.299393939393939,-0.336911420345306,0.0195529020309448,0.224840410709381
0.3,-0.207580365657806,-0.109778152656555,0.119459551334381
0.300606060606061,0.0127614312171936,-0.0211624300003052,-0.0218466010093691
0.301212121212121,-0.183630170345306,-0.215159012031555,0.399676836490631
0.301818181818182,0.0079713921546936,0.13211881999969502,-0.23739835882186902
0.302424242424242,0.103772173404694,0.09858854656219479,0.162569902896881
0.303030303030303,-0.109384564876556,-0.298984695625305,0.6128335747718809
0.303636363636364,0.252263384342194,-0.140913406562805,-0.06495695257186909
0.304242424242424,0.0534767632484436,-0.397180496406555,0.270345781803131
0.304848484848485,-0.051904096126556394,0.09379850749969479,-0.10327726507186899
0.305454545454545,0.211548052310944,0.08900846843719479,0.059584063053130895
0.306060606060606,-0.06866923284530639,0.148883956718445,0.107484453678131
0.306666666666667,-0.049509076595306394,-0.00439729328155518,0.143409746646881
0.307272727272727,0.199572954654694,-0.217554031562805,0.152989824771881
0.307878787878788,-0.0040037055015564,-0.0594827425003052,0.057189043521880895
0.308484848484848,-0.059089154720306396,0.00278776531219482,-0.014661542415619101
0.309090909090909,0.161252642154694,0.117748702812195,-0.06735197210311909
0.30969696969697,-0.0782493109703064,-0.119358230781555,-0.120042401790619
0.31030303030303,-0.221950482845306,-0.0163723909378052,0.006893633365630891
0.310909090909091,0.12532734918594401,0.141698898124695,0.440392168521881
0.311515151515152,-0.06627421331405639,-0.0331375276565552,0.392491777896881
0.312121212121212,-0.0159788031578064,-0.152888504219055,0.0188687310218809
0.312727272727273,-0.0399289984703064,-0.265454422187805,0.227235430240631
0.313333333333333,-0.183630170345306,-0.255874344062805,-0.0170565619468691
0.313939393939394,0.257053423404694,-0.0331375276565552,-0.134412518978119
0.314545454545455,0.0941920952796936,-0.0475076448440552,0.148199785709381
0.315151515151515,-0.217160443782806,-0.128938308906555,0.31824617242813097
0.315757575757576,0.0630568413734436,-0.07385285968780521,0.0787442193031309
0.316363636363636,0.0534767632484436,-0.215159012031555,0.016473711490630902
0.316969696969697,-0.111779584407806,-0.0618777620315552,0.126644609928131
0.317575757575758,-0.111779584407806,0.0147628629684448,0.164964922428131
0.318181818181818,0.0151564507484436,0.0530831754684448,0.126644609928131
0.318787878787879,-0.0471140570640564,-0.109778152656555,0.028448809146880902
0.319393939393939,0.0726369194984436,-0.169653640937805,0.0955093560218809
0.32,-0.190815228939056,-0.104988113594055,0.0380288872718809
0.320606060606061,0.034316606998443605,-0.0331375276565552,-0.000291425228119114
0.321212121212121,-0.0854343695640564,-0.0379275667190552,0.275135820865631
0.321818181818182,0.0870070366859436,0.00757780437469482,-0.160757733821869
0.322424242424242,0.230708208560944,-0.124148269844055,0.282320879459381
0.323030303030303,-0.140519818782806,-0.112173172187805,0.296690996646881
0.323636363636364,0.213943071842194,-0.006792312812805181,0.0715591607093809
0.324242424242424,-0.07106425237655639,-0.07864289875030521,0.370936602115631
0.324848484848485,0.101377153873444,-0.0978030550003052,-0.00268644475936911
0.325454545454545,0.156462603092194,-0.313354812812805,0.287110918521881
0.326060606060606,-0.133334760189056,-0.0187674104690552,0.0236587700843809
0.326666666666667,-0.0303489203453064,0.0435030973434448,0.26795076227188097
0.327272727272727,-0.133334760189056,0.00039274578094482,0.0907193169593809
0.327878787878788,0.120537310123444,-0.0379275667190552,-0.0266366400718691
0.328484848484848,0.166042681217194,-0.06906282062530521,0.0979043755531309
0.329090909090909,-0.274640912532806,-0.251084305000305,-0.0865121283531191
0.32969696969697,-0.0998044867515564,-0.251084305000305,0.184125078678131
0.33030303030303,-0.07106425237655639,0.141698898124695,0.0907193169593809
0.330909090909091,-0.056694135189056395,0.0770333707809448,0.20089021539688098
0.331515151515152,-0.0447190375328064,-0.229529129219055,0.272740801334381
0.332121212121212,-0.133334760189056,0.0818234098434448,0.0763491997718809
0.332727272727273,-0.0279539008140564,0.0171578824996948,0.14101472711563098
0.333333333333333,-0.214765424251556,-0.380415359687805,-0.0266366400718691
0.333939393939394,-0.06387919378280639,-0.0403225862503052,-0.0697469916343691
0.334545454545455,-0.0040037055015564,-0.124148269844055,0.14101472711563098
0.335151515151515,0.0917970757484436,-0.248689285469055,0.054794023990630894
0.335757575757576,-0.06627421331405639,-0.09540803546905521,-0.055376874446869104
0.336363636363636,0.04150166559219361,-0.0522976839065552,-0.0266366400718691
0.336969696969697,0.115747271060944,0.120143722343445,0.0428189263343809
0.337575757575758,-0.118964643001556,-0.121753250312805,0.152989824771881
0.338181818181818,-0.128544721126556,-0.114568191719055,0.248790606021881
0.338787878787879,-0.0423240180015564,0.0387130582809448,0.0380288872718809
0.339393939393939,-0.0447190375328064,-0.200788894844055,0.033238848209380896
0.34,-0.0423240180015564,0.0530831754684448,0.296690996646881
0.340606060606061,-0.0207688422203064,0.139303878593445,0.524217852115631
0.341212121212121,-0.159679975032806,-0.0427176057815552,0.109879473209381
0.341818181818182,0.0726369194984436,0.194389327812195,0.356566484928131
0.342424242424242,0.130117388248444,-0.07145784015655521,0.44757722711563097
0.343030303030303,-0.059089154720306396,-0.116963211250305,-0.417024823665619
0.343636363636364,-0.193210248470306,0.0387130582809448,-0.143992597103119
0.344242424242424,-0.238715619564056,-0.10019807453155499,0.279925859928131
0.344848484848485,-0.138124799251556,-0.0139773714065552,0.06916414117813091
0.345454545454545,0.146882524967194,0.0171578824996948,0.133829668521881
0.346060606060606,0.0774269585609436,0.09619352703094479,0.13622468805313098
0.346666666666667,-0.114174603939056,-0.0379275667190552,0.203285234928131
0.347272727272727,-0.164470014095306,-0.09301301593780521,0.0212637505531309
0.347878787878788,0.0846120171546936,-0.0427176057815552,-0.0362167181968691
0.348484848484849,0.130117388248444,0.0123678434371948,0.15059480524063099
0.349090909090909,0.0103664116859436,0.00757780437469482,0.248790606021881
0.34969696969697,-0.0207688422203064,0.0123678434371948,0.148199785709381
0.35030303030303,0.034316606998443605,0.0315279996871948,-0.17752287054061902
0.350909090909091,-0.0040037055015564,-0.00439729328155518,0.14580476617813098
0.351515151515152,-0.0926194281578064,0.0530831754684448,0.107484453678131
0.352121212121212,-0.056694135189056395,-0.0546927034378052,0.0428189263343809
0.352727272727273,-0.138124799251556,-0.0139773714065552,0.119459551334381
0.353333333333333,-0.0471140570640564,-0.0403225862503052,0.0452139458656309
0.353939393939394,0.0151564507484436,-0.260664383125305,0.18652009820938098
0.354545454545455,0.0989821343421936,-0.212763992500305,0.0907193169593809
0.355151515151515,0.101377153873444,0.0722433317184448,-0.0697469916343691
0.355757575757576,-0.198000287532806,0.18241423015594502,0.0500039849281309
0.356363636363636,-0.0974094672203064,-0.162468582344055,0.148199785709381
0.356969696969697,0.0726369194984436,-0.174443680000305,0.014078691959380898
0.357575757575758,0.218733110904694,0.0147628629684448,-0.00747648382186911
0.358181818181818,-0.176445111751556,-0.0139773714065552,0.006893633365630891
0.358787878787879,-0.236320600032806,0.139303878593445,-0.00268644475936911
0.359393939393939,-0.0375339789390564,0.0482931364059448,0.061979082584380896
0.36,-0.17405009222030599,-0.162468582344055,0.0739541802406309
0.360606060606061,0.0127614312171936,0.12732878093719502,0.0763491997718809
0.361212121212121,-0.217160443782806,0.08900846843719479,0.335011309146881
0.361818181818182,-0.291406049251556,0.0578732145309448,0.057189043521880895
0.362424242424242,0.034316606998443605,-0.19120881671905499,0.0763491997718809
0.363030303030303,-0.0159788031578064,-0.19120881671905499,0.390096758365631
0.363636363636364,-0.0063987250328064,0.0458981168746948,0.325431231021881
0.364242424242424,0.0894020562171936,-0.0235574495315552,0.255975664615631
0.364848484848485,-0.169260053157806,0.0363180387496948,0.188915117740631
0.365454545454545,-0.277035932064056,-0.18641877765655498,0.282320879459381
0.366060606060606,-0.284220990657806,0.0435030973434448,0.105089434146881
0.366666666666667,-0.106989545345306,-0.0115823518753052,0.203285234928131
0.367272727272727,-0.135729779720306,-0.0522976839065552,0.0476089653968809
0.367878787878788,0.0295265679359436,-0.0594827425003052,0.0715591607093809
0.368484848484848,0.259448442935944,-0.0451126253128052,0.279925859928131
0.369090909090909,-0.0423240180015564,-0.0427176057815552,0.160174883365631
0.36969696969697,-0.133334760189056,0.0363180387496948,0.016473711490630902
0.37030303030303,-0.0279539008140564,-0.0522976839065552,0.40925691461563096
0.370909090909091,-0.0327439398765564,0.00757780437469482,0.0955093560218809
0.371515151515152,-0.106989545345306,0.136908859062195,0.445182207584381
0.372121212121212,0.194782915592194,0.105773605155945,0.828385332584381
0.372727272727273,0.101377153873444,-0.0427176057815552,0.138619707584381
0.373333333333333,-0.0399289984703064,-0.10019807453155499,0.054794023990630894
0.373939393939394,-0.123754682064056,0.17762419109344502,0.25837068414688097
0.374545454545455,-0.169260053157806,-0.124148269844055,0.0859292778968809
0.375151515151515,0.0534767632484436,-0.124148269844055,0.0236587700843809
0.375757575757576,0.118142290592194,-0.08103791828155521,0.234420488834381
0.376363636363636,-0.152494916439056,-0.0403225862503052,-0.0457967963218691
0.376969696969697,-0.104594525814056,0.203969405937195,0.20089021539688098
0.377575757575758,-0.104594525814056,0.0602682340621948,0.033238848209380896
0.378181818181818,-0.150099896907806,-0.124148269844055,0.215260332584381
0.378787878787879,-0.0399289984703064,-0.07864289875030521,0.193705156803131
0.379393939393939,-0.138124799251556,-0.0307425081253052,0.028448809146880902
0.38,-0.0016086859703064,0.196784347343445,0.0500039849281309
0.380606060606061,-0.049509076595306394,-0.0355325471878052,-0.009871503353119109
0.381212121212121,0.0175514702796936,-0.184023758125305,0.121854570865631
0.381818181818182,0.0630568413734436,-0.09540803546905521,0.00928865289688089
0.382424242424242,-0.138124799251556,-0.289404617500305,0.277530840396881
0.383030303030303,0.0558717827796936,0.0674532926559448,-0.029031659603119098
0.383636363636364,-0.051904096126556394,0.0387130582809448,0.0787442193031309
0.384242424242424,-0.0016086859703064,-0.145703445625305,0.028448809146880902
0.384848484848485,-0.0135837836265564,-0.0211624300003052,-0.129622479915619
0.385454545454545,-0.255480756282806,-0.140913406562805,0.282320879459381
0.386060606060606,0.0798219780921936,0.24707975749969502,0.31824617242813097
0.386666666666667,-0.0255588812828064,0.199179366874695,0.102694414615631
0.387272727272727,-0.0111887640953064,-0.195998855781555,-0.000291425228119114
0.387878787878788,0.139697466373444,-0.298984695625305,0.31824617242813097
0.388484848484848,0.0031813530921936,-0.0618777620315552,0.00210359430313089
0.389090909090909,-0.0974094672203064,-0.0666678010940552,0.13622468805313098
0.38969696969697,-0.303381146907806,0.0411080778121948,0.337406328678131
0.39030303030303,-0.061484174251556396,-0.006792312812805181,0.030843828678130902
0.390909090909091,-0.0207688422203064,-0.361255203437805,0.126644609928131
0.391515151515152,-0.159679975032806,-0.179233719062805,-0.21823820257186902
0.392121212121212,-0.0087937445640564,0.148883956718445,0.0715591607093809
0.392727272727273,-0.102199506282806,-0.0163723909378052,0.402071856021881
0.393333333333333,0.0079713921546936,-0.140913406562805,0.416441973209381
0.393939393939394,-0.0423240180015564,-0.160073562812805,0.0811392388343809
0.394545454545455,-0.0878293890953064,-0.124148269844055,0.035633867740630897
0.395151515151515,0.0462917046546936,0.225524581718445,0.0883242974281309
0.395757575757576,0.0223415093421936,0.203969405937195,0.112274492740631
0.396363636363636,-0.0087937445640564,0.0698483121871948,0.028448809146880902
0.396969696969697,-0.135729779720306,0.0482931364059448,0.0380288872718809
0.397575757575758,-0.17405009222030599,-0.162468582344055,0.0883242974281309
0.398181818181818,0.115747271060944,-0.0187674104690552,0.00928865289688089
0.398787878787879,-0.059089154720306396,0.0195529020309448,0.29908601617813096
0.399393939393939,-0.145309857845306,-0.152888504219055,0.06916414117813091
0.4,-0.142914838314056,-0.205578933906555,-0.179917890071869
0.400606060606061,-0.281825971126556,-0.08103791828155521,-0.225423261165619
0.401212121212121,-0.06387919378280639,0.0387130582809448,-0.294878827571869
0.401818181818182,-0.0998044867515564,0.0147628629684448,0.306271074771881
0.402424242424242,-0.200395307064056,-0.0475076448440552,0.416441973209381
0.403030303030303,-0.0399289984703064,0.266239913749695,0.0931143364906309
0.403636363636364,-0.06866923284530639,0.0291329801559448,0.0979043755531309
0.404242424242424,-0.128544721126556,-0.184023758125305,0.138619707584381
0.404848484848485,-0.07585429143905639,0.266239913749695,0.24639558649063098
0.405454545454545,0.0127614312171936,0.0291329801559448,0.208075273990631
0.406060606060606,-0.0016086859703064,-0.195998855781555,0.06437410211563091
0.406666666666667,-0.231530560970306,-0.10019807453155499,0.105089434146881
0.407272727272727,-0.372836713314056,0.0171578824996948,0.109879473209381
0.407878787878788,-0.183630170345306,-0.0499026643753052,0.119459551334381
0.408484848484849,0.0534767632484436,0.0626632535934448,0.06916414117813091
0.409090909090909,0.0295265679359436,-0.229529129219055,-0.000291425228119114
0.40969696969697,-0.159679975032806,-0.17683869953155498,-0.06495695257186909
0.41030303030303,0.127722368717194,-0.00918733234405518,0.057189043521880895
0.410909090909091,0.0223415093421936,0.0363180387496948,0.311061113834381
0.411515151515152,-0.178840131282806,0.141698898124695,0.0260537896156309
0.412121212121212,0.039106646060943606,-0.22713410968780498,0.152989824771881
0.412727272727273,-0.212370404720306,-0.306169754219055,0.248790606021881
0.413333333333333,-0.121359662532806,-0.0235574495315552,0.0476089653968809
0.413939393939394,0.0223415093421936,-0.0451126253128052,0.138619707584381
0.414545454545455,0.266633501529694,0.194389327812195,0.291900957584381
0.415151515151515,0.122932329654694,-0.07145784015655521,-0.0697469916343691
0.415757575757576,-0.0087937445640564,-0.162468582344055,-0.0050814642906191095
0.416363636363636,-0.147704877376556,-0.179233719062805,0.0859292778968809
0.416969696969697,-0.0087937445640564,-0.16725862140655498,0.32782625055313097
0.417575757575758,0.0223415093421936,0.0291329801559448,0.117064531803131
0.418181818181818,-0.145309857845306,-0.296589676094055,-0.134412518978119
0.418787878787879,-0.06387919378280639,-0.0978030550003052,0.059584063053130895
0.419393939393939,-0.109384564876556,-0.119358230781555,-0.16315275335311902
0.42,0.0486867241859436,0.0650582731246948,0.248790606021881
0.420606060606061,-0.241110639095306,0.199179366874695,0.0931143364906309
0.421212121212121,0.170832720279694,-0.08343293781280521,0.0523990044593809
0.421818181818182,0.0271315484046936,-0.219949051094055,0.260765703678131
0.422424242424242,0.0127614312171936,-0.174443680000305,0.06437410211563091
0.423030303030303,0.12532734918594401,-0.0115823518753052,0.198495195865631
0.423636363636364,-0.147704877376556,-0.0187674104690552,0.19610017633438098
0.424242424242424,0.209153032779694,0.00757780437469482,-0.0050814642906191095
0.424848484848485,-0.0087937445640564,-0.315749832344055,0.119459551334381
0.425454545454545,0.058266802310943604,-0.08343293781280521,0.133829668521881
0.426060606060606,0.103772173404694,0.0746383512496948,0.13622468805313098
0.426666666666667,-0.221950482845306,-0.0546927034378052,0.13622468805313098
0.427272727272727,-0.159679975032806,-0.0331375276565552,0.167359941959381
0.427878787878788,-0.0303489203453064,-0.150493484687805,0.179335039615631
0.428484848484848,0.166042681217194,-0.0139773714065552,0.14101472711563098
0.429090909090909,0.0654518609046936,0.0626632535934448,0.212865313053131
0.42969696969697,-0.116569623470306,0.10098356609344501,-0.0960922064781191
0.43030303030303,0.0870070366859436,0.0506881559371948,0.203285234928131
0.430909090909091,-0.0854343695640564,-0.0187674104690552,0.43799714899063097
0.431515151515152,-0.17405009222030599,-0.0499026643753052,0.651153887271881
0.432121212121212,-0.0447190375328064,0.256659835624695,0.610438555240631
0.432727272727273,0.130117388248444,0.273424972343445,0.0523990044593809
0.433333333333333,0.237893267154694,-0.10019807453155499,0.06916414117813091
0.433939393939394,-0.051904096126556394,-0.162468582344055,0.282320879459381
0.434545454545455,-0.253085736751556,0.0482931364059448,0.217655352115631
0.435151515151515,-0.162074994564056,0.0315279996871948,0.06916414117813091
0.435757575757576,-0.133334760189056,0.0219479215621948,0.12424959039688101
0.436363636363636,-0.0159788031578064,0.105773605155945,0.0428189263343809
0.436969696969697,0.0750319390296936,-0.30377473468780497,0.152989824771881
0.437575757575758,-0.169260053157806,-0.193603836250305,0.0428189263343809
0.438181818181818,0.0199464898109436,0.208759444999695,-0.129622479915619
0.438787878787879,-0.0063987250328064,-0.00918733234405518,0.100299395084381
0.439393939393939,0.161252642154694,-0.16725862140655498,-0.055376874446869104
0.44,0.0127614312171936,-0.104988113594055,0.0979043755531309
0.440606060606061,-0.0016086859703064,0.0219479215621948,0.184125078678131
0.441212121212121,0.257053423404694,0.0722433317184448,0.0116836724281309
0.441818181818182,0.058266802310943604,-0.0403225862503052,0.275135820865631
0.442424242424242,-0.0447190375328064,-0.179233719062805,0.0739541802406309
0.443030303030303,-0.0087937445640564,-0.0163723909378052,0.0428189263343809
0.443636363636364,-0.0447190375328064,-0.104988113594055,0.335011309146881
0.444242424242424,-0.0063987250328064,-0.06906282062530521,0.215260332584381
0.444848484848485,-0.0447190375328064,-0.0379275667190552,0.148199785709381
0.445454545454545,-0.169260053157806,0.0650582731246948,0.0476089653968809
0.446060606060606,-0.0279539008140564,-0.128938308906555,0.0811392388343809
0.446666666666667,0.060661821842193604,-0.222344070625305,0.272740801334381
0.447272727272727,-0.06866923284530639,-0.215159012031555,0.35896150445938096
0.447878787878788,-0.140519818782806,-0.09540803546905521,0.06437410211563091
0.448484848484848,0.0917970757484436,-0.13133332843780499,0.0955093560218809
0.449090909090909,0.000786333560943597,-0.287009597969055,0.0955093560218809
0.44969696969697,-0.109384564876556,-0.0331375276565552,-0.0170565619468691
0.45030303030303,-0.0902244086265564,-0.0499026643753052,0.114669512271881
0.450909090909091,-0.06866923284530639,0.129723800468445,0.148199785709381
0.451515151515152,-0.0830393500328064,0.153673995780945,0.0811392388343809
0.452121212121212,-0.0279539008140564,-0.143308426094055,0.208075273990631
0.452727272727273,0.0031813530921936,-0.16725862140655498,0.0188687310218809
0.453333333333333,-0.0303489203453064,0.108168624687195,0.179335039615631
0.453939393939394,-0.0183738226890564,-0.0115823518753052,0.454762285709381
0.454545454545455,0.178017778873444,0.0482931364059448,0.0188687310218809
0.455151515151515,0.170832720279694,-0.17204866046905498,0.24639558649063098
0.455757575757576,0.108562212467194,-0.248689285469055,0.0715591607093809
0.456363636363636,0.103772173404694,-0.0283474885940552,0.0212637505531309
0.456969696969697,-0.130939740657806,0.230314620780945,0.291900957584381
0.457575757575758,-0.130939740657806,0.0674532926559448,0.06437410211563091
0.458181818181818,0.0175514702796936,-0.119358230781555,-0.0170565619468691
0.458787878787879,0.144487505435944,-0.138518387031555,0.00210359430313089
0.459393939393939,-0.0351389594078064,-0.215159012031555,0.14580476617813098
0.46,0.0319215874671936,0.139303878593445,0.174545000553131
0.460606060606061,0.192387896060944,0.23749967937469502,-0.014661542415619101
0.461212121212121,-0.0207688422203064,0.0794283903121948,-0.0457967963218691
0.461818181818182,-0.0231638617515564,-0.174443680000305,0.313456133365631
0.462424242424242,0.0127614312171936,-0.18162873859405498,0.48829255914688097
0.463030303030303,-0.056694135189056395,0.206364425468445,0.337406328678131
0.463636363636364,-0.111779584407806,0.122538741874695,0.0212637505531309
0.464242424242424,-0.0183738226890564,-0.0570877229690552,0.0212637505531309
0.464848484848485,0.132512407779694,-0.124148269844055,0.0212637505531309
0.465454545454545,-0.0135837836265564,-0.121753250312805,0.155384844303131
0.466060606060606,-0.106989545345306,-0.0235574495315552,0.0212637505531309
0.466666666666667,-0.238715619564056,-0.160073562812805,0.0116836724281309
0.467272727272727,-0.059089154720306396,-0.224739090156555,0.311061113834381
0.467878787878788,0.158857622623444,-0.133728347969055,0.14101472711563098
0.468484848484849,0.0702418999671936,-0.138518387031555,-0.014661542415619101
0.469090909090909,0.178017778873444,-0.09061799640655521,0.0907193169593809
0.46969696969697,-0.06627421331405639,-0.0451126253128052,0.313456133365631
0.47030303030303,-0.243505658626556,-0.07624787921905521,0.162569902896881
0.470909090909091,-0.293801068782806,0.0123678434371948,0.0260537896156309
0.471515151515151,-0.212370404720306,-0.08343293781280521,-0.0745370306968691
0.472121212121212,-0.0974094672203064,-0.00439729328155518,0.164964922428131
0.472727272727273,-0.0854343695640564,0.146488937187195,-0.0984872260093691
0.473333333333333,0.0438966851234436,0.17762419109344502,-0.146387616634369
0.473939393939394,-0.056694135189056395,0.146488937187195,-0.0913021674156191
0.474545454545455,-0.320146283626556,-0.06906282062530521,0.06437410211563091
0.475151515151515,0.0534767632484436,-0.06906282062530521,0.15059480524063099
0.475757575757576,-0.121359662532806,0.0554781949996948,0.0907193169593809
0.476363636363636,-0.298591107845306,0.194389327812195,0.323036211490631
0.476969696969697,-0.0974094672203064,-0.00200227375030518,0.13143464899063098
0.477575757575758,0.0295265679359436,-0.195998855781555,0.193705156803131
0.478181818181818,-0.0135837836265564,0.0267379606246948,0.107484453678131
0.478787878787879,-0.111779584407806,-0.148098465156555,0.13143464899063098
0.479393939393939,-0.111779584407806,-0.0522976839065552,0.0715591607093809
0.48,-0.0878293890953064,0.0435030973434448,0.157779863834381
0.480606060606061,-0.104594525814056,-0.0211624300003052,0.00928865289688089
0.481212121212121,-0.07106425237655639,0.112958663749695,0.109879473209381
0.481818181818182,0.0678468804359436,0.0650582731246948,0.323036211490631
0.482424242424242,-0.0399289984703064,0.08421842937469479,0.0979043755531309
0.483030303030303,-0.059089154720306396,-0.0187674104690552,0.18173005914688098
0.483636363636364,0.18520283746719401,-0.174443680000305,0.0811392388343809
0.484242424242424,0.0989821343421936,-0.0211624300003052,-0.0745370306968691
0.484848484848485,-0.0255588812828064,-0.0115823518753052,0.00928865289688089
0.485454545454545,0.115747271060944,-0.0522976839065552,0.143409746646881
0.486060606060606,-0.0135837836265564,0.0315279996871948,0.00449861383438089
0.486666666666667,-0.07345927190780639,-0.219949051094055,0.234420488834381
0.487272727272727,-0.226740521907806,-0.219949051094055,0.23681550836563098
0.487878787878788,-0.169260053157806,-0.0475076448440552,-0.0913021674156191
0.488484848484848,-0.164470014095306,-0.0403225862503052,0.244000566959381
0.489090909090909,-0.236320600032806,-0.148098465156555,0.23202546930313098
0.48969696969697,-0.140519818782806,-0.164863601875305,-0.244583417415619
0.49030303030303,0.0558717827796936,-0.140913406562805,0.473922441959381
0.490909090909091,-0.054299115657806395,-0.0546927034378052,0.167359941959381
0.491515151515152,-0.229135541439056,0.08900846843719479,0.0236587700843809
0.492121212121212,-0.269850873470306,-0.0211624300003052,0.17694002008438098
0.492727272727273,-0.0159788031578064,-0.114568191719055,-0.16315275335311902
0.493333333333333,0.0510817437171936,0.0171578824996948,0.033238848209380896
0.493939393939394,-0.0399289984703064,-0.128938308906555,0.20568025445938098
0.494545454545455,0.0438966851234436,-0.08582795734405521,0.382911699771881
0.495151515151515,0.0223415093421936,0.0530831754684448,0.059584063053130895
0.495757575757576,0.139697466373444,-0.119358230781555,0.006893633365630891
0.496363636363636,-0.0183738226890564,-0.251084305000305,0.0428189263343809
0.496969696969697,-0.059089154720306396,-0.0499026643753052,-0.0481918158531191
0.497575757575758,-0.123754682064056,0.08421842937469479,0.126644609928131
0.498181818181818,-0.193210248470306,0.117748702812195,-0.117647382259369
0.498787878787879,-0.121359662532806,0.0746383512496948,-0.0434017767906191
0.499393939393939,0.182807817935944,-0.212763992500305,0.21047029352188099
0.5,-0.049509076595306394,-0.0403225862503052,-0.151177655696869
0.500606060606061,0.0055763726234436,0.0698483121871948,0.016473711490630902
0.501212121212121,-0.133334760189056,-0.143308426094055,0.30866609430313097
0.501818181818182,-0.0159788031578064,0.148883956718445,-0.30924894475936904
0.502424242424242,0.0989821343421936,-0.162468582344055,0.301481035709381
0.503030303030303,-0.059089154720306396,-0.155283523750305,0.306271074771881
0.503636363636364,0.0702418999671936,0.124933761405945,0.100299395084381
0.504242424242424,-0.061484174251556396,0.0123678434371948,0.385306719303131
0.504848484848485,-0.164470014095306,0.120143722343445,-0.033821698665619106
0.505454545454545,-0.221950482845306,-0.0546927034378052,0.114669512271881
0.506060606060606,-0.0016086859703064,-0.0355325471878052,0.035633867740630897
0.506666666666667,-0.0255588812828064,-0.150493484687805,0.14580476617813098
0.507272727272727,-0.0447190375328064,0.108168624687195,0.059584063053130895
0.507878787878788,-0.06627421331405639,-0.07864289875030521,0.152989824771881
0.508484848484849,0.0510817437171936,-0.155283523750305,0.112274492740631
0.509090909090909,-0.0399289984703064,-0.0235574495315552,-0.10806730413436899
0.50969696969697,-0.0327439398765564,-0.08103791828155521,0.121854570865631
0.51030303030303,-0.0375339789390564,-0.0978030550003052,0.133829668521881
0.510909090909091,0.0319215874671936,-0.143308426094055,0.169754961490631
0.511515151515151,-0.061484174251556396,-0.07864289875030521,0.06676912164688091
0.512121212121212,-0.121359662532806,-0.155283523750305,0.0476089653968809
0.512727272727273,-0.0902244086265564,0.0435030973434448,0.24160554742813098
0.513333333333333,0.000786333560943597,-0.00200227375030518,0.109879473209381
0.513939393939394,-0.130939740657806,-0.174443680000305,0.119459551334381
0.514545454545455,0.0055763726234436,-0.179233719062805,0.315851152896881
0.515151515151515,0.118142290592194,-0.267849441719055,0.339801348209381
0.515757575757576,0.0079713921546936,0.0291329801559448,-0.10567228460311899
0.516363636363636,0.127722368717194,-0.0139773714065552,0.253580645084381
0.516969696969697,0.0127614312171936,-0.0642727815628052,0.121854570865631
0.517575757575758,-0.0471140570640564,-0.109778152656555,0.133829668521881
0.518181818181818,-0.0303489203453064,-0.0331375276565552,-0.235003339290619
0.518787878787879,-0.0159788031578064,0.17762419109344502,-0.0745370306968691
0.519393939393939,-0.118964643001556,-0.0235574495315552,0.301481035709381
0.52,-0.0159788031578064,0.453051437187195,-0.462530194759369
0.520606060606061,0.04150166559219361,-0.447475906562805,0.540982988834381
0.521212121212121,0.252263384342194,-0.006792312812805181,-0.321224042415619
0.521818181818182,0.0750319390296936,0.156069015312195,0.36854158258438097
0.522424242424242,-0.0878293890953064,-0.385205398750305,1.25469880914688
0.523030303030303,0.0917970757484436,0.551247237968445,-0.376309491634369
0.523636363636364,-0.384811810970306,-0.265454422187805,0.481107500553131
0.524242424242424,-0.051904096126556394,-0.006792312812805181,-0.0889071478843691
0.524848484848485,-0.0375339789390564,0.10098356609344501,0.277530840396881
0.525454545454546,-0.0135837836265564,-0.119358230781555,0.184125078678131
0.526060606060606,0.151672564029694,0.189599288749695,-0.191892987728119
0.526666666666667,-0.118964643001556,-0.24629426593780498,0.392491777896881
0.527272727272727,-0.061484174251556396,-0.0403225862503052,-0.230213300228119
0.527878787878788,0.0917970757484436,0.0339230192184448,0.282320879459381
0.528484848484848,-0.0447190375328064,-0.119358230781555,0.0931143364906309
0.529090909090909,-0.121359662532806,0.223129562187195,0.188915117740631
0.52969696969697,0.0319215874671936,0.10337858562469501,-0.0697469916343691
0.53030303030303,0.0199464898109436,-0.504956375312805,0.0476089653968809
0.530909090909091,0.0630568413734436,0.0219479215621948,0.160174883365631
0.531515151515151,-0.138124799251556,0.151278976249695,0.152989824771881
0.532121212121212,-0.0351389594078064,-0.0618777620315552,0.406861895084381
0.532727272727273,0.0534767632484436,0.0147628629684448,0.0883242974281309
0.533333333333333,-0.154889935970306,-0.308564773750305,0.203285234928131
0.533939393939394,-0.195605268001556,0.09140348796844479,-0.009871503353119109
0.534545454545455,-0.157284955501556,-0.112173172187805,0.212865313053131
0.535151515151515,-0.0231638617515564,0.558432296562195,-0.345174237728119
0.535757575757576,-0.06866923284530639,-0.725298172187805,0.315851152896881
0.536363636363636,-0.07106425237655639,-0.224739090156555,-0.46013517522811903
0.536969696969697,-0.0016086859703064,0.22791960124969501,-0.27092863225936903
0.537575757575758,0.235498247623444,-0.634287430000305,0.6727090630531309
0.538181818181818,0.0965871148109436,0.48418669109344503,-0.476900311946869
0.538787878787879,-0.298591107845306,-0.447475906562805,0.699054277896881
0.539393939393939,0.209153032779694,0.005182784843444819,-0.0218466010093691
0.54,0.0798219780921936,0.397965987968445,-0.254163495540619
0.540606060606061,0.0103664116859436,-0.979170242500305,0.8523355278968809
0.541212121212121,0.240288286685944,0.433891280937195,-0.960694257259369
0.541818181818182,-0.485402631282806,0.345275558280945,0.564933184146881
0.542424242424242,0.0079713921546936,-0.579201980781555,0.543378008365631
0.543030303030303,0.273818560123444,0.388385909843445,-0.706822186946869
0.543636363636364,-0.181235150814056,-0.200788894844055,0.605648516178131
0.544242424242424,-0.109384564876556,0.09858854656219479,-0.0697469916343691
0.544848484848485,-0.260270795345306,0.08900846843719479,0.399676836490631
0.545454545454545,0.103772173404694,-0.234319168281555,-0.134412518978119
0.546060606060606,-0.0878293890953064,-0.09540803546905521,-0.0529818549156191
0.546666666666667,-0.286616010189056,0.0602682340621948,0.275135820865631
0.547272727272727,0.0438966851234436,-0.09061799640655521,0.0859292778968809
0.547878787878788,-0.193210248470306,0.22791960124969501,0.033238848209380896
0.548484848484848,-0.0327439398765564,0.00039274578094482,-0.122437421321869
0.549090909090909,-0.049509076595306394,-0.24150422687530498,0.164964922428131
0.54969696969697,-0.130939740657806,0.271029952812195,-0.143992597103119
0.55030303030303,-0.054299115657806395,-0.18162873859405498,0.471527422428131
0.550909090909091,-0.150099896907806,0.08421842937469479,-0.0817220892906191
0.551515151515152,-0.0375339789390564,-0.0163723909378052,0.215260332584381
0.552121212121212,-0.0806443305015564,0.0171578824996948,0.284715898990631
0.552727272727273,0.233103228092194,0.24228971843719502,-0.16794279241561902
0.553333333333333,0.201967974185944,-0.160073562812805,0.363751543521881
0.553939393939394,-0.164470014095306,0.273424972343445,0.126644609928131
0.554545454545455,-0.267455853939056,-0.0570877229690552,0.255975664615631
0.555151515151515,0.532480669498444,0.16804411296844501,-0.328409101009369
0.555757575757576,-0.0111887640953064,-0.809123855781555,0.25837068414688097
0.556363636363636,-0.0303489203453064,0.139303878593445,-0.771487714290619
0.556969696969697,-0.142914838314056,0.251869796562195,0.380516680240631
0.557575757575758,0.127722368717194,-0.435500808906555,0.138619707584381
0.558181818181818,0.309743853092194,0.223129562187195,-0.464925214290619
0.558787878787879,-0.245900678157806,-0.461846023750305,0.42841707086563097
0.559393939393939,0.276213579654694,0.0387130582809448,-0.278113690853119
0.56,0.146882524967194,0.625492843437195,0.14580476617813098
0.560606060606061,0.304953814029694,-0.950430008125305,0.433207109928131
0.561212121212121,0.288188677310944,0.0530831754684448,-1.18343107366562
0.561818181818182,-0.727299603939056,0.163254073905945,0.636783770084381
0.562424242424242,0.134907427310944,-0.296589676094055,0.526612871646881
0.563030303030303,0.484580278873444,0.706923507499695,-0.716402265071869
0.563636363636364,-0.231530560970306,-0.519326492500305,0.581698320865631
0.564242424242424,0.266633501529694,0.0195529020309448,-0.594256268978119
0.564848484848485,-0.334516400814056,-0.0187674104690552,0.519427813053131
0.565454545454545,0.223523149967194,0.0291329801559448,-0.000291425228119114
0.566060606060606,-0.051904096126556394,-0.114568191719055,0.059584063053130895
0.566666666666667,-0.447082318782806,0.08661344890594479,0.188915117740631
0.567272727272727,0.321718950748444,-0.322934890937805,0.0787442193031309
0.567878787878788,-0.142914838314056,-0.215159012031555,-0.0170565619468691
0.568484848484848,-0.0327439398765564,0.108168624687195,-0.235003339290619
0.569090909090909,0.039106646060943606,-0.0211624300003052,0.148199785709381
0.56969696969697,-0.169260053157806,0.508136886405945,0.057189043521880895
0.57030303030303,0.04150166559219361,-0.349280105781555,0.36854158258438097
0.570909090909091,-0.217160443782806,-0.140913406562805,-0.055376874446869104
0.571515151515152,-0.303381146907806,-0.136123367500305,0.457157305240631
0.572121212121212,0.0295265679359436,-0.00200227375030518,0.36854158258438097
0.572727272727273,-0.0255588812828064,0.326115402030945,-0.0122665228843691
0.573333333333333,-0.193210248470306,-0.488191238594055,0.540982988834381
0.573939393939394,0.058266802310943604,-0.00200227375030518,-0.0936971869468691
0.574545454545455,-0.147704877376556,-0.09301301593780521,0.380516680240631
0.575151515151515,-0.0087937445640564,0.556037277030945,-0.0194515814781191
0.575757575757576,0.0678468804359436,-0.452265945625305,0.624808672428131
0.576363636363636,0.142092485904694,-0.09301301593780521,-0.287693768978119
0.576969696969697,-0.293801068782806,0.385990890312195,0.129039629459381
0.577575757575758,0.0822169976234436,-0.425920730781555,0.363751543521881
0.578181818181818,0.441469927310944,-0.0211624300003052,-0.381099530696869
0.578787878787879,-0.339306439876556,-0.263059402656555,0.430812090396881
0.579393939393939,-0.0255588812828064,0.0387130582809448,-0.527195722103119
0.58,-0.0231638617515564,0.534482101249695,0.112274492740631
0.580606060606061,-0.241110639095306,-1.03665071125031,0.794855059146881
0.581212121212121,0.443864946842194,0.362040694999695,-1.34868742132187
0.581818181818182,-0.6722141547203061,0.338090499687195,1.0439370903968799
0.582424242424242,0.235498247623444,-0.370835281562805,1.01759187555313
0.583030303030303,0.793537798404694,0.338090499687195,-0.735562421321869
0.583636363636364,-0.6338938422203061,-0.552856765937805,0.761324785709381
0.584242424242424,0.130117388248444,0.448261398124695,-0.809808026790619
0.584848484848485,-0.308171185970306,0.0171578824996948,0.550563066959381
0.585454545454545,0.410334673404694,0.005182784843444819,0.033238848209380896
0.586060606060606,0.0917970757484436,-0.404365555000305,-0.189497968196869
0.586666666666667,-0.842260541439056,-0.00200227375030518,0.119459551334381
0.587272727272727,0.316928911685944,-0.0499026643753052,0.033238848209380896
0.587878787878788,0.292978716373444,0.0291329801559448,0.057189043521880895
0.588484848484848,0.0702418999671936,0.0435030973434448,-0.261348554134369
0.589090909090909,-0.06387919378280639,-0.318144851875305,0.18173005914688098
0.58969696969697,-0.200395307064056,0.244684737968445,-0.235003339290619
0.59030303030303,0.281003618717194,-0.217554031562805,0.20568025445938098
0.590909090909091,0.137302446842194,0.09619352703094479,-0.18231290960311902
0.591515151515152,-0.403971967220306,0.17762419109344502,0.0931143364906309
0.592121212121212,0.0894020562171936,-0.136123367500305,0.277530840396881
0.592727272727273,0.0031813530921936,0.156069015312195,-0.10806730413436899
0.593333333333333,-0.360861615657806,-0.0546927034378052,0.24639558649063098
0.593939393939394,-0.238715619564056,0.122538741874695,-0.029031659603119098
0.594545454545455,-0.332121381282806,-0.07624787921905521,0.188915117740631
0.595151515151515,0.120537310123444,0.340485519218445,0.054794023990630894
0.595757575757576,-0.0399289984703064,-0.612732254219055,0.416441973209381
0.596363636363636,0.000786333560943597,0.09140348796844479,-0.529590741634369
0.596969696969697,-0.198000287532806,0.316535323905945,0.555353106021881
0.597575757575758,0.106167192935944,-0.378020340156555,0.596068438053131
0.598181818181818,0.0247365288734436,-0.00918733234405518,-0.357149335384369
0.598787878787879,0.000786333560943597,-0.351675125312805,0.402071856021881
0.599393939393939,0.24507832574844401,0.08661344890594479,-0.124832440853119
0.6,-0.250690717220306,0.673393234062195,0.030843828678130902
0.600606060606061,-0.17405009222030599,-0.823493972969055,0.512242754459381
0.601212121212121,0.252263384342194,0.115353683280945,-1.18103605413437
0.601818181818182,-0.746459760189056,0.290190109062195,1.00801179742813
0.602424242424242,-0.0447190375328064,-0.282219558906555,0.557748125553131
0.603030303030303,0.654626665592194,0.378805831718445,-1.02056974554062
0.603636363636364,-0.483007611751556,-0.490586258125305,0.7732998833656309
0.604242424242424,0.436679888248444,0.450656417655945,-0.716402265071869
0.604848484848485,-0.300986127376556,0.005182784843444819,0.454762285709381
0.605454545454545,0.0079713921546936,-0.07624787921905521,-0.014661542415619101
0.606060606060606,0.276213579654694,-0.0331375276565552,0.361356523990631
0.606666666666667,-0.509352826595306,0.287795089530945,0.275135820865631
0.607272727272727,0.388779497623444,-0.157678543281555,-0.0817220892906191
0.607878787878788,-0.0303489203453064,-0.0235574495315552,0.193705156803131
0.608484848484849,-0.121359662532806,-0.0355325471878052,-0.20865812444686901
0.609090909090909,0.0103664116859436,-0.08343293781280521,0.25837068414688097
0.60969696969697,-0.365651654720306,0.278215011405945,-0.10327726507186899
0.61030303030303,0.391174517154694,-0.6582376253128049,0.605648516178131
0.610909090909091,0.139697466373444,-0.203183914375305,-0.160757733821869
0.611515151515152,-0.406366986751556,-0.08103791828155521,-0.194288007259369
0.612121212121212,0.0438966851234436,-0.310959793281555,0.0883242974281309
0.612727272727273,0.0894020562171936,0.215944503593445,-0.14878263616561901
0.613333333333333,-0.145309857845306,-0.198393875312805,0.48829255914688097
0.613939393939394,-0.0974094672203064,-0.255874344062805,0.0763491997718809
0.614545454545455,-0.0279539008140564,0.10098356609344501,0.23202546930313098
0.615151515151515,0.0151564507484436,0.335695480155945,-0.155967694759369
0.615757575757576,0.146882524967194,-0.471426101875305,0.37812166070938097
0.616363636363636,-0.0111887640953064,0.144093917655945,-0.175127851009369
0.616969696969697,-0.157284955501556,0.438681319999695,0.155384844303131
0.617575757575758,0.273818560123444,-0.428315750312805,0.493082598209381
0.618181818181818,0.060661821842193604,0.0267379606246948,-0.424209882259369
0.618787878787879,-0.250690717220306,-0.0570877229690552,0.402071856021881
0.619393939393939,0.0870070366859436,-0.0115823518753052,-0.160757733821869
0.62,-0.200395307064056,0.716503585624695,-0.361939374446869
0.620606060606061,-0.209975385189056,-1.3192630159378,0.859520586490631
0.621212121212121,0.161252642154694,0.141698898124695,-1.14511076116562
0.621818181818182,-0.8997410101890561,0.666208175468445,0.655943926334381
0.622424242424242,-0.305776166439056,-0.787568680000305,1.1253677544593799
0.623030303030303,0.475000200748444,0.48418669109344503,-0.886448651790619
0.623636363636364,-0.624313764095306,-0.593572097969055,0.964901445865631
0.624242424242424,0.338484087467194,0.160859054374695,-0.721192304134369
0.624848484848485,0.151672564029694,0.122538741874695,0.402071856021881
0.625454545454545,0.0726369194984436,-0.00918733234405518,0.215260332584381
0.626060606060606,0.218733110904694,-0.08822297687530521,-0.189497968196869
0.626666666666667,-0.382416791439056,0.10098356609344501,0.502662676334381
0.627272727272727,0.297768755435944,-0.198393875312805,-0.21344816350936902
0.627878787878788,-0.061484174251556396,-0.0187674104690552,0.06916414117813091
0.628484848484849,-0.0447190375328064,0.256659835624695,-0.304458905696869
0.629090909090909,0.161252642154694,-0.19120881671905499,0.24160554742813098
0.62969696969697,-0.135729779720306,0.19199430828094502,0.0523990044593809
0.63030303030303,0.0199464898109436,-0.442685867500305,0.193705156803131
0.630909090909091,-0.0399289984703064,0.0123678434371948,0.17694002008438098
0.631515151515151,-0.238715619564056,0.338090499687195,0.0859292778968809
0.632121212121212,0.144487505435944,0.0602682340621948,0.282320879459381
0.632727272727273,-0.0351389594078064,0.0578732145309448,-0.10088224554061899
0.633333333333333,-0.243505658626556,-0.258269363594055,0.035633867740630897
0.633939393939394,0.0223415093421936,0.170439132499695,-0.009871503353119109
0.634545454545455,-0.111779584407806,0.151278976249695,0.20089021539688098
0.635151515151515,0.0271315484046936,0.129723800468445,0.0907193169593809
0.635757575757576,0.12532734918594401,-0.682187820625305,0.0883242974281309
0.636363636363636,-0.123754682064056,-0.107383133125305,-0.405049726009369
0.636969696969697,-0.478217572689056,0.362040694999695,0.560143145084381
0.637575757575758,0.137302446842194,-0.251084305000305,0.6128335747718809
0.638181818181818,0.039106646060943606,-0.00439729328155518,-0.335594159603119
0.638787878787879,-0.394391889095306,-0.296589676094055,-0.0745370306968691
0.639393939393939,0.139697466373444,-0.17683869953155498,-0.376309491634369
0.64,0.060661821842193604,0.716503585624695,-0.215843183040619
0.640606060606061,-0.0231638617515564,-0.8977395784378049,0.643968828678131
0.641212121212121,0.319323931217194,0.323720382499695,-1.00140958929062
0.641818181818182,-0.7560398383140561,0.498556808280945,0.445182207584381
0.642424242424242,0.0319215874671936,-0.368440262031555,0.917001055240631
0.643030303030303,0.6809718804359439,0.673393234062195,-0.702032147884369
0.643636363636364,-0.6147336859703061,-0.655842605781555,0.749349688053131
0.644242424242424,0.242683306217194,0.170439132499695,-0.608626386165619
0.644848484848485,-0.262665814876556,-0.133728347969055,0.529007891178131
0.645454545454546,0.206758013248444,0.005182784843444819,-0.0865121283531191
0.646060606060606,0.139697466373444,-0.112173172187805,-0.00747648382186911
0.646666666666667,-0.521327924251556,0.273424972343445,0.46913240289688096
0.647272727272727,0.374409380435944,-0.10019807453155499,-0.318829022884369
0.647878787878788,0.163647661685944,-0.287009597969055,0.0476089653968809
0.648484848484848,-0.0231638617515564,0.189599288749695,-0.244583417415619
0.649090909090909,-0.147704877376556,-0.169653640937805,0.382911699771881
0.64969696969697,-0.200395307064056,0.472211593437195,-0.0314266791343691
0.65030303030303,0.201967974185944,-0.291799637031555,0.059584063053130895
0.650909090909091,0.0870070366859436,-0.23671418781280498,-0.0721420111656191
0.651515151515151,-0.0854343695640564,0.223129562187195,-0.00747648382186911
0.652121212121212,0.225918169498444,-0.09061799640655521,0.29908601617813096
0.652727272727273,-0.0327439398765564,0.112958663749695,0.160174883365631
0.653333333333333,-0.188420209407806,-0.284614578437805,0.198495195865631
0.653939393939394,-0.253085736751556,-0.24150422687530498,-0.0960922064781191
0.654545454545455,-0.265060834407806,0.10337858562469501,-0.0218466010093691
0.655151515151515,0.118142290592194,0.175229171562195,0.0835342583656309
0.655757575757576,0.175622759342194,-0.291799637031555,0.634388750553131
0.656363636363636,0.182807817935944,0.0602682340621948,-0.189497968196869
0.656969696969697,-0.0950144476890564,0.249474777030945,0.24639558649063098
0.657575757575758,0.106167192935944,-0.116963211250305,0.117064531803131
0.658181818181818,0.130117388248444,-0.140913406562805,-0.0457967963218691
0.658787878787879,-0.241110639095306,-0.0115823518753052,0.20089021539688098
0.659393939393939,0.137302446842194,-0.0522976839065552,0.0907193169593809
0.66,0.0175514702796936,0.587172530937195,0.36854158258438097
0.660606060606061,-0.243505658626556,-0.845049148750305,0.260765703678131
0.661212121212121,0.6402565484046939,0.433891280937195,-0.941534101009369
0.661818181818182,-0.7704099555015561,0.220734542655945,1.22835359430313
0.662424242424242,-0.23392558050155599,-0.188813797187805,0.059584063053130895
0.663030303030303,0.472605181217194,0.259054855155945,-0.601441327571869
0.663636363636364,-0.6003635687828061,-0.646262527656555,0.873890703678131
0.664242424242424,0.448654985904694,0.627887862968445,-0.917583905696869
0.664848484848485,-0.353676557064056,0.09140348796844479,0.636783770084381
0.665454545454545,0.201967974185944,0.297375167655945,-0.297273847103119
0.666060606060606,0.142092485904694,-0.296589676094055,0.23681550836563098
0.666666666666667,-0.305776166439056,0.400361007499695,-0.0122665228843691
0.667272727272727,0.455840044498444,-0.332514969062805,0.054794023990630894
0.667878787878788,0.0055763726234436,-0.219949051094055,0.133829668521881
0.668484848484848,-0.0087937445640564,0.347670577812195,-0.22302824163436902
0.669090909090909,-0.202790326595306,-0.114568191719055,0.28950593805313096
0.66969696969697,-0.150099896907806,0.378805831718445,0.0404239068031309
0.67030303030303,0.0870070366859436,-0.253479324531555,0.028448809146880902
0.670909090909091,-0.051904096126556394,0.0650582731246948,-0.266138593196869
0.671515151515152,-0.334516400814056,0.0530831754684448,0.643968828678131
0.672121212121212,0.30255879449844403,-0.13133332843780499,0.342196367740631
0.672727272727273,0.0965871148109436,0.196784347343445,-0.127227460384369
0.673333333333333,-0.162074994564056,-0.195998855781555,0.0907193169593809
0.673939393939394,-0.0303489203453064,-0.08822297687530521,0.06437410211563091
0.674545454545455,-0.418342084407806,-0.0259524690628052,0.18173005914688098
0.675151515151515,0.266633501529694,0.19199430828094502,-0.11046232366561899
0.675757575757576,0.0079713921546936,-0.418735672187805,0.270345781803131
0.676363636363636,0.0031813530921936,0.244684737968445,-0.869683515071869
0.676969696969697,-0.209975385189056,0.144093917655945,0.502662676334381
0.677575757575758,0.0247365288734436,-0.114568191719055,0.20089021539688098
0.678181818181818,0.297768755435944,0.09619352703094479,-0.0793270697593691
0.678787878787879,-0.207580365657806,-0.284614578437805,0.282320879459381
0.679393939393939,0.0462917046546936,0.0770333707809448,-0.335594159603119
0.68,-0.0447190375328064,0.419521163749695,0.521822832584381
0.680606060606061,-0.269850873470306,-0.698952957344055,0.0955093560218809
0.681212121212121,0.498950396060944,0.184809249687195,-0.831363202571869
0.681818181818182,-0.9356663031578061,0.184809249687195,1.0654922661781299
0.682424242424242,0.0846120171546936,0.005182784843444819,-0.235003339290619
0.683030303030303,0.736057329654694,0.0363180387496948,-0.39067960882186903
0.683636363636364,-0.641078900814056,-0.41394563312530497,0.617623613834381
0.684242424242424,0.225918169498444,0.42431120281219503,-0.924768964290619
0.684848484848485,-0.272245893001556,-0.114568191719055,0.854730547428131
0.685454545454545,0.292978716373444,0.206364425468445,-0.230213300228119
0.686060606060606,-0.0327439398765564,-0.315749832344055,0.112274492740631
0.686666666666667,-0.526117963314056,0.278215011405945,-0.287693768978119
0.687272727272727,0.230708208560944,-0.306169754219055,-0.0505868353843691
0.687878787878788,-0.0806443305015564,-0.272639480781555,-0.0314266791343691
0.688484848484848,-0.0854343695640564,0.134513839530945,-0.21344816350936902
0.689090909090909,-0.07106425237655639,-0.119358230781555,0.416441973209381
0.68969696969697,-0.183630170345306,0.09858854656219479,-0.10088224554061899
0.69030303030303,0.132512407779694,-0.219949051094055,-0.0410067572593691
0.690909090909091,-0.0135837836265564,0.0315279996871948,-0.318829022884369
0.691515151515152,-0.257875775814056,-0.09540803546905521,0.23202546930313098
0.692121212121212,0.180412798404694,-0.08822297687530521,-0.0865121283531191
0.692727272727273,-0.0926194281578064,0.112958663749695,0.0811392388343809
0.693333333333333,-0.281825971126556,-0.160073562812805,0.20568025445938098
0.693939393939394,-0.06387919378280639,-0.121753250312805,0.0428189263343809
0.694545454545455,-0.269850873470306,-0.0475076448440552,0.390096758365631
0.695151515151515,0.235498247623444,0.239894698905945,0.06437410211563091
0.695757575757576,0.166042681217194,-0.655842605781555,0.126644609928131
0.696363636363636,-0.0255588812828064,-0.18162873859405498,-0.378704511165619
0.696969696969697,-0.363256635189056,0.345275558280945,0.641573809146881
0.697575757575758,0.0822169976234436,0.0219479215621948,-0.151177655696869
0.698181818181818,0.259448442935944,-0.109778152656555,-0.0170565619468691
0.698787878787879,-0.135729779720306,-0.0331375276565552,0.40925691461563096
0.699393939393939,0.132512407779694,-0.07385285968780521,-0.0050814642906191095
0.7,-0.152494916439056,0.0794283903121948,0.37812166070938097
0.700606060606061,-0.389601850032806,-0.624707351875305,-0.15357267522811902
0.701212121212121,0.649836626529694,0.215944503593445,-0.8433383002281191
0.701818181818182,-0.6386838812828061,0.0171578824996948,1.5444961724281299
0.702424242424242,0.180412798404694,-0.107383133125305,0.531402910709381
0.703030303030303,0.6234914116859439,0.0674532926559448,0.215260332584381
0.703636363636364,-0.648263959407806,-0.389995437812805,0.588883379459381
0.704242424242424,0.285793657779694,0.249474777030945,-0.771487714290619
0.704848484848485,-0.336911420345306,-0.265454422187805,0.538587969303131
0.705454545454545,0.326508989810944,0.278215011405945,-0.522405683040619
0.706060606060606,0.0822169976234436,-0.296589676094055,0.23202546930313098
0.706666666666667,-0.368046674251556,0.342880538749695,-0.345174237728119
0.707272727272727,0.0510817437171936,-0.339700027656555,0.0452139458656309
0.707878787878788,-0.118964643001556,-0.272639480781555,-0.029031659603119098
0.708484848484848,0.0870070366859436,0.0435030973434448,-0.124832440853119
0.709090909090909,-0.0303489203453064,-0.193603836250305,0.346986406803131
0.70969696969697,-0.0998044867515564,0.297375167655945,0.059584063053130895
0.71030303030303,0.0151564507484436,-0.375625320625305,0.119459551334381
0.710909090909091,0.0055763726234436,-0.188813797187805,-0.146387616634369
0.711515151515152,-0.111779584407806,0.124933761405945,0.0907193169593809
0.712121212121212,-0.054299115657806395,0.0123678434371948,-0.18231290960311902
0.712727272727273,-0.0135837836265564,0.08900846843719479,0.0260537896156309
0.713333333333333,-0.0399289984703064,-0.07624787921905521,0.0188687310218809
0.713939393939394,-0.0207688422203064,-0.155283523750305,-0.0457967963218691
0.714545454545455,-0.138124799251556,0.134513839530945,0.25837068414688097
0.715151515151515,-0.0135837836265564,0.0506881559371948,0.356566484928131
0.715757575757576,-0.130939740657806,-0.447475906562805,0.0859292778968809
0.716363636363636,0.0175514702796936,-0.121753250312805,-0.328409101009369
0.716969696969697,-0.243505658626556,0.110563644218445,0.631993731021881
0.717575757575758,0.103772173404694,0.122538741874695,-0.22302824163436902
0.718181818181818,0.130117388248444,-0.349280105781555,0.222445391178131
0.718787878787879,-0.320146283626556,-0.08343293781280521,0.0428189263343809
0.719393939393939,-0.128544721126556,-0.150493484687805,-0.151177655696869
0.72,-0.0998044867515564,0.211154464530945,0.567328203678131
0.720606060606061,-0.221950482845306,-0.567226883125305,-0.11285734319686899
0.721212121212121,0.453445024967194,0.278215011405945,-0.541565839290619
0.721818181818182,-0.861420697689056,0.24707975749969502,1.09423250055313
0.722424242424242,-0.138124799251556,0.144093917655945,-0.47929533147811904
0.723030303030303,0.489370317935944,-0.0475076448440552,0.059584063053130895
0.723636363636364,-0.5404880805015561,-0.346885086250305,0.481107500553131
0.724242424242424,0.398359575748444,0.184809249687195,-0.776277753353119
0.724848484848485,-0.377626752376556,-0.313354812812805,0.8331753716468809
0.725454545454545,0.161252642154694,0.239894698905945,-0.452950116634369
0.726060606060606,-0.126149701595306,-0.47382112140655497,0.366146563053131
0.726666666666667,-0.420737103939056,0.611122726249695,-0.347569257259369
0.727272727272727,0.0989821343421936,-0.251084305000305,0.12424959039688101
0.727878787878788,0.04150166559219361,-0.12654328937530498,0.0979043755531309
0.728484848484849,0.034316606998443605,0.218339523124695,0.174545000553131
0.729090909090909,-0.0399289984703064,0.0506881559371948,0.222445391178131
0.72969696969697,-0.169260053157806,0.108168624687195,-0.060166913509369105
0.73030303030303,0.213943071842194,-0.22713410968780498,0.188915117740631
0.730909090909091,0.328904009342194,0.206364425468445,-0.352359296321869
0.731515151515152,-0.205185346126556,-0.13133332843780499,0.0835342583656309
0.732121212121212,-0.0016086859703064,-0.0283474885940552,0.430812090396881
0.732727272727273,-0.140519818782806,-0.00918733234405518,0.40925691461563096
0.733333333333333,-0.0902244086265564,-0.133728347969055,0.006893633365630891
0.733939393939394,-0.238715619564056,-0.128938308906555,0.255975664615631
0.734545454545455,-0.059089154720306396,-0.0187674104690552,0.28950593805313096
0.735151515151515,0.161252642154694,0.00757780437469482,0.26795076227188097
0.735757575757576,-0.114174603939056,-0.394785476875305,-0.0889071478843691
0.736363636363636,0.0031813530921936,-0.358860183906555,-0.275718671321869
0.736969696969697,-0.360861615657806,0.0698483121871948,0.20089021539688098
0.737575757575758,0.252263384342194,0.105773605155945,-0.21344816350936902
0.738181818181818,0.132512407779694,-0.394785476875305,0.461947344303131
0.738787878787879,-0.277035932064056,-0.0427176057815552,-0.17752287054061902
0.739393939393939,0.0917970757484436,-0.19120881671905499,-0.0936971869468691
0.74,-0.0327439398765564,0.306955245780945,0.505057695865631
0.740606060606061,-0.130939740657806,-0.291799637031555,-0.567911054134369
0.741212121212121,0.5636159234046939,-0.19120881671905499,-0.15357267522811902
0.741818181818182,-0.787175092220306,0.146488937187195,0.986456621646881
0.742424242424242,0.199572954654694,0.280610030937195,-0.917583905696869
0.743030303030303,0.292978716373444,-0.646262527656555,0.277530840396881
0.743636363636364,-0.454267377376556,-0.08582795734405521,-0.0841171088218691
0.744242424242424,0.36243428277969403,0.0195529020309448,-0.448160077571869
0.744848484848485,-0.432712201595306,-0.401970535469055,0.567328203678131
0.745454545454545,0.460630083560944,0.405151046562195,-0.46013517522811903
0.746060606060606,-0.0447190375328064,-0.313354812812805,0.18173005914688098
0.746666666666667,-0.420737103939056,0.333300460624695,-0.639761640071869
0.747272727272727,0.0630568413734436,-0.435500808906555,0.26795076227188097
0.747878787878788,0.0534767632484436,0.08661344890594479,-0.201473065853119
0.748484848484849,0.106167192935944,0.0171578824996948,0.217655352115631
0.749090909090909,-0.157284955501556,-0.128938308906555,0.19131013727188098
0.74969696969697,-0.435107221126556,0.12732878093719502,-0.0481918158531191
0.75030303030303,0.0295265679359436,-0.351675125312805,0.339801348209381
0.750909090909091,-0.0111887640953064,-0.148098465156555,-0.0936971869468691
0.751515151515151,-0.190815228939056,-0.107383133125305,0.109879473209381
0.752121212121212,0.355249224185944,-0.09061799640655521,0.14101472711563098
0.752727272727273,0.178017778873444,-0.0331375276565552,0.17694002008438098
0.753333333333333,-0.0231638617515564,0.0506881559371948,-0.029031659603119098
0.753939393939394,0.168437700748444,-0.006792312812805181,0.222445391178131
0.754545454545455,-0.109384564876556,-0.07864289875030521,0.109879473209381
0.755151515151515,0.230708208560944,-0.188813797187805,0.380516680240631
0.755757575757576,0.0103664116859436,-0.06906282062530521,-0.0745370306968691
0.756363636363636,0.0917970757484436,-0.00200227375030518,-0.17273283147811902
0.756969696969697,-0.272245893001556,0.0770333707809448,0.47871248102188096
0.757575757575758,-0.0255588812828064,0.271029952812195,-0.35954435491561904
0.758181818181818,-0.0447190375328064,-0.516931472969055,0.26795076227188097
0.758787878787879,-0.430317182064056,0.244684737968445,-0.337989179134369
0.759393939393939,0.264238481998444,0.0530831754684448,0.164964922428131
0.76,0.213943071842194,0.455446456718445,0.330221270084381
0.760606060606061,-0.0351389594078064,-0.0451126253128052,-0.0194515814781191
0.761212121212121,0.6594167046546939,-0.248689285469055,-0.0410067572593691
0.761818181818182,-0.727299603939056,0.230314620780945,1.09183748102188
0.762424242424242,0.168437700748444,0.357250655937195,-0.773882733821869
0.763030303030303,0.5181105523109439,-0.385205398750305,0.291900957584381
0.763636363636364,-0.403971967220306,0.09858854656219479,-0.151177655696869
0.764242424242424,0.372014360904694,-0.116963211250305,-0.639761640071869
0.764848484848485,-0.403971967220306,-0.42352571125030497,0.639178789615631
0.765454545454545,0.168437700748444,0.431496261405945,-0.7834628119468691
0.766060606060606,-0.231530560970306,-0.581597000312805,0.658338945865631
0.766666666666667,-0.300986127376556,0.388385909843445,-0.275718671321869
0.767272727272727,0.189992876529694,-0.461846023750305,0.0787442193031309
0.767878787878788,0.151672564029694,-0.0187674104690552,-0.29966886663436904
0.768484848484848,-0.0974094672203064,0.0291329801559448,0.49787263727188097
0.769090909090909,-0.0423240180015564,-0.217554031562805,0.385306719303131
0.76969696969697,-0.111779584407806,0.244684737968445,-0.11285734319686899
0.77030303030303,0.118142290592194,-0.263059402656555,0.215260332584381
0.770909090909091,0.0510817437171936,-0.164863601875305,-0.132017499446869
0.771515151515151,-0.506957807064056,0.0746383512496948,0.203285234928131
0.772121212121212,0.0774269585609436,0.10337858562469501,0.0883242974281309
0.772727272727273,-0.0111887640953064,-0.0307425081253052,0.234420488834381
0.773333333333333,-0.166865033626556,-0.0522976839065552,0.133829668521881
0.773939393939394,-0.164470014095306,-0.253479324531555,0.0787442193031309
0.774545454545455,-0.224345502376556,0.00757780437469482,0.208075273990631
0.775151515151515,-0.0016086859703064,0.18241423015594502,0.435602129459381
0.775757575757576,0.120537310123444,-0.174443680000305,-0.0793270697593691
0.776363636363636,0.221128130435944,-0.0570877229690552,-0.0218466010093691
0.776969696969697,-0.7129294867515561,0.0794283903121948,0.706239336490631
0.777575757575758,0.0031813530921936,0.122538741874695,-0.151177655696869
0.778181818181818,0.0175514702796936,-0.440290847969055,0.5337979302406309
0.778787878787879,-0.279430951595306,0.0219479215621948,-0.268533612728119
0.779393939393939,-0.054299115657806395,-0.200788894844055,0.105089434146881
0.78,-0.229135541439056,0.0411080778121948,0.608043535709381
0.780606060606061,-0.111779584407806,0.148883956718445,-0.702032147884369
0.781212121212121,0.319323931217194,-0.672607742500305,0.265555742740631
0.781818181818182,-0.700954389095306,0.350065597343445,0.160174883365631
0.782424242424242,0.336089067935944,0.627887862968445,-0.682871991634369
0.783030303030303,0.6570216851234439,-0.512141433906555,0.555353106021881
0.783636363636364,-0.473427533626556,0.409941085624695,-0.577491132259369
0.784242424242424,0.225918169498444,-0.248689285469055,0.0476089653968809
0.784848484848485,-0.408762006282806,-0.152888504219055,-0.0386117377281191
0.785454545454545,0.228313189029694,0.438681319999695,-0.275718671321869
0.786060606060606,0.0798219780921936,-0.471426101875305,0.538587969303131
0.786666666666667,-0.0830393500328064,0.383595870780945,-0.443370038509369
0.787272727272727,0.257053423404694,-0.344490066719055,0.538587969303131
0.787878787878788,-0.07585429143905639,-0.16725862140655498,-0.21823820257186902
0.788484848484848,-0.0087937445640564,-0.164863601875305,0.330221270084381
0.789090909090909,0.0247365288734436,-0.17683869953155498,0.229630449771881
0.78969696969697,-0.399181928157806,0.22791960124969501,0.117064531803131
0.79030303030303,0.197177935123444,-0.138518387031555,0.035633867740630897
0.790909090909091,0.0223415093421936,-0.217554031562805,-0.35954435491561904
0.791515151515152,-0.360861615657806,-0.128938308906555,0.212865313053131
0.792121212121212,0.127722368717194,-0.006792312812805181,0.557748125553131
0.792727272727273,0.0247365288734436,-0.0235574495315552,0.265555742740631
0.793333333333333,-0.054299115657806395,-0.0235574495315552,-0.191892987728119
0.793939393939394,0.0894020562171936,-0.23671418781280498,0.26795076227188097
0.794545454545455,-0.178840131282806,0.0554781949996948,0.12424959039688101
0.795151515151515,-0.109384564876556,-0.200788894844055,0.28950593805313096
0.795757575757576,0.379199419498444,-0.0403225862503052,-0.230213300228119
0.796363636363636,0.0558717827796936,-0.251084305000305,0.212865313053131
0.796969696969697,-0.214765424251556,0.13211881999969502,-0.15357267522811902
0.797575757575758,0.139697466373444,0.09619352703094479,-0.0625619330406191
0.798181818181818,-0.06627421331405639,-0.469031082344055,0.744559648990631
0.798787878787879,-0.061484174251556396,0.402756027030945,-0.354754315853119
0.799393939393939,-0.06387919378280639,-0.437895828437805,0.222445391178131
0.8,0.142092485904694,-0.00200227375030518,-0.0362167181968691
0.800606060606061,-0.0207688422203064,0.256659835624695,-0.831363202571869
0.801212121212121,0.158857622623444,-0.732483230781555,0.758929766178131
0.801818181818182,-0.6937693305015561,0.381200851249695,0.14101472711563098
0.802424242424242,0.0678468804359436,0.302165206718445,-0.579886151790619
0.803030303030303,0.405544634342194,-0.868999344062805,1.01759187555313
0.803636363636364,-0.257875775814056,0.560827316093445,-0.936744061946869
0.804242424242424,0.12532734918594401,-0.600757156562805,0.37812166070938097
0.804848484848485,-0.147704877376556,-0.0259524690628052,-0.120042401790619
0.805454545454545,0.254658403873444,0.23749967937469502,-0.254163495540619
0.806060606060606,-0.0399289984703064,-0.528906570625305,0.648758867740631
0.806666666666667,-0.444687299251556,0.321325362968445,-0.292483808040619
0.807272727272727,-0.0447190375328064,-0.495376297187805,0.550563066959381
0.807878787878788,0.324113970279694,0.0506881559371948,-0.383494550228119
0.808484848484848,-0.336911420345306,0.120143722343445,0.263160723209381
0.809090909090909,-0.049509076595306394,-0.0978030550003052,-0.165547772884369
0.80969696969697,-0.176445111751556,0.175229171562195,0.0787442193031309
0.81030303030303,-0.169260053157806,-0.0451126253128052,0.17214998102188098
0.810909090909091,0.0079713921546936,-0.30377473468780497,-0.0362167181968691
0.811515151515152,-0.281825971126556,0.0435030973434448,0.174545000553131
0.812121212121212,-0.0063987250328064,-0.07864289875030521,-0.0362167181968691
0.812727272727273,-0.0016086859703064,0.0387130582809448,0.17214998102188098
0.813333333333333,-0.186025189876556,0.00278776531219482,-0.285298749446869
0.813939393939394,-0.140519818782806,-0.222344070625305,-0.10806730413436899
0.814545454545455,-0.205185346126556,0.0674532926559448,-0.0362167181968691
0.815151515151515,0.0223415093421936,-0.140913406562805,0.15059480524063099
0.815757575757576,0.369619341373444,0.134513839530945,-0.608626386165619
0.816363636363636,-0.118964643001556,-0.380415359687805,0.337406328678131
0.816969696969697,-0.391996869564056,0.218339523124695,-0.146387616634369
0.817575757575758,0.161252642154694,0.208759444999695,0.203285234928131
0.818181818181818,-0.0327439398765564,-0.509746414375305,0.878680742740631
0.818787878787879,-0.0159788031578064,0.22791960124969501,-0.393074628353119
0.819393939393939,-0.255480756282806,-0.351675125312805,0.514637773990631
0.82,-0.0806443305015564,0.108168624687195,0.102694414615631
0.820606060606061,0.175622759342194,0.441076339530945,-0.833758222103119
0.821212121212121,-0.06627421331405639,-0.813913894844055,0.828385332584381
0.821818181818182,-0.391996869564056,0.582382491874695,0.193705156803131
0.822424242424242,0.0558717827796936,0.299770187187195,0.198495195865631
0.823030303030303,0.151672564029694,-1.00072541828156,1.05351716852188
0.823636363636364,-0.0159788031578064,0.417126144218445,-0.881658612728119
0.824242424242424,0.039106646060943606,-0.615127273750305,0.928976152896881
0.824848484848485,-0.214765424251556,0.129723800468445,-0.357149335384369
0.825454545454545,0.154067583560944,0.120143722343445,0.0212637505531309
0.826060606060606,0.0989821343421936,-0.516931472969055,0.361356523990631
0.826666666666667,-0.377626752376556,0.335695480155945,-0.366729413509369
0.827272727272727,-0.06627421331405639,-0.289404617500305,0.217655352115631
0.827878787878788,0.360039263248444,-0.0451126253128052,-0.417024823665619
0.828484848484848,-0.157284955501556,0.0602682340621948,0.342196367740631
0.829090909090909,-0.06866923284530639,-0.00200227375030518,-0.0960922064781191
0.82969696969697,-0.049509076595306394,0.0411080778121948,0.282320879459381
0.83030303030303,0.0079713921546936,-0.0211624300003052,0.284715898990631
0.830909090909091,0.163647661685944,-0.287009597969055,0.114669512271881
0.831515151515152,-0.205185346126556,-0.0163723909378052,0.107484453678131
0.832121212121212,-0.06866923284530639,0.005182784843444819,0.0428189263343809
0.832727272727273,-0.17405009222030599,0.0147628629684448,0.109879473209381
0.833333333333333,-0.0902244086265564,0.0195529020309448,0.0859292778968809
0.833939393939394,0.0798219780921936,-0.188813797187805,0.12424959039688101
0.834545454545455,-0.128544721126556,0.271029952812195,0.222445391178131
0.835151515151515,-0.0998044867515564,0.0722433317184448,0.301481035709381
0.835757575757576,0.326508989810944,-0.0307425081253052,-0.383494550228119
0.836363636363636,0.151672564029694,-0.437895828437805,0.30866609430313097
0.836969696969697,-0.277035932064056,0.201574386405945,-0.129622479915619
0.837575757575758,0.252263384342194,0.09619352703094479,0.100299395084381
0.838181818181818,0.0295265679359436,-0.478611160469055,0.452367266178131
0.838787878787879,-0.262665814876556,0.17283415203094502,-0.282903729915619
0.839393939393939,0.036711626529693606,-0.10019807453155499,0.284715898990631
0.84,-0.111779584407806,0.153673995780945,0.102694414615631
0.840606060606061,0.297768755435944,0.479396652030945,-0.258953534603119
0.841212121212121,0.0438966851234436,-1.08934114093781,0.830780352115631
0.841818181818182,-0.6147336859703061,0.802724288749695,-0.836153241634369
0.842424242424242,-0.0087937445640564,0.376410812187195,0.344591387271881
0.843030303030303,0.194782915592194,-0.804333816719055,0.816410234928131
0.843636363636364,0.0103664116859436,0.723688644218445,-0.793042890071869
0.844242424242424,-0.0926194281578064,-0.519326492500305,1.07028230524063
0.844848484848485,-0.0998044867515564,0.438681319999695,-0.364334393978119
0.845454545454545,0.0750319390296936,0.00278776531219482,0.157779863834381
0.846060606060606,0.182807817935944,-0.313354812812805,-0.0721420111656191
0.846666666666667,-0.207580365657806,0.151278976249695,-0.16315275335311902
0.847272727272727,-0.102199506282806,-0.164863601875305,0.294295977115631
0.847878787878788,0.271423540592194,0.09379850749969479,0.0404239068031309
0.848484848484849,-0.061484174251556396,0.0435030973434448,0.426022051334381
0.849090909090909,0.130117388248444,-0.239109207344055,0.016473711490630902
0.84969696969697,-0.193210248470306,-0.08103791828155521,0.351776445865631
0.85030303030303,-0.0878293890953064,0.0387130582809448,0.711029375553131
0.850909090909091,0.249868364810944,-0.392390457344055,0.996036699771881
0.851515151515152,-0.389601850032806,0.12732878093719502,-0.235003339290619
0.852121212121212,0.0558717827796936,0.0674532926559448,0.162569902896881
0.852727272727273,0.139697466373444,-0.140913406562805,0.476317461490631
0.853333333333333,-0.224345502376556,0.09140348796844479,-0.0769320502281191
0.853939393939394,-0.181235150814056,-0.148098465156555,0.121854570865631
0.854545454545454,-0.221950482845306,0.251869796562195,0.0212637505531309
0.855151515151515,-0.138124799251556,0.105773605155945,0.23681550836563098
0.855757575757576,0.398359575748444,0.0458981168746948,-0.203868085384369
0.856363636363636,0.0103664116859436,-0.332514969062805,0.24160554742813098
0.856969696969697,-0.138124799251556,0.230314620780945,-0.060166913509369105
0.857575757575758,0.201967974185944,0.223129562187195,0.17694002008438098
0.858181818181818,-0.152494916439056,-0.349280105781555,0.217655352115631
0.858787878787879,0.0319215874671936,0.09619352703094479,-0.203868085384369
0.859393939393939,-0.0040037055015564,-0.263059402656555,0.061979082584380896
0.86,-0.0926194281578064,0.321325362968445,-0.278113690853119
0.860606060606061,0.333694048404694,0.582382491874695,-0.194288007259369
0.861212121212121,-0.0159788031578064,-1.05581086750031,0.742164629459381
0.861818181818182,-0.23392558050155599,0.565617355155945,-0.999014569759369
0.862424242424242,-0.0255588812828064,0.0626632535934448,0.263160723209381
0.863030303030303,0.163647661685944,-0.591177078437805,0.40925691461563096
0.863636363636364,0.0894020562171936,0.726083663749695,-0.512825604915619
0.864242424242424,-0.135729779720306,-0.768408523750305,0.723004473209381
0.864848484848485,0.0750319390296936,0.23749967937469502,-0.668501874446869
0.865454545454545,0.058266802310943604,-0.401970535469055,0.603253496646881
0.866060606060606,0.252263384342194,-0.253479324531555,0.0428189263343809
0.866666666666667,-0.425527143001556,0.335695480155945,0.061979082584380896
0.867272727272727,-0.305776166439056,-0.119358230781555,0.105089434146881
0.867878787878788,0.201967974185944,-0.116963211250305,0.006893633365630891
0.868484848484849,-0.166865033626556,-0.09540803546905521,0.0188687310218809
0.869090909090909,0.0750319390296936,-0.0522976839065552,-0.42899992132186904
0.86969696969697,-0.0998044867515564,0.0411080778121948,0.133829668521881
0.87030303030303,0.0079713921546936,0.0243429410934448,-0.033821698665619106
0.870909090909091,0.0031813530921936,-0.279824539375305,0.18173005914688098
0.871515151515151,-0.142914838314056,0.321325362968445,-0.211053143978119
0.872121212121212,0.106167192935944,-0.16725862140655498,0.203285234928131
0.872727272727273,-0.0063987250328064,-0.0379275667190552,0.14580476617813098
0.873333333333333,-0.0806443305015564,0.136908859062195,-0.0745370306968691
0.873939393939394,-0.130939740657806,-0.289404617500305,0.0859292778968809
0.874545454545455,-0.312961225032806,0.122538741874695,-0.0697469916343691
0.875151515151515,-0.145309857845306,-0.133728347969055,0.0931143364906309
0.875757575757576,0.254658403873444,0.0171578824996948,0.107484453678131
0.876363636363636,-0.0063987250328064,-0.255874344062805,0.684684160709381
0.876969696969697,-0.0926194281578064,0.271029952812195,-0.35954435491561904
0.877575757575758,-0.0327439398765564,-0.0307425081253052,0.42841707086563097
0.878181818181818,-0.0255588812828064,-0.301379715156555,0.217655352115631
0.878787878787879,0.0247365288734436,0.13211881999969502,-0.146387616634369
0.879393939393939,0.0247365288734436,-0.162468582344055,0.272740801334381
0.88,0.036711626529693606,0.342880538749695,-0.160757733821869
0.880606060606061,0.312138872623444,0.47460661296844503,0.155384844303131
0.881212121212121,0.0558717827796936,-1.06299592609406,0.346986406803131
0.881818181818182,-0.384811810970306,0.536877120780945,-0.448160077571869
0.882424242424242,-0.130939740657806,0.297375167655945,1.01759187555313
0.883030303030303,0.175622759342194,-0.694162918281555,0.574513262271881
0.883636363636364,0.309743853092194,0.431496261405945,-0.637366620540619
0.884242424242424,-0.157284955501556,-0.809123855781555,0.694264238834381
0.884848484848485,-0.114174603939056,0.328510421562195,-0.582281171321869
0.885454545454545,-0.0087937445640564,0.13211881999969502,0.296690996646881
0.886060606060606,0.206758013248444,-0.18641877765655498,0.138619707584381
0.886666666666667,-0.109384564876556,0.0530831754684448,0.155384844303131
0.887272727272727,-0.0207688422203064,-0.152888504219055,0.234420488834381
0.887878787878788,0.386384478092194,-0.150493484687805,0.0787442193031309
0.888484848484848,-0.221950482845306,0.0626632535934448,0.0811392388343809
0.889090909090909,-0.0806443305015564,-0.193603836250305,-0.11046232366561899
0.88969696969697,-0.0854343695640564,-0.121753250312805,0.121854570865631
0.89030303030303,-0.0830393500328064,0.0794283903121948,0.14580476617813098
0.890909090909091,0.04150166559219361,-0.22713410968780498,0.0188687310218809
0.891515151515151,-0.238715619564056,0.0722433317184448,-0.134412518978119
0.892121212121212,-0.0830393500328064,0.0482931364059448,0.17214998102188098
0.892727272727273,0.0846120171546936,-0.0163723909378052,0.0763491997718809
0.893333333333333,0.0175514702796936,-0.277429519844055,0.00449861383438089
0.893939393939394,-0.152494916439056,-0.16725862140655498,0.0212637505531309
0.894545454545455,-0.289011029720306,0.223129562187195,0.224840410709381
0.895151515151515,-0.159679975032806,0.0482931364059448,0.0979043755531309
0.895757575757576,0.424704790592194,-0.138518387031555,-0.10806730413436899
0.896363636363636,0.0702418999671936,-0.691767898750305,0.270345781803131
0.896969696969697,-0.269850873470306,0.362040694999695,-0.687662030696869
0.897575757575758,0.0199464898109436,0.110563644218445,0.390096758365631
0.898181818181818,0.175622759342194,-0.0451126253128052,0.0859292778968809
0.898787878787879,0.0702418999671936,0.251869796562195,-0.0122665228843691
0.899393939393939,-0.118964643001556,-0.471426101875305,0.483502520084381
0.9,-0.07106425237655639,0.17762419109344502,-0.191892987728119
0.900606060606061,0.441469927310944,0.675788253593445,-0.0721420111656191
0.901212121212121,-0.0207688422203064,-0.986355301094055,0.591278398990631
0.901818181818182,-0.286616010189056,0.800329269218445,-0.8840536322593691
0.902424242424242,-0.150099896907806,0.141698898124695,0.490687578678131
0.903030303030303,0.166042681217194,-0.722903152656555,0.402071856021881
0.903636363636364,0.429494829654694,0.869784835624695,-0.891238690853119
0.904242424242424,-0.456662396907806,-0.643867508125305,0.742164629459381
0.904848484848485,0.0774269585609436,0.18241423015594502,-0.503245526790619
0.905454545454545,0.0127614312171936,-0.219949051094055,0.579303301334381
0.906060606060606,0.0319215874671936,-0.08343293781280521,-0.189497968196869
0.906666666666667,-0.243505658626556,0.165649093437195,0.23202546930313098
0.907272727272727,0.0822169976234436,-0.0259524690628052,0.06916414117813091
0.907878787878788,0.316928911685944,-0.145703445625305,0.0212637505531309
0.908484848484848,-0.186025189876556,0.0602682340621948,0.109879473209381
0.909090909090909,-0.118964643001556,-0.0235574495315552,0.006893633365630891
0.90969696969697,-0.413552045345306,0.0458981168746948,0.26795076227188097
0.91030303030303,0.060661821842193604,0.0435030973434448,-0.124832440853119
0.910909090909091,0.386384478092194,-0.385205398750305,0.155384844303131
0.911515151515152,-0.188420209407806,0.165649093437195,-0.249373456478119
0.912121212121212,-0.207580365657806,-0.0403225862503052,0.531402910709381
0.912727272727273,0.0103664116859436,-0.00200227375030518,0.473922441959381
0.913333333333333,-0.0926194281578064,-0.162468582344055,-0.0841171088218691
0.913939393939394,0.216338091373444,-0.0403225862503052,-0.029031659603119098
0.914545454545455,-0.106989545345306,0.12732878093719502,0.0236587700843809
0.915151515151515,-0.0806443305015564,0.136908859062195,0.054794023990630894
0.915757575757576,0.142092485904694,0.117748702812195,-0.203868085384369
0.916363636363636,0.139697466373444,-0.140913406562805,0.14101472711563098
0.916969696969697,-0.157284955501556,0.409941085624695,0.0763491997718809
0.917575757575758,-0.193210248470306,-0.07864289875030521,0.36854158258438097
0.918181818181818,0.0822169976234436,-0.471426101875305,0.112274492740631
0.918787878787879,-0.391996869564056,-0.0570877229690552,-0.0984872260093691
0.919393939393939,-0.341701459407806,-0.282219558906555,0.169754961490631
0.92,-0.0902244086265564,0.165649093437195,-0.0457967963218691
0.920606060606061,0.261843462467194,0.223129562187195,0.24639558649063098
0.921212121212121,0.180412798404694,-0.835469070625305,0.0715591607093809
0.921818181818182,-0.368046674251556,0.812304366874695,-1.02775480413437
0.922424242424242,-0.494982709407806,-0.06906282062530521,1.01759187555313
0.923030303030303,0.345669146060944,-0.0139773714065552,-0.203868085384369
0.923636363636364,-0.0447190375328064,0.0267379606246948,-0.0745370306968691
0.924242424242424,-0.123754682064056,-0.418735672187805,0.301481035709381
0.924848484848485,0.216338091373444,0.551247237968445,-0.405049726009369
0.925454545454545,-0.195605268001556,-0.006792312812805181,0.794855059146881
0.926060606060606,0.333694048404694,0.08900846843719479,-0.256558515071869
0.926666666666667,-0.0950144476890564,-0.188813797187805,0.459552324771881
0.927272727272727,-0.0303489203453064,-0.136123367500305,-0.24218839788436902
0.927878787878788,0.187597856998444,-0.344490066719055,0.164964922428131
0.928484848484848,-0.0399289984703064,0.0818234098434448,-0.146387616634369
0.929090909090909,-0.0782493109703064,-0.104988113594055,-0.033821698665619106
0.92969696969697,-0.166865033626556,0.10098356609344501,0.0835342583656309
0.93030303030303,0.257053423404694,-0.07385285968780521,-0.11046232366561899
0.930909090909091,0.242683306217194,-0.397180496406555,0.20089021539688098
0.931515151515152,-0.157284955501556,0.254264816093445,-0.326014081478119
0.932121212121212,0.0678468804359436,-0.006792312812805181,0.0787442193031309
0.932727272727273,0.108562212467194,-0.0235574495315552,0.107484453678131
0.933333333333333,-0.133334760189056,0.00997282390594482,0.030843828678130902
0.933939393939394,-0.219555463314056,-0.272639480781555,-0.029031659603119098
0.934545454545455,-0.162074994564056,-0.08103791828155521,0.0787442193031309
0.935151515151515,-0.348886518001556,0.251869796562195,0.0739541802406309
0.935757575757576,0.0726369194984436,0.0267379606246948,-0.057771893978119104
0.936363636363636,0.276213579654694,-0.373230301094055,0.255975664615631
0.936969696969697,-0.236320600032806,0.249474777030945,-0.294878827571869
0.937575757575758,-0.253085736751556,0.163254073905945,0.248790606021881
0.938181818181818,0.180412798404694,-0.119358230781555,-0.16794279241561902
0.938787878787879,-0.0471140570640564,-0.380415359687805,0.339801348209381
0.939393939393939,0.0822169976234436,-0.188813797187805,0.107484453678131
0.94,-0.049509076595306394,-0.0570877229690552,-0.0721420111656191
0.940606060606061,0.130117388248444,0.0458981168746948,1.12297273492813
0.941212121212121,0.247473345279694,-0.670212722969055,-0.0960922064781191
0.941818181818182,-0.320146283626556,0.527297042655945,-0.520010663509369
0.942424242424242,-0.289011029720306,-0.12654328937530498,1.41516511774063
0.943030303030303,0.441469927310944,-0.30377473468780497,-0.373914472103119
0.943636363636364,-0.123754682064056,0.256659835624695,-0.18231290960311902
0.944242424242424,-0.253085736751556,-0.30377473468780497,0.251185625553131
0.944848484848485,0.166042681217194,0.496161788749695,-0.316434003353119
0.945454545454545,-0.0375339789390564,-0.184023758125305,0.667919023990631
0.946060606060606,0.443864946842194,-0.09301301593780521,-0.273323651790619
0.946666666666667,-0.339306439876556,0.218339523124695,0.14101472711563098
0.947272727272727,-0.159679975032806,0.369225753593445,-0.297273847103119
0.947878787878788,0.367224321842194,-0.289404617500305,0.227235430240631
0.948484848484848,-0.0830393500328064,0.134513839530945,-0.139202558040619
0.949090909090909,0.108562212467194,-0.152888504219055,0.164964922428131
0.94969696969697,0.0031813530921936,-0.0379275667190552,0.15059480524063099
0.95030303030303,-0.130939740657806,-0.0259524690628052,0.0260537896156309
0.950909090909091,0.312138872623444,-0.361255203437805,0.28950593805313096
0.951515151515152,-0.317751264095306,0.151278976249695,-0.321224042415619
0.952121212121212,0.0319215874671936,-0.0618777620315552,0.14101472711563098
0.952727272727273,0.0894020562171936,0.151278976249695,0.234420488834381
0.953333333333333,-0.0087937445640564,-0.00439729328155518,0.0787442193031309
0.953939393939394,0.158857622623444,-0.148098465156555,0.0380288872718809
0.954545454545455,-0.229135541439056,-0.0163723909378052,0.20089021539688098
0.955151515151515,-0.135729779720306,0.0626632535934448,0.14580476617813098
0.955757575757576,0.0199464898109436,-0.207973953437805,0.15059480524063099
0.956363636363636,0.142092485904694,-0.385205398750305,0.059584063053130895
0.956969696969697,0.0127614312171936,0.0650582731246948,-0.14878263616561901
0.957575757575758,-0.0471140570640564,-0.389995437812805,0.567328203678131
0.958181818181818,0.060661821842193604,-0.17204866046905498,-0.347569257259369
0.958787878787879,-0.195605268001556,0.00039274578094482,0.217655352115631
0.959393939393939,0.0726369194984436,0.09858854656219479,0.0931143364906309
0.96,-0.178840131282806,0.122538741874695,0.188915117740631
0.960606060606061,-0.123754682064056,0.0506881559371948,0.8331753716468809
0.961212121212121,0.261843462467194,-0.593572097969055,-0.033821698665619106
0.961818181818182,0.0223415093421936,0.486581710624695,-0.22302824163436902
0.962424242424242,-0.281825971126556,-0.145703445625305,1.06788728570938
0.963030303030303,0.427099810123444,-0.179233719062805,-0.397864667415619
