Time (s),Accel X (m/s^2),Accel Y (m/s^2),Accel Z (m/s^2)
0.0,5.10915670394897,-2.5729777153015103,-0.261251911354064
0.000605693519079346,2.13454244613647,2.00390460891724,-0.457643512916564
0.00121138703815869,-1.74538919448853,3.66604816360474,1.52543265895844
0.00181708055723804,0.139491176605225,-0.597086602020264,0.13392631130218602
0.00242277407631738,-1.40290140151978,-1.76106609420776,0.7398662527084361
0.00302846759539673,-1.48193704605103,1.03392169876099,0.38300834255218597
0.00363416111447607,-1.80526468276978,-0.673727227020264,-0.491173786354064
0.00423985463355542,-0.0137900733947754,-2.7166788871765104,-2.08625679416656
0.00484554815263477,4.4553163719177205,-1.98380291061401,-0.450458454322814
0.00545124167171411,1.50944234848022,3.1415388862609896,0.672805705833436
0.00605693519079346,-1.45559183120728,3.60617267532349,1.36496635036469
0.0066626287098728,1.00409322738647,-0.771923027801514,-0.369027790260314
0.00726832222895215,-0.849651889801025,-2.6735685356140104,-0.0145648996353145
0.0078740157480315,-0.6388901710510251,2.13802570266724,0.11716117458343599
0.00847970926711084,-2.40162454605103,1.20875812454224,0.42372367458343596
0.00908540278619019,-2.38725442886353,-4.01956951217651,-0.11276070041656401
0.00969109630526953,4.05295309066772,-1.59580974655151,-2.09583687229156
0.0102967898243489,0.8819472312927249,0.921355780792236,1.42963187770844
0.0109024833434282,1.15737447738647,4.14265705032349,0.0956059988021855
0.0115081768625076,1.49507223129272,1.61351642532349,0.5626348073959361
0.0121138703815869,-0.159886264801025,-2.3933512504577603,0.627300334739686
0.0127195639006663,-0.5167441749572751,0.339366034698486,-0.44327339572906405
0.0133252574197456,-5.06967630386353,0.938120917510986,0.9626030691146861
0.013930950938825,-3.12731546401978,-1.03058513717651,0.469229045677186
0.0145366444579043,2.46745016098022,-3.4711100395202603,-0.843241657447814
0.0151423379769836,3.3727675437927203,-0.0917374809265137,-1.49708198947906
0.015748031496063,2.10819723129272,3.47205158157349,0.866802287864686
0.0163537250151423,0.766986293792725,1.93444904251099,0.107581096458436
0.0169594185342217,-0.21257669448852498,-2.29276043014526,0.588980022239686
0.017565112053301,-2.32737894058228,-0.937179375457764,0.0117803152084355
0.0181708055723804,-4.54756204605103,1.45784015579224,0.481204143333436
0.0187764990914597,-1.7956846046447799,-0.0893424613952637,0.12913627223968602
0.0193821926105391,1.48549215316772,-2.2975504692077604,-2.1676874582290604
0.0199878861296184,5.12352682113647,-0.494100762176514,-1.01328804416656
0.0205935796486978,2.5345107078552203,0.37289630813598595,1.80085990505219
0.0211992731677771,-1.02688333511353,3.59898761672974,0.0237554128646855
0.0218049666868564,-1.23764505386353,0.365711249542236,0.792556682395936
0.0224106602059358,-1.17297952651978,-2.1897745903015102,0.675200725364686
0.0230163537250151,-2.0926670265197798,1.0626619331359901,0.617720256614686
0.0236220472440945,-1.89148538589478,-0.400695000457764,-0.48398872776031404
0.0242277407631738,1.26515035629272,-2.65440837936401,-2.1700824777603103
0.0248334342822532,3.62184957504272,-1.90237224655151,-0.357052692604064
0.0254391278013325,2.42912984848022,3.05292316360474,-0.158266071510314
0.0260448213204119,-1.46756692886353,3.20380939407349,1.66913383083344
0.0266505148394912,-0.0018149757385253899,0.181294745635986,0.46204398708343597
0.0272562083585706,-0.7346909523010251,-3.2411881645202603,-0.0025898019790644602
0.0278619018776499,-0.784986362457275,1.71171222610474,-0.5342841379165639
0.0284675953967293,-1.7310190773010299,1.39796466751099,0.876382365989686
0.0290732889158086,-1.48912210464478,-3.4806901176452603,-0.9510175363540639
0.0296789824348879,3.01830465316772,-1.34193767623901,-1.25518501682281
0.0302846759539673,1.01606832504272,0.643533515167236,0.5434746511459361
0.0308903694730466,0.884342250823975,2.8158162300109897,-0.182216266822814
0.031496062992126,1.06396871566772,1.30695392532349,0.457253948020936
0.0321017565112053,-0.174256381988525,-1.86644695358276,-0.282807087135314
0.0327074500302847,-0.7586411476135251,-0.187538262176514,0.9410478933334361
0.033313143549364,-4.39428079605103,1.95360919876099,-0.29478218479156404
0.0339188370684434,-2.80877786636353,-1.61496990280151,0.150691448020936
0.0345245305875227,2.01479146957397,-3.43278972702026,-1.32703560276031
0.0351302241066021,2.40278463363647,-0.0845524223327637,-0.9534125558853139
0.0357359176256814,1.7417592430114701,3.1056135932922397,0.656040569114686
0.0363416111447607,1.21006490707397,2.16197589797974,-0.687565387916564
0.0369473046638401,0.283192348480225,-2.5370524223327604,1.2524004323959401
0.0375529981829194,-1.9106455421447799,-0.702467461395264,-0.481593708229064
0.0381586917019988,-3.96317728042603,1.38838458938599,1.68829398708344
0.0387643852210781,-2.21481302261353,0.6698787300109861,0.0309404714584355
0.0393700787401575,1.37053121566772,-2.2376749809265104,-1.37972603244781
0.0399757722592368,4.24455465316772,-2.8987003715515103,-0.6564301340103139
0.0405814657783162,2.02916158676147,1.86259845657349,-0.9126972238540639
0.0411871592973955,-1.55857767105103,3.95584552688599,1.1326494558334401
0.0417928528164749,-0.054505405426025395,0.111839179229736,0.9051226003646861
0.0423985463355542,-1.16818948745728,-2.51549724655151,2.08826224880219
0.0430042398546336,-1.99447122573853,1.38598956985474,-1.13064400119781
0.0436099333737129,-1.7310190773010299,-0.010306816864013699,0.289602580833436
0.0442156268927922,-0.155096225738525,-3.4519498832702604,-0.666010212135314
0.0448213204118716,5.05167623519897,-0.793478203582764,-2.4862250558853103
0.0454270139309509,0.750221157073975,1.40514972610474,2.6894121511459397
0.0460327074500303,-0.950242710113525,4.87553302688599,-0.783366169166564
0.0466384009691096,1.02564840316772,-0.752762871551514,0.945837932395936
0.047244094488189,-0.624520053863525,-2.72146892623901,0.177036662864686
0.0478497880072683,-0.6197300148010251,2.10210040969849,-0.29478218479156404
0.0484554815263477,-2.62915140151978,0.715384101104736,0.9410478933334361
0.049061175045427,-2.18607278823853,-3.00408123092651,-1.25278999729156
0.0496668685645064,3.11889547348022,-2.7957145317077603,-0.40495308322906404
0.0502725620835857,1.11905416488647,1.03392169876099,-0.22532661838531398
0.050878255602665,0.5969399070739749,3.69239337844849,0.327922893333436
0.0514839491217444,1.9764711570739701,1.95360919876099,0.435698772239686
0.0520896426408237,-0.282032260894775,-2.2400700004577603,0.160271526145936
0.0526953361599031,-0.763431186676025,0.28188556594848596,-0.206166462135314
0.0533010296789824,-4.77748392105103,1.36443439407349,0.888357463645936
0.0539067231980618,-3.12013040542603,-0.901254082489014,-0.0576752511978145
0.0545124167171411,1.9980263328552201,-3.45913494186401,-1.00610298557281
0.0551181102362205,3.12368551254272,-0.49649578170776404,-0.8336615793228139
0.0557238037552998,2.16567770004272,3.63491290969849,-0.206166462135314
0.0563294972743792,1.01606832504272,1.84583331985474,0.495574260520936
0.0569351907934585,0.5418544578552249,-1.93829753952026,0.426118694114686
0.0575408843125379,-2.24834329605103,-1.20063152389526,0.0213603933334355
0.0581465778316172,-3.83863626480103,1.25186847610474,1.08474906520844
0.0587522713506965,-3.01953958511353,0.523782538604736,-0.32591743869781403
0.0593579648697759,1.35855611801147,-2.1610343559265104,-1.49947700901031
0.0599636583888552,5.24327779769897,-2.7358390434265103,-1.23123482151031
0.0605693519079346,1.95252096176147,1.50334552688599,0.14350638942718602
0.0611750454270139,-1.32626077651978,4.643216132354739,0.936257854270936
0.0617807389460933,-0.624520053863525,-0.209093437957764,1.39131156520844
0.0623864324651726,-1.5010972023010298,-2.21851482467651,0.945837932395936
0.062992125984252,-1.96573099136353,0.7105940620422361,-0.941437458229064
0.0635978195033313,-1.5010972023010298,-0.249808769989014,-0.177426227760314
0.0642035130224107,0.08680074691772459,-2.30473552780151,-1.28153023166656
0.06480920654149,4.83133443832397,-2.04128337936401,-0.6564301340103139
0.0654149000605694,1.27712545394897,2.1044954292297398,0.440488811302186
0.0660205935796487,-1.58252786636353,4.46837970657349,-0.045700153541564495
0.066626287098728,0.723875942230225,-0.8844889457702639,1.59488822536469
0.0672319806178074,-0.286822299957275,-2.51789226608276,-0.625294880104064
0.0678376741368867,-0.6580503273010251,1.35485431594849,0.18422172145843602
0.0684433676559661,-2.58125101089478,1.61830646438599,0.107581096458436
0.0690490611750454,-1.9801011085510298,-3.6076261528015103,-0.371422809791564
0.0696547546941248,3.76315572738647,-2.53226238327026,-1.0611884347915599
0.0702604482132041,1.10228902816772,1.38838458938599,0.33271293239593597
0.0708661417322835,0.177811489105225,3.35230060501099,1.44879203395844
0.0714718352513628,2.20639303207397,2.0613850776672398,-0.131920856666564
0.0720775287704422,-0.334722690582275,-2.48436199264526,0.967393108177186
0.0726832222895215,-0.533509311676025,0.243565253448486,-0.0528852121353145
0.0732889158086008,-4.4326011085510295,1.36682941360474,1.32904105739594
0.0738946093276802,-3.53686380386353,-1.05932537155151,-0.431298298072814
0.0745003028467595,2.3716493797302203,-3.14299236373901,-1.15459419651031
0.0751059963658389,2.90334371566772,-0.970709648895264,-0.134315876197814
0.0757116898849182,1.81121480941772,3.6612581245422398,-0.962992634010314
0.0763173834039976,1.36813619613647,2.1332356636047396,1.30269584255219
0.0769230769230769,-0.0161850929260254,-1.89758220748901,0.28241752223968597
0.0775287704421563,-1.98249612808228,-1.07130046920776,-0.9965229074478139
0.0781344639612356,-3.49375345230103,1.20875812454224,1.8128350027084401
0.078740157480315,-2.94529397964478,0.554917792510986,-0.00737984104156446
0.0793458509993943,1.38729635238647,-1.80896648483276,-1.43241646213531
0.0799515445184737,4.3355653953552205,-3.1453873832702604,-0.644455036354064
0.080557238037553,2.42194478988647,1.63507160110474,-1.28392525119781
0.0811629315566323,-1.41727151870728,4.13547199172974,0.787766643333436
0.0817686250757117,-0.274847202301025,-0.223463555145264,1.71703422145844
0.082374318594791,-0.950242710113525,-1.66526531295776,0.929072795677186
0.0829800121138704,-2.20283792495728,0.5908430854797361,-0.03851509494781449
0.0835857056329497,-1.66874856948853,0.336971015167236,-1.06358345432281
0.0841913991520291,-0.0137900733947754,-2.72386394577026,-0.8168964426040639
0.0847970926711084,5.08281148910522,-1.90955730514526,-0.251671833229064
0.0854027861901878,1.35376607894897,1.99432453079224,0.232122112083436
0.0860084797092671,-1.70706888198853,4.64561115188599,-0.153476032447814
0.0866141732283465,0.6616054344177249,-0.755157891082764,1.87031547145844
0.0872198667474258,-0.025765171051025403,-2.31192058639526,-0.40495308322906404
0.0878255602665051,-0.7778013038635251,0.8734553901672361,0.6440654714584361
0.0884312537855845,-2.80638284683228,1.14169757766724,0.0980010183334355
0.0890369473046638,-1.6807236671447798,-2.9226505668640104,-1.66233833713531
0.0896426408237432,3.27217672348022,-2.38856121139526,-0.476803669166564
0.0902483343428225,0.9801430320739749,0.5884480659484861,0.0836309011459355
0.0908540278619019,0.728665981292725,3.53192706985474,-0.0600702707290645
0.0914597213809812,1.5357875633239702,1.57519611282349,0.747051311302186
0.0920654149000606,0.666395473480225,-1.83531169967651,-0.761810993385314
0.0926711084191399,-0.6580503273010251,-0.0941325004577637,0.229727092552186
0.0932768019382193,-4.47571146011353,1.08661212844849,2.4091948659896896
0.0938824954572986,-3.38118753433228,0.150159491729736,-1.21446968479156
0.094488188976378,1.50465230941772,-4.39558757858276,-0.7570209543228139
0.0950938824954573,3.57155416488647,-0.379139824676514,-1.28392525119781
0.0956995760145366,1.16455953598022,3.65646808547974,-0.352262653541564
0.096305269533616,1.28670553207397,2.3966878120422397,-0.0145648996353145
0.0969109630526953,0.292772426605225,-2.4268815238952604,0.107581096458436
0.0975166565717747,-1.69988382339478,-1.38983806686401,0.00220023708343554
0.098122350090854,-3.74044046401978,1.27821369094849,1.31467094020844
0.0987280436099334,-3.36681741714478,0.844715155792236,-0.34507759494781404
0.0993337371290127,1.41364156723022,-2.24486003952026,-0.6971454660415639
0.0999394306480921,4.9079750633239705,-2.79092449264526,-1.16896431369781
0.100545124167171,2.38601949691772,1.25665851516724,-0.419323200416564
0.101150817686251,-1.58492288589478,3.56306232376099,1.73379935817719
0.10175651120533,-0.08324563980102541,0.727359198760986,0.06686576442718549
0.102362204724409,-1.91304056167603,-2.2233048637390103,1.42484183864594
0.102967898243489,-2.00165628433228,1.00757648391724,-0.984547809791564
0.103573591762568,-1.70227884292603,-0.14682293014526399,0.246492229270936
0.104179285281647,-0.253292026519775,-2.3741910942077604,-1.05400337619781
0.104784978800727,5.14268697738647,-1.91195232467651,-1.47552681369781
0.105390672319806,1.40645650863647,1.58956623001099,1.12546439723969
0.105996365838886,-1.59210794448853,4.93540851516724,0.042915569114685505
0.106602059357965,0.5825697898864749,-0.553976250457764,1.57812308864594
0.107207752877044,-0.0305552101135254,-2.65201335983276,-0.828871540260314
0.107813446396124,-0.514349155426025,0.957281073760986,0.9410478933334361
0.108419139915203,-3.0339097023010297,1.29976886672974,0.526709514427186
0.109024833434282,-1.74299417495728,-2.1346891410827604,-1.65036323947906
0.109630526953362,2.97519430160522,-3.45673992233276,0.12434623317718599
0.110236220472441,1.47830709457397,1.53687580032349,-2.31138863010406
0.11084191399152,0.48916402816772503,3.0217879096984896,0.730286174583436
0.1114476075106,1.42322164535522,1.9009187690734901,0.8428520925521861
0.112053301029679,0.743036098480225,-1.38983806686401,-0.261251911354064
0.112658994548758,-0.9023423194885251,-1.27008709030151,1.28832572536469
0.113264688067838,-3.97754739761353,2.0901253120422396,-0.5079389230728141
0.113870381586917,-3.82187112808228,-1.26769207077026,0.8811724050521861
0.114476075105996,1.6555385398864702,-3.25316326217651,-1.12345894260406
0.115081768625076,2.96800924301147,-1.17907634811401,-0.5726044504165639
0.115687462144155,1.99563131332397,3.5774324409484897,-0.47440864963531404
0.116293155663234,1.00409322738647,2.15479083938599,0.8596172292709361
0.116898849182314,0.036505336761474605,-1.36828289108276,-0.407348102760314
0.117504542701393,-1.6759336280822799,-1.70119060592651,0.7015459402084361
0.118110236220472,-3.97275735855103,1.31892902297974,0.670410686302186
0.118715929739552,-2.51419046401978,1.39556964797974,-1.20488960666656
0.119321623258631,1.0064882469177199,-3.1382023246765103,0.25128226833343603
0.11992731677771,4.89120992660522,-1.8329166801452599,-1.88986519260406
0.12053301029679,2.51295553207397,0.686643866729736,0.634485393333436
0.121138703815869,-0.952637729644775,4.49472492141724,-0.347472614479064
0.121744397334949,-0.262872104644775,-0.07257732467651369,1.7314043386459401
0.122350090854028,-0.844861850738525,-2.0939738090515103,0.397378459739686
0.122955784373107,-2.2722934913635298,0.9309358589172361,-0.670800251197814
0.123561477892187,-1.6208481788635298,0.0854939643859863,0.0213603933334355
0.124167171411266,0.350252895355225,-2.61129802780151,-0.6731952707290639
0.124772864930345,4.42418111801147,-2.12510906295776,-0.946227497291564
0.125378558449425,1.25557027816772,1.93684406204224,-0.998917926979064
0.125984251968504,-1.38853128433228,3.9965608589172397,1.37454642848969
0.126589945487583,0.376598110198975,0.195664862823486,0.991343303489686
0.127195639006663,-0.140726108551025,-2.55142253952026,-0.7929462472915639
0.127801332525742,-0.8161216163635251,0.765679511260986,0.612930217552186
0.128407026044821,-2.43036478042603,1.10337726516724,0.797346721458436
0.129012719563901,-1.66156351089478,-2.61129802780151,-1.61922798557281
0.12961841308298,2.84107320785522,-2.7454191215515102,-1.07076851291656
0.130224106602059,1.77289449691772,0.5142024604797361,1.16378470973969
0.130829800121139,0.357437953948975,3.2421297065734898,-0.0169599191665645
0.131435493640218,2.16567770004272,2.04461994094849,1.20210502223969
0.132041187159297,0.5825697898864749,-1.78022625045776,0.5650298269271861
0.132646880678377,-0.907132358551025,-0.539606133270264,-0.479198688697814
0.133252574197456,-3.97275735855103,1.52729572219849,0.6823857839584361
0.133858267716535,-3.95120218276978,-0.613851738739014,-0.570209430885314
0.134463961235615,1.65074850082397,-4.012384453582761,-0.46482857151031404
0.135069654754694,3.11889547348022,-0.558766289520264,-1.90184029026031
0.135675348273773,1.8351650047302202,3.11040363235474,0.747051311302186
0.136281041792853,1.49986227035522,2.29130695266724,0.718311076927186
0.136886735311932,0.431683559417725,-1.22458171920776,-0.639664997291564
0.137492428831012,-1.62324319839478,-1.92392742233276,0.315947795677186
0.138098122350091,-3.95359720230103,1.37880451126099,0.296787639427186
0.13870381586917,-2.95008401870728,0.595633124542236,0.7614214284896861
0.13930950938825,0.788541469573975,-1.82573162155151,-1.98806099338531
0.139915202907329,4.60620260238647,-2.7933195121765104,-1.23602486057281
0.140520896426408,2.50098043441772,0.43277179641723595,-0.0912055246353145
0.141126589945488,-1.06999368667603,4.68872150344849,-0.282807087135314
0.141732283464567,-1.05801858901978,0.109444159698486,2.07149711208344
0.142337976983646,-0.464053745269775,-1.67724041061401,0.0644707448959355
0.142943670502726,-2.1788877296447797,-0.32644939498901404,0.8428520925521861
0.143549364021805,-1.84358499526978,0.9285408393859861,-1.24320991916656
0.144155057540884,-0.0209751319885254,-2.56100261764526,-0.627689899635314
0.144760751059964,4.63015279769897,-2.5226823051452603,-0.402558063697814
0.145366444579043,1.83276998519897,2.3631575386047396,-0.148685993385314
0.145972138098122,-2.00884134292603,3.9438704292297397,0.9410478933334361
0.146577831617202,1.00169820785522,0.502227362823486,0.042915569114685505
0.147183525136281,-0.10959085464477501,-3.05437664108276,1.03924369411469
0.14778921865536,-0.5622495460510251,1.41233478469849,-0.529494098854064
0.14839491217444,-2.70339700698853,1.26384357376099,0.320737834739686
0.149000605693519,-1.8986704444885298,-2.14187419967651,-1.35098579807281
0.149606299212598,2.42912984848022,-3.41362957077026,0.258467326927186
0.150211992731678,1.95012594223022,0.425586737823486,-0.11276070041656401
0.150817686250757,0.19218160629272502,3.91513019485474,-0.560629352760314
0.151423379769836,1.49028219223022,1.31653400344849,2.0116216238021902
0.152029073288916,0.6424452781677249,-0.800663262176514,-1.08992866916656
0.152634766807995,-0.947847690582275,-1.54551433639526,1.50148246364594
0.153240460327075,-3.78594583511353,2.05180499954224,-1.07076851291656
0.153846153846154,-3.98712747573853,0.126209296417236,-0.6971454660415639
0.154451847365233,1.28910055160522,-4.43869793014526,0.435698772239686
0.155057540884313,3.50209859848022,-0.371954766082764,-2.1964276926040602
0.155663234403392,1.4375917625427201,2.57870929641724,0.7207060964584361
0.156268927922471,1.46154195785522,2.9595174018859898,-0.888747028541564
0.156874621441551,0.5801747703552249,-2.10834392623901,1.16378470973969
0.15748031496063,-2.01123636245728,-1.69640056686401,-0.16545113010406398
0.158086008479709,-3.66619485855103,1.42909992141724,0.7039409597396861
0.158691701998789,-3.19198099136353,0.38966144485473597,0.9051226003646861
0.159297395517868,0.905897426605225,-1.75627605514526,-1.76053413791656
0.159903089036947,4.47926656723022,-2.59453289108276,-1.40367622776031
0.160508782556027,2.64228658676147,0.375291327667236,-0.258856891822814
0.161114476075106,-0.9406626319885251,4.46837970657349,0.8021367605209361
0.161720169594185,-0.590989780426025,0.6914339057922361,1.39131156520844
0.162325863113265,-0.9406626319885251,-2.04846843795776,0.23451713161468601
0.162931556632344,-1.73820413589478,0.267515448760986,0.500364299583436
0.163537250151423,-1.99447122573853,-0.185143242645264,0.557844768333436
0.164142943670503,-0.191021518707275,-1.38504802780151,-1.99764107151031
0.164748637189582,4.08648336410522,-3.22921306686401,0.246492229270936
0.165354330708661,2.71653219223022,2.1212605659484898,-0.543864216041564
0.165960024227741,-1.72862405776978,4.2648030464172395,0.816506877708436
0.16656571774682,0.290377407073975,0.0375935737609863,1.09911918239594
0.167171411265899,0.671185512542725,-2.08918376998901,-0.6731952707290639
0.167777104784979,-1.34302591323853,0.202849921417236,0.914702678489686
0.168382798304058,-2.00165628433228,2.5595491401672397,-1.04202827854156
0.168988491823137,-2.1357773780822797,-2.39095623092651,-0.42411323947906404
0.169594185342217,2.86741842269897,-3.3154337699890104,-0.32591743869781403
0.170199878861296,2.3381191062927202,0.7081990425109861,-0.946227497291564
0.170805572380376,-0.392203159332275,3.2708699409484896,0.612930217552186
0.171411265899455,2.03395162582397,2.19550617141724,1.53022269802094
0.172016959418534,0.283192348480225,-1.46647869186401,-0.36663277072906403
0.172622652937614,-0.852046909332275,-0.8677238090515139,-0.747440876197814
0.173228346456693,-3.39555765151978,0.875850409698486,1.41765678005219
0.173834039975772,-3.7955259132385297,-0.218673516082764,-0.222931598854064
0.174439733494852,0.8747621726989749,-2.63045818405151,0.315947795677186
0.175045427013931,2.86262838363647,-0.810243340301514,-1.29111030979156
0.17565112053301,2.86741842269897,2.1835310737609896,-1.28153023166656
0.17625681405209,0.9609828758239749,2.23143146438599,0.766211467552186
0.176862507571169,-0.10240579605102501,-0.7431827934265139,-0.357052692604064
0.177468201090248,-1.00053812026978,-2.2975504692077604,1.46555717067719
0.178073894609328,-4.04939798355103,1.51053058547974,0.25128226833343603
0.178679588128407,-2.62436136245728,-0.793478203582764,0.0261504323959355
0.179285281647486,1.0567836570739702,-0.189933281707764,-0.7354657785415639
0.179890975166566,2.65665670394897,-1.83531169967651,0.371033244895936
0.180496668685645,5.1474770164489705,0.32260089797973596,-2.63711128635406
0.181102362204724,-1.15142435073853,2.3535774604797397,2.55529105739594
0.181708055723804,-2.04476663589478,1.70931720657349,0.447673869895936
0.182313749242883,-0.0113950538635254,-1.51916912155151,0.050100627708435506
0.182919442761962,-3.30454690933228,-0.060602227020263695,1.63081351833344
0.183525136281042,-0.931082553863525,1.93684406204224,-1.65515327854156
0.184130829800121,-0.15270120620727498,-4.364452324676511,0.6009551198959361
0.1847365233192,3.31768209457397,-1.26050701217651,-2.4431147043228103
0.18534221683828,3.62663961410522,1.58717121047974,0.390193401145936
0.185947910357359,-1.15142435073853,4.06362140579224,0.790161662864686
0.186553603876439,-0.9358725929260251,0.387266425323486,1.00571342067719
0.187159297395518,-0.0353452491760254,-3.1214371879577603,-0.6540351144790639
0.187764990914597,-0.830491733551025,0.202849921417236,0.732681194114686
0.188370684433677,-1.46277688980103,2.36794757766724,0.196196819114686
0.188976377952756,-1.72622903823853,-2.1466642387390102,-0.917487262916564
0.189582071471835,1.75612936019897,-2.54184246139526,-0.340287555885314
0.190187764990915,2.14651754379272,0.26033039016723597,-0.146290973854064
0.190793458509994,0.44844869613647503,2.3607625190734898,-0.42411323947906404
0.191399152029073,1.0783388328552201,2.04222492141724,1.29790580348969
0.192004845548153,0.170626430511475,-1.09046062545776,-0.785761188697814
0.192610539067232,-0.250897006988525,-0.556371269989014,0.945837932395936
0.193216232586311,-2.83512308120728,1.85301837844849,0.773396526145936
0.193821926105391,-3.9488071632385298,-0.362374687957764,-1.03723823947906
0.19442761962447,0.474793910980225,-3.9261637504577602,-0.0672553293228145
0.195033313143549,2.87939352035522,-0.0438370903015137,-2.56526070041656
0.195639006662629,2.36206930160522,2.7391756050109897,1.88468558864594
0.196244700181708,1.35855611801147,3.0888484565734897,-0.30436226291656404
0.196850393700787,0.285587368011475,-2.38856121139526,0.155481487083436
0.197456087219867,-1.18495462417603,-1.96943279342651,0.306367717552186
0.198061780738946,-3.56799905776978,2.20508624954224,0.7231011159896861
0.198667474258025,-2.81356790542603,0.43037677688598597,1.14941459255219
0.199273167777105,-0.0113950538635254,-2.1203190238952603,-2.5005951730728104
0.199878861296184,4.6349428367614705,-3.33938396530151,-0.661220173072814
0.200484554815263,2.99435445785522,1.14409259719849,-0.378607868385314
0.201090248334343,-1.24483011245728,3.7977742378234898,1.36975638942719
0.201695941853422,-0.0736655616760254,1.15606769485474,-0.009774860572814459
0.202301635372502,-1.03167337417603,-1.77543621139526,0.047705608177185506
0.202907328891581,-1.50828226089478,0.308230780792236,1.04642875270844
0.20351302241066,-1.78849954605103,0.26033039016723597,-0.0528852121353145
0.20411871592974,-0.583804721832275,-1.74430095748901,-1.90902534885406
0.204724409448819,3.60987447738647,-2.9058854301452604,-0.768996051979064
0.205330102967898,2.91292379379272,1.17522785110474,1.42005179958344
0.205935796486978,-1.31907571792603,5.06473956985474,0.315947795677186
0.206541490006057,0.019740200042724598,0.0112483589172363,0.526709514427186
0.207147183525136,0.355042934417725,-2.87714519577026,0.00938529567718554
0.207752877044216,-0.626915073394775,0.444746894073486,0.48359916286468596
0.208358570563295,-2.18367776870728,2.0901253120422396,-0.400163044166564
0.208964264082374,-2.49024026870728,-2.0604435356140103,-1.31027046604156
0.209569957601454,2.77880270004272,-3.97885418014526,-0.321127399635314
0.210175651120533,2.37643941879272,0.8087898628234861,-0.148685993385314
0.210781344639612,0.038900356292724605,3.56306232376099,1.16617972927094
0.211387038158692,2.1153822898864703,2.4038728706359898,0.102791057395936
0.211992731677771,0.453238735198975,-1.66287029342651,-0.187006305885314
0.21259842519685,-1.1969297218322799,-1.15033611373901,0.29199760036468597
0.21320411871593,-3.28778177261353,1.63507160110474,0.0309404714584355
0.213809812235009,-5.07925638198853,-0.0989225395202637,-0.522309040260314
0.214415505754088,1.24359518051147,-3.2220280082702604,-0.687565387916564
0.215021199273168,3.48533346176147,-1.78980632858276,0.145901408958436
0.215626892792247,2.00760641098022,3.6876033393859897,-1.11866890354156
0.216232586311326,1.69146383285522,2.68169513626099,0.258467326927186
0.216838279830406,0.266427211761475,-1.42097332077026,0.6201152761459361
0.217443973349485,-1.44361673355103,-1.93829753952026,0.677595744895936
0.218049666868565,-3.77876077651978,1.06026691360474,0.5602397878646861
0.218655360387644,-3.06743997573853,1.26384357376099,0.246492229270936
0.219261053906723,0.38857320785522503,-1.84968181686401,-0.768996051979064
0.219866747425803,4.69242330551147,-3.04958660202026,-1.59048775119781
0.220472440944882,3.11410543441772,0.447141913604736,-0.369027790260314
0.221078134463961,-1.03167337417603,4.53304523391724,-0.0145648996353145
0.221683827983041,-0.413758335113525,0.466302069854736,1.71942924098969
0.22228952150212,-0.708345737457275,-2.16821941452026,1.69068900661469
0.222895215021199,-2.46868509292603,-0.036652031707763696,-0.251671833229064
0.223500908540279,-1.75975931167603,0.744124335479736,-0.982152790260314
0.224106602059358,0.0269252586364746,-2.10834392623901,-0.227721637916564
0.224712295578437,4.33796041488647,-2.77176433639526,-0.606134723854064
0.225317989097517,2.76443258285522,1.7212923042297401,-0.560629352760314
0.225923682616596,-1.7956846046447799,4.23366779251099,0.931467815208436
0.226529376135675,0.458028774261475,0.542942694854736,0.828481975364686
0.227135069654755,-0.025765171051025403,-3.08072185592651,-0.0840204660415645
0.227740763173834,-0.8352817726135251,0.641138495635986,0.299182658958436
0.228346456692913,-1.82442483901978,1.88894367141724,0.040520549583435504
0.228952150211993,-2.32498392105103,-1.92392742233276,-1.40846626682281
0.229557843731072,2.7907777976989703,-4.0842350395202605,0.512339397239686
0.230163537250151,2.40278463363647,0.677063788604736,-0.768996051979064
0.230769230769231,-0.763431186676025,3.1654890815734897,0.969788127708436
0.23137492428831,2.02437154769897,2.00629962844849,0.8596172292709361
0.231980617807389,0.812491664886475,-1.10962078170776,-1.00610298557281
0.232586311326469,-0.425733432769775,-1.19823650436401,0.8835674245834361
0.233192004845548,-3.04827981948853,1.88175861282349,-0.11994575901031401
0.233797698364627,-4.89962991714478,-0.302499199676514,0.109976115989686
0.234403391883707,1.13581930160522,-3.0591666801452604,-1.53300728244781
0.235009085402786,3.02548971176147,-1.84249675827026,-0.666010212135314
0.235614778921866,1.72978414535522,3.10082355422974,-0.139105915260314
0.236220472440945,1.18611471176147,2.8062361518859897,-0.124735798072814
0.236826165960024,0.951402797698975,-1.33954265670776,0.699150920677186
0.237431859479104,-1.36218606948853,-2.0843937309265104,0.567424846458436
0.238037552998183,-4.15477884292603,1.17283283157349,0.735076213645936
0.238643246517262,-3.0770200538635297,1.31174396438599,-0.24448677463531399
0.239248940036342,0.383783168792725,-1.39702312545776,-1.31506050510406
0.239854633555421,4.57027730941772,-3.1645475395202602,-0.431298298072814
0.2404603270745,3.06860006332397,0.595633124542236,-1.69826363010406
0.24106602059358,-1.2520151710510299,3.95824054641724,0.866802287864686
0.241671714112659,-0.059295444488525396,0.981231269073486,1.87750053005219
0.242277407631738,-0.7562461280822751,-1.62454998092651,0.5243144948959361
0.242883101150818,-2.41359964370728,-0.125267754364014,0.45246390895843597
0.243488794669897,-1.44601175308228,0.6315584175109861,-0.8528217355728139
0.244094488188976,-0.44968362808227497,-1.91913738327026,-0.903117145729064
0.244700181708056,3.64579977035522,-2.76457927780151,-0.699540485572814
0.245305875227135,2.92489889144897,1.24947345657349,0.165061565208436
0.245911568746214,-1.42685159683228,4.97133380813599,0.6057451589584361
0.246517262265294,-0.188626499176025,0.427981757354736,1.03924369411469
0.247122955784373,0.5993349266052249,-2.6831486137390104,-0.10078560276031401
0.247728649303452,-1.06520364761353,0.744124335479736,0.459648967552186
0.248334342822532,-2.34893411636353,1.75003253860474,0.450068889427186
0.248940036341611,-2.12619729995728,-1.50240398483276,-1.68868355197906
0.24954572986069,1.9381508445739701,-4.06746990280151,0.397378459739686
0.25015142337977,2.86741842269897,0.607608222198486,-0.622899860572814
0.250757116898849,-0.511954135894775,2.96430744094849,0.35187308864593597
0.251362810417929,1.97886617660522,2.4038728706359898,0.7254961355209361
0.251968503937008,0.6616054344177249,-1.01861003952026,0.280022502708436
0.252574197456087,-0.768221225738525,-1.2724821098327599,0.809321819114686
0.253179890975167,-3.13450052261353,1.83146320266724,-0.419323200416564
0.253785584494246,-4.87567972183228,-0.537211113739014,0.246492229270936
0.254391278013325,1.12863424301147,-3.01366130905151,-1.15459419651031
0.254996971532405,3.01830465316772,-1.80417644577026,-1.22883980197906
0.255602665051484,2.42912984848022,3.22296955032349,-0.299572223854064
0.256208358570563,1.43998678207397,2.5523640815734896,1.03205863552094
0.256814052089643,0.745431118011475,-1.50479900436401,0.25128226833343603
0.257419745608722,-1.41727151870728,-1.74430095748901,0.12913627223968602
0.258025439127801,-4.18591409683228,1.18959796829224,0.596165080833436
0.258631132646881,-2.99558938980103,1.07463703079224,0.311157756614686
0.25923682616596,0.297562465667725,-2.1179240043640104,-0.29478218479156404
0.259842519685039,4.39304586410522,-2.3598209770202603,-1.33901070041656
0.260448213204119,3.21469625473022,0.0447786323547363,-0.222931598854064
0.261053906723198,-1.02209329605103,4.09236164016724,0.160271526145936
0.261659600242277,-0.466448764801025,1.28539874954224,1.22845023708344
0.262265293761357,-1.28794046401978,-2.32868572311401,0.9410478933334361
0.262870987280436,-2.00405130386353,0.059148749542236305,-0.21574654026031398
0.263476680799515,-1.88190530776978,0.46151203079223596,-0.36663277072906403
0.264082374318595,-0.155096225738525,-1.58862468795776,-0.737860798072814
0.264688067837674,3.68412008285522,-3.12622722702026,-0.32591743869781403
0.265293761356753,2.95603414535522,1.48418537063599,-0.661220173072814
0.265899454875833,-1.44840677261353,4.10912677688599,1.84397025661469
0.266505148394912,-0.461658725738525,1.06984699172974,0.208171916770936
0.267110841913992,0.5993349266052249,-2.90349041061401,0.38300834255218597
0.267716535433071,-1.07957376480103,0.284280585479736,-0.0600702707290645
0.26832222895215,-1.79328958511353,2.5954744331359896,-0.627689899635314
0.26892792247123,-2.49263528823853,-2.7334440238952604,0.25128226833343603
0.269533615990309,2.03634664535522,-3.0926969535827604,-1.53061226291656
0.270139309509388,2.62791646957397,-0.11089763717651399,0.49317924098968596
0.270745003028468,-0.394598178863525,2.9882576362609896,0.5626348073959361
0.271350696547547,1.58129293441772,2.7727058784484897,-0.10557564182281401
0.271956390066626,0.7621962547302249,-1.46168865280151,-0.519914020729064
0.272562083585706,-0.6987656593322751,-1.02819011764526,0.169851604270936
0.273167777104785,-3.25904153823853,1.1225374214172401,0.9194927175521861
0.273773470623864,-3.96796731948853,0.701013983917236,-0.189401325416564
0.274379164142944,0.5346693992614749,-3.5836759574890102,-0.282807087135314
0.274984857662023,3.20511617660522,-1.61017986373901,-1.58330269260406
0.275590551181102,2.43631490707397,2.7391756050109897,0.270442424583436
0.276196244700182,0.8747621726989749,2.90682697219849,0.07165580348968549
0.276801938219261,0.8340468406677249,-0.918019219207764,0.25128226833343603
0.27740763173834,-1.53223245620728,-2.16821941452026,0.533894573020936
0.27801332525742,-3.8889316749572798,1.31892902297974,0.397378459739686
0.278619018776499,-3.22072122573853,0.806394843292236,0.569819865989686
0.279224712295578,0.129911098480225,-1.32277751998901,-1.04681831760406
0.279830405814658,4.13917379379272,-2.7166788871765104,-1.30308540744781
0.280436099333737,3.23864645004272,-0.127662773895264,-0.778576130104064
0.281041792852816,-1.01251321792603,4.41568927688599,0.6823857839584361
0.281647486371896,-0.574224643707275,1.16804279251099,1.35778129177094
0.282253179890975,-0.931082553863525,-2.01014812545776,1.05600883083344
0.282858873410055,-1.8603501319885298,-0.0438370903015137,1.00331840114594
0.283464566929134,-1.66156351089478,0.12381427688598601,-0.800131305885314
0.284070260448213,-0.202996616363525,-1.13117595748901,-2.39521431369781
0.284675953967293,3.21469625473022,-3.5477506645202603,0.9793682058334361
0.285281647486372,3.58113424301147,1.46502521438599,-0.22053657932281398
0.285887341005451,-1.80526468276978,4.37257892532349,0.909912639427186
0.286493034524531,-0.296402378082275,0.914170722198486,0.165061565208436
0.28709872804361,1.1382143211364701,-2.5633976371765104,-0.318732380104064
0.287704421562689,-1.45559183120728,0.061543769073486305,0.787766643333436
0.288310115081769,-1.3334458351135299,2.4757234565734896,-0.47440864963531404
0.288915808600848,-2.98840433120728,-2.1873795707702604,-0.337892536354064
0.289521502119927,2.06748189926147,-3.09030193405151,-0.848031696510314
0.290127195639007,2.70934713363647,-0.441410332489014,0.481204143333436
0.290732889158086,-0.416153354644775,2.8828767768859898,0.153086467552186
0.291338582677165,1.9812611961364701,3.0026277534484898,0.35426810817718596
0.291944276196245,0.968167934417725,-1.5934147270202599,0.567424846458436
0.292549969715324,-0.564644565582275,-0.779108086395264,0.141111369895936
0.293155663234403,-2.88541849136353,1.63028156204224,0.440488811302186
0.293761356753483,-4.8517295265197795,-0.391114922332764,-0.0696503488540645
0.294367050272562,0.587359828948975,-2.7957145317077603,-1.17614937229156
0.294972743791641,3.36318746566772,-2.0772086723327603,-1.37972603244781
0.295578437310721,1.8399550437927201,2.6960652534484897,-0.227721637916564
0.2961841308298,1.43998678207397,3.3882258979797397,0.488389201927186
0.296789824348879,0.5179042625427249,-1.6317350395202599,0.6225102956771861
0.297395517867959,-1.48672708511353,-1.91913738327026,0.27283744411468597
0.298001211387038,-3.82666116714478,0.957281073760986,0.8045317800521861
0.298606904906118,-3.26143655776978,1.20875812454224,0.00220023708343554
0.299212598425197,0.101170864105225,-1.58622966842651,-0.390582966041564
0.299818291944276,4.3092201805114705,-2.8555900199890103,-1.94016060276031
0.300423985463356,3.3296571922302203,-0.352794609832764,-0.6372699777603139
0.301029678982435,-0.586199741363525,4.3845540229797395,0.7231011159896861
0.301635372501514,-0.8209116554260251,1.47221027297974,0.768606487083436
0.302241066020594,-0.773011264801025,-2.28557537155151,1.35778129177094
0.302846759539673,-1.96812601089478,0.0759138862609863,-0.297177204322814
0.303452453058752,-1.8507700538635299,0.475882147979736,-0.040910114479064494
0.304058146577832,-0.447288608551025,-1.27966716842651,-0.48398872776031404
0.304663840096911,3.22427633285522,-3.27950847702026,-1.17614937229156
0.30526953361599,3.72483541488647,1.41712482376099,-0.232511676979064
0.30587522713507,-2.02800149917603,3.95105548782349,1.71942924098969
0.306480920654149,0.285587368011475,1.2806087104797401,0.100396037864686
0.307086614173228,0.264032192230225,-2.5969279106140104,-0.16545113010406398
0.307692307692308,-1.2017197608947798,0.26272540969848596,-0.210956501197814
0.308298001211387,-1.24483011245728,1.95121417922974,1.02966361598969
0.308903694730466,-2.51419046401978,-1.55988445358276,-0.9965229074478139
0.309509388249546,2.00521139144897,-3.38249431686401,-0.567814411354064
0.310115081768625,2.55606588363647,-0.10610759811401399,0.268047405052186
0.310720775287704,-0.10719583511352501,3.3020051948547398,0.826086955833436
0.311326468806784,1.77289449691772,2.2505916206359897,1.3721514089584401
0.311932162325863,1.00888326644897,-0.860538750457764,-0.565419391822814
0.312537855844942,-0.612544956207275,-1.61736492233276,1.46316215114594
0.313143549364022,-2.79201272964478,1.96558429641724,-0.649245075416564
0.313749242883101,-5.11757669448853,-0.290524102020264,0.356663127708436
0.31435493640218,0.9753529930114749,-2.4340665824890104,-1.2408148996353099
0.31496062992126,2.98477437973022,-2.14187419967651,-0.299572223854064
0.315566323440339,1.86869527816772,2.3104671089172397,0.042915569114685505
0.316172016959419,1.54536764144897,3.86483478469849,-1.4204413644790599
0.316777710478498,0.307142543792725,-1.71795574264526,1.74098441677094
0.317383403997577,-0.832886753082275,-1.88081707077026,-0.45285347385406405
0.317989097516657,-4.04460794448853,1.17043781204224,-0.124735798072814
0.318594791035736,-3.35484231948853,0.6914339057922361,1.61644340114594
0.319200484554815,0.14188619613647502,-1.01861003952026,-1.56414253635406
0.319806178073895,4.08887838363647,-3.0016862113952603,-1.35577583713531
0.320411871592974,3.75118062973022,-0.38632488327026404,-0.6516400949478139
0.321017565112053,-0.8400718116760251,4.20732257766724,0.23451713161468601
0.321623258631133,-0.6364951515197751,1.53687580032349,1.22366019802094
0.322228952150212,-0.590989780426025,-2.29515544967651,0.6632256277084361
0.322834645669291,-2.32019388198853,-0.165983086395264,0.931467815208436
0.323440339188371,-1.30231058120728,0.5932381050109861,-0.196586384010314
0.32404603270745,-0.193416538238525,-1.97182781295776,-1.27913521213531
0.324651726226529,3.36797750473022,-2.62806316452026,-1.05160835666656
0.325257419745609,3.3727675437927203,0.636348456573486,-0.045700153541564495
0.325863113264688,-1.7789194679260298,4.20971759719849,0.850037151145936
0.326468806783767,-0.200601596832275,1.3620393745422401,0.929072795677186
0.327074500302847,0.414918422698975,-2.56100261764526,0.26565238552093595
0.327680193821926,-1.08675882339478,0.32260089797973596,-0.0840204660415645
0.328285887341005,-1.65198343276978,2.21945636672974,0.512339397239686
0.328891580860085,-2.28187356948853,-1.67245037155151,-0.467223591041564
0.329497274379164,1.77049947738647,-3.8135978324890103,-0.579789509010314
0.330102967898244,2.90094869613647,0.0304085151672363,-1.28153023166656
0.330708661417323,-0.202996616363525,2.1140755073547397,1.76732963161469
0.331314354936402,1.63158834457397,3.6373079292297397,-0.0121698801040645
0.331920048455482,0.9537978172302249,-0.9635245903015139,-0.639664997291564
0.332525741974561,-0.236526889801025,-2.21611980514526,1.6715288503646901
0.33313143549364,-2.90218362808228,2.4829085151672396,-0.948622516822814
0.33373712901272,-5.32833841323853,-0.8461686332702639,0.651250530052186
0.334342822531799,0.810096645355225,-2.44125164108276,-1.45157661838531
0.334948516050878,2.82430807113647,-2.1035538871765103,-0.519914020729064
0.335554209569958,2.4914003562927203,2.4302180854797397,-0.689960407447814
0.336159903089037,1.51183736801147,2.8685066596984896,0.38540336208343595
0.336765596608116,0.5825697898864749,-0.7886881645202639,0.691965862083436
0.337371290127196,-0.713135776519775,-2.21851482467651,-0.11515571994781401
0.337976983646275,-3.91288187026978,0.981231269073486,0.569819865989686
0.338582677165354,-3.99431253433228,1.6015413276672401,0.227332073020936
0.339188370684434,0.105960903167725,-1.79699138717651,-1.27674019260406
0.339794064203513,4.19186422348022,-2.4963370903015103,-1.59527779026031
0.340399757722592,3.96912740707397,-0.254598809051514,-0.11515571994781401
0.341005451241672,-0.610149936676025,4.38694904251099,0.0620757253646855
0.341611144760751,-0.9741929054260251,1.71889728469849,2.16250785427094
0.34221683827983,-0.248501987457275,-2.1011588676452604,1.36736136989594
0.34282253179891,-2.33695901870728,-0.692887383270264,0.5099443777084359
0.343428225317989,-1.88430032730103,1.35724933547974,-1.31027046604156
0.344033918837068,-0.9957480812072751,-1.88081707077026,-1.21446968479156
0.344639612356148,3.54999898910522,-2.89151531295776,-0.129525837135314
0.345245305875227,3.5955043601989702,0.32020587844848597,0.0932109792709355
0.345850999394306,-1.84837503433228,4.02051105422974,0.100396037864686
0.346456692913386,-0.346697788238525,1.91049884719849,0.627300334739686
0.347062386432465,0.5825697898864749,-3.0687467582702603,0.629695354270936
0.347668079951545,-0.643680210113525,0.0663338081359863,-0.18461128635406399
0.348273773470624,-1.58971292495728,2.5260188667297396,0.514734416770936
0.348879466989703,-2.92852884292603,-1.91674236373901,-0.5917646066665639
0.349485160508783,2.08424703598022,-3.35375408248901,-0.998917926979064
0.350090854027862,2.94884908676147,0.032803534698486306,-0.048095173072814495
0.350696547546941,-0.6005698585510251,2.4493782417297396,0.35187308864593597
0.351302241066021,1.5405776023864701,3.35230060501099,-0.31394234104156404
0.3519079345851,0.812491664886475,-1.67484539108276,0.929072795677186
0.352513628104179,0.20176168441772502,-1.14315105514526,0.186616740989686
0.353119321623259,-2.95966409683228,1.70931720657349,-0.268436969947814
0.353725015142338,-4.87807474136353,0.267515448760986,0.7398662527084361
0.354330708661417,0.345462856292725,-2.8819352348327603,-0.6755902902603139
0.354936402180497,2.95842916488647,-1.86165691452026,-1.24799995822906
0.355542095699576,2.16088766098022,2.4565633003234897,0.24409720973968602
0.356147789218655,1.05199361801147,3.25649982376099,0.07644584255218549
0.356753482737735,0.7789613914489749,-0.975499687957764,0.617720256614686
0.357359176256814,-0.665235385894775,-2.28797039108276,0.102791057395936
0.357964869775893,-3.65900979995728,1.44347003860474,-0.42650825901031403
0.358570563294973,-3.73086038589478,1.0027864448547401,1.59249320583344
0.359176256814052,0.14667623519897502,-1.50240398483276,-0.309152301979064
0.359781950333131,4.18707418441772,-2.77415935592651,-2.2107978097915604
0.360387643852211,3.8086610984802203,-0.381534844207764,-1.01807808322906
0.36099333737129,-0.947847690582275,4.03248615188599,0.878777385520936
0.361599030890369,-0.732295932769775,1.90331378860474,1.25958549098969
0.362204724409449,-0.923897495269775,-2.03409832077026,0.23451713161468601
0.362810417928528,-2.04716165542603,-0.556371269989014,0.490784221458436
0.363416111447607,-1.48672708511353,0.926145819854736,-0.982152790260314
0.364021804966687,-0.945452671051025,-1.50958904342651,-1.17614937229156
0.364627498485766,3.14045064926147,-3.5405656059265103,0.241702190208436
0.365233192004846,4.12240865707397,0.940515937042236,-1.07076851291656
0.365838885523925,-2.08308694839478,3.78819415969849,1.40089164333344
0.366444579043004,0.08440572738647459,2.21466632766724,-0.438483356666564
0.367050272562084,1.02564840316772,-3.07353679733276,0.428513713645936
0.367655966081163,-0.9813779640197751,-0.10131755905151399,0.809321819114686
0.368261659600242,-1.1538193702697799,2.41824298782349,0.23451713161468601
0.368867353119322,-3.2135361671447797,-1.80657146530151,0.536289592552186
0.369473046638401,1.46872701644897,-3.5645158012390104,-1.66473335666656
0.37007874015748,2.76443258285522,-0.400695000457764,-1.29590034885406
0.37068443367656,-0.305982456207275,2.69846027297974,1.38412650661469
0.371290127195639,1.5525527000427202,3.3642757026672396,0.8596172292709361
0.371895820714718,0.8148866844177249,-0.810243340301514,0.145901408958436
0.372501514233798,-0.277242221832275,-1.79699138717651,0.212961955833436
0.373107207752877,-2.4519199562072798,1.73566242141724,-0.28520210666656404
0.373712901271956,-4.91639505386353,-0.518050957489014,1.44160697536469
0.374318594791036,0.120331020355225,-2.01733318405151,-1.85154488010406
0.374924288310115,2.74527242660522,-2.83403484420776,-0.23490669651031398
0.375529981829194,2.31656393051147,2.31525714797974,-0.46482857151031404
0.376135675348274,1.12863424301147,3.6804182807922396,-0.625294880104064
0.376741368867353,0.786146450042725,-1.1527311332702599,1.00571342067719
0.377347062386432,-0.749061069488525,-2.10834392623901,0.315947795677186
0.377952755905512,-3.94401712417603,0.942910956573486,0.220147014427186
0.378558449424591,-3.6494297218322798,1.13211749954224,0.36384818630218596
0.379164142943671,-0.238921909332275,-1.45450359420776,-0.03851509494781449
0.37976983646275,3.87811666488647,-2.80768962936401,-1.82998970432281
0.380375529981829,3.81584615707397,-0.144427910614014,-1.4803168527603099
0.380981223500909,-0.9741929054260251,4.00614093704224,1.32904105739594
0.381586917019988,-0.873602085113525,1.86499347610474,0.5817949636459361
0.382192610539067,-0.27005716323852497,-2.2807853324890104,1.08953910427094
0.382798304058147,-2.33456399917603,-0.640196953582764,0.6632256277084361
0.383403997577226,-1.6711435890197799,1.00518146438599,-1.21207466526031
0.384009691096305,-0.7754062843322751,-1.59580974655151,0.153086467552186
0.384615384615385,2.86502340316772,-3.07353679733276,-1.13543404026031
0.385221078134464,4.13917379379272,0.8710603706359861,-0.7330707590103139
0.385826771653543,-1.61366312026978,3.8241194526672397,1.95893119411469
0.386432465172623,-0.10719583511352501,2.49727863235474,-0.737860798072814
0.387038158691702,0.632865200042725,-3.35614910202026,1.13025443630219
0.387643852210781,-0.746666049957275,-0.204303398895264,-0.342682575416564
0.388249545729861,-0.868812046051025,2.3727376167297396,-0.33549751682281403
0.38885523924894,-3.89611673355103,-1.89039714889526,-0.0600702707290645
0.389460932768019,1.88785543441772,-2.98731609420776,-1.40846626682281
0.390066626287099,2.62791646957397,-0.712047539520264,-0.153476032447814
0.390672319806178,-0.322747592926025,2.8325813667297397,-0.0241449777603145
0.391278013325257,2.16088766098022,2.36794757766724,1.21887015895844
0.391883706844337,0.493954067230225,-0.8246134574890139,-0.9342523996353139
0.392489400363416,-0.356277866363525,-1.60778484420776,0.39498344020843595
0.393095093882495,-3.00277444839478,1.50334552688599,0.191406780052186
0.393700787401575,-4.70323831558228,-0.11329265670776399,0.6656206472396861
0.394306480920654,0.0628505516052246,-2.51070720748901,-1.25997505588531
0.394912174439733,2.89615865707397,-2.5897428520202603,-1.16896431369781
0.395517867958813,2.32614400863647,2.23861652297974,-0.407348102760314
0.396123561477892,1.48549215316772,3.74508380813599,-0.428903278541564
0.396729254996972,0.850811977386475,-1.0928556449890099,1.3122759206771901
0.397334948516051,-1.28315042495728,-2.0700236137390102,-0.558234333229064
0.39794064203513,-3.46740823745728,0.495042304229736,1.42244681911469
0.39854633555421,-3.80510599136353,1.03631671829224,0.0644707448959355
0.399152029073289,0.19697164535522502,-1.00423992233276,-1.60725288791656
0.399757722592368,3.32247213363647,-2.9418107231140103,0.205776897239686
0.400363416111448,3.90925191879272,1.38359455032349,-2.16529243869781
0.400969109630527,-0.478423862457275,2.3463924018859896,2.36847953395844
0.401574803149606,-0.708345737457275,1.69255206985474,0.06686576442718549
0.402180496668686,-0.631705112457275,-1.22458171920776,1.07995902614594
0.402786190187765,-2.44952493667603,-0.793478203582764,1.41765678005219
0.403391883706844,-1.34063089370728,2.2170613471984897,-2.29941353244781
0.403997577225924,-1.46996194839478,-3.0424015434265104,0.735076213645936
0.404603270745003,3.97391744613647,-2.5897428520202603,-1.87070503635406
0.405208964264082,2.80514791488647,0.29386066360473595,0.711126018333436
0.405814657783162,-1.23045999526978,4.60250080032349,-0.148685993385314
0.406420351302241,0.611310024261475,1.4817903511047401,1.41765678005219
0.40702604482132,-0.631705112457275,-2.9489957817077603,0.735076213645936
0.4076317383404,-1.34781595230103,0.061543769073486305,-1.41804634494781
0.408237431859479,-1.03167337417603,1.23989337844849,1.8727104909896901
0.408843125378558,-2.68184183120728,-0.31686931686401404,-1.35577583713531
0.409448818897638,1.5525527000427202,-3.7633024223327602,-0.369027790260314
0.410054512416717,3.04943990707397,-0.403090019989014,-0.419323200416564
0.410660205935796,-0.315562534332275,2.53080890579224,0.39498344020843595
0.411265899454876,1.88067037582397,2.74396564407349,0.438093791770936
0.411871592973955,0.228106899261475,-0.570741387176514,-0.6971454660415639
0.412477286493035,-0.583804721832275,-1.86165691452026,0.830876994895936
0.413082980012114,-2.1525425148010298,1.93684406204224,-0.658825153541564
0.413688673531193,-5.13194681167603,-0.134847832489014,1.46076713161469
0.414294367050273,0.5418544578552249,-2.41490642623901,-1.3006903879165599
0.414900060569352,2.88178853988647,-2.3143156059265104,-1.40128120822906
0.415505754088431,1.73457418441772,2.14281574172974,-0.292387165260314
0.416111447607511,1.99084127426147,3.59659259719849,0.217751994895936
0.41671714112659,0.367018032073975,-1.50000896530151,1.53980277614594
0.417322834645669,-1.12747415542603,-1.36349285202026,-1.62641304416656
0.417928528164749,-3.80031595230103,0.195664862823486,2.1170024831771896
0.418534221683828,-3.24946146011353,0.142974433135986,0.0237554128646855
0.419139915202907,0.9561928367614749,-1.32517253952026,-0.450458454322814
0.419745608721987,1.90462057113647,-0.10131755905151399,-1.20009956760406
0.420351302241066,2.81951803207397,-0.640196953582764,-1.73897896213531
0.420956995760145,2.3117738914489703,2.0565950386047396,0.320737834739686
0.421562689279225,-1.2615952491760298,2.00150958938599,1.69547904567719
0.422168382798304,-1.3166806983947799,-0.697677422332764,-0.6947504465103139
0.422774076317383,-1.76933938980103,0.028013495635986298,0.885962444114686
0.423379769836463,-2.07829690933228,0.619583319854736,0.972183147239686
0.423985463355542,0.022135219573974598,-2.04607341842651,-2.19163765354156
0.424591156874621,1.75133932113647,-3.34656902389526,-1.5617475168228099
0.425196850393701,4.05295309066772,1.3404841987609901,0.897937541770936
0.42580254391278,-0.08564065933227541,3.32356037063599,1.71703422145844
0.426408237431859,-0.200601596832275,2.80144611282349,-1.25278999729156
0.427013930950939,-0.909527378082275,-3.6411564262390104,1.6116533620834401
0.427619624470018,-0.9981431007385251,-0.494100762176514,-1.72221382541656
0.428225317989098,-0.732295932769775,2.40147785110474,1.46076713161469
0.428831011508177,-2.16691263198853,-0.721627617645264,-0.318732380104064
0.429436705027256,1.8734853172302202,-2.87475017623901,-1.23123482151031
0.430042398546336,1.46393697738647,-0.855748711395264,-0.0361200754165645
0.430648092065415,0.704715785980225,1.91049884719849,-0.610924762916564
0.431253785584494,1.7202040672302201,2.21227130813599,1.64039359645844
0.431859479103574,-0.552669467926025,0.140579413604736,-1.09711372776031
0.432465172622653,-0.0329502296447754,-1.60778484420776,1.16857474880219
0.433070866141732,-1.92501565933228,1.36922443313599,0.756631389427186
0.433676559660812,-4.39907083511353,-0.292919121551514,-0.541469196510314
0.434282253179891,-0.210181674957275,-3.01126628952026,0.713521037864686
0.43488794669897,1.78726461410522,-0.994659844207764,-1.76532417697906
0.43549364021805,2.66384176254272,1.19917804641724,0.31355277614593596
0.436099333737129,2.0555068016052203,3.45528644485474,-0.0720453683853145
0.436705027256208,0.165836391448975,-0.240228691864014,-0.543864216041564
0.437310720775288,-0.749061069488525,-3.5669108207702602,1.99964652614594
0.437916414294367,-3.47698831558228,2.31765216751099,-0.563024372291564
0.438522107813446,-3.25185647964478,1.37161945266724,1.33622611598969
0.439127801332526,-0.5790146827697751,-1.4137882621765099,-0.9366474191665639
0.439733494851605,2.56085592269897,-3.2986686332702604,-2.03117134494781
0.440339188370684,5.06365133285522,-0.616246758270264,-1.0827436105728099
0.440944881889764,-0.456868686676025,3.90794513626099,1.07037894802094
0.441550575408843,-0.986168003082275,2.4733284370422397,1.16378470973969
0.442156268927922,-0.6820005226135251,-2.15145427780151,0.478809123802186
0.442761962447002,-2.64591653823853,-0.8629337699890139,0.876382365989686
0.443367655966081,-0.241316928863525,1.48658039016724,-1.47792183322906
0.44397334948516,-1.8507700538635299,-2.7023087699890103,-0.194191364479064
0.44457904300424,2.5943861961364703,-0.419855156707764,-2.62513618869781
0.445184736523319,3.54760396957397,-1.57425457077026,2.55768607692719
0.445790430042399,-0.5191391944885251,4.06362140579224,-0.7953412668228139
0.446396123561478,-0.5790146827697751,2.5068587104797397,0.986553264427186
0.447001817080557,0.453238735198975,-3.29387859420776,0.7446562917709361
0.447607510599637,-0.294007358551025,0.760889472198486,-1.17614937229156
0.448213204118716,-1.46277688980103,1.6614168159484901,0.794951701927186
0.448818897637795,-2.69621194839478,-1.66766033248901,-1.60725288791656
0.449424591156875,0.161046352386475,-3.2076578910827602,0.6225102956771861
0.450030284675954,2.94645406723022,0.0351985542297363,-0.699540485572814
0.450635978195033,0.903502407073975,1.92726398391724,0.368638225364686
0.451241671714113,1.6555385398864702,3.3115852729797397,0.0141753347396855
0.451847365233192,0.120331020355225,-1.46647869186401,0.5817949636459361
0.452453058752271,-0.248501987457275,-1.15033611373901,0.162666545677186
0.453058752271351,-2.41359964370728,1.54406085891724,-0.29478218479156404
0.45366444579043,-4.18830911636353,-0.819823418426514,1.06558890895844
0.454270139309509,-0.9765879249572751,-1.45450359420776,0.208171916770936
0.454875832828589,2.34051412582397,-1.23895183639526,-2.03117134494781
0.455481526347668,3.72962545394897,-0.38871990280151403,-1.02765816135406
0.456087219866747,1.8998305320739701,4.29593830032349,-0.5558393136978139
0.456692913385827,-0.8783921241760251,-0.189933281707764,1.64997367458344
0.457298606904906,-0.9167124366760251,-2.39095623092651,-0.687565387916564
0.457904300423985,-3.48896341323853,1.16564777297974,1.13743949489594
0.458509993943065,-2.98121927261353,1.01236652297974,0.7446562917709361
0.459115687462144,-0.511954135894775,-1.22697673873901,-0.9725727121353139
0.459721380981224,2.58241109848022,-2.11552898483276,-0.809711384010314
0.460327074500303,5.42529928207397,-0.45817546920776403,-1.03244820041656
0.460932768019382,-0.0281601905822754,2.93077716751099,1.21647513942719
0.461538461538462,-1.8603501319885298,2.57152423782349,0.6799907644271861
0.462144155057541,-0.7969614601135251,-2.2975504692077604,0.897937541770936
0.46274984857662,-1.65677347183228,-0.515655937957764,-0.10797066135406401
0.4633555420957,-0.787381381988525,-0.41506511764526405,0.28481254177093596
0.463961235614779,-0.272452182769775,0.116629218292236,-0.309152301979064
0.464566929133858,0.426893520355225,-0.482125664520264,-0.888747028541564
0.465172622652938,4.73553365707397,-2.15863933639526,-0.946227497291564
0.465778316172017,0.8819472312927249,3.28284503860474,-1.23362984104156
0.466384009691096,-3.37879251480103,2.2434065620422396,2.8522734792709397
0.466989703210176,0.668790493011475,-1.60059978561401,-1.16417427463531
0.467595396729255,-0.054505405426025395,-0.8677238090515139,0.359058147239686
0.468201090248334,-0.7011606788635251,1.80272296829224,0.371033244895936
0.468806783767414,-2.54053567886353,-1.94548259811401,-1.53300728244781
0.469412477286493,-0.583804721832275,-2.5202872856140104,0.811716838645936
0.470018170805572,3.40869283676147,-0.218673516082764,-0.860006794166564
0.470623864324652,2.5512758445739703,1.94163410110474,-0.0289350168228145
0.471229557843731,-1.23285501480103,2.89724689407349,1.44639701442719
0.47183525136281,0.589754848480225,-0.45817546920776403,-1.40607124729156
0.47244094488189,0.467608852386475,-2.01493816452026,0.816506877708436
0.473046638400969,-2.41359964370728,2.04222492141724,0.11955619411468599
0.473652331920048,-3.35963235855103,0.00885333938598633,1.05600883083344
0.474258025439128,-2.52377054214478,-2.2975504692077604,-0.9342523996353139
0.474863718958207,3.40390279769897,-1.20542156295776,-1.27674019260406
0.475469412477286,3.33923727035522,-0.522840996551514,0.9051226003646861
0.476075105996366,0.592149868011475,4.92103839797974,-2.33773384494781
0.476680799515445,-0.593384799957275,-1.71077068405151,3.37678275661469
0.477286493034525,0.165836391448975,-1.48084880905151,-1.70065864963531
0.477892186553604,-3.24227640151978,1.06745197219849,1.32185599880219
0.478497880072683,-2.90697366714478,1.1009822456359901,0.100396037864686
0.479103573591763,-1.2568052101135299,-1.40181316452026,-0.0864154855728145
0.479709267110842,2.28063863754272,-2.24486003952026,-1.88747017307281
0.480314960629921,5.24327779769897,-0.822218437957764,-1.89226021213531
0.480920654149001,0.0149501609802246,3.32356037063599,1.64039359645844
0.48152634766808,-1.53702249526978,2.8253963081359896,0.356663127708436
0.482132041187159,-0.789776401519775,-2.6855436332702602,1.72661429958344
0.482737734706239,-0.909527378082275,0.586053046417236,-0.218141559791564
0.483343428225318,-1.01969827651978,-0.223463555145264,0.31355277614593596
0.483949121744397,-1.90346048355103,-1.51916912155151,-2.39521431369781
0.484554815263477,1.54536764144897,-0.00551677780151367,-1.6599433176040599
0.485160508782556,4.76187887191772,-1.7131657035827599,3.79830619411469
0.485766202301635,-0.056900424957275396,3.1151936714172397,-1.25518501682281
0.486371895820715,-1.40529642105103,3.30919025344849,-0.8121064035415639
0.486977589339794,-0.123960971832275,-3.4639249809265102,2.2295684011459396
0.487583282858873,0.42928853988647503,0.617188300323486,-0.546259235572814
0.488188976377953,-1.2568052101135299,1.88175861282349,1.11109428005219
0.488794669897032,-3.72367532730103,-1.57904460983276,-1.74376900119781
0.489400363416111,0.5394594383239749,-2.4173014457702604,-1.15698921604156
0.490006056935191,2.74766744613647,-1.94787761764526,1.8511553152084401
0.49061175045427,2.40996969223022,3.09603351516724,-0.0912055246353145
0.491217443973349,0.551434535980225,3.06010822219849,1.79367484645844
0.491823137492429,-0.375438022613525,-0.570741387176514,-0.728280719947814
0.492428831011508,0.529879360198975,-1.68921550827026,0.07405082302093549
0.493034524530587,-2.73932229995728,0.5884480659484861,1.32425101833344
0.493640218049667,-4.28889993667603,0.940515937042236,-1.64796821994781
0.494245911568746,-1.5609726905822798,-4.6302994926452605,2.5936113698959398
0.494851605087826,3.4326430320739703,1.55364093704224,-3.2214960519790603
0.495457298606905,3.21709127426147,0.5525227729797361,1.20450004177094
0.496062992125984,1.42801168441772,1.81230304641724,-1.71502876682281
0.496668685645064,0.38857320785522503,0.844715155792236,-0.689960407447814
0.497274379164143,-1.68551370620728,-4.08663005905151,3.41989310817719
0.497880072683222,-2.04237161636353,3.04334308547974,-2.04793648166656
0.498485766202302,-4.61462259292603,-0.422250176239014,3.0558501394271897
0.499091459721381,-0.164676303863525,-0.374349785614014,-3.8178559152603104
0.49969715324046,2.67821187973022,-3.3848893363952604,1.8128350027084401
0.50030284675954,3.91404195785522,0.425586737823486,-2.35210396213531
0.500908540278619,1.6603285789489701,3.17746417922974,0.318342815208436
0.501514233797698,-2.65310159683228,1.61351642532349,2.3732695730209397
0.502119927316778,-0.8951572608947751,-0.333634453582764,-1.60485786838531
0.502725620835857,-1.70227884292603,-2.2376749809265104,3.4438433034896896
0.503331314354936,-1.42685159683228,2.0901253120422396,-2.11978706760406
0.503937007874016,-0.770616245269775,-2.20893474655151,-0.33310249729156405
0.504542701393095,1.73457418441772,-1.62934001998901,-1.62641304416656
0.505148394912174,3.85895650863647,0.34176105422973596,0.5602397878646861
0.505754088431254,0.398153285980225,2.38471271438599,1.0344536550521901
0.506359781950333,-1.5561826515197799,2.9092219917297397,-0.49596382541656403
0.506965475469413,-0.5359043312072751,-2.2999454887390103,0.7039409597396861
0.507571168988492,-0.0329502296447754,-0.932389336395264,0.330317912864686
0.508176862507571,-0.7610361671447751,3.45528644485474,0.32552787380218595
0.50878255602665,-3.01235452651978,-3.3513590629577603,0.814111858177186
0.50938824954573,1.08073385238647,-2.62806316452026,-2.2036127511978103
0.509993943064809,1.7968446922302201,0.7728645698547361,0.308762737083436
0.510599636583889,1.7202040672302201,1.41472980422974,0.349478069114686
0.511205330102968,1.56692281723022,3.2181795112609897,-0.11994575901031401
0.511811023622047,-0.926292514801025,-1.27727214889526,1.25958549098969
0.512416717141127,0.723875942230225,-1.39941814498901,-1.00849800510406
0.513022410660206,-2.33456399917603,1.80511798782349,0.938652873802186
0.513628104179285,-4.27692483901978,1.0411067573547401,0.06686576442718549
0.514233797698365,-0.9981431007385251,-3.8806583793640104,-0.321127399635314
0.514839491217444,2.26387350082397,-1.25092693405151,-1.52342720432281
0.515445184736523,3.19074605941772,1.48897540969849,0.636880412864686
0.516050878255603,1.92378072738647,3.45289142532349,-0.371422809791564
0.516656571774682,-0.871207065582275,-0.170773125457764,0.8212969167709361
0.517262265293761,-0.567039585113525,-2.83403484420776,0.0572856863021855
0.517867958812841,-3.07462503433228,1.23031330032349,0.25128226833343603
0.51847365233192,-3.40034769058228,2.31525714797974,0.828481975364686
0.519079345850999,-0.502374057769775,-1.67245037155151,-0.6157148019790639
0.519685039370079,2.41715475082397,-3.1382023246765103,-1.03005318088531
0.520290732889158,4.68284322738647,-0.498890801239014,-0.939042438697814
0.520896426408237,0.225711879730225,3.23015460891724,0.361453166770936
0.521502119927317,-1.66635354995728,2.82060626907349,1.73379935817719
0.522107813446396,-0.528719272613525,-2.55860759811401,2.4259600027084396
0.522713506965475,-1.4963071632385299,0.0926790229797363,-0.977362751197814
0.523319200484555,-1.64719339370728,1.2207332221984901,-0.187006305885314
0.523924894003634,-0.931082553863525,-1.42576335983276,-0.8719818918228139
0.524530587522714,1.63637838363647,-3.40644451217651,-0.292387165260314
0.525136281041793,4.35951559066772,0.974046210479736,-1.56414253635406
0.525741974560872,-0.705950717926025,3.10082355422974,1.65715873317719
0.526347668079951,-0.567039585113525,2.8325813667297397,0.359058147239686
0.526953361599031,0.14667623519897502,-2.64482830123901,0.227332073020936
0.52755905511811,-0.442498569488525,-0.958734551239014,0.586585002708436
0.52816474863719,-0.418548374176025,3.3044002143859896,-0.5726044504165639
0.528770442156269,-3.7955259132385297,-2.18498455123901,-0.10078560276031401
0.529376135675348,0.805306606292725,-3.11425212936401,-1.57372261447906
0.529981829194428,2.4746352195739703,-1.28445720748901,0.646460490989686
0.530587522713507,0.644840297698975,2.67690509719849,-1.01807808322906
0.531193216232586,1.80881978988647,3.6181477729797398,0.06686576442718549
0.531798909751666,0.367018032073975,-0.656962090301514,1.11109428005219
0.532404603270745,0.149071254730225,-1.57425457077026,-0.46482857151031404
0.533010296789824,-2.4351548194885297,1.0411067573547401,0.931467815208436
0.533615990308904,-4.73437356948853,0.8327400581359861,0.34229301052093597
0.534221683827983,-1.02927835464478,-2.12510906295776,-1.37733101291656
0.534827377347062,2.8338881492614703,-2.8627750785827604,-0.0959955636978145
0.535433070866142,2.97519430160522,1.81469806594849,-0.560629352760314
0.536038764385221,1.36334615707397,3.5247420112609897,-0.198981403541564
0.5366444579043,0.589754848480225,-0.185143242645264,0.718311076927186
0.53725015142338,-0.811331577301025,-2.72146892623901,0.308762737083436
0.537855844942459,-3.43387796401978,0.394451483917236,0.145901408958436
0.538461538461538,-3.64463968276978,1.63746662063599,0.426118694114686
0.539067231980618,-0.904737339019775,-1.19823650436401,-1.44439155979156
0.539672925499697,3.16919088363647,-2.89151531295776,-1.21207466526031
0.540278619018776,4.31880025863647,-1.05214031295776,-0.22053657932281398
0.540884312537856,0.153861293792725,3.5343220893859897,0.155481487083436
0.541490006056935,-1.12747415542603,2.5355989448547396,1.26677054958344
0.542095699576015,-0.713135776519775,-2.01014812545776,0.612930217552186
0.542701393095094,-1.91783060073853,-0.676122246551514,0.210566936302186
0.543307086614173,-1.53223245620728,0.159739569854736,0.31355277614593596
0.543912780133253,-0.746666049957275,-1.06411541061401,-1.09711372776031
0.544518473652332,1.95731100082397,-2.62087810592651,-0.9965229074478139
0.545124167171411,4.41460103988647,-0.374349785614014,-0.196586384010314
0.545729860690491,-0.993353061676025,3.60856769485474,0.8620122488021861
0.54633555420957,-0.495188999176025,2.66492999954224,0.672805705833436
0.546941247728649,0.544249477386475,-2.8028995903015104,0.5650298269271861
0.547546941247729,-0.5957798194885251,-0.29531414108276405,-0.5917646066665639
0.548152634766808,-0.583804721832275,2.14281574172974,0.7015459402084361
0.548758328285887,-3.25904153823853,-1.48563884811401,0.38540336208343595
0.549364021804967,0.8963173484802249,-3.0016862113952603,-1.25997505588531
0.549969715324046,2.66384176254272,-1.74430095748901,0.9434429128646861
0.550575408843125,0.436473598480225,2.5595491401672397,0.988948283958436
0.551181102362205,1.48309713363647,3.3810408393859896,0.17943168239593602
0.551786795881284,0.496349086761475,-0.831798516082764,0.696755901145936
0.552392489400363,0.120331020355225,-1.60299480514526,0.253677287864686
0.552998182919443,-2.34653909683228,1.27581867141724,-0.6971454660415639
0.553603876438522,-4.73676858901978,0.5309675971984861,0.9649980886459361
0.554209569957601,-0.8568369483947751,-1.83770671920776,-0.728280719947814
0.554815263476681,2.55367086410522,-2.9992911918640104,-0.740255817604064
0.55542095699576,2.50337545394897,1.33329914016724,-0.7330707590103139
0.556026650514839,1.5022572898864701,3.8073543159484897,0.33510795192718595
0.556632344033919,0.690345668792725,-0.5467911918640139,1.59728324489594
0.557238037552998,-0.729900913238525,-2.14905925827026,-0.907907184791564
0.557843731072078,-3.11294534683228,0.229195136260986,1.43442191677094
0.558449424591157,-3.92006692886353,1.79314289016724,-0.143895954322814
0.559055118110236,-0.590989780426025,-0.8653287895202639,-0.728280719947814
0.559660811629316,3.16200582504272,-3.31303875045776,-0.625294880104064
0.560266505148395,4.6085976219177205,-0.561161309051514,-1.69826363010406
0.560872198667474,-0.33951272964477497,2.7751008979797396,1.56854301052094
0.561477892186554,-1.14663431167603,3.29003009719849,-0.009774860572814459
0.562083585705633,-0.140726108551025,-2.49154705123901,1.70505912380219
0.562689279224712,-1.90585550308228,-0.292919121551514,-0.227721637916564
0.563294972743792,-1.0819687843322798,0.518992499542236,0.397378459739686
0.563900666262871,-1.34781595230103,-1.27487712936401,-0.907907184791564
0.56450635978195,2.35248922348022,-1.90955730514526,-1.9593207590103099
0.56511205330103,4.33796041488647,-1.28685222702026,0.773396526145936
0.565717746820109,-0.7945664405822751,4.2648030464172395,-0.476803669166564
0.566323440339188,-0.495188999176025,2.67451007766724,1.71703422145844
0.566929133858268,0.5562245750427249,-2.3095255668640102,0.0572856863021855
0.567534827377347,-0.7179258155822751,-1.01621501998901,0.260862346458436
0.568140520896426,-1.18495462417603,2.5068587104797397,0.7997417409896861
0.568746214415506,-3.24946146011353,-1.2126066215515099,-0.378607868385314
0.569351907934585,0.843626918792725,-3.0424015434265104,-2.1940326730728104
0.569957601453664,2.69976705551147,-1.38025798873901,-0.16066109104156398
0.570563294972744,0.297562465667725,1.88175861282349,0.759026408958436
0.571168988491823,1.7369692039489701,3.8504646675109897,-0.261251911354064
0.571774682010902,0.826861782073975,-0.9850797660827639,1.34580619411469
0.572380375529982,0.295167446136475,-0.9443644340515139,-1.40607124729156
0.572986069049061,-2.19325784683228,0.42079669876098597,1.28832572536469
0.57359176256814,-4.86609964370728,0.657903632354736,0.260862346458436
0.57419745608722,-0.667630405426025,-1.77783123092651,-1.0611884347915599
0.574803149606299,2.60875631332397,-3.32261882858276,-0.23011665744781398
0.575408843125379,2.42194478988647,1.7212923042297401,-1.66233833713531
0.576014536644458,1.28431051254272,3.49600177688599,0.6847808034896861
0.576620230163537,0.769381313323975,0.49025226516723597,0.148296428489686
0.577225923682617,-0.8616269874572751,-2.9753409965515103,0.366243205833436
0.577831617201696,-3.05785989761353,0.454326972198486,0.478809123802186
0.578437310720775,-4.08292825698853,1.63028156204224,1.18054984645844
0.579043004239855,-1.1202890968322798,-0.5276310356140139,-1.56653755588531
0.579648697758934,3.12129049301147,-3.1118571098327603,-0.5773944894790639
0.580254391278013,4.43376119613647,-1.56946453170776,-0.49356880588531404
0.580860084797093,0.283192348480225,3.9438704292297397,-0.900722126197814
0.581465778316172,-1.34063089370728,2.47093341751099,2.4331450613021897
0.582071471835251,0.297562465667725,-1.36828289108276,0.596165080833436
0.582677165354331,-2.39922952651978,-1.21500164108276,0.8428520925521861
0.58328285887341,-1.75017923355103,0.842320136260986,-1.00610298557281
0.583888552392489,-1.26878030776978,-1.0545353324890099,-1.09232368869781
0.584494245911569,2.47224020004272,-2.73104900436401,0.00459525661468554
0.585099939430648,4.30443014144897,-0.482125664520264,-1.01328804416656
0.585705632949727,-0.7610361671447751,3.6013826362609898,0.6033501394271861
0.586311326468807,-0.770616245269775,2.86371662063599,1.02726859645844
0.586917019987886,0.831651821136475,-2.15624431686401,0.165061565208436
0.587522713506965,-0.5981748390197751,-1.2341617973327599,0.356663127708436
0.588128407026045,-1.16339944839478,2.38231769485474,-0.349867634010314
0.588734100545124,-2.77285257339478,-0.697677422332764,-0.050490192604064496
0.589339794064203,0.350252895355225,-3.3345939262390103,-1.31266548557281
0.589945487583283,3.18356100082397,-1.66766033248901,-0.10557564182281401
0.590551181102362,0.297562465667725,1.71650226516724,0.0548906667709355
0.591156874621442,0.743036098480225,3.6133577339172396,-0.32352241916656405
0.591762568140521,1.32981588363647,-0.324054375457764,1.18773490505219
0.5923682616596,0.0652455711364746,-1.68682048873901,-0.6755902902603139
0.59297395517868,-2.01363138198853,1.21833820266724,0.0357305105209355
0.593579648697759,-4.83735940933228,0.5333626167297361,0.512339397239686
0.594185342216838,-1.05083353042603,-1.43294841842651,-0.8145014230728139
0.594791035735918,2.96082418441772,-3.6148112113952604,0.40216849880218597
0.595396729254997,2.33093404769897,1.63746662063599,-2.1413422433853104
0.596002422774076,1.28910055160522,3.74508380813599,1.03205863552094
0.596608116293156,1.23401510238647,-0.0869474418640137,0.18422172145843602
0.597213809812235,-0.413758335113525,-2.39095623092651,-0.378607868385314
0.597819503331314,-3.48656839370728,0.35134113235473596,1.1326494558334401
0.598425196850394,-3.78115579605103,1.65662677688599,0.8620122488021861
0.599030890369473,-1.21129983901978,-0.8270084770202639,-0.37621284885406403
0.599636583888552,3.68412008285522,-2.21851482467651,-2.01440620822906
0.600242277407632,4.19665426254272,-1.60059978561401,-0.5749994699478139
0.600847970926711,0.19218160629272502,3.4337312690734896,0.236912151145936
0.60145366444579,-1.01730325698853,2.7631258003234898,1.87510551052094
0.60205935796487,-0.10480081558227501,-1.26050701217651,0.311157756614686
0.602665051483949,-2.04716165542603,-1.21979168014526,0.888357463645936
0.603270745003028,-1.68311868667603,0.935725897979736,-0.709120563697814
0.603876438522108,-1.41727151870728,-1.62934001998901,-0.0289350168228145
0.604482132041187,2.46026510238647,-2.11552898483276,-1.90184029026031
0.605087825560267,4.17509908676147,-1.47845378952026,0.181826701927186
0.605693519079346,-0.784986362457275,3.9965608589172397,-0.208561481666564
0.606299212598425,-0.545484409332275,2.94754230422974,0.972183147239686
0.606904906117504,0.350252895355225,-2.47238689498901,0.519524455833436
0.607510599636584,-0.442498569488525,-0.48691570358276404,-1.29590034885406
0.608116293155663,-1.08915384292603,1.18480792922974,2.25112357692719
0.608721986674743,-2.6315464210510298,0.061543769073486305,-1.90663032932281
0.609327680193822,-0.0449253273010254,-3.2842985160827602,-1.57611763401031
0.609933373712901,3.28175680160522,-1.38504802780151,1.1326494558334401
0.610539067231981,0.314327602386475,1.88415363235474,0.555449748802186
0.61114476075106,0.8819472312927249,3.65886310501099,-0.280412067604064
0.611750454270139,1.4759120750427202,-0.185143242645264,0.43330375270843596
0.612356147789219,-0.15749124526977498,-1.97422283248901,0.6799907644271861
0.612961841308298,-1.81484476089478,1.17762287063599,0.153086467552186
0.613567534827377,-4.75832376480103,0.9692561714172361,0.557844768333436
0.614173228346457,-1.02448831558228,-1.88800212936401,-0.7330707590103139
0.614778921865536,2.9105287742614703,-3.12383220748901,-1.13064400119781
0.615384615384615,2.31895895004272,1.51771564407349,-0.6133197824478139
0.615990308903695,1.10228902816772,3.2277595893859896,1.44879203395844
0.616596002422774,0.790936489105225,0.823159980010986,-0.25646187229156403
0.617201695941853,-0.308377475738525,-2.31910564498901,-0.124735798072814
0.617807389460933,-3.2303013038635298,-0.5443961723327639,1.93977103786469
0.618413082980012,-3.73804544448853,2.32244220657349,-0.318732380104064
0.619018776499091,-1.2400400733947798,-0.9060441215515139,-0.677985309791564
0.619624470018171,3.04225484848022,-2.42209148483276,-1.46115669651031
0.62023016353725,4.50561178207397,-1.62934001998901,-0.546259235572814
0.620835857056329,0.218526821136475,2.8325813667297397,0.533894573020936
0.621441550575409,-1.01251321792603,3.5678523628234897,0.409353557395936
0.622047244094488,-0.38980813980102497,-2.29515544967651,1.73619437770844
0.622652937613568,-2.01123636245728,-0.630616875457764,0.371033244895936
0.623258631132647,-1.53702249526978,0.727359198760986,-0.48398872776031404
0.623864324651726,-1.0723887062072799,-1.31559246139526,-0.546259235572814
0.624470018170806,2.07706197738647,-2.01972820358276,-1.77729927463531
0.625075711689885,4.27808492660522,-1.44971355514526,0.153086467552186
0.625681405208964,-0.569434604644775,3.99895587844849,-0.505543903541564
0.626287098728044,-0.9550327491760251,3.14632892532349,1.14941459255219
0.626892792247123,0.5370644187927249,-2.6089030082702602,0.5434746511459361
0.627498485766202,-0.533509311676025,-1.02819011764526,-0.783366169166564
0.628104179285282,-1.0029331398010302,2.21945636672974,1.16857474880219
0.628709872804361,-2.84949319839478,-0.48691570358276404,-0.618109821510314
0.62931556632344,0.182601528167725,-3.07114177780151,-1.55935249729156
0.62992125984252,3.07818014144897,-2.10594890670776,0.694360881614686
0.630526953361599,0.553829555511475,2.02306476516724,-0.0145648996353145
0.631132646880678,0.19697164535522502,3.3714607612609897,-0.131920856666564
0.631738340399758,1.74894430160522,0.0687288276672363,-0.141500934791564
0.632344033918837,-0.0712705421447754,-2.04367839889526,-0.045700153541564495
0.632949727437916,-2.3321689796447798,0.818369940948486,0.835667033958436
0.633555420956996,-4.14519876480103,0.976441230010986,0.689570842552186
0.634161114476075,-1.73820413589478,-2.17540447311401,-1.12585396213531
0.634766807995154,3.09734029769897,-2.86038005905151,-0.400163044166564
0.635372501514234,2.60157125473022,0.9309358589172361,-0.8935370676040639
0.635978195033313,1.1166591453552202,3.83130451126099,-0.141500934791564
0.636583888552392,1.02085836410522,-0.33602947311401404,0.972183147239686
0.637189582071472,0.060455532073974604,-1.97422283248901,-1.57851265354156
0.637795275590551,-3.45782815933228,-0.10131755905151399,1.9709062917709401
0.638400969109631,-3.87935159683228,1.85062335891724,0.268047405052186
0.63900666262871,-1.10831399917603,-0.189933281707764,-1.21446968479156
0.639612356147789,2.85304830551147,-3.5214054496765104,-0.768996051979064
0.640218049666869,4.80977926254272,-1.40181316452026,-1.33182564182281
0.640823743185948,0.0484804344177246,3.1080086128234896,0.718311076927186
0.641429436705027,-1.04604349136353,3.16309406204224,1.40089164333344
0.642035130224107,-0.0976157569885254,-1.92153240280151,1.65955375270844
0.642640823743186,-1.8938804054260299,-1.28206218795776,0.232122112083436
0.643246517262265,-1.68551370620728,0.5716829292297361,-0.467223591041564
0.643852210781345,-1.49391214370728,-0.834193535614014,0.0644707448959355
0.644457904300424,1.98605123519897,-2.20174968795776,-1.47073677463531
0.645063597819503,4.35951559066772,-1.38504802780151,-0.742650837135314
0.645669291338583,-0.624520053863525,3.77621906204224,0.44527885036468595
0.646274984857662,-0.9622178077697751,3.2421297065734898,1.03684867458344
0.646880678376741,0.9753529930114749,-1.99577800827026,0.8021367605209361
0.647486371895821,-0.751456089019775,-0.7886881645202639,-0.946227497291564
0.6480920654149,-1.0029331398010302,1.88654865188599,0.591375041770936
0.648697758933979,-2.62196634292603,-0.6880973442077639,-0.397768024635314
0.649303452453059,-0.15270120620727498,-3.2723234184265104,-1.25997505588531
0.649909145972138,3.23864645004272,-1.49282390670776,-0.09839058322906451
0.650514839491217,0.431683559417725,2.04940998001099,-0.208561481666564
0.651120533010297,0.951402797698975,3.2277595893859896,1.10630424098969
0.651726226529376,1.53099752426147,0.42319171829223595,-1.08513863010406
0.652331920048455,0.00776510238647461,-2.1634293754577603,-0.282807087135314
0.652937613567535,-1.95136087417603,0.5692879096984861,1.68829398708344
0.653543307086614,-4.77748392105103,1.80032794876099,0.07884086208343549
0.654149000605693,-1.68311868667603,-2.12510906295776,0.0309404714584355
0.654754694124773,2.95842916488647,-3.6076261528015103,-1.16656929416656
0.655360387643852,3.02788473129272,1.55364093704224,-1.90902534885406
0.655966081162932,0.9753529930114749,3.13674884719849,1.94695609645844
0.656571774682011,1.34418600082397,1.06505695266724,-0.448063434791564
0.65717746820109,-0.056900424957275396,-2.38137615280151,-0.36423775119781404
0.65778316172017,-3.19437601089478,-0.810243340301514,1.48471732692719
0.658388855239249,-3.76199563980103,2.1044954292297398,-0.213351520729064
0.658994548758328,-1.6112681007385299,-0.441410332489014,0.196196819114686
0.659600242277408,3.0901552391052203,-2.08199871139526,-2.0000360910415598
0.660205935796487,4.78343404769897,-2.03170330123901,-0.47440864963531404
0.660811629315566,0.49874410629272503,2.67451007766724,-0.0217499582290645
0.661417322834646,-1.37416116714478,3.9797957221984896,0.5075493581771859
0.662023016353725,-0.07606058120727541,-1.98859294967651,2.67504203395844
0.662628709872804,-1.58731790542603,-0.872513848114014,-0.35465767307281404
0.663234403391884,-1.7908945655822799,0.679458808135986,-0.246881794166564
0.663840096910963,-1.41248147964478,-1.09046062545776,-0.649245075416564
0.664445790430042,1.84953512191772,-2.2544401176452604,-1.79885445041656
0.665051483949122,4.28047994613647,-1.80178142623901,0.200986858177186
0.665657177468201,-0.16228128433227498,4.40850421829224,-0.5941596261978139
0.66626287098728,-1.6543784523010299,2.38231769485474,2.96004935817719
0.66686856450636,1.2531752586364702,-1.23176677780151,-0.639664997291564
0.667474258025439,-0.507164096832275,-1.48084880905151,-0.258856891822814
0.668079951544518,-1.0340683937072799,2.19790119094849,0.20338187770843602
0.668685645063598,-2.29384866714478,0.140579413604736,0.25128226833343603
0.669291338582677,-0.547879428863525,-3.7345621879577604,-0.18461128635406399
0.669897032101756,3.37037252426147,-1.33714763717651,-1.16417427463531
0.670502725620836,0.285587368011475,1.15127765579224,1.08953910427094
0.671108419139915,0.867577114105225,3.83609455032349,0.40216849880218597
0.671714112658994,1.69146383285522,0.145369452667236,0.972183147239686
0.672319806178074,-0.11198587417602501,-1.54311931686401,-0.6564301340103139
0.672925499697153,-1.56336771011353,0.21722003860473602,1.11588431911469
0.673531193216233,-4.46134134292603,1.44107501907349,-0.16545113010406398
0.674136886735312,-2.41359964370728,-1.88081707077026,0.196196819114686
0.674742580254391,2.97519430160522,-3.1525724418640104,-0.8168964426040639
0.675348273773471,2.7309023094177203,1.17522785110474,-1.65036323947906
0.67595396729255,1.28910055160522,3.00981281204224,1.23084525661469
0.676559660811629,1.3825063133239701,0.957281073760986,0.0860259206771855
0.677165354330709,-0.653260288238525,-2.88672527389526,0.895542522239686
0.677771047849788,-2.89499856948853,0.394451483917236,0.153086467552186
0.678376741368867,-4.43499612808228,1.72847736282349,0.488389201927186
0.678982434887947,-1.52983743667603,-0.513260918426514,-0.0792304269790645
0.679588128407026,3.18356100082397,-2.39574626998901,-1.48750191135406
0.680193821926105,4.39065084457397,-2.20174968795776,-1.04921333713531
0.680799515445185,0.846021938323975,3.32356037063599,-0.45285347385406405
0.681405208964264,-1.2568052101135299,3.2541048042297396,2.12179252223969
0.682010902483343,0.0029750633239746097,-1.07848552780151,0.23451713161468601
0.682616596002423,-1.79807962417603,-1.14315105514526,0.11955619411468599
0.683222289521502,-1.62324319839478,0.43995685501098597,-0.0959955636978145
0.683827983040581,-1.0604136085510298,-0.714442559051514,-0.11036568088531401
0.684433676559661,1.68906881332397,-2.2831803520202603,-0.6755902902603139
0.68503937007874,4.06013814926147,-1.99577800827026,-0.31394234104156404
0.68564506359782,0.467608852386475,4.26001300735474,-0.43608833713531403
0.686250757116899,-1.84118997573853,2.69846027297974,1.84876029567719
0.686856450635978,0.946612758636475,-1.58143962936401,-0.728280719947814
0.687462144155058,-0.186231479644775,-1.63652507858276,0.538684612083436
0.688067837674137,-1.20411478042603,2.21466632766724,0.759026408958436
0.688673531193216,-2.65549661636353,-0.00791179733276367,-0.249276813697814
0.689279224712296,-0.7227158546447751,-3.9405338676452604,-0.670800251197814
0.689884918231375,3.69609518051147,-1.04016521530151,-1.19770454807281
0.690490611750454,0.122726039886475,1.58238117141724,0.548264690208436
0.691096305269534,0.625680141448975,3.54629718704224,0.6608306081771861
0.691701998788613,1.83276998519897,0.356131171417236,0.042915569114685505
0.692307692307692,-0.286822299957275,-1.96703777389526,-0.5534442941665639
0.692913385826772,-1.7405991554260298,0.518992499542236,0.732681194114686
0.693519079345851,-4.56911722183228,1.53208576126099,0.241702190208436
0.69412477286493,-2.20283792495728,-2.25923015670776,0.136321330833436
0.69473046638401,3.14045064926147,-2.7262589653015104,-2.17247749729156
0.695336159903089,2.35727926254272,-0.0893424613952637,0.0956059988021855
0.695941853422168,1.54536764144897,3.85525470657349,-0.10318062229156401
0.696547546941248,1.02804342269897,1.15127765579224,-0.0241449777603145
0.697153240460327,-0.569434604644775,-2.9058854301452604,0.409353557395936
0.697758933979406,-2.66507669448853,0.205244940948486,-0.0888105051040645
0.698364627498486,-4.26015970230103,0.976441230010986,1.75056449489594
0.698970321017565,-1.12507913589478,0.257935370635986,-1.13782905979156
0.699576014536644,2.76922262191772,-2.6160880668640103,-0.946227497291564
0.700181708055724,4.73792867660522,-2.4604117973327604,0.548264690208436
0.700787401574803,0.5753847312927249,3.23973468704224,-0.761810993385314
0.701393095093882,-1.7573642921447798,2.83737140579224,1.78888480739594
0.701998788612962,0.443658657073975,-0.939574394989014,0.596165080833436
0.702604482132041,-2.08787698745728,-1.01861003952026,-0.00498482151031446
0.703210175651121,-1.88190530776978,1.08182208938599,-0.0600702707290645
0.7038158691702,-1.0556235694885299,-1.0928556449890099,-0.0552802316665645
0.704421562689279,1.82558492660522,-2.1610343559265104,-1.80603950901031
0.705027256208359,4.55111715316772,-1.41139324264526,-0.457643512916564
0.705632949727438,-0.413758335113525,3.62533283157349,0.418933635520936
0.706238643246517,-1.33584085464478,3.7642439643859897,1.1326494558334401
0.706844336765597,0.862787075042725,-1.95506267623901,0.13871635036468602
0.707450030284676,-0.404178256988525,-1.74430095748901,-0.7330707590103139
0.708055723803755,-0.8185166358947751,2.00629962844849,1.13504447536469
0.708661417322835,-2.85907327651978,0.214825019073486,-0.450458454322814
0.709267110841914,-0.6412851905822751,-2.89151531295776,-1.50426704807281
0.709872804360993,3.44461812973022,-2.1706144340515103,0.485994182395936
0.710478497880073,0.496349086761475,1.62788654251099,-0.642060016822814
0.711084191399152,0.18739156723022501,3.85525470657349,0.29439261989593596
0.711689884918231,1.9381508445739701,0.236380194854736,0.854827190208436
0.712295578437311,-0.0377402687072754,-1.81854656295776,-0.337892536354064
0.71290127195639,-2.03518655776978,0.46151203079223596,1.09193412380219
0.713506965475469,-4.57390726089478,1.28779376907349,-0.148685993385314
0.714112658994549,-2.03997659683228,-1.94548259811401,0.287207561302186
0.714718352513628,3.0302797508239703,-3.1884977348327603,-1.15938423557281
0.715324046032707,2.62791646957397,0.880640448760986,-1.31506050510406
0.715929739551787,0.929847621917725,3.51516193313599,1.20450004177094
0.716535433070866,1.34418600082397,0.784839667510986,-0.428903278541564
0.717141126589945,-0.0209751319885254,-2.40772136764526,0.5458696706771861
0.717746820109025,-3.08181009292603,-0.371954766082764,0.8212969167709361
0.718352513628104,-4.12364358901978,1.9009187690734901,-0.42650825901031403
0.718958207147184,-1.38853128433228,-0.165983086395264,0.339897990989686
0.719563900666263,2.74527242660522,-2.8124796684265103,-1.04921333713531
0.720169594185342,4.67805318832397,-1.85207683639526,-2.0000360910415598
0.720775287704422,0.743036098480225,2.60744953079224,0.598560100364686
0.721380981223501,-1.35739603042603,3.6037776557922396,1.05600883083344
0.72198667474258,0.115540981292725,-1.02100505905151,0.610535198020936
0.72259236826166,-1.70467386245728,-1.50719402389526,0.629695354270936
0.723198061780739,-1.65198343276978,1.01955158157349,-0.740255817604064
0.723803755299818,-1.11789407730103,-1.24134685592651,0.30397269802093596
0.724409448818898,1.53818258285522,-1.82094158248901,-1.63359810276031
0.725015142337977,3.93559713363647,-1.76585613327026,0.236912151145936
0.725620835857056,0.357437953948975,3.69478839797974,-0.412138141822814
0.726226529376136,-1.58492288589478,3.02657794876099,1.43921195583344
0.726832222895215,1.04720357894897,-1.48563884811401,-0.0912055246353145
0.727437916414294,-0.708345737457275,-1.46408367233276,-0.32591743869781403
0.728043609933374,-1.04364847183228,2.14281574172974,0.7805815847396861
0.728649303452453,-2.3752793312072797,0.233985175323486,-0.26604195041656403
0.729254996971532,-0.478423862457275,-3.7968326957702603,-1.11148384494781
0.729860690490612,3.70088521957397,-1.70119060592651,-0.682775348854064
0.730466384009691,0.43886861801147503,1.18480792922974,0.548264690208436
0.73107207752877,0.570594692230225,4.044461249542239,0.17464164333343601
0.73167777104785,1.5621327781677201,0.504622382354736,0.811716838645936
0.732283464566929,0.09159078598022459,-2.15863933639526,-0.129525837135314
0.732889158086008,-1.52983743667603,0.238775214385986,0.713521037864686
0.733494851605088,-4.84933450698853,1.70931720657349,-0.886352009010314
0.734100545124167,-2.49982034683228,-2.0508634574890103,0.529104533958436
0.734706238643246,2.80754293441772,-2.80050457077026,-1.07316353244781
0.735311932162326,2.75485250473022,0.468697089385986,-1.23602486057281
0.735917625681405,1.04959859848022,3.13674884719849,0.790161662864686
0.736523319200485,1.10228902816772,1.50574054641724,-0.397768024635314
0.737129012719564,0.153861293792725,-2.64722332077026,0.6249053152084361
0.737734706238643,-2.96205911636353,-0.221068535614014,0.811716838645936
0.738340399757723,-4.10208841323853,1.98713947219849,-0.0936005441665645
0.738946093276802,-1.86993021011353,-0.510865898895264,0.114766155052186
0.739551786795881,2.52493062973022,-2.2304899223327603,-1.47073677463531
0.740157480314961,5.10915670394897,-2.12271404342651,-0.721095661354064
0.74076317383404,0.311932582855225,2.59068439407349,-0.340287555885314
0.741368867353119,-1.58731790542603,3.75466388626099,1.00571342067719
0.741974560872199,-0.0018149757385253899,-1.55030437545776,1.83918021755219
0.742580254391278,-1.86753519058228,-0.8868839653015139,-0.28520210666656404
0.743185947910357,-2.05674173355103,0.902195624542236,-0.10557564182281401
0.743791641429437,-1.47235696792603,-0.42704021530151404,-0.16066109104156398
0.744397334948516,1.4591469383239701,-2.68075359420776,-1.0827436105728099
0.745003028467595,4.32119527816772,-1.59101970748901,-1.05400337619781
0.745608721986675,0.163441371917725,3.1678841011047396,0.677595744895936
0.746214415505754,-2.06871683120728,3.3044002143859896,0.888357463645936
0.746820109024833,1.58129293441772,-1.2126066215515099,-0.10318062229156401
0.747425802543913,-0.729900913238525,-2.54184246139526,0.909912639427186
0.748031496062992,-0.9382676124572751,2.63858478469849,0.177036662864686
0.748637189582071,-2.34414407730103,0.248355292510986,-0.419323200416564
0.749242883101151,-0.806541538238525,-3.45673992233276,-1.03005318088531
0.74984857662023,3.42306295394897,-1.8329166801452599,0.548264690208436
0.75045427013931,0.19218160629272502,1.3404841987609901,-0.761810993385314
0.751059963658389,0.7023207664489749,3.75466388626099,0.749446330833436
0.751665657177468,1.40406148910522,0.427981757354736,0.773396526145936
0.752271350696547,-0.0425303077697754,-1.66526531295776,-1.39888618869781
0.752877044215627,-1.41727151870728,0.31062580032348597,2.23196342067719
0.753482737734706,-4.62899271011353,1.70452716751099,-0.563024372291564
0.754088431253786,-2.22918313980103,-2.01493816452026,-0.278017048072814
0.754694124772865,2.91771383285522,-3.21005291061401,-0.177426227760314
0.755299818291944,2.46266012191772,1.16804279251099,-1.35098579807281
0.755905511811024,1.50704732894897,3.21578449172974,1.17336478786469
0.756511205330103,1.0615736961364701,1.21115314407349,-0.39537300510406403
0.757116898849182,0.0556654930114746,-2.5059171684265102,0.34229301052093597
0.757722592368262,-2.73692728042603,-0.850958672332764,0.9003325613021861
0.758328285887341,-4.09729837417603,2.27933185501099,-0.189401325416564
0.75893397940642,-1.74778421401978,-0.503680840301514,1.25000541286469
0.7595396729255,2.49858541488647,-2.01733318405151,-2.2898334543228103
0.760145366444579,4.64931295394897,-2.4604117973327604,-0.570209430885314
0.760751059963658,0.965772914886475,2.3895027534484896,-0.045700153541564495
0.761356753482738,-1.54420755386353,3.94866046829224,0.9841582448959361
0.761962447001817,-0.509559116363525,-1.38983806686401,2.2702837331771897
0.762568140520896,-1.56576272964478,-1.0329801567077599,-0.340287555885314
0.763173834039976,-1.6807236671447798,0.356131171417236,0.0333354909896855
0.763779527559055,-0.828096714019775,-0.144427910614014,-0.400163044166564
0.764385221078134,1.00888326644897,-3.0184513481140103,-0.862401813697814
0.764990914597214,4.40981100082397,-1.25811199264526,-0.9318573801040639
0.765596608116293,0.252057094573975,2.93077716751099,1.14701957302094
0.766202301635373,-1.66156351089478,3.6133577339172396,0.308762737083436
0.766807995154452,1.0615736961364701,-1.50240398483276,0.574609905052186
0.767413688673531,-0.550274448394775,-2.51789226608276,0.754236369895936
0.768019382192611,-0.9574277687072751,2.57391925735474,-0.428903278541564
0.76862507571169,-2.42317972183228,0.777654608917236,-0.661220173072814
0.769230769230769,-1.05083353042603,-3.8734733207702603,-0.36663277072906403
0.769836462749849,3.5092836570739703,-1.78741130905151,-1.45876167697906
0.770442156268928,0.501139125823975,1.08421710891724,0.105186076927186
0.771047849788007,0.493954067230225,3.20620441360474,1.59249320583344
0.771653543307087,2.0722719383239703,1.8194881050109901,-0.6923554269790639
0.772259236826166,-0.20778665542602498,-2.86038005905151,0.397378459739686
0.772864930345245,-1.2017197608947798,0.605213202667236,-0.0720453683853145
0.773470623864325,-4.39907083511353,1.06505695266724,1.4535820730209401
0.774076317383404,-2.8973935890197797,-1.41139324264526,-0.8360565988540639
0.774682010902483,2.67821187973022,-2.99689617233276,-1.5018720285415599
0.775287704421563,2.93208395004272,0.0735188667297363,0.169851604270936
0.775893397940642,1.0615736961364701,3.42654621047974,-0.09839058322906451
0.776499091459721,0.9561928367614749,1.54406085891724,-0.658825153541564
0.777104784978801,0.0245302391052246,-2.3670060356140104,0.737471233177186
0.77771047849788,-2.48784524917603,-0.522840996551514,0.677595744895936
0.778316172016959,-4.1068784523010295,2.0565950386047396,-0.0241449777603145
0.778921865536039,-1.82202981948853,-0.400695000457764,0.440488811302186
0.779527559055118,2.44589498519897,-2.23527996139526,-1.09471870822906
0.780133252574197,4.47926656723022,-2.49154705123901,-0.986942829322814
0.780738946093277,1.10468404769897,2.8421614448547396,-1.10669380588531
0.781344639612356,-1.5010972023010298,3.6971834175109897,1.38891654567719
0.781950333131435,0.00776510238647461,-0.8461686332702639,1.00331840114594
0.782556026650515,-1.7573642921447798,-1.78741130905151,0.996133342552186
0.783161720169594,-1.94896585464478,0.9692561714172361,-1.09711372776031
0.783767413688674,-1.1801645851135298,-0.223463555145264,-0.297177204322814
0.784373107207753,0.6568153953552249,-2.60171794967651,-0.761810993385314
0.784978800726832,4.60141256332397,-1.32517253952026,-1.27913521213531
0.785584494245912,0.711900844573975,2.26496173782349,1.59728324489594
0.786190187764991,-1.71185892105103,4.32707355422974,0.0261504323959355
0.78679588128407,1.21245992660522,-1.46647869186401,0.835667033958436
0.78740157480315,-0.229341831207275,-2.1107389457702603,-0.5965546457290639
0.788007268322229,-0.8807871437072751,1.9607942573547401,0.0596807058334355
0.788612961841308,-2.16930765151978,0.720174140167236,0.596165080833436
0.789218655360388,-1.53223245620728,-3.2220280082702604,-1.05400337619781
0.789824348879467,3.47096334457397,-1.80896648483276,-0.845636676979064
0.790430042398546,0.8220717430114749,0.815974921417236,1.38173148708344
0.791035735917626,0.400548305511475,3.59180255813599,0.588980022239686
0.791641429436705,1.84953512191772,1.25426349563599,0.37342826442718596
0.792247122955784,-0.308377475738525,-2.32868572311401,0.260862346458436
0.792852816474864,-1.24483011245728,0.602818183135986,0.0333354909896855
0.793458509993943,-4.20028421401978,1.1009822456359901,0.378218303489686
0.794064203513022,-2.96684915542603,-1.42097332077026,-1.01807808322906
0.794669897032102,2.6111513328552203,-2.97773601608276,-0.824081501197814
0.795275590551181,2.86262838363647,-0.0869474418640137,-0.0528852121353145
0.79588128407026,1.26754537582397,3.9127351753234896,-0.407348102760314
0.79648697758934,1.1334242820739702,1.63507160110474,-0.10078560276031401
0.797092671108419,-0.10719583511352501,-2.64482830123901,0.694360881614686
0.797698364627498,-2.02081644058228,-0.800663262176514,0.8212969167709361
0.798304058146578,-4.2529746437072795,2.04222492141724,0.136321330833436
0.798909751665657,-2.51898050308228,0.495042304229736,-0.347472614479064
0.799515445184736,2.24950338363647,-2.42448650436401,-0.907907184791564
0.800121138703816,4.94390035629272,-2.68075359420776,-1.28392525119781
0.800726832222895,1.31065572738647,2.1667659370422396,0.0644707448959355
0.801332525741975,-1.18734964370728,4.03248615188599,0.986553264427186
0.801938219261054,0.14667623519897502,-1.00423992233276,1.34101615505219
0.802543912780133,-1.85316507339478,-1.00902996139526,-0.0600702707290645
0.803149606299213,-2.02081644058228,0.384871405792236,0.114766155052186
0.803755299818292,-0.847256870269775,-0.621036797332764,0.165061565208436
0.804360993337371,0.6352602195739749,-2.6400382621765104,-1.18812446994781
0.804966686856451,4.65170797348022,-1.58383464889526,-1.34140571994781
0.80557238037553,0.826861782073975,2.94754230422974,0.691965862083436
0.806178073894609,-2.0327915382385298,3.59180255813599,1.02726859645844
0.806783767413689,1.5190224266052201,-0.35518962936401405,-0.869586872291564
0.807389460932768,-0.768221225738525,-3.08072185592651,1.0943291433334401
0.807995154451847,-0.466448764801025,2.2362215034484896,0.0860259206771855
0.808600847970927,-2.42557474136353,1.17762287063599,-0.0624652902603145
0.809206541490006,-1.2783603858947798,-4.04351970748901,0.229727092552186
0.809812235009085,4.18467916488647,-1.5934147270202599,-1.45636665744781
0.810417928528165,0.311932582855225,0.861480292510986,0.229727092552186
0.811023622047244,0.414918422698975,3.7307136909484897,0.220147014427186
0.811629315566323,1.8399550437927201,0.942910956573486,0.29439261989593596
0.812235009085403,0.00537008285522461,-2.13947918014526,-0.36423775119781404
0.812840702604482,-1.29033548355103,0.26033039016723597,0.07165580348968549
0.813446396123562,-4.23860452651978,1.54645587844849,1.00571342067719
0.814052089642641,-2.71297708511353,-1.39941814498901,0.191406780052186
0.81465778316172,2.43870992660522,-2.58734783248901,-2.48143501682281
0.815263476680799,2.58241109848022,-0.556371269989014,0.224937053489686
0.815869170199879,1.8351650047302202,3.3475105659484896,0.428513713645936
0.816474863718958,0.965772914886475,2.01827472610474,-1.24320991916656
0.817080557238038,-0.164676303863525,-2.72386394577026,1.77451469020844
0.817686250757117,-1.92501565933228,-0.32644939498901404,0.390193401145936
0.818291944276196,-4.21465433120728,1.59675128860474,0.37342826442718596
0.818897637795276,-1.88430032730103,0.231590155792236,-0.201376423072814
0.819503331314355,2.18244283676147,-2.9250455863952602,-1.08513863010406
0.820109024833434,4.76187887191772,-2.02451824264526,-1.78208931369781
0.820714718352514,1.11905416488647,2.13802570266724,-0.5079389230728141
0.821320411871593,-1.24722513198853,3.7331087104797396,1.60446830348969
0.821926105390672,-0.44968362808227497,-0.530026055145264,1.13743949489594
0.822531798909752,-1.8555600929260299,-1.71795574264526,0.7446562917709361
0.823137492428831,-1.64000833511353,0.763284491729736,-0.5318891183853139
0.82374318594791,-1.58252786636353,-0.300104180145264,-0.0959955636978145
0.82434887946699,0.805306606292725,-2.29276043014526,-0.898327106666564
0.824954572986069,4.75229879379272,-1.78501628952026,-1.18812446994781
0.825560266505148,0.8963173484802249,2.33920734329224,0.869197307395936
0.826165960024228,-1.72383401870728,4.12828693313599,0.914702678489686
0.826771653543307,0.944217739105225,-0.494100762176514,0.0261504323959355
0.827377347062386,-0.744271030426025,-2.5466325004577604,-0.37381782932281404
0.827983040581466,-0.473633823394775,2.1308406440734897,0.191406780052186
0.828588734100545,-2.43275979995728,0.820764960479736,0.102791057395936
0.829194427619624,-0.9981431007385251,-3.59565105514526,-0.43608833713531403
0.829800121138704,3.62184957504272,-1.50000896530151,-1.28871529026031
0.830405814657783,0.343067836761475,0.617188300323486,0.430908733177186
0.831011508176863,0.450843715667725,3.44331134719849,0.888357463645936
0.831617201695942,1.61003316879272,1.39796466751099,0.18422172145843602
0.832222895215021,-0.11198587417602501,-2.2903654106140103,0.390193401145936
0.8328285887341,-0.605359897613525,0.5908430854797361,0.24888724880218602
0.83343428225318,-4.24578958511353,1.32371906204224,0.514734416770936
0.834039975772259,-2.84230813980103,-0.975499687957764,-0.9534125558853139
0.834645669291339,2.50337545394897,-3.13341228561401,-0.9941278879165639
0.835251362810418,2.77640768051147,-0.680912285614014,-0.198981403541564
0.835857056329497,1.86390523910522,3.87201984329224,-0.388187946510314
0.836462749848577,0.946612758636475,1.74045246047974,-0.0241449777603145
0.837068443367656,0.441263637542725,-2.2065397270202602,-0.0696503488540645
0.837674136886735,-2.38246438980103,-0.8270084770202639,0.481204143333436
0.838279830405815,-4.01826272964478,1.52969074172974,1.05361381130219
0.838885523924894,-2.47347513198853,0.5716829292297361,-0.31633736057281403
0.839491217443973,1.96928609848022,-2.3095255668640102,-1.08753364963531
0.840096910963053,4.93192525863647,-2.85079998092651,-1.0013129465103099
0.840702604482132,1.43519674301147,2.2937019721984897,-0.40495308322906404
0.841308298001211,-1.65677347183228,4.51149005813599,1.68110892848969
0.841913991520291,-0.00900003433227539,-0.831798516082764,0.6225102956771861
0.84251968503937,-1.2783603858947798,-1.62454998092651,-0.146290973854064
0.843125378558449,-2.12619729995728,0.36331623001098595,0.311157756614686
0.843731072077529,-0.8759971046447751,0.346551093292236,-1.11866890354156
0.844336765596608,0.144281215667725,-2.66398845748901,-0.5534442941665639
0.844942459115687,4.87204977035522,-1.55748943405151,-0.958202594947814
0.845548152634767,1.16934957504272,2.30567706985474,0.996133342552186
0.846153846153846,-2.23636819839478,4.2049275581359895,0.727891155052186
0.846759539672925,1.28431051254272,-0.774318047332764,0.33510795192718595
0.847365233192005,-0.267662143707275,-2.32150066452026,-0.278017048072814
0.847970926711084,-0.8544419288635251,1.68536701126099,0.929072795677186
0.848576620230164,-2.26750345230103,1.15606769485474,-0.0936005441665645
0.849182313749243,-1.61366312026978,-2.8627750785827604,-0.967782673072814
0.849788007268322,3.68412008285522,-2.4628068168640103,-0.5079389230728141
0.850393700787402,1.32502584457397,1.31413898391724,-0.448063434791564
0.850999394306481,-0.0329502296447754,3.2277595893859896,1.25719047145844
0.85160508782556,2.06269186019897,1.7596126167297401,-0.622899860572814
0.85221078134464,-0.0329502296447754,-2.59453289108276,0.5075493581771859
0.852816474863719,-0.864022006988525,-0.0198868949890137,0.46204398708343597
0.853422168382798,-4.50445169448853,1.63507160110474,-0.251671833229064
0.854027861901878,-3.3500522804260298,-1.01861003952026,-0.297177204322814
0.854633555420957,2.64468160629272,-3.46871501998901,-0.299572223854064
0.855239248940036,3.17158590316772,-0.343214531707764,-0.500753864479064
0.855844942459116,1.2412001609802201,3.7570589057922397,-1.08753364963531
0.856450635978195,1.00409322738647,1.91049884719849,0.38300834255218597
0.857056329497274,0.311932582855225,-2.3670060356140104,0.828481975364686
0.857662023016354,-2.71537210464478,-0.692887383270264,0.040520549583435504
0.858267716535433,-3.86019144058228,1.61830646438599,0.814111858177186
0.858873410054512,-2.3752793312072797,0.32020587844848597,-0.287597126197814
0.859479103573592,2.24471334457397,-2.2807853324890104,-1.23123482151031
0.860084797092671,4.76666891098022,-2.5059171684265102,-1.65036323947906
0.86069049061175,1.5142323875427202,1.59675128860474,0.0548906667709355
0.86129618413083,-0.947847690582275,4.18337238235474,0.598560100364686
0.861901877649909,-0.322747592926025,-0.26896892623901403,1.1326494558334401
0.862507571168988,-1.47714700698853,-1.91674236373901,0.816506877708436
0.863113264688068,-1.75017923355103,0.38008136672973597,-0.6157148019790639
0.863718958207147,-1.08675882339478,0.38008136672973597,-0.5103339426040641
0.864324651726227,0.285587368011475,-2.75499919967651,-0.22053657932281398
0.864930345245306,4.83372945785522,-1.57664959030151,-1.00610298557281
0.865536038764385,0.989723110198975,2.3439973823547398,0.938652873802186
0.866141732283465,-2.0160264015197797,3.78819415969849,0.5075493581771859
0.866747425802544,1.06396871566772,-0.194723320770264,0.632090373802186
0.867353119321623,-0.277242221832275,-2.9418107231140103,0.998528362083436
0.867958812840703,-0.447288608551025,2.12844562454224,-1.46355171604156
0.868564506359782,-2.28187356948853,1.01476154251099,0.8428520925521861
0.869170199878861,-1.76454935073853,-3.85191814498901,0.380613323020936
0.869775893397941,3.54760396957397,-1.61975994186401,-1.85393989963531
0.87038158691702,0.951402797698975,0.504622382354736,0.747051311302186
0.870987280436099,0.381388149261475,3.10082355422974,0.466834026145936
0.871592973955179,2.02197652816772,1.91289386672974,0.172246623802186
0.872198667474258,-0.164676303863525,-2.57537273483276,0.5099443777084359
0.872804360993337,-0.5814097023010251,0.169319647979736,-0.29478218479156404
0.873410054512417,-4.68407815933228,1.51771564407349,0.996133342552186
0.874015748031496,-2.78482767105103,-0.994659844207764,-0.297177204322814
0.874621441550575,2.25908346176147,-3.34896404342651,-1.22404976291656
0.875227135069655,2.95603414535522,-0.209093437957764,-0.943832477760314
0.875832828588734,1.7202040672302201,2.90682697219849,0.196196819114686
0.876438522107813,0.7023207664489749,2.5427840034484896,-0.23969673557281398
0.877044215626893,0.208946743011475,-2.31192058639526,0.610535198020936
0.877649909145972,-1.88190530776978,-1.50000896530151,0.878777385520936
0.878255602665051,-4.0733481788635295,2.1571858589172397,0.526709514427186
0.878861296184131,-2.50461038589478,0.0208284370422363,0.200986858177186
0.87946698970321,2.03634664535522,-2.26162517623901,-1.35817085666656
0.880072683222289,4.62296773910522,-2.4292765434265102,-0.828871540260314
0.880678376741369,2.27345357894897,1.42909992141724,0.00459525661468554
0.881284070260448,-1.64240335464478,4.06841144485474,1.29790580348969
0.881889763779528,-0.27005716323852497,0.056753730010986304,1.48232230739594
0.882495457298607,-1.22566995620728,-2.01493816452026,0.478809123802186
0.883101150817686,-2.20523294448853,1.05787189407349,-0.689960407447814
0.883706844336766,-1.5394175148010298,-0.058207207489013695,-0.0337250558853145
0.884312537855845,0.09159078598022459,-2.6831486137390104,-0.840846637916564
0.884918231374924,4.56548727035522,-1.33954265670776,-1.54258736057281
0.885523924894004,1.08073385238647,1.34527423782349,1.95653617458344
0.886129618413083,-1.67832864761353,4.52107013626099,0.34468803005218596
0.886735311932162,0.7550111961364749,-0.37674480514526404,0.7422612722396861
0.887341005451242,-0.260477085113525,-3.15736248092651,-0.000194782447814462
0.887946698970321,-0.665235385894775,2.00390460891724,-0.16066109104156398
0.8885523924894,-2.4183896827697797,0.962071112823486,0.691965862083436
0.88915808600848,-1.75975931167603,-3.0591666801452604,-1.12824898166656
0.889763779527559,2.88657857894897,-2.19216960983276,-0.254066852760314
0.890369473046638,0.843626918792725,0.241170233917236,-0.194191364479064
0.890975166565718,0.398153285980225,3.48642169876099,-0.627689899635314
0.891580860084797,1.89743551254272,1.97995441360474,0.7614214284896861
0.892186553603876,0.158651332855225,-2.2233048637390103,0.177036662864686
0.892792247122956,-0.631705112457275,-0.225858574676514,0.258467326927186
0.893397940642035,-4.25057962417603,1.73087238235474,0.236912151145936
0.894003634161115,-3.0339097023010297,-1.52156414108276,0.306367717552186
0.894609327680194,2.04113668441772,-2.78373943405151,-1.27434517307281
0.895215021199273,2.5345107078552203,-0.173168144989014,-0.9318573801040639
0.895820714718352,1.82318990707397,3.4481013862609897,-0.206166462135314
0.896426408237432,1.10947408676147,2.19790119094849,0.236912151145936
0.897032101756511,0.149071254730225,-2.65440837936401,1.5733330495834401
0.897637795275591,-1.87472024917603,-0.283339043426514,-1.35577583713531
0.89824348879467,-4.51163675308228,1.22791828079224,1.58291312770844
0.898849182313749,-2.24115823745728,0.617188300323486,0.13871635036468602
0.899454875832829,1.54776266098022,-2.37179607467651,-1.35098579807281
0.900060569351908,4.78343404769897,-2.46520183639526,-1.2623700754165599
0.900666262870987,1.95731100082397,1.4219148628234901,0.00699027614593554
0.901271956390067,-0.986168003082275,4.09715167922974,1.28593070583344
0.901877649909146,-0.6149399757385251,-0.0869474418640137,0.5434746511459361
0.902483343428225,-1.28794046401978,-1.58862468795776,0.157876506614686
0.903089036947305,-1.92501565933228,0.46151203079223596,-0.000194782447814462
0.903694730466384,-1.51546731948853,-0.0701823051452637,-0.177426227760314
0.904300423985463,0.6208901023864749,-2.24486003952026,-1.10429878635406
0.904906117504543,4.58225240707397,-1.76346111373901,-0.900722126197814
0.905511811023622,1.35376607894897,1.6997371284484901,0.32552787380218595
0.906117504542701,-2.01123636245728,4.18816242141724,0.270442424583436
0.906723198061781,0.563409633636475,-0.37674480514526404,1.4919023855209401
0.90732889158086,-0.447288608551025,-2.68075359420776,-0.840846637916564
0.907934585099939,-0.456868686676025,1.82667316360474,0.406958537864686
0.908540278619019,-2.55730081558228,1.03631671829224,1.24042533473969
0.909145972138098,-1.29033548355103,-2.9394157035827604,-1.70544868869781
0.909751665657177,3.06620504379272,-2.5562125785827603,-0.5151239816665639
0.910357359176257,1.2795204734802201,0.803999823760986,0.34468803005218596
0.910963052695336,0.5801747703552249,3.42894123001099,0.268047405052186
0.911568746214416,1.26036031723022,1.9392390815734901,0.974578166770936
0.912174439733495,0.0676405906677246,-2.13947918014526,0.042915569114685505
0.912780133252574,-0.7179258155822751,0.0208284370422363,-0.0792304269790645
0.913385826771653,-4.39907083511353,1.25905353469849,1.07516898708344
0.913991520290733,-3.02432962417603,-0.40788005905151403,-1.3006903879165599
0.914597213809812,1.8734853172302202,-3.37291423873901,-0.476803669166564
0.915202907328892,2.86262838363647,-0.870118828582764,-0.8336615793228139
0.915808600847971,1.66751363754272,3.3020051948547398,-0.18461128635406399
0.91641429436705,0.862787075042725,2.02785480422974,0.986553264427186
0.91701998788613,-0.0137900733947754,-1.73472087936401,-0.630084919166564
0.917625681405209,-1.7525742530822799,-1.18147136764526,-0.37621284885406403
0.918231374924288,-3.62547952651978,1.46502521438599,1.55896293239594
0.918837068443368,-2.52377054214478,0.5716829292297361,-0.00498482151031446
0.919442761962447,1.58368795394897,-2.3741910942077604,-0.838451618385314
0.920048455481526,4.65889303207397,-2.32868572311401,-1.6814984933853099
0.920654149000606,1.7800795555114701,1.35245929641724,-0.23969673557281398
0.921259842519685,-1.28794046401978,4.31509845657349,0.754236369895936
0.921865536038764,-0.14791116714477498,-0.561161309051514,1.46795219020844
0.922471229557844,-1.42445657730103,-2.15624431686401,0.711126018333436
0.923076923076923,-1.94657083511353,0.940515937042236,-0.8719818918228139
0.923682616596002,-1.5010972023010298,-0.194723320770264,0.27283744411468597
0.924288310115082,0.235291957855225,-2.00296306686401,-1.39649116916656
0.924894003634161,4.68284322738647,-2.41251140670776,-0.27562202854156403
0.92549969715324,1.36334615707397,1.86020343704224,0.0117803152084355
0.92610539067232,-1.74538919448853,4.56897052688599,0.41414359645843596
0.926711084191399,0.652025356292725,-0.678517266082764,1.21168510036469
0.927316777710478,-0.430523471832275,-2.5562125785827603,-1.21207466526031
0.927922471229558,-0.8568369483947751,0.904590644073486,0.9793682058334361
0.928528164748637,-2.0926670265197798,1.39317462844849,-0.10318062229156401
0.929133858267717,-1.90106546401978,-3.01366130905151,-0.802526325416564
0.929739551786796,3.18595602035522,-2.5538175590515104,-0.927067341041564
0.930345245305875,1.26515035629272,0.607608222198486,-0.040910114479064494
0.930950938824954,0.08680074691772459,3.1319588081359897,0.632090373802186
0.931556632344034,1.82318990707397,1.82427814407349,0.0596807058334355
0.932162325863113,0.165836391448975,-2.27599529342651,0.447673869895936
0.932768019382193,-0.8951572608947751,0.0926790229797363,-0.10557564182281401
0.933373712901272,-3.8889316749572798,1.34527423782349,0.45246390895843597
0.933979406420351,-3.5296787452697798,-0.582716484832764,-0.481593708229064
0.934585099939431,1.84235006332397,-3.6076261528015103,-0.36663277072906403
0.93519079345851,2.99914449691772,-0.757552910614014,-0.7139106027603139
0.935796486977589,1.24599020004272,3.67562824172974,-0.0025898019790644602
0.936402180496669,1.1382143211364701,2.0542000190734897,0.608140178489686
0.937007874015748,0.412523403167725,-2.0939738090515103,0.12434623317718599
0.937613567534827,-1.82681985855103,-1.43534343795776,0.5434746511459361
0.938219261053907,-3.99670755386353,1.85062335891724,0.7422612722396861
0.938824954572986,-3.01474954605103,1.21354816360474,-0.498358844947814
0.939430648092065,1.3226308250427201,-2.10834392623901,-0.9534125558853139
0.940036341611145,4.96066549301147,-3.1214371879577603,-1.41086128635406
0.940642035130224,2.11059225082397,0.8135799018859861,-0.321127399635314
0.941247728649303,-1.5346274757385299,4.47556476516724,0.699150920677186
0.941853422168383,-0.0473203468322754,0.0495686714172363,1.77690970973969
0.942459115687462,-1.3214707374572798,-2.12510906295776,1.12306937770844
0.943064809206541,-2.27947854995728,0.940515937042236,-0.677985309791564
0.943670502725621,-1.60408304214478,-0.508470879364014,0.7039409597396861
0.9442761962447,-0.023370151519775402,-1.98140789108276,-1.76771919651031
0.94488188976378,4.55351217269897,-1.76106609420776,-0.630084919166564
0.945487583282859,1.11186910629272,1.74524249954224,0.27523246364593595
0.946093276801938,-1.5178623390197798,4.21690265579224,0.30397269802093596
0.946698970321018,0.8388368797302249,-0.189933281707764,0.974578166770936
0.947304663840097,-0.14791116714477498,-2.2975504692077604,-0.565419391822814
0.947910357359176,-0.9358725929260251,0.9117757026672361,0.876382365989686
0.948516050878256,-1.94896585464478,2.04461994094849,-0.44327339572906405
0.949121744397335,-2.34174905776978,-3.01366130905151,-1.2623700754165599
0.949727437916414,3.60029439926147,-2.55142253952026,-0.929462360572814
0.950333131435494,1.50944234848022,0.142974433135986,1.64278861598969
0.950938824954573,-0.454473667144775,3.85525470657349,-0.6923554269790639
0.951544518473652,1.94054586410522,2.0805452339172397,0.646460490989686
0.952150211992732,0.0748256492614746,-2.4628068168640103,0.9218877370834361
0.952755905511811,-0.574224643707275,0.059148749542236305,-1.01328804416656
0.95336159903089,-4.3727256202697795,0.995601386260986,1.29311576442719
0.95396729254997,-3.35963235855103,0.0304085151672363,-0.8959320871353139
0.954572986069049,1.8998305320739701,-3.2316080863952603,0.12913627223968602
0.955178679588128,2.48182027816772,-1.13836101608276,-1.10908882541656
0.955784373107208,1.89264547348022,3.4481013862609897,-1.1809394113540599
0.956390066626287,1.1549794578552202,1.82427814407349,1.68829398708344
0.956995760145366,0.117936000823975,-1.25811199264526,-0.48638374729156403
0.957601453664446,-2.02560647964478,-1.34672771530151,0.17943168239593602
0.958207147183525,-3.8721665382385297,1.30455890579224,0.878777385520936
0.958812840702604,-2.20762796401978,0.657903632354736,0.00938529567718554
0.959418534221684,0.786146450042725,-2.25204509811401,-0.7330707590103139
0.960024227740763,4.65410299301147,-2.2999454887390103,-1.54737739963531
0.960629921259842,2.32135396957397,0.662693671417236,0.12195121364593599
0.961235614778922,-1.28075540542603,4.6575862495422395,0.339897990989686
0.961841308298001,-0.34909280776977497,-0.0941325004577637,1.42484183864594
0.962447001817081,-0.420943393707275,-1.58383464889526,0.337502971458436
0.96305269533616,-2.3321689796447798,0.763284491729736,0.26325736598968597
0.963658388855239,-1.60168802261353,0.130999335479736,-0.419323200416564
0.964264082374319,0.204156703948975,-2.3574259574890104,-1.19770454807281
0.964869775893398,4.26131978988647,-2.5897428520202603,-0.5773944894790639
0.965475469412477,1.76570943832397,1.89133869094849,-0.357052692604064
0.966081162931557,-1.73341409683228,4.03967121047974,1.2739556081771901
0.966686856450636,0.848416957855225,-0.158798027801514,1.32904105739594
0.967292549969715,-0.210181674957275,-2.8388248832702603,-0.907907184791564
0.967898243488795,-0.607754917144775,1.19917804641724,-0.201376423072814
0.968503937007874,-1.97770608901978,1.20396808547974,0.907517619895936
0.969109630526953,-1.8555600929260299,-2.01254314498901,-1.85154488010406
0.969715324046033,2.57283102035522,-3.1286222465515103,0.160271526145936
0.970321017565112,1.80881978988647,0.7081990425109861,-0.0576752511978145
0.970926711084191,0.390968227386475,3.31637531204224,1.20689506130219
0.971532404603271,1.3561610984802202,1.37161945266724,1.63560355739594
0.97213809812235,0.426893520355225,-1.10962078170776,-1.01328804416656
0.972743791641429,-0.8592319679260251,-0.949154473114014,1.45118705348969
0.973349485160509,-3.68775003433228,1.87457355422974,0.37342826442718596
0.973955178679588,-3.92725198745728,-0.532421074676514,-0.721095661354064
0.974560872198667,1.4759120750427202,-3.5046403129577604,-0.630084919166564
0.975166565717747,3.26020162582397,-0.9874747856140139,-0.388187946510314
0.975772259236826,1.48788717269897,3.68520831985474,-0.768996051979064
0.976377952755905,0.824466762542725,2.12844562454224,0.529104533958436
0.976983646274985,0.467608852386475,-2.05325847702026,0.12195121364593599
0.977589339794064,-1.59210794448853,-1.55269939498901,0.114766155052186
0.978195033313144,-4.13561868667603,1.63746662063599,0.512339397239686
0.978800726832223,-2.63394144058228,0.621978339385986,0.514734416770936
0.979406420351302,0.8148866844177249,-1.76585613327026,-1.05400337619781
0.980012113870382,4.68044820785522,-2.3502408988952603,-2.12218208713531
0.980617807389461,2.42912984848022,0.176504706573486,0.00220023708343554
0.98122350090854,-1.63521829605103,4.6504011909484895,0.375823283958436
0.98182919442762,-0.411363315582275,-0.0438370903015137,1.72421928005219
0.982434887946699,-0.8568369483947751,-1.77543621139526,0.299182658958436
0.983040581465778,-2.11661722183228,0.6914339057922361,-0.311547321510314
0.983646274984858,-1.2951255226135299,-0.13724285202026398,0.217751994895936
0.984251968503937,-0.44968362808227497,-2.2664152153015102,-0.962992634010314
0.984857662023016,4.7283485984802205,-1.84968181686401,-0.5558393136978139
0.985463355542096,1.7537343406677202,1.53448078079224,0.768606487083436
0.986069049061175,-2.02321146011353,4.74620197219849,-0.503148884010314
0.986674742580254,0.647235317230225,-0.199513359832764,1.03684867458344
0.987280436099334,-0.210181674957275,-3.07353679733276,0.7231011159896861
0.987886129618413,-0.6412851905822751,1.65183673782349,0.258467326927186
0.988491823137492,-2.43275979995728,1.08900714797974,0.689570842552186
0.989097516656572,-1.73820413589478,-1.97901287155151,-1.53300728244781
0.989703210175651,3.15482076644897,-2.9489957817077603,0.0548906667709355
