Time (s),Accel X (m/s^2),Accel Y (m/s^2),Accel Z (m/s^2)
0.0,-0.210080073738098,1.1462889049529998,-0.288842910575867
0.000605693519079346,0.604226566886902,-1.29423599739075,0.752990585517883
0.00121138703815869,0.915579105949402,-1.2535206653595001,-0.880412734794617
0.00181708055723804,-2.1308857378006,1.1630540416717499,0.295541855049133
0.00242277407631738,-0.286720698738098,1.34028548698425,0.547018905830383
0.00302846759539673,2.1514091840744,-0.659555821609497,-0.650490859794617
0.00363416111447607,-0.566937983894348,-0.633210606765747,0.444033065986633
0.00423985463355542,-1.1920380815506,0.401437830734253,-0.547505019950867
0.00484554815263477,-0.583703120613098,-0.166181798171997,0.657189804267883
0.00545124167171411,0.735952641105652,0.842121424484253,-0.11640150432586699
0.00605693519079346,0.886838871574402,-1.76844986457825,-0.528344863700867
0.0066626287098728,-0.871105464363098,0.106850428390503,-0.06610609416961649
0.00726832222895215,-1.6470917924881001,2.40846419792175,0.973332382392883
0.0078740157480315,1.3083623090743999,-0.297907872390747,-0.0613160551071165
0.00847970926711084,0.541956059074402,-1.05952408332825,0.709880233955383
0.00908540278619019,-1.44351513233185,-0.305092930984497,-0.0397608793258665
0.00969109630526953,0.110852543449402,-0.0584059192657471,-0.125981582450867
0.0102967898243489,0.149172855949402,0.961872401046753,0.551808944892883
0.0109024833434282,1.2149565473556498,-1.2271754505157502,-0.022995742607116502
0.0115081768625076,0.525190922355652,-0.903847813796997,-0.262497695732117
0.0121138703815869,-1.69259716358185,2.0324461315155,0.295541855049133
0.0127195639006663,0.0653471723556519,0.399042811203003,0.479958358955383
0.0133252574197456,0.735952641105652,-0.831997227859497,0.297936874580383
0.013930950938825,-0.337016108894348,-0.029665684890747102,-0.346323379325867
0.0145366444579043,-0.382521479988098,0.466103358078003,-0.607380508232117
0.0151423379769836,-0.420841792488098,-0.245217442703247,0.551808944892883
0.015748031496063,1.0305400434493999,-0.994858555984497,-1.01453382854462
0.0163537250151423,0.422205082511902,-0.745776524734497,0.376972519111633
0.0169594185342217,-1.7069672807693501,2.20728255729675,0.163815780830383
0.017565112053301,-0.303485835456848,0.607409510421753,0.139865585517883
0.0181708055723804,1.38739795360565,-1.2918409778595001,0.585339218330383
0.0187764990914597,-0.162179683113098,-0.216477208328247,-0.710366348075867
0.0193821926105391,-0.921400874519348,0.217021326828003,-0.372668594169617
0.0199878861296184,-0.131044429206848,0.763085779953003,0.573364120674133
0.0205935796486978,0.7575078168869019,-1.3948268177032501,0.281171737861633
0.0211992731677771,1.0880205121994,-1.24154556770325,-1.12470472698212
0.0218049666868564,-1.7716328081131,1.155868983078,0.937407089424133
0.0224106602059358,-0.523827632331848,1.46003646354675,-0.351113418388367
0.0230163537250151,1.9334624067306498,-0.920612950515747,-0.343928359794617
0.0236220472440945,-0.545382808113098,-0.707456212234497,0.709880233955383
0.0242277407631738,-0.808834956550598,0.494843592453003,-1.14386488323212
0.0248334342822532,-0.471137202644348,-0.0248756458282471,0.985307480049133
0.0254391278013325,0.175518070793152,0.475683436203003,-0.250522598075867
0.0260448213204119,1.8448466840744,-2.570781407547,-0.775031875419617
0.0266505148394912,-0.416051753425598,0.619384608078003,0.180580917549133
0.0272562083585706,-2.3320673784256,2.851542811203,1.30145005817413
0.0278619018776499,1.95741260204315,-0.949353184890747,0.0440648042678835
0.0284675953967293,0.180308109855652,-1.0571290637970001,-0.341533340263367
0.0290732889158086,-1.52015575733185,-0.158996739578247,-0.238547500419617
0.0296789824348879,0.182703129386902,0.214626307296753,-0.408593887138367
0.0302846759539673,0.0509770551681519,0.866071619796753,0.879926620674133
0.0308903694730466,1.6580351606369,-1.6127735950470001,-0.583430312919617
0.031496062992126,0.338379398918152,-0.980488438796997,-0.0852662504196165
0.0321017565112053,-2.2410566362381,2.88746810417175,0.264406601142883
0.0327074500302847,0.424600102043152,-0.14702164192199701,0.714670273017883
0.033313143549364,1.26764697704315,-0.472744298171997,-0.583430312919617
0.0339188370684434,-1.05073192920685,-0.173366856765747,0.230876327705383
0.0345245305875227,-0.123859370613098,-0.307487950515747,0.0823851167678835
0.0351302241066021,-0.104699214363098,0.700815272140503,-0.504394668388367
0.0357359176256814,1.12394580516815,-1.2535206653595001,-0.149931777763367
0.0363416111447607,0.6784721723556519,-0.546989903640747,-0.312793105888367
0.0369473046638401,-1.9464692338943501,2.2432078502654997,0.441638046455383
0.0375529981829194,0.223418461418152,0.504423670578003,-0.046945937919616494
0.0381586917019988,1.59815967235565,-1.53852798957825,0.398527694892883
0.0387643852210781,-0.612443354988098,-0.149416661453247,0.364997421455383
0.0393700787401575,-0.945351069831848,0.514003748703003,0.295541855049133
0.0399757722592368,-0.696269038581848,0.616989588546753,1.17690904254913
0.0405814657783162,0.5587211957931519,-1.04994400520325,0.31949205036163303
0.0411871592973955,1.6340849653243998,-1.4762574817657501,-1.0025587308883699
0.0417928528164749,-2.2650068315506,1.38339583854675,0.865556503486633
0.0423985463355542,-0.483112300300598,2.1761473033905,-0.597800430107117
0.0430042398546336,2.2615800825119,-1.938496251297,0.848791366767883
0.0436099333737129,-0.674713862800598,-0.295512852859497,-0.561875137138367
0.0442156268927922,-0.847155269050598,0.0134446666717529,-0.889992812919617
0.0448213204118716,-0.502272456550598,-0.455979161453247,1.0595530855178799
0.0454270139309509,0.700027348136902,1.3331004283905,-0.940288223075867
0.0460327074500303,1.3299174848556499,-2.70250748176575,-0.178672012138367
0.0466384009691096,-0.727404292488098,0.437363123703003,-0.281657851982117
0.047244094488189,-1.9033588823318501,2.1953074596405,1.7732689058303799
0.0478497880072683,1.4616435590744,-0.400893712234497,-0.535529922294617
0.0484554815263477,0.494055668449402,-1.124189610672,0.10873033161163301
0.049061175045427,-0.854340327644348,-0.0440358020782471,-0.308003066825867
0.0496668685645064,0.244973637199402,0.0805052135467529,-0.815747207450867
0.0502725620835857,-0.0567988237380981,0.595434412765503,0.839211288642883
0.050878255602665,1.27722705516815,-1.191250157547,-0.286447891044617
0.0514839491217444,0.199468266105652,-1.04036392707825,-0.346323379325867
0.0520896426408237,-2.3608076128006,2.4659446666717497,0.034484726142883504
0.0526953361599031,0.702422367668152,-0.472744298171997,0.882321640205383
0.0533010296789824,1.8208964887619,-0.793676915359497,-0.06610609416961649
0.0539067231980618,-1.0052265581131001,0.578669276046753,-0.188252090263367
0.0545124167171411,-0.406471675300598,0.224206385421753,-0.319978164482117
0.0551181102362205,-0.356176265144348,0.217021326828003,0.14226060504913302
0.0557238037552998,1.47840869579315,-0.913427891921997,-0.487629531669617
0.0563294972743792,0.767087895011902,-0.587705235671997,0.041669784736633506
0.0569351907934585,-2.3033271440506002,1.8168943737029999,0.594919296455383
0.0575408843125379,0.685657230949402,0.839726404953003,-0.11879652385711699
0.0581465778316172,0.783853031730652,-0.915822911453247,0.997282577705383
0.0587522713506965,-0.605258296394348,0.605014490890503,-1.56778334026337
0.0593579648697759,-0.744169429206848,-0.350598302078247,0.00813951129913347
0.0599636583888552,-0.866315425300598,0.355932459640503,0.245246444892883
0.0605693519079346,1.2221416059494,-1.1768800403595001,-0.9331031644821169
0.0611750454270139,1.23890674266815,-1.1193995716095,0.295541855049133
0.0617807389460933,-2.00873974170685,2.17854232292175,0.882321640205383
0.0623864324651726,-0.178944819831848,1.0456980846405,-0.822932266044617
0.062992125984252,2.14422412548065,-1.8259303333282502,0.597314315986633
0.0635978195033313,-0.849550288581848,-0.132651524734497,0.398527694892883
0.0642035130224107,-0.899845698738098,0.957082361984253,-1.23966566448212
0.06480920654149,-0.521432612800598,-0.451189122390747,1.5433470308303798
0.0654149000605694,0.702422367668152,0.911576990890503,-1.29475111370087
0.0660205935796487,1.39697803173065,-2.94679947395325,0.252431503486633
0.066626287098728,-1.0818671831131002,0.863676600265503,-0.178672012138367
0.0672319806178074,-1.39082470264435,2.40367415885925,1.01644273395538
0.0678376741368867,1.8065263715744,-0.906242833328247,0.362602401924133
0.0684433676559661,0.362329594230652,-0.479929356765747,-0.885202773857117
0.0690490611750454,-1.3692695268631,-1.152929845047,0.6835350191116331
0.0696547546941248,-0.250795405769348,0.506818690109253,0.293146835517883
0.0702604482132041,0.197073246574402,0.837331385421753,0.774545761299133
0.0708661417322835,1.8208964887619,-0.724221348953247,-0.341533340263367
0.0714718352513628,-0.296300776863098,-0.702666173171997,0.247641464424133
0.0720775287704422,-1.6949921831131,1.4576414440154999,0.163815780830383
0.0726832222895215,0.520400883293152,0.135590662765503,0.10873033161163301
0.0732889158086008,1.0544902387619,-0.245217442703247,0.144655624580383
0.0738946093276802,-0.595678218269348,-0.123071446609497,0.0632249605178835
0.0745003028467595,-0.808834956550598,0.21223128776550299,-0.298422988700867
0.0751059963658389,0.0653471723556519,0.188281092453003,0.036879745674133504
0.0757116898849182,1.36344775829315,-1.41398697395325,0.11352037067413301
0.0763173834039976,0.561116215324402,0.286476893234253,-0.243337539482117
0.0769230769230769,-1.8913837846756,1.7546238658905,0.496723495674133
0.0775287704421563,-0.303485835456848,0.39425277214050297,0.11831040973663301
0.0781344639612356,0.692842289543152,-1.1577198841095,0.204531112861633
0.078740157480315,-0.372941401863098,-0.544594884109497,-0.14753675823211698
0.0793458509993943,-0.480717280769348,0.499633631515503,-0.44930921916961697
0.0799515445184737,-0.214870112800598,0.787035975265503,0.432057968330383
0.080557238037553,1.2125615278244,-0.585310216140747,-0.236152480888367
0.0811629315566323,1.1550810590743998,-1.51936783332825,-0.401408828544617
0.0817686250757117,-2.5571992143631,0.892416834640503,0.434452987861633
0.082374318594791,-0.911820796394348,2.05879134635925,-0.427754043388367
0.0829800121138704,1.7538359418868998,-1.1457447864532502,1.04997300739288
0.0835857056329497,0.158752934074402,-0.235637364578247,-0.370273574638367
0.0841913991520291,-1.1058173784256,-0.0847511341094971,-0.545110000419617
0.0847970926711084,-0.633998530769348,-0.379338536453247,0.757780624580383
0.0854027861901878,0.470105473136902,1.23490462760925,-0.715156387138367
0.0860084797092671,0.951504398918152,-1.85467056770325,-0.257707656669617
0.0866141732283465,-0.890265620613098,0.188281092453003,-0.456494277763367
0.0872198667474258,-1.28065380420685,1.8767698619842499,0.717065292549133
0.0878255602665051,1.9789677778244,-0.683506016921997,0.14705064411163302
0.0884312537855845,0.163542973136902,-0.460769200515747,-0.650490859794617
0.0890369473046638,-1.1776679643631,0.111640467453003,0.11831040973663301
0.0896426408237432,0.441365238761902,-0.173366856765747,0.273986679267883
0.0902483343428225,0.127617680168152,0.652914881515503,-0.183462051200867
0.0908540278619019,1.0473051801681499,-1.1193995716095,0.0919651948928835
0.0914597213809812,-0.0232685503005981,-0.44400406379699703,-0.612170547294617
0.0920654149000606,-1.1537177690506,2.3461936901092497,0.204531112861633
0.0926711084191399,0.118037602043152,-0.127861485671997,0.846396347236633
0.0932768019382193,1.15747607860565,-0.618840489578247,0.15184068317413302
0.0938824954572986,-0.895055659675598,-0.410473790359497,0.192556015205383
0.094488188976378,-0.708244136238098,0.214626307296753,-0.39901380901336697
0.0950938824954573,0.407834965324402,-0.175761876296997,0.693115097236633
0.0956995760145366,0.585066410636902,-0.669135899734497,-1.09835951213837
0.096305269533616,0.829358402824402,-0.503879552078247,0.0272996675491335
0.0969109630526953,-1.2734687456131,1.366630701828,0.616474472236633
0.0975166565717747,-0.49508739795684803,0.911576990890503,0.0584349214553835
0.098122350090854,1.0592802778244,-0.839182286453247,0.20213609333038302
0.0987280436099334,-0.0424287065505981,-0.252402501296997,-0.257707656669617
0.0993337371290127,-1.1034223588943501,0.0829002330780029,0.369787460517883
0.0999394306480921,-0.0759589799880981,0.343957361984253,-0.281657851982117
0.100545124167171,0.17072803173065199,-1.43793716926575,0.386552597236633
0.101150817686251,1.0640703168869,-0.250007481765747,-0.0349708402633665
0.10175651120533,-1.67343700733185,1.0121678112030001,0.848791366767883
0.102362204724409,-0.257980464363098,1.251669764328,-0.810957168388367
0.102967898243489,1.7538359418868998,-1.2535206653595001,0.678744980049133
0.103573591762568,-0.478322261238098,-0.285932774734497,-0.130771621513367
0.104179285281647,-0.933375972175598,0.708000330734253,-0.810957168388367
0.104784978800727,-0.511852534675598,-0.11349136848449701,0.724250351142883
0.105390672319806,0.776667973136902,0.557114100265503,-0.387038711357117
0.105996365838886,1.0065898481369,-2.43426529426575,0.14226060504913302
0.106602059357965,-0.507062495613098,0.878046717453003,-0.882807754325867
0.107207752877044,-1.8722236284256,1.8863499401092498,1.44994126911163
0.107813446396124,1.2556718793869,-0.178156895828247,-0.224177383232117
0.108419139915203,0.144382816886902,-0.654765782546997,0.190160995674133
0.109024833434282,-1.05073192920685,-0.420053868484497,0.0775950777053835
0.109630526953362,0.458130375480652,0.178701014328003,-0.667255996513367
0.110236220472441,-0.0304536088943481,0.698420252609253,0.300331894111633
0.11084191399152,1.04251514110565,-0.719431309890747,0.13747056598663301
0.1114476075106,0.300059086418152,-0.820022130203247,-0.0325758207321165
0.112053301029679,-1.9416791948318501,2.11148177604675,-0.501999648857117
0.112658994548758,-0.0400336870193481,-0.479929356765747,1.29186998004913
0.113264688067838,1.6197148481369,-0.515854649734497,-0.164301894950867
0.113870381586917,-0.490297358894348,0.468498377609253,-0.437334121513367
0.114476075105996,-0.653158687019348,-0.053615880203247104,-0.319978164482117
0.115081768625076,0.14198779735565198,0.449338221359253,-0.590615371513367
0.115687462144155,0.616201664543152,-1.737314610672,0.855976425361633
0.116293155663234,0.702422367668152,0.552324061203003,-1.0073487699508699
0.116898849182314,-1.3836396440506,1.90551009635925,1.07152818317413
0.117504542701393,0.182703129386902,0.430178065109253,0.223691269111633
0.118110236220472,1.7394658246994,-0.367363438796997,-0.463679336357117
0.118715929739552,-1.1968281206131,-0.525434727859497,0.31949205036163303
0.119321623258631,-0.854340327644348,0.317612147140503,-0.698391250419617
0.11992731677771,-0.346596187019348,-0.166181798171997,0.580549179267883
0.12053301029679,0.606621586418152,-1.5361329700470001,-0.267287734794617
0.121138703815869,1.4616435590744,-0.920612950515747,-0.494814590263367
0.121744397334949,-1.8434833940506001,2.190517420578,0.812866073799133
0.122350090854028,-0.32504101123809803,0.844516444015503,0.477563339424133
0.122955784373107,1.70833057079315,-1.3397413684845,-0.751081680107117
0.123561477892187,-1.48662548389435,-0.182946934890747,0.10633531208038301
0.124167171411266,-0.545382808113098,0.130800623703003,0.312306991767883
0.124772864930345,0.285688969230652,0.561904139328003,0.173395858955383
0.125378558449425,-0.574123042488098,0.0876902721405029,0.391342636299133
0.125984251968504,1.4233232465744,-2.08938248176575,-1.2109254301071202
0.126589945487583,-0.665133784675598,0.624174647140503,0.477563339424133
0.127195639006663,-1.3548994096756,2.34140365104675,0.774545761299133
0.127801332525742,2.15859424266815,-0.671530919265747,-0.679231094169617
0.128407026044821,-0.00171337451934814,-1.191250157547,1.15295884723663
0.129012719563901,-0.995646479988098,0.236181483078003,-1.01692884807587
0.12961841308298,0.14677783641815198,-0.621235509109497,0.333862167549133
0.130224106602059,-0.528617671394348,0.767875819015503,0.463193222236633
0.130829800121139,1.58378955516815,-1.24154556770325,-0.470864394950867
0.131435493640218,0.673682133293152,-0.453584141921997,-0.185857070732117
0.132041187159297,-1.2159882768631,1.9653855846405,-0.154721816825867
0.132646880678377,0.570696293449402,0.0038645885467529497,1.16732896442413
0.133252574197456,-0.028058589363098102,0.217021326828003,0.022509628486633498
0.133858267716535,-0.511852534675598,-1.2535206653595001,0.441638046455383
0.134463961235615,-0.21726513233184802,0.775060877609253,-0.679231094169617
0.135069654754694,-0.246005366706848,0.403832850265503,0.362602401924133
0.135675348273773,2.30229541454315,-1.2535206653595001,-0.616960586357117
0.136281041792853,0.0581621137619019,0.597829432296753,-0.312793105888367
0.136886735311932,-1.73091747608185,1.2061643932342498,1.88343980426788
0.137492428831012,-0.183734858894348,0.554719080734253,-0.250522598075867
0.138098122350091,-0.346596187019348,-0.858342442703247,0.717065292549133
0.13870381586917,1.01856494579315,-0.544594884109497,-0.312793105888367
0.13930950938825,-0.09272411670684809,0.137985682296753,-0.741501601982117
0.139915202907329,-0.569333003425598,0.523583826828003,0.408107773017883
0.140520896426408,0.836543461418152,-1.1098194934845,0.336257187080383
0.141126589945488,-0.131044429206848,-0.882292638015747,-0.686416152763367
0.141732283464567,-1.47704540576935,1.31633529167175,0.764965683174133
0.142337976983646,-0.229240229988098,1.22532454948425,0.422477890205383
0.142943670502726,1.98615283641815,-0.453584141921997,-0.439729141044617
0.143549364021805,0.228208500480652,-0.963723302078247,0.12070542926788301
0.144155057540884,-1.11779247608185,0.0948753307342529,-0.238547500419617
0.144760751059964,-0.715429194831848,0.540348963546753,0.628449569892883
0.145366444579043,-0.430421870613098,0.147565760421753,-0.353508437919617
0.145972138098122,1.65564014110565,-1.6558839466095001,-1.01932386760712
0.146577831617202,-0.0472187456130981,-0.633210606765747,0.479958358955383
0.147183525136281,-1.36208446826935,2.2336277721405,0.408107773017883
0.14778921865536,0.944319340324402,-0.360178380203247,0.570969101142883
0.14839491217444,-0.15738964405059802,-1.516972813797,-0.0924513090133665
0.149000605693519,-0.902240718269348,0.15235579948425299,-0.466074355888367
0.149606299212598,-0.21247509326934802,-0.439214024734497,0.398527694892883
0.150211992731678,0.187493168449402,1.5007517955779999,-0.854067519950867
0.150817686250757,1.5095439496993999,-1.1960401966095,0.832026230049133
0.151423379769836,1.07604541454315,-0.470349278640747,-1.4767725980758701
0.152029073288916,-1.77402782764435,1.4791966197967499,0.836816269111633
0.152634766807995,-0.760934565925598,-0.218872227859497,0.585339218330383
0.153240460327075,1.29638721141815,0.188281092453003,-0.767846816825867
0.153846153846154,-0.37533642139434803,-1.1074244739532502,1.16493394489288
0.154451847365233,0.07732227001190191,0.940317225265503,-1.6132887113571202
0.155057540884313,-0.183734858894348,-0.326648106765747,0.896691757392883
0.155663234403392,1.3730278364181498,-0.666740880203247,-1.0911744535446202
0.156268927922471,0.781458012199402,-0.412868809890747,0.597314315986633
0.156874621441551,-2.19076122608185,1.65642806510925,0.11591539020538301
0.15748031496063,0.012656742668151899,0.837331385421753,0.0943602144241335
0.158086008479709,0.932344242668152,-1.38045670051575,0.580549179267883
0.158691701998789,0.6377568403244019,0.149960779953003,-0.945078262138367
0.159297395517868,-1.0866572221756001,0.106850428390503,0.489538437080383
0.159903089036947,-0.804044917488098,1.165449061203,-0.14753675823211698
0.160508782556027,0.712002445793152,-1.28465591926575,0.860766464424133
0.161114476075106,1.27722705516815,-1.16969498176575,-0.794192031669617
0.161720169594185,-1.98957958545685,0.911576990890503,1.11703355426788
0.162325863113265,-0.693874019050598,1.9079051158904998,-0.691206191825867
0.162931556632344,1.8783769575119,-1.382851720047,0.980517440986633
0.163537250151423,-0.200499995613098,0.0852952526092529,-0.233757461357117
0.164142943670503,-1.0914472612381,0.207441248703003,-0.741501601982117
0.164748637189582,-1.1345576128006,-0.250007481765747,0.9230369722366331
0.165354330708661,0.695237309074402,0.942712244796753,-0.8732276762008669
0.165960024227741,1.55983935985565,-2.2211085559845,0.472773300361633
0.16656571774682,-0.382521479988098,0.631359705734253,-0.621750625419617
0.167171411265899,-2.1260956987381,2.133036951828,1.2607347261428798
0.167777104784979,1.34907764110565,0.0948753307342529,-0.21220228557586698
0.168382798304058,0.352749516105652,-1.3493214466095,-0.0900562894821165
0.168988491823137,-0.598073237800598,0.0517649791717529,-0.497209609794617
0.169594185342217,0.115642582511902,0.252946619796753,0.0943602144241335
0.170199878861296,-0.416051753425598,0.715185389328003,0.695510116767883
0.170805572380376,1.49756885204315,-0.786491856765747,-0.885202773857117
0.171411265899455,0.415020023918152,-1.05473404426575,-0.0373658597946165
0.172016959418534,-1.9488642534256,1.8863499401092498,0.580549179267883
0.172622652937614,0.134802738761902,0.475683436203003,0.295541855049133
0.173228346456693,1.1215507856369,-0.918217930984497,0.951777206611633
0.173834039975772,-0.210080073738098,-0.127861485671997,-0.609775527763367
0.174439733494852,-0.399286616706848,0.0709251354217529,-0.315188125419617
0.175045427013931,-0.418446772956848,0.262526697921753,0.386552597236633
0.17565112053301,1.5095439496993999,-1.3493214466095,-0.348718398857117
0.17625681405209,0.585066410636902,-0.616445470046997,0.0728050386428835
0.176862507571169,-1.8267182573318501,1.9270652721405,-0.12358656291961699
0.177468201090248,-0.186129878425598,0.389462733078003,0.336257187080383
0.178073894609328,1.12394580516815,-0.736196446609497,0.0560399019241335
0.178679588128407,-0.21247509326934802,-0.580520177078247,-0.125981582450867
0.179285281647486,-0.329831050300598,0.140380701828003,-0.159511855888367
0.179890975166566,-0.7393793901443481,1.0983885143279999,-0.284052871513367
0.180496668685645,0.747927738761902,-1.114609532547,0.467983261299133
0.181102362204724,1.79934131298065,-1.4762574817657501,-0.145141738700867
0.181708055723804,-2.06143017139435,1.155868983078,0.0105345308303835
0.182313749242883,-0.576518062019348,1.37860579948425,-0.523554824638367
0.182919442761962,2.09632373485565,-1.2487306262970002,0.515883651924133
0.183525136281042,-0.346596187019348,-0.321858067703247,0.0129295503616335
0.184130829800121,-1.1153974565506,0.255341639328003,-0.8732276762008669
0.1847365233192,-0.6387885698318481,-0.192527013015747,1.26312974567413
0.18534221683828,0.426995121574402,1.0983885143279999,-1.04566908245087
0.185947910357359,1.3897929731368999,-2.43905533332825,-0.22178236370086699
0.186553603876439,-0.356176265144348,0.461313319015503,0.209321151924133
0.187159297395518,-1.6207465776443502,2.497079920578,0.242851425361633
0.187764990914597,1.1646611371994,-0.853552403640747,-0.006230605888366519
0.188370684433677,0.743137699699402,-0.671530919265747,0.491933456611633
0.188976377952756,-1.0579169878006,0.00865462760925295,-0.0828712308883665
0.189582071471835,-0.234030269050598,0.315217127609253,-0.14274671916961698
0.190187764990915,0.005471684074401861,0.851701502609253,1.00446763629913
0.190793458509994,1.4496684614181499,-1.2654957630157502,0.822446151924133
0.191399152029073,0.640151859855652,-0.606865391921997,-0.645700820732117
0.192004845548153,-1.61116649951935,1.8312644908905,0.13747056598663301
0.192610539067232,0.338379398918152,0.401437830734253,0.745805526924133
0.193216232586311,0.836543461418152,-0.424843907546997,0.252431503486633
0.193821926105391,-0.492692378425598,-0.180551915359497,-0.327163223075867
0.19442761962447,-0.229240229988098,0.353537440109253,-0.348718398857117
0.195033313143549,-0.45437206592559803,-0.11349136848449701,0.963752304267883
0.195639006662629,1.67001025829315,-0.405683751296997,-1.66597914104462
0.196244700181708,0.659312016105652,-0.872712559890747,1.20564927692413
0.196850393700787,-1.5465009721756,2.65754622917175,-0.351113418388367
0.197456087219867,-0.286720698738098,0.0876902721405029,0.875136581611633
0.198061780738946,1.06646533641815,-0.824812169265747,-0.0828712308883665
0.198667474258025,0.137197758293152,0.327192225265503,-0.717551406669617
0.199273167777105,-1.21359325733185,-0.240427403640747,0.853581405830383
0.199878861296184,-0.183734858894348,1.6396629283905,-1.1390748441696201
0.200484554815263,0.745532719230652,-2.07022232551575,1.1625389253616298
0.201090248334343,1.6532451215744,-0.137441563796997,-2.08271253948212
0.201695941853422,-2.3129072221756,0.743925623703003,1.78045396442413
0.202301635372502,-0.471137202644348,1.25406478385925,-0.540319961357117
0.202907328891581,2.04842334423065,-1.2439405872345,0.688325058174133
0.20351302241066,-0.816020015144348,-0.496694493484497,0.223691269111633
0.20411871592974,-0.557357905769348,0.104455408859253,-1.26601087932587
0.204724409448819,-0.631603511238098,-0.487114415359497,1.6535179292678799
0.205330102967898,0.479685551261902,1.26364486198425,-1.25643080120087
0.205935796486978,1.1167607465744,-2.78872818489075,0.891901718330383
0.206541490006057,-0.741774409675598,0.880441736984253,-1.12230970745087
0.207147183525136,-1.25670360889435,1.9174851940155,0.606894394111633
0.207752877044216,1.19100635204315,-1.1170045520782501,1.37330064411163
0.208358570563295,0.132407719230652,-0.357783360671997,-0.782216934013367
0.208964264082374,-0.902240718269348,-0.546989903640747,0.444033065986633
0.209569957601454,-0.164574702644348,0.137985682296753,-0.267287734794617
0.210175651120533,0.666497074699402,0.885231776046753,-0.425359023857117
0.210781344639612,0.910789066886902,-1.14095474739075,0.0895701753616335
0.211387038158692,-0.600468257331848,-0.295512852859497,-0.755871719169617
0.211992731677771,-1.1465327104568501,0.952292322921753,0.879926620674133
0.21259842519685,0.319219242668152,1.0433030651092499,-0.006230605888366519
0.21320411871593,0.189888187980652,-0.513459630203247,0.695510116767883
0.213809812235009,0.436575199699402,-1.037968907547,-0.06371107463836649
0.214415505754088,-0.428026851081848,0.676865076828003,-0.990583633232117
0.215021199273168,-0.363361323738098,0.166725916671753,1.04997300739288
0.215626892792247,1.1646611371994,-0.980488438796997,-0.415778945732117
0.216232586311326,0.194678227043152,0.0014695690155029498,-0.0972413480758665
0.216838279830406,-0.5597529253005981,1.4863816783905,0.159025741767883
0.217443973349485,-0.298695796394348,0.161935877609253,0.278776718330383
0.218049666868565,0.412625004386902,-0.5685450794219971,0.276381698799133
0.218655360387644,-0.250795405769348,-0.400893712234497,-0.578640273857117
0.219261053906723,-0.792069819831848,0.255341639328003,0.633239608955383
0.219866747425803,-0.19810497608184802,0.794221033859253,0.125495468330383
0.220472440944882,0.357539555168152,-1.191250157547,0.15663072223663302
0.221078134463961,1.0161699262619,-1.12179459114075,0.000954452705383475
0.221683827983041,-1.41477489795685,1.0600682018279999,0.139865585517883
0.22228952150212,-0.763329585456848,1.5247019908905,-0.418173965263367
0.222895215021199,1.54067920360565,-0.817627110671997,-0.106821426200867
0.223500908540279,-0.0136884721755981,-1.0571290637970001,-0.0253907621383665
0.224106602059358,-0.689083979988098,0.485263514328003,-0.803772109794617
0.224712295578437,-0.665133784675598,-0.0200856067657471,0.796100937080383
0.225317989097517,0.34316943798065197,0.504423670578003,-0.0182057035446165
0.225923682616596,0.616201664543152,-1.57205826301575,-0.413383926200867
0.226529376135675,-0.389706538581848,-0.204502110671997,-0.214597305107117
0.227135069654755,-1.6087714799881,1.682773279953,0.477563339424133
0.227740763173834,1.39697803173065,-0.142231602859497,0.254826523017883
0.228346456692913,0.312034184074402,-0.599680333328247,0.664374862861633
0.228952150211993,-1.16090282764435,-0.029665684890747102,-0.741501601982117
0.229557843731072,0.489265629386902,-0.348203282546997,-0.248127578544617
0.230163537250151,-0.598073237800598,0.308032069015503,0.0823851167678835
0.230769230769231,1.14310596141815,-0.388918614578247,-0.358298476982117
0.23137492428831,0.448550297355652,-0.786491856765747,0.324282089424133
0.231980617807389,-1.2782587846756,2.12106185417175,-0.39901380901336697
0.232586311326469,-0.0711689409255981,0.317612147140503,0.681139999580383
0.233192004845548,0.486870609855652,-0.923007970046997,0.535043808174133
0.233797698364627,-0.0065034135818481395,-0.252402501296997,-0.303213027763367
0.234403391883707,-0.411261714363098,-0.0727760364532471,-0.0277857816696165
0.235009085402786,0.113247562980652,0.767875819015503,-0.137956680107117
0.235614778921866,0.599436527824402,-1.01641373176575,-0.334348281669617
0.236220472440945,0.999404789543152,-0.822417149734497,-0.054130996513366496
0.236826165960024,-0.993251460456848,1.3426805065154999,1.10026841754913
0.237431859479104,-0.926190913581848,1.4456663463592498,-0.336743301200867
0.238037552998183,0.534771000480652,-1.2152003528595001,0.920641952705383
0.238643246517262,0.122827641105652,-0.491904454421997,-0.825327285575867
0.239248940036342,-0.303485835456848,0.0565550182342529,-0.451704238700867
0.239854633555421,-0.971696284675598,0.351142420578003,0.343442245674133
0.2404603270745,0.575486332511902,-0.393708653640747,-0.0732911527633665
0.24106602059358,1.35865771923065,-1.7756349231720001,0.300331894111633
0.241671714112659,-1.0866572221756001,1.5869724987029998,-1.0025587308883699
0.242277407631738,-0.873500483894348,1.29238509635925,0.154235702705383
0.242883101150818,1.6125297895431498,-1.27986588020325,0.235666366767883
0.243488794669897,0.0366069379806519,-0.269167638015747,0.247641464424133
0.244094488188976,-1.2830488237381001,0.288871912765503,-0.434939101982117
0.244700181708056,-0.145414546394348,-0.101516270828247,0.650004745674133
0.245305875227135,0.288083988761902,0.854096522140503,-0.0301808012008665
0.245911568746214,1.20058643016815,-1.7421046497345,-0.528344863700867
0.246517262265294,-0.09272411670684809,-0.453584141921997,-0.022995742607116502
0.247122955784373,-2.0734052690506,2.37014388542175,-0.106821426200867
0.247728649303452,1.26764697704315,-0.769726720046997,0.853581405830383
0.248334342822532,0.158752934074402,-0.786491856765747,0.719460312080383
0.248940036341611,-0.899845698738098,0.288871912765503,-0.825327285575867
0.24954572986069,0.345564457511902,-0.214082188796997,0.867951523017883
0.25015142337977,-0.705849116706848,1.1798191783904999,1.1840941011428798
0.250757116898849,1.2149565473556498,-0.901452794265747,0.022509628486633498
0.251362810417929,0.604226566886902,-0.743381505203247,-0.485234512138367
0.251968503937008,-1.3501093706131,1.62768783073425,0.829631210517883
0.252574197456087,0.23060352001190199,0.854096522140503,-0.276867812919617
0.253179890975167,0.635361820793152,-1.06431412239075,0.542228866767883
0.253785584494246,-0.164574702644348,-0.245217442703247,-0.16190687541961699
0.254391278013325,-0.190919917488098,0.341562342453003,-0.26968275432586697
0.254996971532405,-0.183734858894348,0.166725916671753,0.288356796455383
0.255602665051484,1.52151904735565,-0.618840489578247,-0.858857559013367
0.256208358570563,-0.00410839405059814,-0.638000645828247,1.26552476520538
0.256814052089643,-1.3596894487381002,2.1474070690155,-0.775031875419617
0.257419745608722,0.0413969770431519,-0.32425308723449703,0.676349960517883
0.258025439127801,0.855703617668152,-0.523039708328247,0.489538437080383
0.258631132646881,-0.0160834917068481,-0.07038101692199711,-0.724736465263367
0.25923682616596,-0.528617671394348,-0.0488258411407471,0.360207382392883
0.259842519685039,-0.44479198780059803,0.945107264328003,-0.782216934013367
0.260448213204119,0.477290531730652,-1.440332188797,-0.0613160551071165
0.261053906723198,0.980244633293152,-1.1098194934845,-0.370273574638367
0.261659600242277,-1.4363300737381,1.1414988658904999,0.290751815986633
0.262265293761357,-0.408866694831848,1.558232264328,0.0201146089553835
0.262870987280436,1.31075732860565,-1.02120377082825,0.305121933174133
0.263476680799515,0.10606250438690201,-0.738591466140747,0.348232284736633
0.264082374318595,-0.923795894050598,0.236181483078003,-0.707971328544617
0.264688067837674,-0.928585933113098,0.444548182296753,-0.171486953544617
0.265293761356753,0.27371387157440197,0.585854334640503,-0.051735976982116495
0.265899454875833,1.6891704145431499,-1.794795079422,0.182975937080383
0.266505148394912,-0.344201167488098,-0.515854649734497,0.000954452705383475
0.267110841913992,-2.1739960893631,1.9965208385467499,-0.15711683635711698
0.267716535433071,1.39218799266815,-0.379338536453247,0.798495956611633
0.26832222895215,0.163542973136902,-0.235637364578247,-0.336743301200867
0.26892792247123,-0.971696284675598,-0.221267247390747,-0.140351699638367
0.269533615990309,0.175518070793152,-0.592495274734497,0.336257187080383
0.270139309509388,-0.214870112800598,0.995402674484253,-0.281657851982117
0.270745003028468,1.2125615278244,-0.422448888015747,0.11591539020538301
0.271350696547547,0.743137699699402,-1.1337696887970001,0.511093612861633
0.271956390066626,-1.0339667924881,2.7557420299529998,-0.851672500419617
0.272562083585706,-0.566937983894348,0.248156580734253,0.369787460517883
0.273167777104785,0.654521977043152,-1.25112564582825,0.475168319892883
0.273773470623864,0.017446781730651898,0.605014490890503,-0.535529922294617
0.274379164142944,-0.32504101123809803,-0.281142735671997,0.0943602144241335
0.274984857662023,-0.238820308113098,0.0948753307342529,-0.444519180107117
0.275590551181102,0.568301273918152,-0.750566563796997,-0.145141738700867
0.276196244700182,0.781458012199402,-0.300302891921997,-0.0445509183883665
0.276801938219261,-0.911820796394348,1.00019271354675,1.0379979097366299
0.27740763173834,-0.650763667488098,1.3043601940154999,-0.305608047294617
0.27801332525742,0.834148441886902,-1.00683365364075,0.755385605049133
0.278619018776499,-0.183734858894348,-0.158996739578247,-0.260102676200867
0.279224712295578,-1.01720165576935,0.533163904953003,-0.880412734794617
0.279830405814658,-0.7585395463943481,0.185886072921753,1.15535386676788
0.280436099333737,0.489265629386902,-0.14702164192199701,-0.600195449638367
0.281041792852816,1.44008838329315,-2.206738438797,0.309911972236633
0.281647486371896,-1.43872509326935,1.242089686203,0.0296946870803835
0.282253179890975,-1.47704540576935,2.506659998703,-0.760661758232117
0.282858873410055,1.6245048871994,-2.17560318489075,1.4786815034866299
0.283464566929134,0.314429203605652,0.226601404953003,-1.24924574260712
0.284070260448213,-1.1201874956131002,0.233786463546753,0.0991502534866335
0.284675953967293,-0.0759589799880981,-0.233242345046997,0.726645370674133
0.285281647486372,0.137197758293152,0.945107264328003,-0.501999648857117
0.285887341005451,1.3945830121993998,-1.73491959114075,-0.106821426200867
0.286493034524531,-0.39449657764434803,-0.410473790359497,0.166210800361633
0.28709872804361,-2.0255048784256,2.6838914440155,-0.166696914482117
0.287704421562689,1.5670244184494,-0.652370763015747,0.32907212848663303
0.288310115081769,0.376699711418152,-1.26070572395325,0.410502792549133
0.288915808600848,-1.0579169878006,0.657704920578003,-1.3139112699508702
0.289521502119927,-0.286720698738098,-0.7481715442657471,0.6236595308303831
0.290127195639007,0.0198418012619019,1.4408763072967499,-0.511579726982117
0.290732889158086,1.6891704145431499,-1.3589015247345,0.429662948799133
0.291338582677165,0.726372562980652,-0.587705235671997,-1.04566908245087
0.291944276196245,-1.67343700733185,1.81928939323425,0.20692613239288302
0.292549969715324,0.33358935985565197,-0.0991212512969971,1.20564927692413
0.293155663234403,0.850913578605652,0.185886072921753,-0.8732276762008669
0.293761356753483,-0.344201167488098,-0.573335118484497,0.472773300361633
0.294367050272562,-0.262770503425598,0.0230247447967529,-0.542714980888367
0.294972743791641,-0.236425288581848,0.645729822921753,-0.272077773857117
0.295578437310721,1.44487842235565,-1.2056202747345002,0.130285507392883
0.2961841308298,0.539561039543152,-0.240427403640747,0.10633531208038301
0.296789824348879,-1.7620527299881001,1.8312644908905,-0.0780811918258665
0.297395517867959,-0.174154780769348,0.389462733078003,0.0823851167678835
0.298001211387038,1.10478564891815,-0.362573399734497,0.432057968330383
0.298606904906118,-0.174154780769348,-0.676320958328247,-0.394223769950867
0.299212598425197,-0.420841792488098,0.375092615890503,-0.822932266044617
0.299818291944276,-0.926190913581848,0.679260096359253,0.494328476142883
0.300423985463356,0.726372562980652,-0.853552403640747,-0.604985488700867
0.301029678982435,1.4376933637619,-1.3517164661407501,-0.286447891044617
0.301635372501514,-1.9728144487381,0.901996912765503,0.693115097236633
0.302241066020594,-0.303485835456848,1.8480296276092498,-0.0948463285446165
0.302846759539673,1.23890674266815,-1.5121827747345,0.927827011299133
0.303452453058752,-0.0160834917068481,0.0829002330780029,-1.6995094144821201
0.304058146577832,-0.904635737800598,-0.491904454421997,0.458403183174133
0.304663840096911,-1.09863231983185,0.396647791671753,-0.0828712308883665
0.30526953361599,0.398254887199402,1.1510789440155,-0.561875137138367
0.30587522713507,1.4879887739181499,-2.407920079422,0.283566757392883
0.306480920654149,-0.404076655769348,0.181096033859253,-1.1127296293258702
0.307086614173228,-2.1931562456131,1.7833641002654999,1.0547630464553799
0.307692307692308,1.0880205121994,0.0493699596405029,0.0871751558303835
0.308298001211387,0.656916996574402,-1.28465591926575,0.688325058174133
0.308903694730466,-1.0339667924881,0.130800623703003,-0.6337257230758669
0.309509388249546,-0.09032909717559809,-0.300302891921997,0.11831040973663301
0.310115081768625,-0.09272411670684809,0.434968104171753,0.858371444892883
0.310720775287704,1.3347075239181498,-0.302697911453247,0.264406601142883
0.311326468806784,0.285688969230652,-1.20322525520325,-0.233757461357117
0.311932162325863,-1.7476826128006,1.7067234752654998,-0.38943373088836697
0.312537855844942,-0.241215327644348,0.461313319015503,0.911061874580383
0.313143549364022,0.6377568403244019,-0.467954259109497,-0.0182057035446165
0.313749242883101,-0.416051753425598,-0.130256505203247,0.0728050386428835
0.31435493640218,-0.418446772956848,-0.0320607044219971,-0.022995742607116502
0.31496062992126,0.017446781730651898,0.343957361984253,-0.566665176200867
0.315566323440339,1.2029814496994,-0.805652013015747,-0.255312637138367
0.316172016959419,0.589856449699402,-0.362573399734497,0.276381698799133
0.316777710478498,-1.5009956010818502,1.6109226940155,0.230876327705383
0.317383403997577,-0.605258296394348,0.415807947921753,0.465588241767883
0.317989097516657,1.3945830121993998,-0.288327794265747,0.283566757392883
0.318594791035736,-0.178944819831848,-0.331438145828247,-0.698391250419617
0.319200484554815,-0.806439937019348,0.514003748703003,-0.379853652763367
0.319806178073895,-0.301090815925598,0.616989588546753,0.961357284736633
0.320411871592974,0.539561039543152,-0.642790684890747,-0.434939101982117
0.321017565112053,1.31554736766815,-1.4163819934845001,-0.614565566825867
0.321623258631133,-1.67343700733185,0.626569666671753,0.714670273017883
0.322228952150212,-0.736984370613098,2.3964891002654998,-0.425359023857117
0.322834645669291,1.33949756298065,-1.7492897083282501,1.07152818317413
0.323440339188371,0.532375980949402,-0.0392457630157471,-1.0408790433883701
0.32404603270745,-1.23275341358185,-0.432028966140747,0.11352037067413301
0.324651726226529,-0.45437206592559803,0.286476893234253,-0.346323379325867
0.325257419745609,0.371909672355652,1.0552781627655,-0.33913832073211697
0.325863113264688,1.0976005903244,-2.3743898059845,0.233271347236633
0.326468806783767,-0.329831050300598,0.183491053390503,-0.719946426200867
0.327074500302847,-2.09496044483185,2.2911082408905,0.233271347236633
0.327680193821926,2.09153369579315,-1.05473404426575,0.793705917549133
0.328285887341005,0.44376025829315197,-0.127861485671997,-0.602590469169617
0.328891580860085,-1.7764228471756,0.305637049484253,-0.387038711357117
0.329497274379164,0.609016605949402,-0.824812169265747,0.820051132392883
0.330102967898244,0.479685551261902,1.3235203502655,-0.588220351982117
0.330708661417323,1.0257500043869,-1.1553248645782501,0.345837265205383
0.331314354936402,0.244973637199402,-0.784096837234497,-0.796587051200867
0.331920048455482,-1.5848212846756,1.6803782604217499,0.611684433174133
0.332525741974561,-0.0448237260818481,0.288871912765503,0.331467148017883
0.33313143549364,0.391069828605652,-0.393708653640747,-0.413383926200867
0.33373712901272,-0.121464351081848,-0.369758458328247,0.556598983955383
0.334342822531799,-0.0711689409255981,0.0421849010467529,-0.475654434013367
0.334948516050878,-0.20768505420684802,0.904391932296753,-0.056526016044616496
0.335554209569958,0.762297855949402,-1.2870509387970002,0.664374862861633
0.336159903089037,0.513215824699402,-0.170971837234497,-0.918733047294617
0.336765596608116,-1.45788524951935,1.4241111705779999,0.257221542549133
0.337371290127196,0.0629521528244019,0.281686854171753,0.673954940986633
0.337976983646275,0.702422367668152,-0.618840489578247,0.424872909736633
0.338582677165354,-0.32504101123809803,0.0852952526092529,-0.928313125419617
0.339188370684434,-0.787279780769348,-0.257192540359497,0.350627304267883
0.339794064203513,-0.485507319831848,0.475683436203003,-0.224177383232117
0.340399757722592,0.676077152824402,-0.779306798171997,-0.430149062919617
0.341005451241672,0.6976323286056519,-1.7157594348907501,0.192556015205383
0.341611144760751,-1.2998139604568502,1.11515365104675,-0.0277857816696165
0.34221683827983,-0.705849116706848,1.5654173229217498,0.11352037067413301
0.34282253179891,1.2029814496994,-1.3205812122345,0.817656112861633
0.343428225317989,-0.162179683113098,-0.647580723953247,-0.585825332450867
0.344033918837068,-0.727404292488098,0.173910975265503,-0.815747207450867
0.344639612356148,-0.720219233894348,-0.14702164192199701,1.45952134723663
0.345245305875227,0.21144336376190198,1.021747889328,-0.494814590263367
0.345850999394306,1.1287358442306499,-1.85467056770325,-0.135561660575867
0.346456692913386,-0.166969722175598,-0.623630528640747,-0.11879652385711699
0.347062386432465,-1.88419872608185,2.612040858078,-0.197832168388367
0.347668079951545,1.3323125043869,-0.345808263015747,0.238061386299133
0.348273773470624,1.1407109418869,-0.834392247390747,-0.102031387138367
0.348879466989703,-1.5656611284256001,0.221811365890503,-0.322373184013367
0.349485160508783,0.149172855949402,-0.757751622390747,-0.00383558635711652
0.350090854027862,0.09887744579315191,0.767875819015503,-0.0373658597946165
0.350696547546941,0.680867191886902,-0.415263829421997,-0.490024551200867
0.351302241066021,0.8772587934494019,-0.980488438796997,0.0775950777053835
0.3519079345851,-1.6279316362381,1.7570188854217499,0.685930038642883
0.352513628104179,0.0533720746994019,0.789430994796753,-0.0325758207321165
0.353119321623259,0.779062992668152,-1.0523390247345001,0.0943602144241335
0.353725015142338,-0.0567988237380981,-0.173366856765747,-0.772636855888367
0.354330708661417,-0.09272411670684809,0.12361556510925299,-0.296027969169617
0.354936402180497,-0.27474560108184803,0.272106776046753,0.870346542549133
0.355542095699576,0.683262211418152,-0.475139317703247,-0.506789687919617
0.356147789218655,0.14677783641815198,-0.647580723953247,-0.293632949638367
0.356753482737735,-0.971696284675598,1.1678440807342498,0.788915878486633
0.357359176256814,-0.360966304206848,0.818171229171753,-0.07089613323211649
0.357964869775893,0.613806645011902,-0.846367345046997,0.333862167549133
0.358570563294973,-0.229240229988098,-0.257192540359497,-0.394223769950867
0.359176256814052,-0.727404292488098,-0.125466466140747,0.247641464424133
0.359781950333131,-0.753749507331848,0.791826014328003,0.0488548433303835
0.360387643852211,0.199468266105652,-0.453584141921997,-0.346323379325867
0.36099333737129,1.20537646923065,-1.7133644153595,0.31949205036163303
0.361599030890369,-0.768119624519348,1.0433030651092499,-0.585825332450867
0.362204724409449,-1.0004365190506002,1.6492430065155,0.288356796455383
0.362810417928528,0.867678715324402,-1.1289796497345002,0.733830429267883
0.363416111447607,0.668892094230652,-0.281142735671997,-0.925918105888367
0.364021804966687,-1.3261591753006001,-0.0751710559844971,-0.102031387138367
0.364627498485766,-0.607653315925598,0.372697596359253,-0.276867812919617
0.365233192004846,0.292874027824402,0.521188807296753,0.101545273017883
0.365838885523925,1.3682377973556499,-1.7516847278595,-0.190647109794617
0.366444579043004,-0.456767085456848,0.425388026046753,-0.545110000419617
0.367050272562084,-2.4182880815506,1.50314681510925,1.09547837848663
0.367655966081163,1.98136279735565,-0.530224766921997,-0.45888929729461697
0.368261659600242,0.415020023918152,-1.08347427864075,0.609289413642883
0.368867353119322,-1.1632978471756001,0.605014490890503,-0.319978164482117
0.369473046638401,0.628176762199402,-0.511064610671997,0.0967552339553835
0.37007874015748,-0.0567988237380981,0.597829432296753,0.0512498628616335
0.37068443367656,1.20537646923065,-0.245217442703247,-0.21220228557586698
0.371290127195639,0.359934574699402,-1.2439405872345,0.451218124580383
0.371895820714718,-1.33334423389435,1.98215072135925,-0.303213027763367
0.372501514233798,0.671287113761902,0.514003748703003,0.515883651924133
0.373107207752877,0.347959477043152,-1.04515396614075,0.453613144111633
0.373712901271956,-0.114279292488098,0.401437830734253,-1.08398939495087
0.374318594791036,-0.0520087846755981,-0.391313634109497,0.513488632392883
0.374924288310115,-0.08553905811309809,0.372697596359253,-0.391828750419617
0.375529981829194,0.712002445793152,-0.621235509109497,-0.880412734794617
0.376135675348274,0.491660648918152,-1.02120377082825,1.10984849567413
0.376741368867353,-1.06989208545685,1.8312644908905,-0.557085098075867
0.377347062386432,-0.569333003425598,0.379882654953003,0.14705064411163302
0.377952755905512,1.01856494579315,-0.388918614578247,0.230876327705383
0.378558449424591,0.350354496574402,-0.161391759109497,-0.379853652763367
0.379164142943671,-0.471137202644348,0.116430506515503,0.307516952705383
0.37976983646275,-0.6986640581130981,0.741530604171753,0.178185898017883
0.380375529981829,0.9371342817306519,-0.705061192703247,0.209321151924133
0.380981223500909,0.611411625480652,-2.0845924427032503,0.314702011299133
0.381586917019988,-0.923795894050598,1.6492430065155,-1.58454847698212
0.382192610539067,-0.904635737800598,1.47440658073425,1.21522935504913
0.382798304058147,1.06646533641815,-1.066709141922,1.1625389253616298
0.383403997577226,0.752717777824402,0.027814783859252897,-1.54143812541962
0.384009691096305,-1.1776679643631,-0.5685450794219971,0.961357284736633
0.384615384615385,-0.653158687019348,0.413412928390503,-0.355903457450867
0.385221078134464,0.14198779735565198,0.422993006515503,0.0296946870803835
0.385826771653543,1.21974658641815,-1.56247818489075,-0.106821426200867
0.386432465172623,-0.0591938432693481,-0.494299473953247,-0.564270156669617
0.387038158691702,-1.63990673389435,2.1282469127655,0.511093612861633
0.387643852210781,0.575486332511902,-0.230847325515747,0.590129257392883
0.388249545729861,0.803013187980652,-1.0714991809845,-0.310398086357117
0.38885523924894,-1.1082123979568501,0.327192225265503,-0.882807754325867
0.389460932768019,-0.0711689409255981,-0.532619786453247,0.262011581611633
0.390066626287099,0.261738773918152,0.751110682296753,0.139865585517883
0.390672319806178,0.913184086418152,-0.597285313796997,-0.205017226982117
0.391278013325257,0.949109379386902,-1.24154556770325,-0.466074355888367
0.391883706844337,-1.4027998003006001,1.6971433971404999,0.364997421455383
0.392489400363416,-0.5789130815505981,0.832541346359253,0.103940292549133
0.393095093882495,1.2317216840743999,-1.07868423957825,0.834421249580383
0.393700787401575,0.0461870161056519,0.0613450572967529,-0.260102676200867
0.394306480920654,-0.583703120613098,-0.07038101692199711,-0.214597305107117
0.394912174439733,-0.166969722175598,-0.015295567703247099,0.125495468330383
0.395517867958813,1.0089848676681499,-0.618840489578247,-0.578640273857117
0.396123561477892,0.587461430168152,-1.04515396614075,0.724250351142883
0.396729254996972,-1.15611278858185,1.8480296276092498,-0.578640273857117
0.397334948516051,-0.509457515144348,0.796616053390503,0.103940292549133
0.39794064203513,0.807803227043152,-0.752961583328247,0.32907212848663303
0.39854633555421,0.288083988761902,-0.26437759895324703,-0.456494277763367
0.399152029073289,-0.760934565925598,0.0038645885467529497,-0.06850111370086649
0.399757722592368,-0.8782905229568481,0.806196131515503,-0.0732911527633665
0.400363416111448,0.467710453605652,-0.623630528640747,0.695510116767883
0.400969109630527,1.14789600048065,-1.92652115364075,0.0272996675491335
0.401574803149606,-0.820810054206848,0.882836756515503,-0.0158106840133665
0.402180496668686,-1.0195966753006,1.69953841667175,0.532648788642883
0.402786190187765,1.10957568798065,-1.344531407547,1.15535386676788
0.403391883706844,0.33358935985565197,0.181096033859253,-1.1175196683883701
0.403997577225924,-1.45309521045685,-0.290722813796997,-0.0253907621383665
0.404603270745003,-0.15738964405059802,0.360722498703003,0.223691269111633
0.405208964264082,0.261738773918152,1.22053451042175,-0.384643691825867
0.405814657783162,1.0017998090744,-1.842695470047,0.041669784736633506
0.406420351302241,0.08929736766815191,-0.587705235671997,0.190160995674133
0.40702604482132,-1.8650385698318501,2.7222117565154997,0.223691269111633
0.4076317383404,0.740742680168152,-0.420053868484497,0.527858749580383
0.408237431859479,0.870073734855652,-0.954143223953247,-0.15232679729461698
0.408843125378558,-0.983671382331848,0.540348963546753,-0.581035293388367
0.409448818897638,-0.372941401863098,-0.827207188796997,0.544623886299133
0.410054512416717,-0.09511913623809809,1.2468797252655,-0.638515762138367
0.410660205935796,1.2101665082931499,-0.829602208328247,-0.0373658597946165
0.411265899454876,0.733557621574402,-1.1505348255157501,-0.310398086357117
0.411871592973955,-1.5512910112381,1.67079818229675,0.11352037067413301
0.412477286493035,0.139592777824402,0.715185389328003,0.513488632392883
0.413082980012114,0.594646488761902,-1.0810792591095,0.736225448799133
0.413688673531193,-0.329831050300598,0.0709251354217529,-0.758266738700867
0.414294367050273,-0.181339839363098,0.205046229171753,-0.33913832073211697
0.414900060569352,-0.372941401863098,-0.348203282546997,0.798495956611633
0.415505754088431,1.0353300825118998,-0.606865391921997,-0.695996230888367
0.416111447607511,0.7383476606369019,-0.487114415359497,-0.130771621513367
0.41671714112659,-1.6806220659256002,1.357050623703,0.927827011299133
0.417322834645669,-0.401681636238098,1.165449061203,-0.255312637138367
0.417928528164749,0.949109379386902,-1.1170045520782501,0.626054550361633
0.418534221683828,-0.12864940967559801,-0.367363438796997,-0.492419570732117
0.419139915202907,-0.487902339363098,0.233786463546753,-0.32955824260711697
0.419745608721987,-0.835180171394348,0.434968104171753,0.508698593330383
0.420351302241066,0.527585941886902,-0.211687169265747,-0.308003066825867
0.420956995760145,0.946714359855652,-2.532461095047,0.415292831611633
0.421562689279225,-1.06989208545685,1.4887766979217498,-1.01213880901337
0.422168382798304,-1.2734687456131,1.8791648815155,0.614079452705383
0.422774076317383,1.0880205121994,-1.45230728645325,0.973332382392883
0.423379769836463,0.529980961418152,0.166725916671753,-1.16781507854462
0.423985463355542,-1.4027998003006001,-0.582915196609497,0.333862167549133
0.424591156874621,-0.15738964405059802,0.231391444015503,-0.267287734794617
0.425196850393701,-0.401681636238098,0.583459315109253,0.20692613239288302
0.42580254391278,1.22453662548065,-1.363691563797,-0.317583144950867
0.426408237431859,0.381489750480652,-1.16011490364075,0.039274765205383505
0.427013930950939,-2.0877753862381,2.4348094127655,-0.341533340263367
0.427619624470018,0.889233891105652,-0.14702164192199701,0.44882310504913303
0.428225317989098,0.676077152824402,-1.48104752082825,0.204531112861633
0.428831011508177,-1.21838329639435,0.195466151046753,-0.363088516044617
0.429436705027256,0.012656742668151899,-0.367363438796997,-0.406198867607117
0.430042398546336,0.20186328563690198,0.784640955734253,0.21171617145538302
0.430648092065415,0.941924320793152,-0.937378087234497,0.963752304267883
0.431253785584494,0.814988285636902,-0.863132481765747,-0.832512344169617
0.431859479103574,-1.5848212846756,1.30675521354675,0.467983261299133
0.432465172622653,-0.339411128425598,0.949897303390503,0.453613144111633
0.433070866141732,1.13831592235565,-0.336228184890747,0.417687851142883
0.433676559660812,0.0198418012619019,-0.525434727859497,-0.315188125419617
0.434282253179891,-0.291510737800598,-0.307487950515747,-0.06371107463836649
0.43488794669897,-0.298695796394348,0.892416834640503,-0.06610609416961649
0.43549364021805,0.776667973136902,-0.681110997390747,0.0129295503616335
0.436099333737129,0.6185966840744019,-0.652370763015747,-0.298422988700867
0.436705027256208,-1.3022089799881,1.29717513542175,-0.054130996513366496
0.437310720775288,-0.363361323738098,0.616989588546753,0.285961776924133
0.437916414294367,0.901208988761902,-0.618840489578247,0.271591659736633
0.438522107813446,0.328799320793152,-0.482324376296997,-0.248127578544617
0.439127801332526,-0.614838374519348,-0.278747716140747,-0.245732559013367
0.439733494851605,-0.851945308113098,1.021747889328,-0.26968275432586697
0.440339188370684,0.175518070793152,-0.779306798171997,0.0967552339553835
0.440944881889764,1.2317216840743999,-2.04627213020325,-0.523554824638367
0.441550575408843,-0.751354487800598,1.155868983078,-0.022995742607116502
0.442156268927922,-1.1489277299881,1.6396629283905,0.594919296455383
0.442761962447002,1.1502910200118999,-0.839182286453247,0.489538437080383
0.443367655966081,0.625781742668152,-0.185341954421997,-0.973818496513367
0.44397334948516,-1.0579169878006,-0.810442052078247,0.360207382392883
0.44457904300424,-0.564542964363098,0.612199549484253,-0.240942519950867
0.445184736523319,-0.20289501514434802,0.777455897140503,-0.00144056682586652
0.445790430042399,1.4903837934494,-1.823535313797,0.185370956611633
0.446396123561478,0.359934574699402,-0.350598302078247,-1.12709974651337
0.447001817080557,-1.9728144487381,1.692353358078,0.745805526924133
0.447607510599637,0.834148441886902,0.157145838546753,0.410502792549133
0.448213204118716,0.886838871574402,-1.1193995716095,0.345837265205383
0.448818897637795,-0.904635737800598,0.425388026046753,-0.839697402763367
0.449424591156875,-0.370546382331848,-0.805652013015747,0.21171617145538302
0.450030284675954,0.450945316886902,1.1510789440155,-0.322373184013367
0.450635978195033,0.814988285636902,-0.463164220046997,0.041669784736633506
0.451241671714113,0.726372562980652,-1.2319654895782501,-0.0253907621383665
0.451847365233192,-1.49141552295685,1.87197982292175,-0.205017226982117
0.452453058752271,-0.267560542488098,0.293661951828003,0.865556503486633
0.453058752271351,1.2939921918869,-0.623630528640747,0.194951034736633
0.45366444579043,-0.473532222175598,0.181096033859253,-0.772636855888367
0.454270139309509,-0.720219233894348,-0.379338536453247,0.436848007392883
0.454875832828589,-0.200499995613098,0.784640955734253,-1.10793959026337
0.455481526347668,0.985034672355652,-1.09305435676575,0.314702011299133
0.456087219866747,0.611411625480652,-0.949353184890747,0.456008163642883
0.456692913385827,-1.2543085893631,1.9749656627655,-0.846882461357117
0.457298606904906,-0.542987788581848,0.327192225265503,1.33498033161163
0.457904300423985,0.8772587934494019,-0.285932774734497,-0.418173965263367
0.458509993943065,0.10366748485565201,-0.774516759109497,0.705090194892883
0.459115687462144,-0.236425288581848,0.260131678390503,-0.137956680107117
0.459721380981224,-1.07468212451935,0.743925623703003,-0.183462051200867
0.460327074500303,0.465315434074402,-0.580520177078247,0.580549179267883
0.460932768019382,1.4568535200119,-1.68222916145325,-0.751081680107117
0.461538461538462,-1.1441376909256,0.492448572921753,0.357812362861633
0.462144155057541,-1.3812446245193502,2.372538904953,0.12310044879913301
0.46274984857662,1.58378955516815,-1.191250157547,1.02602281208038
0.4633555420957,0.946714359855652,-0.398498692703247,-0.863647598075867
0.463961235614779,-1.2303583940506,-0.293117833328247,-0.178672012138367
0.464566929133858,-0.502272456550598,0.190676111984253,-0.06850111370086649
0.465172622652938,-0.0735639604568481,0.870861658859253,-0.0972413480758665
0.465778316172017,1.1287358442306499,-1.82114029426575,0.544623886299133
0.466384009691096,-0.0544038042068481,-0.511064610671997,-0.997768691825867
0.466989703210176,-2.0063447221756,2.19770247917175,0.659584823799133
0.467595396729255,0.642546879386902,0.0158396862030029,0.6835350191116331
0.468201090248334,1.06167529735565,-1.25112564582825,-0.33913832073211697
0.468806783767414,-0.7393793901443481,0.312822108078003,-0.16190687541961699
0.469412477286493,-0.25558544483184803,-0.817627110671997,0.496723495674133
0.470018170805572,0.395859867668152,1.02414290885925,-0.470864394950867
0.470623864324652,0.865283695793152,-0.501484532546997,0.400922714424133
0.471229557843731,0.649731937980652,-1.5792433216095,-0.5738502347946169
0.47183525136281,-1.19922314014435,1.7929441783905,-0.21699232463836698
0.47244094488189,-0.569333003425598,0.834936365890503,0.578154159736633
0.473046638400969,0.848518559074402,-0.530224766921997,-0.243337539482117
0.473652331920048,-0.159784663581848,-0.788886876296997,0.381762558174133
0.474258025439128,-0.339411128425598,-0.149416661453247,-0.571455215263367
0.474863718958207,-0.286720698738098,0.636149744796753,-0.171486953544617
0.475469412477286,0.929949223136902,-1.20801529426575,0.424872909736633
0.476075105996366,1.30117725048065,-0.305092930984497,-0.487629531669617
0.476680799515445,-1.7788178667068502,1.38818587760925,0.37936753864288303
0.477286493034525,-0.574123042488098,0.734345545578003,0.139865585517883
0.477892186553604,1.44487842235565,-0.305092930984497,-0.193042129325867
0.478497880072683,0.005471684074401861,-0.604470372390747,-0.226572402763367
0.479103573591763,-0.269955562019348,0.21223128776550299,-0.418173965263367
0.479709267110842,-0.823205073738098,0.585854334640503,0.6835350191116331
0.480314960629921,0.417415043449402,0.185886072921753,-0.482839492607117
0.480920654149001,0.793433109855652,-2.49653580207825,-0.11879652385711699
0.48152634766808,-0.897450679206848,1.0121678112030001,-0.681626113700867
0.482132041187159,-1.33334423389435,2.41804427604675,0.501513534736633
0.482737734706239,0.946714359855652,-1.49062759895325,1.62717271442413
0.483343428225318,0.982639652824402,0.293661951828003,-1.65400404338837
0.483949121744397,-1.36687450733185,-0.875107579421997,0.733830429267883
0.484554815263477,-0.569333003425598,0.746320643234253,-0.27926283245086697
0.485160508782556,-0.463952144050598,0.719975428390503,0.475168319892883
0.485766202301635,1.3802128950119,-1.48104752082825,-0.319978164482117
0.486371895820715,0.32400928173065197,-1.603193516922,-0.228967422294617
0.486977589339794,-2.0686152299881,2.9617137096404997,-0.336743301200867
0.487583282858873,1.0257500043869,0.672075037765503,0.774545761299133
0.488188976377953,0.9371342817306519,-1.72054947395325,0.345837265205383
0.488794669897032,-1.04115185108185,0.324797205734253,-1.40492201213837
0.489400363416111,-0.243610347175598,-1.1457447864532502,0.654794784736633
0.490006056935191,-0.13822948780059802,1.7234886119842499,0.214111190986633
0.49061175045427,0.632966801261902,-0.939773106765747,1.13379869098663
0.491217443973349,1.60294971141815,-1.33734634895325,-1.19655531291962
0.491823137492429,-2.2123164018631,1.615712733078,0.748200546455383
0.492428831011508,-0.622023433113098,1.2828050182342499,-0.0780811918258665
0.493034524530587,1.67001025829315,-0.913427891921997,0.0991502534866335
0.493640218049667,-0.502272456550598,-0.302697911453247,0.432057968330383
0.494245911568746,-0.471137202644348,0.367907557296753,-0.842092422294617
0.494851605087826,-0.298695796394348,0.161935877609253,0.271591659736633
0.495457298606905,0.915579105949402,-0.841577305984497,-0.11161146526336699
0.496062992125984,1.46882861766815,-1.5409230091095,-0.20262220745086698
0.496668685645064,-1.5177607378006,1.90072005729675,-0.15232679729461698
0.497274379164143,-0.945351069831848,1.25885482292175,0.705090194892883
0.497880072683222,1.8687968793868999,-0.908637852859497,0.436848007392883
0.498485766202302,-0.38491649951934803,-0.182946934890747,-0.597800430107117
0.499091459721381,-1.00762157764435,-0.597285313796997,-0.288842910575867
0.49969715324046,-0.0496137651443481,1.280409998703,-0.125981582450867
0.50030284675954,-0.483112300300598,0.480473475265503,0.460798202705383
0.500908540278619,1.09999560985565,-3.107265782547,-0.367878555107117
0.501514233797698,-0.353781245613098,0.971452479171753,-0.525949844169617
0.502119927316778,-1.21359325733185,2.104296717453,0.609289413642883
0.502725620835857,1.5143339887618998,-0.930193028640747,0.10873033161163301
0.503331314354936,0.0701372114181519,-0.247612462234497,-0.296027969169617
0.503937007874016,-0.873500483894348,-0.302697911453247,0.0919651948928835
0.504542701393095,-0.401681636238098,0.403832850265503,-0.430149062919617
0.505148394912174,-1.03157177295685,0.636149744796753,-0.334348281669617
0.505754088431254,1.8256865278243999,-2.0342970325470002,-0.38943373088836697
0.506359781950333,0.371909672355652,-0.626025548171997,-0.681626113700867
0.506965475469413,-2.1500458940506,3.17966048698425,0.487143417549133
0.507571168988492,0.920369145011902,-0.494299473953247,0.688325058174133
0.508176862507571,0.438970219230652,-1.33255630989075,-0.32955824260711697
0.50878255602665,-0.9190058549880981,0.0517649791717529,0.180580917549133
0.50938824954573,-0.154994624519348,-0.642790684890747,0.0488548433303835
0.509993943064809,-0.00171337451934814,1.3211253307342499,-0.255312637138367
0.510599636583889,0.862888676261902,-1.3469264270782502,0.0512498628616335
0.511205330102968,1.0832304731369,-1.2631007434845,-0.688811172294617
0.511811023622047,-1.65427685108185,2.24560286979675,0.041669784736633506
0.512416717141127,-0.542987788581848,0.832541346359253,0.357812362861633
0.513022410660206,1.1287358442306499,-0.470349278640747,0.434452987861633
0.513628104179285,-0.20289501514434802,-0.364968419265747,-0.348718398857117
0.514233797698365,-0.322645991706848,-0.199712071609497,-0.197832168388367
0.514839491217444,-0.696269038581848,0.751110682296753,-0.14274671916961698
0.515445184736523,1.2556718793869,-1.34213638801575,-0.0924513090133665
0.516050878255603,1.0209599653244,-0.755356602859497,-0.296027969169617
0.516656571774682,-1.45309521045685,2.47552474479675,0.159025741767883
0.517262265293761,-0.0783539995193481,-0.388918614578247,1.49784165973663
0.517867958812841,0.676077152824402,0.358327479171753,-1.34983656291962
0.51847365233192,0.139592777824402,-0.364968419265747,0.597314315986633
0.519079345850999,0.0461870161056519,-0.721826329421997,0.0943602144241335
0.519685039370079,-1.16569286670685,1.7163035533905,-0.319978164482117
0.520290732889158,0.561116215324402,-0.348203282546997,0.990097519111633
0.520896426408237,0.925159184074402,-2.03190201301575,-0.566665176200867
0.521502119927317,-1.80755810108185,0.571484217453003,-0.0182057035446165
0.522107813446396,-0.337016108894348,1.31154525260925,0.556598983955383
0.522713506965475,1.23890674266815,-0.376943516921997,0.844001327705383
0.523319200484555,0.15635791454315198,0.0589500377655029,-1.2588258207321201
0.523924894003634,-0.21247509326934802,-1.61995865364075,0.779335800361633
0.524530587522714,-0.895055659675598,0.674470057296753,0.161420761299133
0.525136281041793,-0.535802729988098,1.34507552604675,-0.322373184013367
0.525741974560872,1.0305400434493999,-1.45230728645325,0.324282089424133
0.526347668079951,0.14677783641815198,-0.774516759109497,-0.475654434013367
0.526953361599031,-0.892660640144348,1.4456663463592498,0.281171737861633
0.52755905511811,0.280898930168152,0.820566248703003,0.353022323799133
0.52816474863719,0.20186328563690198,-0.700271153640747,0.609289413642883
0.528770442156269,-0.746564448738098,-0.707456212234497,-0.377458633232117
0.529376135675348,-0.399286616706848,-0.633210606765747,0.281171737861633
0.529981829194428,0.515610844230652,1.11515365104675,-0.255312637138367
0.530587522713507,0.941924320793152,-0.309882970046997,-0.365483535575867
0.531193216232586,0.664102055168152,-1.29902603645325,-0.0325758207321165
0.531798909751666,-0.947746089363098,0.741530604171753,-0.382248672294617
0.532404603270745,-1.20880321826935,1.50314681510925,0.793705917549133
0.533010296789824,0.702422367668152,-0.135046544265747,0.853581405830383
0.533615990308904,0.656916996574402,-0.889477696609497,-0.585825332450867
0.534221683827983,-0.463952144050598,0.312822108078003,-0.703181289482117
0.534827377347062,-0.214870112800598,-0.422448888015747,0.482353378486633
0.535433070866142,0.791038090324402,0.0541599987030029,-0.695996230888367
0.536038764385221,0.436575199699402,-0.712246251296997,0.781730819892883
0.5366444579043,-0.713034175300598,0.341562342453003,0.420082870674133
0.53725015142338,-1.5704511674881,1.7642039440155,-0.621750625419617
0.537855844942459,0.973059574699402,-0.843972325515747,1.20325425739288
0.538461538461538,1.0544902387619,-0.429633946609497,-1.01692884807587
0.539067231980618,-1.0291767534256,-0.056010899734497105,0.185370956611633
0.539672925499697,-0.648368647956848,0.154750819015503,0.235666366767883
0.540278619018776,0.00307666454315186,0.284081873703003,-0.494814590263367
0.540884312537856,0.561116215324402,-2.043877110672,0.441638046455383
0.541490006056935,0.21623340282440198,0.554719080734253,-1.08877943401337
0.542095699576015,-2.1021455034256,1.606132654953,1.79003404254913
0.542701393095094,1.0017998090744,-0.475139317703247,0.230876327705383
0.543307086614173,1.4113481489181499,-0.396103673171997,-0.806167129325867
0.543912780133253,-1.9776044878006,-0.053615880203247104,0.405712753486633
0.544518473652332,0.0413969770431519,0.458918299484253,-0.983398574638367
0.545124167171411,-0.281930659675598,0.176305994796753,1.0763182222366299
0.545729860690491,1.1335258832931498,-0.26437759895324703,-0.367878555107117
0.54633555420957,0.604226566886902,-1.5600831653595,0.230876327705383
0.546941247728649,-2.27219189014435,2.2527879283905,-0.197832168388367
0.547546941247729,0.355144535636902,0.442153162765503,0.915851913642883
0.548152634766808,1.28201709423065,-1.2343605091095,0.271591659736633
0.548758328285887,-0.990856440925598,0.312822108078003,-0.755871719169617
0.549364021804967,-0.416051753425598,-1.0691041614532502,0.0680149995803835
0.549969715324046,0.424600102043152,0.741530604171753,-0.245732559013367
0.550575408843125,0.422205082511902,0.0230247447967529,0.271591659736633
0.551181102362205,1.6436650434494,-1.469072423172,-0.236152480888367
0.551786795881284,-1.63511669483185,1.13910384635925,0.0177195894241335
0.552392489400363,-0.921400874519348,1.9797557018279999,-0.176276992607117
0.552998182919443,1.43050830516815,-1.229570470047,1.62477769489288
0.553603876438522,-0.169364741706848,0.466103358078003,-1.40731703166962
0.554209569957601,-0.449582026863098,-0.458374180984497,0.235666366767883
0.554815263476681,-0.0304536088943481,0.238576502609253,-0.348718398857117
0.55542095699576,0.609016605949402,-0.214082188796997,-0.537924941825867
0.556026650514839,1.0161699262619,-1.0044386341095,0.820051132392883
0.556632344033919,-0.650763667488098,1.8408445690155,-0.509184707450867
0.557238037552998,-1.6135615190506,0.722370447921753,0.7434105073928831
0.557843731072078,1.20537646923065,-0.170971837234497,-0.557085098075867
0.558449424591157,0.405439945793152,-1.0906593372345001,0.642819687080383
0.559055118110236,-0.782489741706848,0.475683436203003,-0.626540664482117
0.559660811629316,-0.839970210456848,0.6888401744842529,0.257221542549133
0.560266505148395,0.20186328563690198,-0.235637364578247,0.209321151924133
0.560872198667474,1.5670244184494,-2.0965675403595,-0.38943373088836697
0.561477892186554,-0.399286616706848,0.231391444015503,-0.353508437919617
0.562083585705633,-1.9919746049881,2.04442122917175,0.187765976142883
0.562689279224712,1.23411670360565,-0.760146641921997,0.891901718330383
0.563294972743792,1.0928105512619,-0.372153477859497,-0.559480117607117
0.563900666262871,-1.6710419878006,-0.343413243484497,0.0775950777053835
0.56450635978195,-0.21247509326934802,-0.06798599739074711,-0.602590469169617
0.56511205330103,-0.317855952644348,0.662494959640503,0.0272996675491335
0.565717746820109,1.5191240278244,-0.875107579421997,-0.331953262138367
0.566323440339188,0.194678227043152,-1.3253712512970002,0.024904648017883498
0.566929133858268,-2.2314765581131,2.4539695690155,0.357812362861633
0.567534827377347,0.508425785636902,-0.204502110671997,0.731435409736633
0.568140520896426,1.0161699262619,-0.954143223953247,-0.695996230888367
0.568746214415506,-0.957326167488098,-0.11828140754699701,0.240456405830383
0.569351907934585,-0.301090815925598,-0.312277989578247,-0.487629531669617
0.569957601453664,0.335984379386902,0.997797694015503,0.321887069892883
0.570563294972744,0.609016605949402,-0.185341954421997,0.12310044879913301
0.571168988491823,1.4041630903244,-1.57684830207825,-0.351113418388367
0.571774682010902,-1.6997822221756,1.2229295299529999,0.343442245674133
0.572380375529982,-0.526222651863098,1.5055418346404998,0.10873033161163301
0.572986069049061,1.50235889110565,-0.894267735671997,0.9230369722366331
0.57359176256814,0.0222368207931519,0.114035486984253,-1.31151625041962
0.57419745608722,-0.648368647956848,-0.537409825515747,-0.06371107463836649
0.574803149606299,-0.20289501514434802,0.537953944015503,-0.44930921916961697
0.575408843125379,1.0353300825118998,-0.0895411731719971,-0.197832168388367
0.576014536644458,1.16226611766815,-1.24633560676575,0.724250351142883
0.576620230163537,-0.861525386238098,1.4073460338592498,-0.228967422294617
0.577225923682617,-1.06989208545685,1.242089686203,0.465588241767883
0.577831617201696,0.927554203605652,-0.717036290359497,0.568574081611633
0.578437310720775,0.585066410636902,-0.300302891921997,-0.360693496513367
0.579043004239855,-0.516642573738098,0.11882552604675299,-0.169091934013367
0.579648697758934,-0.521432612800598,0.502028651046753,0.209321151924133
0.580254391278013,0.20186328563690198,-0.393708653640747,0.616474472236633
0.580860084797093,0.905999027824402,-2.43426529426575,-0.056526016044616496
0.581465778316172,-0.588493159675598,1.2061643932342498,-0.827722305107117
0.582071471835251,-2.2266865190506,1.289990076828,1.97684556598663
0.582677165354331,1.2125615278244,-0.487114415359497,-0.561875137138367
0.58328285887341,0.676077152824402,-0.523039708328247,-0.597800430107117
0.583888552392489,-1.6039814409256001,-0.7481715442657471,0.396132675361633
0.584494245911569,0.09408740673065191,0.806196131515503,-1.00974378948212
0.585099939430648,-0.605258296394348,0.145170740890503,1.13140367145538
0.585705632949727,1.5574443403244,-0.966118321609497,-0.437334121513367
0.586311326468807,0.271318852043152,-1.68222916145325,-0.128376601982117
0.586917019987886,-2.27219189014435,2.947343592453,-0.597800430107117
0.587522713506965,0.925159184074402,-0.290722813796997,1.50263169879913
0.588128407026045,0.949109379386902,-1.2367555286407501,-0.341533340263367
0.588734100545124,-0.856735347175598,0.358327479171753,-0.609775527763367
0.589339794064203,-0.0400336870193481,-0.963723302078247,0.13747056598663301
0.589945487583283,0.08929736766815191,1.529492029953,-0.178672012138367
0.590551181102362,0.8580986371994019,-0.707456212234497,0.9829124605178831
0.591156874621442,1.4185332075119,-1.30381607551575,-0.923523086357117
0.591762568140521,-1.8243232378006,1.5342820690155,0.0775950777053835
0.5923682616596,-0.31546093311309803,0.930737147140503,0.37936753864288303
0.59297395517868,1.0640703168869,-1.0020436145782499,0.614079452705383
0.593579648697759,-0.00889843311309814,0.300847010421753,-1.3402564847946201
0.594185342216838,-0.190919917488098,-0.721826329421997,0.800890976142883
0.594791035735918,-0.696269038581848,0.12122054557800299,0.0129295503616335
0.595396729254997,1.2987822309494,-0.235637364578247,-0.648095840263367
0.596002422774076,0.671287113761902,-1.52415787239075,1.21043931598663
0.596608116293156,-1.3860346635818501,2.2264427135467497,-1.29475111370087
0.597213809812235,-0.624418452644348,0.516398768234253,1.49305162067413
0.597819503331314,0.999404789543152,-0.199712071609497,-0.14274671916961698
0.598425196850394,0.192283207511902,-0.506274571609497,0.0775950777053835
0.599030890369473,-0.533407710456848,-0.376943516921997,-0.195437148857117
0.599636583888552,-0.689083979988098,1.14389388542175,-0.382248672294617
0.600242277407632,-0.0711689409255981,-0.273957677078247,0.173395858955383
0.600847970926711,1.3083623090743999,-2.4127101184845,-1.01692884807587
0.60145366444579,-0.667528804206848,0.930737147140503,-0.0277857816696165
0.60205935796487,-1.3980097612381,2.1234568737029997,1.01404771442413
0.602665051483949,1.18621631298065,-0.930193028640747,0.362602401924133
0.603270745003028,0.635361820793152,-0.135046544265747,-0.942683242607117
0.603876438522108,-1.2495185503006,-0.877502598953247,0.700300155830383
0.604482132041187,-0.480717280769348,0.679260096359253,-0.775031875419617
0.605087825560267,-0.293905757331848,0.696025233078003,0.149445663642883
0.605693519079346,1.39218799266815,-1.5217628528595,-0.470864394950867
0.606299212598425,0.417415043449402,-0.963723302078247,-0.0277857816696165
0.606904906117504,-2.31530224170685,2.267158045578,0.415292831611633
0.607510599636584,0.702422367668152,-0.235637364578247,0.633239608955383
0.608116293155663,1.2604619184494,-0.887082677078247,-0.415778945732117
0.608721986674743,-1.1465327104568501,0.303242029953003,-0.276867812919617
0.609327680193822,-0.0112934526443481,-0.439214024734497,-0.224177383232117
0.609933373712901,0.07253223094940191,0.789430994796753,0.281171737861633
0.610539067231981,1.26764697704315,-0.204502110671997,0.578154159736633
0.61114476075106,0.6377568403244019,-0.978093419265747,-0.751081680107117
0.611750454270139,-2.2266865190506,0.873256678390503,0.276381698799133
0.612356147789219,0.10845752391815201,0.997797694015503,0.0512498628616335
0.612961841308298,1.15268603954315,-0.954143223953247,0.532648788642883
0.613567534827377,-0.320250972175598,0.382277674484253,-0.844487441825867
0.614173228346457,-0.514247554206848,-0.254797520828247,0.487143417549133
0.614778921865536,-0.109489253425598,0.169120936203003,-0.169091934013367
0.615384615384615,1.0952055707931498,-0.233242345046997,-0.228967422294617
0.615990308903695,0.628176762199402,-0.901452794265747,0.036879745674133504
0.616596002422774,-1.0483369096756001,1.6684031627654998,-1.01453382854462
0.617201695941853,-0.363361323738098,0.590644373703003,0.872741562080383
0.617807389460933,0.9371342817306519,-0.532619786453247,0.336257187080383
0.618413082980012,0.247368656730652,-0.199712071609497,-0.461284316825867
0.619018776499091,-0.856735347175598,-0.312277989578247,-0.102031387138367
0.619624470018171,-0.322645991706848,1.1319187877655,-0.0182057035446165
0.62023016353725,0.510820805168152,-0.630815587234497,0.726645370674133
0.620835857056329,0.786248051261902,-2.04627213020325,-0.593010391044617
0.621441550575409,-0.701059077644348,1.404951014328,-0.631330703544617
0.622047244094488,-1.2159882768631,1.1414988658904999,1.10984849567413
0.622652937613568,1.2556718793869,-0.556569981765747,0.230876327705383
0.623258631132647,0.271318852043152,-0.204502110671997,-0.188252090263367
0.623864324651726,-1.5009956010818502,-0.398498692703247,-0.0732911527633665
0.624470018170806,-0.605258296394348,0.310427088546753,-0.545110000419617
0.625075711689885,0.007866703605651861,0.698420252609253,0.350627304267883
0.625681405208964,1.48319873485565,-1.037968907547,-0.801377090263367
0.626287098728044,-0.296300776863098,-1.2487306262970002,0.276381698799133
0.626892792247123,-1.88898876514435,2.60485579948425,0.0752000581741335
0.627498485766202,0.573091312980652,-0.681110997390747,0.719460312080383
0.628104179285282,0.870073734855652,-0.934983067703247,-0.214597305107117
0.628709872804361,-0.986066401863098,0.33437728385925297,-0.619355605888367
0.62931556632344,-0.190919917488098,-0.946958165359497,0.10873033161163301
0.62992125984252,0.12522266063690202,1.0456980846405,-0.372668594169617
0.630526953361599,0.822173344230652,-1.066709141922,0.427267929267883
0.631132646880678,0.826963383293152,-0.467954259109497,-1.13188978557587
0.631738340399758,-1.6614619096756,1.51272689323425,0.975727401924133
0.632344033918837,0.189888187980652,1.01456283073425,0.398527694892883
0.632949727437916,0.925159184074402,-0.32425308723449703,0.14705064411163302
0.633555420956996,-0.257980464363098,-0.501484532546997,0.309911972236633
0.634161114476075,-0.241215327644348,-0.108701329421997,-0.420568984794617
0.634766807995154,-0.195709956550598,0.324797205734253,0.041669784736633506
0.635372501514234,0.903604008293152,-0.738591466140747,0.0440648042678835
0.635978195033313,0.862888676261902,-0.590100255203247,-0.319978164482117
0.636583888552392,-1.1393476518631,1.31154525260925,0.0608299409866335
0.637189582071472,-0.586098140144348,1.02414290885925,0.0177195894241335
0.637795275590551,0.450945316886902,-0.8080470325469971,0.285961776924133
0.638400969109631,0.314429203605652,-0.477534337234497,0.0680149995803835
0.63900666262871,-0.116674312019348,0.341562342453003,-0.303213027763367
0.639612356147789,-0.768119624519348,0.418202967453003,0.896691757392883
0.640218049666869,0.0605571332931519,0.0613450572967529,-1.0025587308883699
0.640823743185948,0.7383476606369019,-2.3336744739532502,0.808076034736633
0.641429436705027,-0.485507319831848,1.18221419792175,-0.219387344169617
0.642035130224107,-1.3046039995193501,2.2767381237029998,-0.614565566825867
0.642640823743186,1.1790312543869,-1.430752110672,1.61759263629913
0.643246517262265,0.779062992668152,-0.333833165359497,-1.29954115276337
0.643852210781345,-1.4219599565506,-0.673925938796997,0.513488632392883
0.644457904300424,-0.382521479988098,0.576274256515503,-0.638515762138367
0.645063597819503,-0.622023433113098,0.497238611984253,0.515883651924133
0.645669291338583,1.5909746137618999,-1.12658463020325,-0.44930921916961697
0.646274984857662,0.347959477043152,-1.3253712512970002,-0.164301894950867
0.646880678376741,-2.03268993701935,2.861122889328,-0.0421558988571165
0.647486371895821,0.589856449699402,0.164330897140503,0.877531601142883
0.6480920654149,0.654521977043152,-1.7133644153595,0.15184068317413302
0.648697758933979,-0.792069819831848,0.751110682296753,-1.45282240276337
0.649303452453059,-0.411261714363098,-1.229570470047,0.822446151924133
0.649909145972138,0.652126957511902,1.3378904674529999,-0.600195449638367
0.650514839491217,0.814988285636902,-0.812837071609497,0.580549179267883
0.651120533010297,0.944319340324402,-1.114609532547,-1.0911744535446202
0.651726226529376,-1.80755810108185,1.6468479869842498,0.506303573799133
0.652331920048455,-0.5190375932693481,0.978637537765503,0.154235702705383
0.652937613567535,1.0880205121994,-0.887082677078247,0.223691269111633
0.653543307086614,-0.346596187019348,-0.525434727859497,0.0536448823928835
0.654149000605693,-0.317855952644348,0.0206297252655029,-0.461284316825867
0.654754694124773,-0.337016108894348,0.636149744796753,0.135075546455383
0.655360387643852,0.862888676261902,-0.530224766921997,-0.27926283245086697
0.655966081162932,1.0736503950118998,-1.44751724739075,0.11591539020538301
0.656571774682011,-1.56805614795685,1.768993983078,-0.0397608793258665
0.65717746820109,-0.887870601081848,1.41692611198425,0.515883651924133
0.65778316172017,1.1119707075118999,-0.563755040359497,0.024904648017883498
0.658388855239249,0.209048344230652,-0.654765782546997,-0.317583144950867
0.658994548758328,-0.408866694831848,0.0972703502655029,-0.130771621513367
0.659600242277408,-1.11779247608185,1.1247337291717499,-0.166696914482117
0.660205935796487,0.209048344230652,-0.0248756458282471,-0.346323379325867
0.660811629315566,1.3562626996994,-2.9204542591095,0.767360702705383
0.661417322834646,-0.588493159675598,1.5606272838592499,-1.25164076213837
0.662023016353725,-1.64469677295685,1.69474837760925,1.5217918550491298
0.662628709872804,1.7634160200119,-0.9876734973907471,0.527858749580383
0.663234403391884,0.836543461418152,-0.307487950515747,-0.444519180107117
0.663840096910963,-1.6327216753006,-0.702666173171997,0.0129295503616335
0.664445790430042,-0.00171337451934814,0.8085911510467529,-1.04327406291962
0.665051483949122,-0.380126460456848,0.686445154953003,1.1745140230178799
0.665657177468201,1.4520634809494,-1.2319654895782501,-1.35941664104462
0.66626287098728,0.252158695793152,-1.7612648059845,0.103940292549133
0.66686856450636,-1.9776044878006,2.79645736198425,0.214111190986633
0.667474258025439,0.963479496574402,-0.0871461536407471,0.915851913642883
0.668079951544518,1.08562549266815,-1.0906593372345001,-0.178672012138367
0.668685645063598,-1.0962373003006,-0.056010899734497105,-0.346323379325867
0.669291338582677,-0.09272411670684809,-0.285932774734497,-0.312793105888367
0.669897032101756,-0.0567988237380981,1.05767318229675,0.678744980049133
0.670502725620836,1.21974658641815,-0.942168126296997,0.930222030830383
0.671108419139915,1.1167607465744,-1.0523390247345001,-0.820537246513367
0.671714112658994,-1.92730907764435,1.558232264328,0.345837265205383
0.672319806178074,-0.14301952686309802,1.3211253307342499,0.0608299409866335
0.672925499697153,1.0137749067306498,-0.7481715442657471,0.796100937080383
0.673531193216233,-0.662738765144348,-0.178156895828247,-0.695996230888367
0.674136886735312,-0.171759761238098,-0.247612462234497,-0.145141738700867
0.674742580254391,0.122827641105652,0.228996424484253,0.25961656208038303
0.675348273773471,0.733557621574402,-0.752961583328247,-0.736711562919617
0.67595396729255,1.2173515668869,-0.762541661453247,0.041669784736633506
0.676559660811629,-1.96083935108185,1.3618406627655,-0.0349708402633665
0.677165354330709,-0.528617671394348,1.127128748703,0.139865585517883
0.677771047849788,1.3562626996994,-0.491904454421997,0.539833847236633
0.678376741368867,-0.0735639604568481,-0.408078770828247,0.20213609333038302
0.678982434887947,-0.341806147956848,0.317612147140503,-0.415778945732117
0.679588128407026,-0.947746089363098,0.684050135421753,0.477563339424133
0.680193821926105,0.113247562980652,-0.381733555984497,0.264406601142883
0.680799515445185,1.0688603559493999,-1.7612648059845,-0.662465957450867
0.681405208964264,-0.868710444831848,0.672075037765503,0.341047226142883
0.682010902483343,-0.976486323738098,1.90072005729675,0.302726913642883
0.682616596002423,1.1023906293869,-0.259587559890747,0.611684433174133
0.683222289521502,0.510820805168152,-0.714641270828247,0.0728050386428835
0.683827983040581,-1.0243867143631,-0.156601720046997,-0.949868301200867
0.684433676559661,-0.643578608894348,0.133195643234253,0.410502792549133
0.68503937007874,0.395859867668152,0.909181971359253,-0.252917617607117
0.68564506359782,0.477290531730652,-1.0571290637970001,-0.736711562919617
0.686250757116899,-0.250795405769348,-1.2702858020782501,0.11112535114288301
0.686856450635978,-0.9980414995193481,2.23602279167175,-0.0804762113571165
0.687462144155058,0.0701372114181519,-0.0464308216094971,1.15295884723663
0.688067837674137,1.1335258832931498,-0.915822911453247,-0.351113418388367
0.688673531193216,-0.923795894050598,0.0493699596405029,-0.286447891044617
0.689279224712296,-0.253190425300598,-0.163786778640747,0.0632249605178835
0.689884918231375,0.589856449699402,0.796616053390503,-0.15232679729461698
0.690490611750454,0.424600102043152,-0.424843907546997,0.19734605426788301
0.691096305269534,0.834148441886902,-0.805652013015747,-0.425359023857117
0.691701998788613,-0.959721187019348,1.0169578502655001,0.26919664020538303
0.692307692307692,-0.732194331550598,1.452851404953,0.204531112861633
0.692913385826772,0.640151859855652,-0.800861973953247,0.676349960517883
0.693519079345851,0.244973637199402,-0.616445470046997,-0.964238418388367
0.69412477286493,-0.44479198780059803,0.0038645885467529497,-0.322373184013367
0.69473046638401,-0.102304194831848,0.286476893234253,-0.049340957450866495
0.695336159903089,0.623386723136902,-0.178156895828247,-0.133166641044617
0.695941853422168,0.963479496574402,-0.599680333328247,0.408107773017883
0.696547546941248,-0.636393550300598,0.796616053390503,-0.243337539482117
0.697153240460327,-0.861525386238098,1.27322494010925,0.460798202705383
0.697758933979406,0.625781742668152,0.0900852916717529,0.15184068317413302
0.698364627498486,0.20665332469940198,-0.518249669265747,-0.418173965263367
0.698970321017565,-0.7393793901443481,0.12122054557800299,-0.581035293388367
0.699576014536644,-0.746564448738098,0.0709251354217529,0.556598983955383
0.700181708055724,0.340774418449402,-0.0991212512969971,0.494328476142883
0.700787401574803,0.640151859855652,-1.89778091926575,-0.288842910575867
0.701393095093882,-0.0065034135818481395,0.355932459640503,0.467983261299133
0.701998788612962,-1.5273408159256001,2.19770247917175,0.554203964424133
0.702604482132041,0.929949223136902,-0.810442052078247,0.034484726142883504
0.703210175651121,0.707212406730652,-0.769726720046997,-0.391828750419617
0.7038158691702,-1.1010273393631,-0.0368507434844971,-0.351113418388367
0.704421562689279,-0.0208735307693481,0.142775721359253,0.218901230049133
0.705027256208359,-0.241215327644348,0.935527186203003,0.32907212848663303
0.705632949727438,0.874863773918152,-1.38045670051575,-0.286447891044617
0.706238643246517,0.127617680168152,-1.4355421497345,0.288356796455383
0.706844336765597,-1.7668427690506001,2.5856956432342497,0.192556015205383
0.707450030284676,0.592251469230652,-0.238032384109497,0.889506698799133
0.708055723803755,1.10957568798065,-0.966118321609497,-0.444519180107117
0.708661417322835,-1.1345576128006,0.377487635421753,-1.10554457073212
0.709267110841914,0.20665332469940198,-1.3493214466095,1.01404771442413
0.709872804360993,-0.238820308113098,1.4768016002655,-0.506789687919617
0.710478497880073,0.659312016105652,-0.467954259109497,0.12070542926788301
0.711084191399152,1.26764697704315,-1.25112564582825,-0.530739883232117
0.711689884918231,-1.6087714799881,1.3642356822967499,-0.0972413480758665
0.712295578437311,0.07253223094940191,0.990612635421753,0.161420761299133
0.71290127195639,0.582671391105652,-0.736196446609497,0.659584823799133
0.713506965475469,-0.341806147956848,0.0757151744842529,-0.851672500419617
0.714112658994549,0.149172855949402,-0.125466466140747,-0.07089613323211649
0.714718352513628,-0.0735639604568481,0.0781101940155029,0.233271347236633
0.715324046032707,1.1263408246994,-0.331438145828247,-0.22178236370086699
0.715929739551787,0.882048832511902,-1.421172032547,0.403317733955383
0.716535433070866,-0.969301265144348,2.00131087760925,-0.722341445732117
0.717141126589945,-1.21359325733185,1.2013743541717499,1.03320787067413
0.717746820109025,0.867678715324402,-0.836787266921997,0.144655624580383
0.718352513628104,0.431785160636902,-0.843972325515747,0.312306991767883
0.718958207147184,-0.571728022956848,0.372697596359253,-0.636120742607117
0.719563900666263,-0.9381660112380981,0.758295740890503,0.424872909736633
0.720169594185342,0.16593799266815198,-0.137441563796997,-0.319978164482117
0.720775287704422,1.11436572704315,-2.10854263801575,-0.051735976982116495
0.721380981223501,-0.933375972175598,0.736740565109253,-0.154721816825867
0.72198667474258,-1.2303583940506,2.01568099479675,0.762570663642883
0.72259236826166,1.5263090864181499,-1.04994400520325,1.0643431245803798
0.723198061780739,0.702422367668152,0.037394861984252896,-1.4983277738571201
0.723803755299818,-1.18964306201935,-0.769726720046997,1.02123277301788
0.724409448818898,-0.440001948738098,0.252946619796753,-0.995373672294617
0.725015142337977,-0.401681636238098,0.849306483078003,0.0584349214553835
0.725620835857056,1.30596728954315,-1.5217628528595,0.154235702705383
0.726226529376136,0.326404301261902,-0.815232091140747,-0.779821914482117
0.726832222895215,-2.50690380420685,2.56174544792175,0.429662948799133
0.727437916414294,0.7982231489181519,-0.254797520828247,0.793705917549133
0.728043609933374,1.0137749067306498,-0.896662755203247,-0.322373184013367
0.728649303452453,-1.4459101518631001,0.377487635421753,0.37936753864288303
0.729254996971532,0.316824223136902,-0.604470372390747,0.19734605426788301
0.729860690490612,0.007866703605651861,0.945107264328003,-0.051735976982116495
0.730466384009691,1.08562549266815,-0.896662755203247,1.23199449176788
0.73107207752877,0.695237309074402,-0.968513341140747,-1.00495375041962
0.73167777104785,-1.45788524951935,1.6468479869842498,-0.11640150432586699
0.732283464566929,-0.08553905811309809,0.899601893234253,0.927827011299133
0.732889158086008,0.714397465324402,-0.913427891921997,0.364997421455383
0.733494851605088,0.0102617231369019,0.137985682296753,-1.00016371135712
0.734100545124167,-0.377731440925598,-0.405683751296997,0.491933456611633
0.734706238643246,-0.169364741706848,0.291266932296753,0.039274765205383505
0.735311932162326,1.13831592235565,-0.0823561145782471,-0.135561660575867
0.735917625681405,0.534771000480652,-0.405683751296997,0.0177195894241335
0.736523319200485,-1.0387568315506,1.0265379283904998,-0.461284316825867
0.737129012719564,-0.392101558113098,0.846911463546753,0.338652206611633
0.737734706238643,0.455735355949402,-0.614050450515747,0.393737655830383
0.738340399757723,0.666497074699402,-0.211687169265747,-0.420568984794617
0.738946093276802,-1.17527294483185,-0.101516270828247,0.0871751558303835
0.739551786795881,-0.562147944831848,0.547534022140503,-0.542714980888367
0.740157480314961,0.810198246574402,-0.242822423171997,-0.193042129325867
0.74076317383404,0.321614262199402,-2.07022232551575,0.0105345308303835
0.741368867353119,-0.109489253425598,1.175029139328,-1.0312989652633702
0.741974560872199,-1.36687450733185,1.31154525260925,1.63914781208038
0.742580254391278,0.685657230949402,-0.00332047004699705,-0.0948463285446165
0.743185947910357,0.635361820793152,-1.124189610672,-0.348718398857117
0.743791641429437,-1.2111982378006,-0.261982579421997,-0.200227187919617
0.744397334948516,-0.377731440925598,0.511608729171753,-0.638515762138367
0.745003028467595,-0.396891597175598,0.609804529953003,0.290751815986633
0.745608721986675,1.0065898481369,-0.815232091140747,-0.569060195732117
0.746214415505754,0.668892094230652,-1.622353673172,-0.0732911527633665
0.746820109024833,-1.6997822221756,2.62401595573425,0.199741073799133
0.747425802543913,-0.0472187456130981,0.324797205734253,0.611684433174133
0.748031496062992,1.3802128950119,-0.918217930984497,0.230876327705383
0.748637189582071,-0.933375972175598,0.176305994796753,-0.0972413480758665
0.749242883101151,0.0246318403244019,-0.611655430984497,-0.504394668388367
0.74984857662023,0.352749516105652,0.964267420578003,-0.21699232463836698
0.75045427013931,0.666497074699402,-0.606865391921997,0.309911972236633
0.751059963658389,1.3418925825119,-1.1457447864532502,-0.669651016044617
0.751665657177468,-1.7045722612381,1.41692611198425,0.0296946870803835
0.752271350696547,-0.396891597175598,0.952292322921753,0.491933456611633
0.752877044215627,1.2556718793869,-0.451189122390747,0.209321151924133
0.753482737734706,-0.174154780769348,-0.312277989578247,-0.264892715263367
0.754088431253786,-0.535802729988098,-0.0895411731719971,-0.257707656669617
0.754694124772865,-0.437606929206848,0.224206385421753,0.0320897066116335
0.755299818291944,0.7383476606369019,-0.544594884109497,-0.051735976982116495
0.755905511811024,1.33949756298065,-1.0307838489532501,0.127890487861633
0.756511205330103,-1.3261591753006001,1.3259153697967498,-0.128376601982117
0.757116898849182,-1.1201874956131002,0.993007654953003,0.350627304267883
0.757722592368262,0.973059574699402,-0.693086095046997,-0.190647109794617
0.758328285887341,0.335984379386902,-0.362573399734497,0.0296946870803835
0.75893397940642,-0.713034175300598,0.114035486984253,-0.410988906669617
0.7595396729255,-0.547777827644348,-0.0392457630157471,0.532648788642883
0.760145366444579,0.606621586418152,0.269711756515503,0.32907212848663303
0.760751059963658,0.597041508293152,-2.18039322395325,-0.051735976982116495
0.761356753482738,-0.744169429206848,0.616989588546753,-0.197832168388367
0.761962447001817,-1.01720165576935,2.03005111198425,0.295541855049133
0.762568140520896,1.11915576610565,-0.968513341140747,0.185370956611633
0.763173834039976,0.498845707511902,-0.0392457630157471,-0.664860976982117
0.763779527559055,-1.19922314014435,-0.762541661453247,0.544623886299133
0.764385221078134,-0.14780956592559802,0.511608729171753,-0.367878555107117
0.764990914597214,-0.509457515144348,0.324797205734253,0.568574081611633
0.765596608116293,1.4927788129806498,-1.0307838489532501,-0.0780811918258665
0.766202301635373,0.110852543449402,-1.0475489856720002,-0.022995742607116502
0.766807995154452,-2.08538036670685,2.2911082408905,-0.839697402763367
0.767413688673531,1.22932666454315,-0.535014805984497,1.03560289020538
0.768019382192611,0.652126957511902,-0.968513341140747,-0.0924513090133665
0.76862507571169,-1.2231733354568501,0.731950526046753,-0.600195449638367
0.769230769230769,-0.00410839405059814,-1.3852467395782502,1.0427879487991298
0.769836462749849,0.14677783641815198,1.57020736198425,-1.04566908245087
0.770442156268928,1.02335498485565,-0.6882960559844971,0.769755722236633
0.771047849788007,1.0089848676681499,-0.693086095046997,-0.619355605888367
0.771653543307087,-1.71654735889435,1.49356673698425,-0.149931777763367
0.772259236826166,-0.44479198780059803,0.890021815109253,0.633239608955383
0.772864930345245,0.149172855949402,-0.602075352859497,0.12310044879913301
0.773470623864325,0.395859867668152,-0.6284205677032471,-0.521159805107117
0.774076317383404,-0.456767085456848,-0.326648106765747,0.0967552339553835
0.774682010902483,-0.413656733894348,0.837331385421753,-0.593010391044617
0.775287704421563,1.6676152387618999,-0.326648106765747,0.0440648042678835
0.775893397940642,0.252158695793152,-1.41398697395325,1.02123277301788
0.776499091459721,-1.21359325733185,2.13064193229675,-1.14146986370087
0.777104784978801,-0.332226069831848,-0.223662266921997,1.7828489839553798
0.77771047849788,0.721582523918152,-0.252402501296997,0.0895701753616335
0.778316172016959,0.484475590324402,0.173910975265503,-1.24206068401337
0.778921865536039,-1.0195966753006,-0.872712559890747,0.587734237861633
0.779527559055118,-0.921400874519348,1.1199436901092499,-0.913943008232117
0.780133252574197,0.609016605949402,-0.654765782546997,0.0943602144241335
0.780738946093277,0.6185966840744019,-2.23308365364075,0.446428085517883
0.781344639612356,-0.425631831550598,1.127128748703,-0.830117324638367
0.781950333131435,-1.2782587846756,1.4025559947967499,0.669164901924133
0.782556026650515,1.1598710981369,-0.685901036453247,0.688325058174133
0.783161720169594,0.357539555168152,-0.762541661453247,-0.609775527763367
0.783767413688674,-1.1153974565506,-0.633210606765747,0.0799900972366335
0.784373107207753,-0.296300776863098,0.343957361984253,-0.310398086357117
0.784978800726832,-0.111884272956848,0.451733240890503,0.034484726142883504
0.785584494245912,1.2460918012619,-1.20801529426575,-0.0780811918258665
0.786190187764991,-0.08793407764434809,-0.975698399734497,-0.724736465263367
0.78679588128407,-1.4842304643631001,2.1953074596405,0.348232284736633
0.78740157480315,0.537166020011902,-0.254797520828247,0.851186386299133
0.788007268322229,1.1934013715743998,-0.9876734973907471,-0.281657851982117
0.788612961841308,-1.1800629838943502,0.188281092453003,-0.020600723075866502
0.789218655360388,-0.09272411670684809,-0.420053868484497,-0.672046035575867
0.789824348879467,0.26413379344940197,0.753505701828003,0.573364120674133
0.790430042398546,0.45334033641815197,-0.393708653640747,0.44882310504913303
0.791035735917626,1.2460918012619,-1.2319654895782501,-0.27926283245086697
0.791641429436705,-1.2974189409256,1.567812342453,0.305121933174133
0.792247122955784,-0.20768505420684802,1.2828050182342499,0.336257187080383
0.792852816474864,0.680867191886902,-0.968513341140747,0.518278671455383
0.793458509993943,-0.21726513233184802,0.33437728385925297,-1.04806410198212
0.794064203513022,-0.0615888628005981,-0.755356602859497,0.717065292549133
0.794669897032102,0.10606250438690201,0.573879236984253,-0.616960586357117
0.795275590551181,0.254553715324402,-0.523039708328247,0.254826523017883
0.79588128407026,0.630571781730652,-1.622353673172,0.281171737861633
0.79648697758934,-0.480717280769348,1.82886947135925,-1.02171888713837
0.797092671108419,-0.990856440925598,0.638544764328003,1.67028306598663
0.797698364627498,1.12394580516815,-0.0895411731719971,-0.351113418388367
0.798304058146578,0.16593799266815198,-0.44400406379699703,0.331467148017883
0.798909751665657,-0.9381660112380981,-0.532619786453247,0.362602401924133
0.799515445184736,-0.392101558113098,0.444548182296753,-0.571455215263367
0.800121138703816,0.0701372114181519,-0.479929356765747,0.324282089424133
0.800726832222895,0.951504398918152,-1.6726490833282501,-0.545110000419617
0.801332525741975,-0.332226069831848,0.6888401744842529,0.451218124580383
0.801938219261054,-1.5225507768631001,2.094716639328,0.14705064411163302
0.802543912780133,1.2700419965743999,-1.20322525520325,0.355417343330383
0.803149606299213,0.716792484855652,-0.626025548171997,-0.12358656291961699
0.803755299818292,-1.47225536670685,-0.123071446609497,-0.521159805107117
0.804360993337371,-0.14301952686309802,-0.0919361927032471,0.0296946870803835
0.804966686856451,-0.497482417488098,1.175029139328,0.139865585517883
0.80557238037553,1.3945830121993998,-1.6654640247345,-0.521159805107117
0.806178073894609,0.664102055168152,-1.2631007434845,-0.375063613700867
0.806783767413689,-2.25782177295685,2.57132552604675,0.417687851142883
0.807389460932768,0.721582523918152,0.0230247447967529,0.736225448799133
0.807995154451847,0.999404789543152,-1.06431412239075,-0.439729141044617
0.808600847970927,-1.1848530229568501,-0.293117833328247,-0.351113418388367
0.809206541490006,0.127617680168152,-0.544594884109497,-0.444519180107117
0.809812235009085,-0.229240229988098,0.724765467453003,0.0464598237991335
0.810417928528165,1.02814502391815,-0.432028966140747,0.139865585517883
0.811023622047244,1.2556718793869,-1.0259938098907502,-0.576245254325867
0.811629315566323,-1.6327216753006,1.472011561203,0.295541855049133
0.812235009085403,-0.602863276863098,0.700815272140503,-0.0852662504196165
0.812840702604482,0.862888676261902,-0.415263829421997,0.489538437080383
0.813446396123562,0.127617680168152,-0.017690587234497103,0.168605819892883
0.814052089642641,-0.514247554206848,0.276896815109253,-0.437334121513367
0.81465778316172,-0.260375483894348,0.439758143234253,0.288356796455383
0.815263476680799,0.831753422355652,-1.2439405872345,0.144655624580383
0.815869170199879,1.5478642621993999,-0.451189122390747,-0.739106582450867
0.816474863718958,-1.2614936479568502,1.510331873703,-0.07089613323211649
0.817080557238038,-0.729799312019348,1.127128748703,0.669164901924133
0.817686250757117,1.0952055707931498,-0.863132481765747,0.43924302692413303
0.818291944276196,0.0461870161056519,-0.187736973953247,-0.564270156669617
0.818897637795276,-0.516642573738098,-0.0368507434844971,0.240456405830383
0.819503331314355,-0.612443354988098,0.990612635421753,-0.171486953544617
0.820109024833434,0.09169238719940191,0.552324061203003,0.309911972236633
0.820714718352514,0.913184086418152,-2.82704849739075,0.580549179267883
0.821320411871593,-0.363361323738098,1.0433030651092499,-1.40731703166962
0.821926105390672,-1.67343700733185,1.050488123703,2.09899156208038
0.822531798909752,0.985034672355652,-0.166181798171997,-0.758266738700867
0.823137492428831,1.0017998090744,-0.743381505203247,-0.363088516044617
0.82374318594791,-1.05073192920685,-0.518249669265747,0.0919651948928835
0.82434887946699,-0.760934565925598,0.288871912765503,-0.463679336357117
0.824954572986069,-0.705849116706848,0.360722498703003,0.590129257392883
0.825560266505148,1.5909746137618999,-0.899057774734497,-1.05045912151337
0.826165960024228,0.565906254386902,-1.402011876297,-0.250522598075867
0.826771653543307,-2.1213056596756,2.3366136119842498,-0.243337539482117
0.827377347062386,0.822173344230652,-0.362573399734497,1.3637205659866298
0.827983040581466,0.973059574699402,-0.451189122390747,-0.439729141044617
0.828588734100545,-1.08905224170685,0.0517649791717529,0.21171617145538302
0.829194427619624,-0.0256635698318481,-0.302697911453247,-0.590615371513367
0.829800121138704,0.197073246574402,0.571484217453003,0.518278671455383
0.830405814657783,0.965874516105652,-0.0895411731719971,0.0464598237991335
0.831011508176863,0.910789066886902,-1.49541763801575,-0.0972413480758665
0.831617201695942,-1.4554902299881,1.519911951828,0.034484726142883504
0.832222895215021,-0.7585395463943481,1.01935286979675,0.487143417549133
0.8328285887341,0.510820805168152,-0.757751622390747,0.980517440986633
0.83343428225318,0.16114795360565198,-0.0248756458282471,-1.45282240276337
0.834039975772259,-0.37533642139434803,-1.27986588020325,1.30624009723663
0.834645669291339,-0.490297358894348,1.31633529167175,-0.466074355888367
0.835251362810418,1.11436572704315,-0.673925938796997,-0.0613160551071165
0.835857056329497,1.16226611766815,-1.3014210559845,0.338652206611633
0.836462749848577,-1.97041942920685,2.0228660533905,-1.4336622465133702
0.837068443367656,-0.717824214363098,0.406227869796753,1.4738914644241299
0.837674136886735,0.6976323286056519,-0.396103673171997,0.355417343330383
0.838279830405815,0.237788578605652,0.0493699596405029,-1.03848402385712
0.838885523924894,0.0150517621994019,-0.616445470046997,0.731435409736633
0.839491217443973,-1.24712353076935,0.875651697921753,-0.336743301200867
0.840096910963053,0.956294437980652,0.245761561203003,-0.195437148857117
0.840702604482132,0.939529301261902,-2.618681798172,0.508698593330383
0.841308298001211,-0.861525386238098,1.4456663463592498,-1.14386488323212
0.841913991520291,-1.3117890581131,1.14868392448425,1.52658189411163
0.84251968503937,1.3754228559494,-0.573335118484497,-0.243337539482117
0.843125378558449,1.04251514110565,-0.408078770828247,-0.485234512138367
0.843731072077529,-1.24712353076935,-0.566150059890747,0.0296946870803835
0.844336765596608,-0.432816890144348,0.851701502609253,-0.739106582450867
0.844942459115687,-0.406471675300598,0.272106776046753,0.944592148017883
0.845548152634767,1.6939604536056498,-1.076289220047,-0.784611953544617
0.846153846153846,0.22102344188690198,-1.2343605091095,-0.523554824638367
0.846759539672925,-1.7836079057693501,1.86239974479675,0.44882310504913303
0.847365233192005,0.17072803173065199,0.516398768234253,1.05236802692413
0.847970926711084,0.9371342817306519,-0.695481114578247,-0.205017226982117
0.848576620230164,-0.871105464363098,-0.597285313796997,0.130285507392883
0.849182313749243,-0.18852489795684801,-0.053615880203247104,-1.0911744535446202
0.849788007268322,0.180308109855652,0.188281092453003,0.405712753486633
0.850393700787402,1.0449101606369,-0.192527013015747,0.0536448823928835
0.850999394306481,0.764692875480652,-1.05473404426575,-0.698391250419617
0.85160508782556,-1.65427685108185,1.1606590221405,0.38894761676788303
0.85221078134464,-0.863920405769348,1.127128748703,0.43924302692413303
0.852816474863719,1.0832304731369,-0.489509434890747,0.0656199800491335
0.853422168382798,0.204258305168152,-0.386523595046997,-0.346323379325867
0.854027861901878,-0.782489741706848,-0.240427403640747,-0.27926283245086697
0.854633555420957,0.285688969230652,0.463708338546753,-0.504394668388367
0.855239248940036,0.585066410636902,-1.13616470832825,0.336257187080383
0.855844942459116,0.609016605949402,-0.434423985671997,-0.597800430107117
0.856450635978195,-1.00283153858185,1.0121678112030001,-0.130771621513367
0.857056329497274,-0.681898921394348,0.844516444015503,0.6236595308303831
0.857662023016354,1.15268603954315,0.0517649791717529,-0.205017226982117
0.858267716535433,0.5778813520431519,-0.836787266921997,0.12070542926788301
0.858873410054512,-0.511852534675598,0.142775721359253,-0.564270156669617
0.859479103573592,-1.37645458545685,0.372697596359253,0.20692613239288302
0.860084797092671,0.371909672355652,0.217021326828003,0.0320897066116335
0.86069049061175,0.812593266105652,-2.2594288684845,-0.243337539482117
0.86129618413083,-0.339411128425598,0.485263514328003,-0.494814590263367
0.861901877649909,-1.54889599170685,1.98215072135925,1.2224144136428798
0.862507571168988,0.6377568403244019,-0.798466954421997,0.0991502534866335
0.863113264688068,1.04251514110565,-0.616445470046997,-0.909152969169617
0.863718958207147,-1.6375117143631,-0.388918614578247,0.295541855049133
0.864324651726227,-0.205290034675598,0.315217127609253,-0.681626113700867
0.864930345245306,-0.0376386674880981,0.480473475265503,0.827236190986633
0.865536038764385,1.14789600048065,-0.843972325515747,-0.355903457450867
0.866141732283465,0.501240727043152,-1.3469264270782502,-0.487629531669617
0.866747425802544,-2.1452558549881,2.15459212760925,-0.0828712308883665
0.867353119321623,0.611411625480652,-0.0200856067657471,0.827236190986633
0.867958812840703,1.43529834423065,-0.738591466140747,0.0272996675491335
0.868564506359782,-1.1537177690506,0.145170740890503,0.175790878486633
0.869170199878861,-0.0065034135818481395,-0.273957677078247,-0.691206191825867
0.869775893397941,-0.205290034675598,0.576274256515503,0.293146835517883
0.87038158691702,0.568301273918152,-0.149416661453247,0.300331894111633
0.870987280436099,1.05688525829315,-1.8522755481720001,-0.267287734794617
0.871592973955179,-1.12258251514435,1.69474837760925,-0.0732911527633665
0.872198667474258,-0.825600093269348,1.251669764328,0.257221542549133
0.872804360993337,1.27243701610565,-0.937378087234497,0.606894394111633
0.873410054512417,-0.09511913623809809,-0.0272706653594971,-0.331953262138367
0.874015748031496,-0.930980952644348,-0.0224806262969971,-0.0876612699508665
0.874621441550575,0.319219242668152,0.676865076828003,-0.006230605888366519
0.875227135069655,0.700027348136902,-1.0331788684845,0.163815780830383
0.875832828588734,1.23890674266815,-0.254797520828247,-1.2803809965133701
0.876438522107813,-1.28065380420685,1.0480931041717498,0.851186386299133
0.877044215626893,-0.753749507331848,1.2492747447967498,0.226086288642883
0.877649909145972,1.3035722700119,-0.348203282546997,-0.07089613323211649
0.878255602665051,-0.0591938432693481,-0.767331700515747,0.0847801362991335
0.878861296184131,-0.0544038042068481,0.164330897140503,-0.868437637138367
0.87946698970321,-0.6387885698318481,0.470893397140503,0.954172226142883
0.880072683222289,-0.425631831550598,0.159540858078003,-0.214597305107117
0.880678376741369,1.19579639110565,-2.1636280872345,-0.370273574638367
0.881284070260448,-0.24840038623809801,0.945107264328003,-0.185857070732117
0.881889763779528,-1.69259716358185,1.35465560417175,1.98163560504913
0.882495457298607,1.1934013715743998,-0.259587559890747,-0.676836074638367
0.883101150817686,0.642546879386902,-0.836787266921997,0.000954452705383475
0.883706844336766,-1.04594189014435,-0.331438145828247,-0.233757461357117
0.884312537855845,-0.363361323738098,0.444548182296753,-0.763056777763367
0.884918231374924,-0.246005366706848,-0.0272706653594971,1.34456040973663
0.885523924894004,1.6101347700119,-0.745776524734497,-1.0911744535446202
0.886129618413083,0.335984379386902,-1.4451222278595002,-0.394223769950867
0.886735311932162,-1.6231415971756,2.1186668346405,-0.0110206449508665
0.887341005451242,-0.028058589363098102,0.114035486984253,1.17211900348663
0.887946698970321,0.755112797355652,-0.546989903640747,-0.669651016044617
0.8885523924894,-0.622023433113098,-0.381733555984497,0.424872909736633
0.88915808600848,0.177913090324402,-0.166181798171997,-0.700786269950867
0.889763779527559,0.182703129386902,1.02414290885925,-0.16190687541961699
0.890369473046638,0.405439945793152,-0.7481715442657471,0.846396347236633
0.890975166565718,0.903604008293152,-1.34213638801575,-1.0576441801071201
0.891580860084797,-1.31418407764435,1.280409998703,0.250036483955383
0.892186553603876,-0.784884761238098,1.0456980846405,1.14337876911163
0.892792247122956,0.814988285636902,-0.458374180984497,0.185370956611633
0.893397940642035,0.180308109855652,-0.489509434890747,-0.619355605888367
0.894003634161115,-0.15259960498809802,-0.261982579421997,-0.0613160551071165
0.894609327680194,-0.358571284675598,0.45412826042175297,0.0464598237991335
0.895215021199273,0.0461870161056519,-0.678715977859497,-0.365483535575867
0.895820714718352,1.43529834423065,-0.925402989578247,0.453613144111633
0.896426408237432,-0.933375972175598,1.4025559947967499,0.101545273017883
0.897032101756511,-0.952536128425598,1.3139402721405,-0.200227187919617
0.897637795275591,0.870073734855652,-0.911032872390747,0.465588241767883
0.89824348879467,0.290479008293152,-0.463164220046997,-0.607380508232117
0.898849182313749,-0.466347163581848,0.0589500377655029,-0.12358656291961699
0.899454875832829,-1.17048290576935,0.576274256515503,0.190160995674133
0.900060569351908,0.22102344188690198,0.360722498703003,-0.250522598075867
0.900666262870987,1.07604541454315,-2.30014420051575,-0.020600723075866502
0.901271956390067,-0.121464351081848,0.684050135421753,-0.921128066825867
0.901877649909146,-1.72133739795685,1.6779832408905,1.64633287067413
0.902483343428225,1.1550810590743998,-0.501484532546997,-0.176276992607117
0.903089036947305,0.862888676261902,-0.920612950515747,-0.485234512138367
0.903694730466384,-1.4794404253006002,-0.693086095046997,0.489538437080383
0.904300423985463,0.204258305168152,0.308032069015503,-1.02890394573212
0.904906117504543,-0.437606929206848,0.475683436203003,0.434452987861633
0.905511811023622,1.1359209028244,-0.884687657546997,-0.549900039482117
0.906117504542701,0.987429691886902,-1.6247486927032502,-0.209807266044617
0.906723198061781,-2.29614208545685,2.12585189323425,0.0440648042678835
0.90732889158086,0.153962895011902,0.324797205734253,1.06673814411163
0.907934585099939,1.20058643016815,-1.009228673172,-0.597800430107117
0.908540278619019,-0.696269038581848,-0.238032384109497,-0.255312637138367
0.909145972138098,0.17072803173065199,-0.149416661453247,-0.262497695732117
0.909751665657177,-0.31546093311309803,0.537953944015503,0.590129257392883
0.910357359176257,0.973059574699402,-0.0895411731719971,0.0560399019241335
0.910963052695336,1.1215507856369,-1.507392735672,-0.530739883232117
0.911568746214416,-1.48662548389435,1.357050623703,0.11591539020538301
0.912174439733495,-0.806439937019348,1.2875950572967498,0.444033065986633
0.912780133252574,1.2149565473556498,-0.824812169265747,0.38894761676788303
0.913385826771653,0.467710453605652,-0.204502110671997,-0.521159805107117
0.913991520290733,-0.811229976081848,-0.297907872390747,0.132680526924133
0.914597213809812,-0.123859370613098,0.559509119796753,-0.310398086357117
0.915202907328892,0.604226566886902,-0.954143223953247,0.240456405830383
0.915808600847971,0.9179741254806519,-0.673925938796997,0.000954452705383475
0.91641429436705,-0.777699702644348,1.3905808971405,-0.0876612699508665
0.91701998788613,-1.17527294483185,0.724765467453003,0.434452987861633
0.917625681405209,0.668892094230652,-0.216477208328247,0.036879745674133504
0.918231374924288,0.541956059074402,-0.913427891921997,0.171000839424133
0.918837068443368,-0.499877437019348,0.329587244796753,-0.430149062919617
0.919442761962447,-0.794464839363098,1.02414290885925,0.429662948799133
0.920048455481526,0.113247562980652,-0.228452305984497,-0.231362441825867
0.920654149000606,1.29638721141815,-2.1827882434845,-0.909152969169617
0.921259842519685,-0.442396968269348,0.437363123703003,-0.15711683635711698
0.921865536038764,-1.8339033159256,1.65642806510925,1.16972398395538
0.922471229557844,1.15268603954315,-0.06798599739074711,-0.296027969169617
0.923076923076923,0.865283695793152,-0.740986485671997,0.317097030830383
0.923682616596002,-1.1297675737381,-0.283537755203247,-0.166696914482117
0.924288310115082,-0.399286616706848,0.276896815109253,-0.729526504325867
0.924894003634161,-0.224450190925598,0.767875819015503,0.587734237861633
0.92549969715324,1.3754228559494,-0.992463536453247,-0.183462051200867
0.92610539067232,0.700027348136902,-1.3589015247345,0.036879745674133504
0.926711084191399,-1.8147431596756,2.669521326828,0.0464598237991335
0.927316777710478,0.338379398918152,0.190676111984253,1.06673814411163
0.927922471229558,1.41613818798065,-0.647580723953247,-0.597800430107117
0.928528164748637,-1.0483369096756001,-0.0775660755157471,0.127890487861633
0.929133858267717,-0.0567988237380981,-0.226057286453247,-0.39901380901336697
0.929739551786796,-0.0256635698318481,0.815776209640503,0.410502792549133
0.930345245305875,0.716792484855652,-0.00571548957824705,-0.171486953544617
0.930950938824954,1.2508818403244,-1.7325245716095001,-0.205017226982117
0.931556632344034,-1.1848530229568501,1.45524642448425,0.175790878486633
0.932162325863113,-0.964511226081848,1.845634608078,0.10873033161163301
0.932768019382193,1.0161699262619,-1.181670079422,1.21522935504913
0.933373712901272,0.307244145011902,0.185886072921753,-1.27319593791962
0.933979406420351,-0.636393550300598,-0.573335118484497,0.283566757392883
0.934585099939431,-0.291510737800598,0.655309901046753,-0.470864394950867
0.93519079345851,0.680867191886902,-0.882292638015747,0.561389023017883
0.935796486977589,1.1263408246994,-1.0259938098907502,-0.276867812919617
0.936402180496669,-1.0435468706131001,1.7881541393279998,-0.801377090263367
0.937007874015748,-1.24233349170685,0.770270838546753,1.89062486286163
0.937613567534827,1.0113798871994,0.691235194015503,-0.921128066825867
0.938219261053907,0.846123539543152,-0.410473790359497,0.537438827705383
0.938824954572986,-0.660343745613098,-0.101516270828247,-0.137956680107117
0.939430648092065,-1.0148066362381,0.276896815109253,-1.1007545316696201
0.940036341611145,0.0246318403244019,-0.7481715442657471,1.0763182222366299
0.940642035130224,1.0161699262619,-2.235478673172,0.0728050386428835
0.941247728649303,0.0581621137619019,1.7163035533905,-0.564270156669617
0.941853422168383,-1.9464692338943501,1.46482650260925,1.67267808551788
0.942459115687462,1.47840869579315,-1.1481398059845,-0.298422988700867
0.943064809206541,0.824568363761902,-0.640395665359497,-0.291237930107117
0.943670502725621,-1.9680244096756,0.0661350963592529,-0.262497695732117
0.9442761962447,-0.21726513233184802,0.581064295578003,0.429662948799133
0.94488188976378,-0.313065913581848,0.593039393234253,0.681139999580383
0.945487583282859,1.1886113325118999,-1.306211095047,-0.887597793388367
0.946093276801938,0.599436527824402,-1.20322525520325,-0.341533340263367
0.946698970321018,-2.2458466753006,2.3390086315155,0.132680526924133
0.947304663840097,0.759902836418152,0.303242029953003,1.0643431245803798
0.947910357359176,1.2221416059494,-0.721826329421997,-0.324768203544617
0.948516050878256,-1.2231733354568501,-0.827207188796997,-0.0924513090133665
0.949121744397335,0.266528812980652,-0.803256993484497,-0.655280898857117
0.949727437916414,-0.277140620613098,0.537953944015503,0.652399765205383
0.950333131435494,1.0736503950118998,-0.170971837234497,-0.169091934013367
0.950938824954573,1.3275224653244,-1.239150548172,-0.535529922294617
0.951544518473652,-1.4890205034256,1.1630540416717499,0.604499374580383
0.952150211992732,-0.404076655769348,1.1031785533904999,-0.442124160575867
0.952755905511811,0.783853031730652,-0.226057286453247,1.06913316364288
0.95336159903089,-0.0232685503005981,-0.0799610950469971,-0.06850111370086649
0.95396729254997,-0.250795405769348,-0.281142735671997,-0.276867812919617
0.954572986069049,-0.552567866706848,0.794221033859253,0.15663072223663302
0.955178679588128,1.2365117231369,-0.479929356765747,-0.621750625419617
0.955784373107208,0.884443852043152,-0.767331700515747,-0.363088516044617
0.956390066626287,-0.768119624519348,1.4097410533905,0.0129295503616335
0.956995760145366,-0.418446772956848,1.0169578502655001,0.705090194892883
0.957601453664446,-0.701059077644348,-0.834392247390747,0.424872909736633
0.958207147183525,0.721582523918152,-0.403288731765747,-0.422964004325867
0.958812840702604,-0.14301952686309802,0.0972703502655029,0.403317733955383
0.959418534221684,-0.854340327644348,0.935527186203003,-0.652885879325867
0.960024227740763,1.01856494579315,-0.053615880203247104,-0.621750625419617
0.960629921259842,0.15635791454315198,-2.5851515247345,0.472773300361633
0.961235614778922,0.0701372114181519,1.14868392448425,-0.296027969169617
0.961841308298001,-1.6255366167068501,1.94862044792175,1.45473130817413
0.962447001817081,0.256948734855652,0.0038645885467529497,-0.331953262138367
0.96305269533616,1.4281132856368999,-1.2750758411407501,0.103940292549133
0.963658388855239,-0.782489741706848,-0.611655430984497,-0.317583144950867
0.964264082374319,-0.0783539995193481,0.487658533859253,0.252431503486633
0.964869775893398,-0.988461421394348,0.329587244796753,0.551808944892883
0.965475469412477,0.814988285636902,-0.616445470046997,0.0560399019241335
0.966081162931557,0.932344242668152,-1.80677017707825,0.372182480049133
0.966686856450636,-1.4363300737381,1.5270970104217498,-0.576245254325867
0.967292549969715,0.0270268598556519,0.947502283859253,0.846396347236633
0.967898243488795,0.752717777824402,-0.865527501296997,0.0704100191116335
0.968503937007874,-0.528617671394348,-0.233242345046997,0.180580917549133
0.969109630526953,-0.466347163581848,-0.494299473953247,-0.5139747465133669
0.969715324046033,0.23060352001190199,0.408622889328003,0.757780624580383
0.970321017565112,0.668892094230652,0.351142420578003,0.355417343330383
0.970926711084191,1.28201709423065,-1.4451222278595002,-0.125981582450867
0.971532404603271,-0.708244136238098,1.01935286979675,0.257221542549133
0.97213809812235,-1.3477143510818501,1.33549544792175,0.166210800361633
0.972743791641429,0.819778324699402,-0.621235509109497,0.398527694892883
0.973349485160509,0.599436527824402,-0.434423985671997,-0.0301808012008665
0.973955178679588,-0.411261714363098,-0.32425308723449703,-0.190647109794617
0.974560872198667,-0.21247509326934802,0.619384608078003,-0.849277480888367
0.975166565717747,0.448550297355652,-1.0188087512969999,0.659584823799133
0.975772259236826,1.53588916454315,-0.911032872390747,-0.782216934013367
0.976377952755905,-0.741774409675598,1.0983885143279999,-0.367878555107117
0.976983646274985,-1.3357392534256,1.3618406627655,1.1194285737991299
0.977589339794064,0.949109379386902,0.0182347057342529,-0.238547500419617
0.978195033313144,0.613806645011902,-0.925402989578247,0.257221542549133
0.978800726832223,-0.377731440925598,0.0900852916717529,-0.463679336357117
0.979406420351302,-0.557357905769348,0.624174647140503,0.0584349214553835
0.980012113870382,-0.20768505420684802,0.554719080734253,0.37936753864288303
0.980617807389461,1.2748320356368998,-1.5505030872345,-1.21332044963837
0.98122350090854,-0.18852489795684801,-0.8080470325469971,0.896691757392883
0.98182919442762,-1.83629833545685,2.14980208854675,0.6236595308303831
0.982434887946699,1.2556718793869,-0.202107091140747,-0.137956680107117
0.983040581465778,0.886838871574402,-1.2152003528595001,0.446428085517883
0.983646274984858,-0.823205073738098,0.331982264328003,-0.921128066825867
0.984251968503937,-0.461557124519348,-0.743381505203247,1.02362779254913
0.984857662023016,-0.286720698738098,1.01935286979675,-0.20741224651336698
0.985463355542096,1.0113798871994,-0.915822911453247,-0.104426406669617
0.986069049061175,1.14310596141815,-1.7612648059845,-0.15232679729461698
0.986674742580254,-2.04706005420685,2.209677576828,0.15184068317413302
0.987280436099334,-0.356176265144348,0.911576990890503,0.420082870674133
