Time (s),Accel X (m/s^2),Accel Y (m/s^2),Accel Z (m/s^2)
0.0,2.5315213305473296,-2.41612928953171,-0.843475826740265
0.000605693519079346,-1.6741329663276698,5.09465196046829,0.720471927165985
0.00121138703815869,-0.809530915546417,0.5225596753120421,0.742027102947235
0.00181708055723804,2.9674148852348297,-4.07587782468796,-0.795575436115265
0.00242277407631738,-0.306576813983917,1.73204453859329,0.722866946697235
0.00302846759539673,-1.7387984936714198,1.1787950268745402,-0.421952389240265
0.00363416111447607,-1.91602993898392,-0.5743592700004579,-0.09383471345901469
0.00423985463355542,-1.18075894289017,-0.909662004375458,0.380379153728485
0.00484554815263477,2.77341830320358,-2.24368788328171,-1.2961345181465098
0.00545124167171411,-0.632299470233917,1.81826524171829,1.3216218295097402
0.00605693519079346,-0.627509431171417,4.33064072999954,-1.3608000454902598
0.0066626287098728,2.3758450610160797,-4.5596717700004605,0.540845462322235
0.00726832222895215,0.742441740703583,-0.021109758281707802,-0.345311764240265
0.0078740157480315,-0.9029366772651669,2.46013047609329,0.799507571697235
0.00847970926711084,-2.7566817944526703,-0.742010637187958,0.653411380290985
0.00908540278619019,-1.04184781007767,0.213602155780792,-0.915326412677765
0.00969109630526953,2.27046420164108,-3.36934706296921,-0.493802975177765
0.0102967898243489,1.26216097898483,0.7405064526557921,-0.544098385334015
0.0109024833434282,-1.9950655835151698,4.67073350343704,1.92756177091599
0.0115081768625076,1.18552035398483,-1.93952040281296,-1.5571916470527598
0.0121138703815869,1.99743197507858,-3.0843397387504603,1.01505932950974
0.0127195639006663,-0.673014802265167,4.1222740307807895,-0.551283443927765
0.0133252574197456,-2.76626187257767,-0.0738001879692078,-0.254301022052765
0.013930950938825,-2.12918667726517,-1.57787245359421,1.2785114779472402
0.0145366444579043,2.20100863523483,-0.624654680156708,-0.180055416584015
0.0151423379769836,1.38670199460983,-3.1609803637504603,-0.0674894986152647
0.015748031496063,-0.816715974140167,5.9855992260932895,-1.27218432283401
0.0163537250151423,-0.308971833515167,-0.43784315671920804,1.0605647006034902
0.0169594185342217,3.04884554929733,-4.6123621996879605,-0.412372311115265
0.017565112053301,-0.179640778827667,3.28401719484329,0.258233157634735
0.0181708055723804,-3.07761441164017,0.733321394062042,-0.254301022052765
0.0187764990914597,-1.7340084546089198,-1.4940467700004598,0.603115970134735
0.0193821926105391,0.701726408672333,-0.0690101489067078,-0.577628658771515
0.0199878861296184,3.19254672117233,-2.75622206296921,-1.3775651822090098
0.0205935796486978,-1.0969332592964198,2.3044542065620397,1.71680005216599
0.0211992731677771,-1.53043179445267,3.7414659253120397,-0.9728068814277651
0.0218049666868564,3.04645052976608,-5.29015272703171,0.730052005290985
0.0224106602059358,1.25737093992233,1.17640000734329,-0.335731686115265
0.0230163537250151,-2.74470669679642,1.9619664135932902,-0.333336666584015
0.0236220472440945,-1.92800503664017,-1.6042176684379599,0.464204837322235
0.0242277407631738,-0.306576813983917,0.548904890155792,-0.0890446743965147
0.0248334342822532,1.98785189695358,-3.5633436450004603,-0.230350826740265
0.0254391278013325,0.929253264141083,2.02663194093704,-1.55479662752151
0.0260448213204119,-2.37347866945267,4.088743757343289,2.13113843107224
0.0266505148394912,2.5818167407035797,-2.90231825437546,-1.25541918611526
0.0272562083585706,1.95911166257858,-1.0006727465629601,-0.10341479158401501
0.0278619018776499,-2.3782687085151704,2.5271910229682897,1.3695222201347401
0.0284675953967293,-2.03817593507767,-0.492928605937958,-0.704564693927765
0.0290732889158086,-1.70047818117142,-0.29653700437545805,0.435464602947235
0.0296789824348879,2.14831820554733,-0.9168470629692079,-0.948856686115265
0.0302846759539673,0.704121428203583,-3.07475966062546,0.08339673185348531
0.0308903694730466,-1.0274776928901699,6.53884873781204,-1.38714526033401
0.031496062992126,0.27780795164108296,-1.54673719968796,1.72159009122849
0.0321017565112053,2.79976351804733,-3.18014052000046,-1.45181078767776
0.0327074500302847,-0.397587556171417,3.60973985109329,0.298948489665985
0.033313143549364,-3.35304165773392,-0.133675676250458,-0.21119067049026502
0.0339188370684434,-1.6525777905464198,-1.1180287035942098,0.576770755290985
0.0345245305875227,0.565210295391083,-0.7994911059379579,0.897703372478485
0.0351302241066021,3.21889193601608,-1.4341712817192098,-3.18101488924026
0.0357359176256814,-1.59509732179642,2.22062852296829,3.8890827670097403
0.0363416111447607,-0.546078767108917,3.54986436281204,-2.31401781892776
0.0369473046638401,3.39133334226608,-5.74760145750046,0.504920169353485
0.0375529981829194,0.261042814922333,2.46013047609329,0.258233157634735
0.0381586917019988,-2.96744351320267,2.19907334718704,-1.19075365877151
0.0387643852210781,-2.15313687257767,-3.22325087156296,1.9036115756034901
0.0393700787401575,0.847822600078583,2.78106309328079,-2.36431322908401
0.0399757722592368,1.86091586179733,-5.02430555906296,1.02224438810349
0.0405814657783162,0.7184915453910831,2.32840440187454,-1.7655583462715099
0.0411871592973955,-3.08479947023392,4.08634873781204,1.87966138029099
0.0417928528164749,2.98657504148483,-4.48303114500046,0.361218997478485
0.0423985463355542,2.62013705320358,0.266292585468292,-0.651874264240265
0.0430042398546336,-3.96616665773392,2.12961778078079,0.533660403728485
0.0436099333737129,-1.01789761476517,-1.50123182859421,-0.855450924396515
0.0442156268927922,-0.766420563983917,0.11780137453079201,1.4293977084159901
0.0448213204118716,1.9351614672660802,-0.41868300046920803,-1.64820238924026
0.0454270139309509,0.7592068774223331,-2.90710829343796,1.16594555997849
0.0460327074500303,-1.9854855053901699,6.08379502687454,-1.2314689908027598
0.0466384009691096,1.82738558835983,-2.24368788328171,0.445044681072235
0.047244094488189,2.7111477953910796,-2.67239637937546,0.480969974040985
0.0478497880072683,-1.7387984936714198,4.04563340578079,-0.13215502595901502
0.0484554815263477,-2.70159634523392,-2.10238173093796,0.497735110759735
0.049061175045427,-1.34122525148392,0.153726667499542,-1.5308464322090098
0.0496668685645064,0.581975432109833,-0.646209855937958,0.751607181072235
0.0502725620835857,3.1374612719535797,-1.35992567625046,-1.91883959627151
0.050878255602665,-1.76514370851517,2.83614854249954,2.3323200716972403
0.0514839491217444,-0.426327790546417,1.7607847729682902,-1.6386223111152598
0.0520896426408237,3.3003226000785797,-3.75494520750046,-0.261486080646515
0.0526953361599031,-0.306576813983917,2.3475645581245397,1.70003491544724
0.0533010296789824,-3.40333706789017,1.91167100343704,-2.28288256502151
0.0539067231980618,-2.29923306398392,-3.53939344968796,2.9406550326347403
0.0545124167171411,1.41544222898483,2.74753281984329,-2.0888859829902597
0.0551181102362205,1.67170931882858,-4.45668593015671,-0.42913744783401503
0.0557238037552998,0.210747404766083,1.93083115968704,-0.788390377521515
0.0563294972743792,-1.7938839428901698,4.627623151874539,0.28936841154098497
0.0569351907934585,2.72312289304733,-5.70209608640671,2.10479321622849
0.0575408843125379,2.22735385007858,2.68765733156204,-1.8469890103340099
0.0581465778316172,-4.555341462421421,1.36560655031204,1.11086011075974
0.0587522713506965,-1.42505093507767,-2.66760634031296,-0.357286861896515
0.0593579648697759,1.1064847094535801,2.04100205812454,-0.0603044400215147
0.0599636583888552,1.13043490476608,-2.50474501218796,-0.702169674396515
0.0605693519079346,1.25018588132858,-1.28089003171921,0.433069583415985
0.0611750454270139,-3.23089566164017,4.99166612062454,0.483364993572235
0.0617807389460933,2.14113314695358,-2.50953505125046,-0.711749752521515
0.0623864324651726,3.49192416257858,-1.8916200121879598,0.969553958415985
0.062992125984252,-3.23808072023392,3.8779820385932897,-0.939276607990265
0.0635978195033313,-1.78430386476517,-2.46402968015671,0.392354251384735
0.0642035130224107,-0.8023458569526669,0.251922468280792,-0.0171940884590147
0.06480920654149,1.34359164304733,-0.31809218015670804,0.351638919353485
0.0654149000605694,1.5375882250785802,-2.6915565356254603,-0.982386959552765
0.0660205935796487,-2.2417525952339203,5.30541367921829,-0.493802975177765
0.066626287098728,0.831057463359833,-0.8761317309379579,1.2401911654472402
0.0672319806178074,4.16492465085983,-2.6484461840629603,-1.1452482876777599
0.0678376741368867,-2.24893765382767,2.93434434328079,0.981529056072235
0.0684433676559661,-3.26682095460892,-0.883316789531708,-1.1284831509590099
0.0690490611750454,-0.6394845288276669,-0.868946672344208,0.248653079509735
0.0696547546941248,0.7544168383598331,1.54044297609329,-0.24711596345901501
0.0702604482132041,2.1099978930473298,-4.18125868406296,-0.778810299396515
0.0708661417322835,-0.24670132570266698,2.79782822999954,0.145667239665985
0.0714718352513628,-0.706545075702667,2.8864439526557897,0.296553470134735
0.0720775287704422,2.94346468992233,-4.82312391843796,1.97785718107224
0.0726832222895215,1.09929965085983,3.72230576906204,-1.08058276033401
0.0732889158086008,-4.40445523195267,0.208812116718292,0.466599856853485
0.0738946093276802,-1.51845669679642,-2.95979872312546,0.835432864665985
0.0745003028467595,1.38670199460983,2.75950791749954,-0.441112545490265
0.0751059963658389,1.29329623289108,-3.9225965746879603,-0.905746334552765
0.0757116898849182,1.18552035398483,0.766851667499542,-0.896166256427765
0.0763173834039976,-3.02731900148392,4.24442002687454,1.8173908724784902
0.0769230769230769,2.6848025805473297,-3.48191298093796,-1.00873217439651
0.0775287704421563,2.91711947507858,0.807566999530792,-0.10341479158401501
0.0781344639612356,-4.80681851320267,2.00028672609329,0.536055423259735
0.078740157480315,-1.1184884350776698,-3.0771546801567102,-0.362076900959015
0.0793458509993943,0.546050139141083,1.61708360109329,0.394749270915985
0.0799515445184737,1.2262356860160801,-0.7587757739067079,-0.591998775959015
0.080557238037553,1.5040579516410801,-3.17295546140671,-0.496197994709015
0.0811629315566323,-3.0033688061714203,5.52815049562454,-0.189635494709015
0.0817686250757117,1.15438510007858,-1.67606825437546,1.6760847201347402
0.082374318594791,4.2870706469535795,-2.01616102781296,-1.05902758455276
0.0829800121138704,-3.1063546460151703,3.2959922924995397,0.179197513103485
0.0835857056329497,-2.43335415773392,-2.28440321531296,-0.0411442837715147
0.0841913991520291,-0.249096345233917,-0.188761125469208,0.176802493572235
0.0847970926711084,0.352053557109833,0.874627546405792,0.5240803256034849
0.0854027861901878,1.92797640867233,-2.72269178953171,-1.24583910799026
0.0860084797092671,-2.0046456616401698,2.7571128979682897,1.64015942716599
0.0866141732283465,0.325708342266083,1.8038951245307902,-1.13566820955276
0.0872198667474258,4.02840853757858,-3.63519423093796,0.512105227947235
0.0878255602665051,-1.6310226147651699,3.13073594484329,0.104951907634735
0.0884312537855845,-3.5590133374214203,-0.8593665942192079,-1.1069279751777599
0.0890369473046638,-1.2597945874214198,-2.20057753171921,1.0916999545097401
0.0896426408237432,0.912488127422333,3.0900206128120398,-0.278251217365265
0.0902483343428225,1.57830355710983,-4.6794227465629605,-0.045934322834014704
0.0908540278619019,0.6586160571098331,2.44576035890579,-1.7272380337715099
0.0914597213809812,-2.1220016186714203,2.01705186281204,2.65325268888474
0.0920654149000606,3.09674593992233,-2.7945423754692102,-1.04465746736526
0.0926711084191399,1.8034353930473301,1.88772080812454,0.689336673259735
0.0932768019382193,-5.23792202882767,0.946478132343292,-0.0722795376777647
0.0938824954572986,-1.44181607179642,-3.10828993406296,0.0522614779472353
0.094488188976378,1.4944778735160802,2.24936875734329,0.531265384197235
0.0950938824954573,1.41304720945358,-0.39712782468795804,-2.47927416658401
0.0956995760145366,0.452644377422333,-3.75734022703171,1.41742261075974
0.096305269533616,-1.7890939038276699,6.02870957765579,-1.88770434236526
0.0969109630526953,1.3411966235160802,-2.70353163328171,1.92756177091599
0.0975166565717747,3.30511263914108,-0.0618250903129578,-0.527333248615265
0.098122350090854,-4.09070767335892,2.52240098390579,0.509710208415985
0.0987280436099334,-2.35671353273392,-3.85074598875046,-0.0267741665840147
0.0993337371290127,1.39867709226608,2.4146251049995398,-1.0733977017402598
0.0999394306480921,-0.366452302265167,-0.5767542895317079,1.4317927279472402
0.100545124167171,2.7710232836723296,-2.65084120359421,-1.7823234829902599
0.101150817686251,-2.66806607179642,2.93434434328079,2.3419001498222403
0.10175651120533,0.0359109789848328,1.3464463940620401,-0.484222897052765
0.102362204724409,5.69534213132858,-2.7346668871879602,0.758792239665985
0.102967898243489,-2.84529751710892,2.2110484448432897,0.581560794353485
0.103573591762568,-3.13509488039017,-1.2281996020317099,-1.59790697908401
0.104179285281647,0.150871916484833,-1.38148085203171,1.5730988802909902
0.104784978800727,0.14847689695358302,2.82896348390579,-0.6734294400215151
0.105390672319806,1.3579617602348302,-4.58122694578171,0.560005618572235
0.105996365838886,-0.5221285717964169,3.18342637453079,-1.73442309236526
0.106602059357965,-1.3867306225776699,1.93322617921829,1.3814973177909902
0.107207752877044,4.40921664304733,-3.0675746020317103,0.641436282634735
0.107813446396124,-0.373637360858917,2.95589951906204,-0.524938229084015
0.108419139915203,-4.88345913820267,-1.99939589109421,1.0701447787284901
0.109024833434282,-0.234726228046417,-1.27849501218796,-1.9547648892402598
0.109630526953362,0.526889982891083,2.48647569093704,1.53238354825974
0.110236220472441,1.61662386960983,-1.3742957934379598,-1.95236986970901
0.11084191399152,0.464619475078583,-2.17662733640671,1.1036750521659902
0.1114476075106,-1.29571988039017,4.37854112062454,-1.3679851040840099
0.112053301029679,2.21537875242233,-1.66169813718796,0.109741946697235
0.112658994548758,1.83457064695358,0.0770860424995422,1.44855786466599
0.113264688067838,-4.24398892335892,2.7307676831245398,-2.15594652986526
0.113870381586917,-2.8596676342964202,-5.2709925707817105,2.71073315763474
0.114476075105996,2.11478793210983,3.54986436281204,-1.07100268220901
0.115081768625076,0.47659457273483297,-0.8737367114067079,-0.0363542447090147
0.115687462144155,1.74834994382858,-3.28552137937546,-1.77753344392776
0.116293155663234,-1.5974923413276698,4.06718858156204,-0.144130123615265
0.116898849182314,-0.29220669679641703,-0.624654680156708,1.4533479037284902
0.117504542701393,4.67506381101608,0.0770860424995422,-0.783600338459015
0.118110236220472,-4.34936978273392,1.17400498781204,1.4581379427909902
0.118715929739552,-3.02252896242142,-2.86639296140671,-1.3847502408027599
0.119321623258631,1.77230013914108,1.04467393312454,-0.175265377521515
0.11992731677771,-0.45027798585891704,1.40871690187454,0.718076907634735
0.12053301029679,2.19861361570358,-3.67111952390671,-1.22907397127151
0.121138703815869,-1.6190475171089198,1.7607847729682902,0.308528567790985
0.121744397334949,-1.02987271242142,2.43618028078079,0.210332767009735
0.122350090854028,4.8259500414848295,-2.79693739500046,0.636646243572235
0.122955784373107,-1.5927023022651698,2.47929063234329,-0.635109127521515
0.123561477892187,-4.15776822023392,-1.6856483325004599,0.0378913607597353
0.124167171411266,0.6969363696098331,-1.5706873950004598,-0.0339592251777647
0.124772864930345,0.280202971172333,3.09481065187454,0.421094485759735
0.125378558449425,1.10887972898483,-3.16337538328171,-0.757255123615265
0.125984251968504,0.25864779539108296,0.443524030780792,-0.565653561115265
0.126589945487583,-1.59988736085892,2.94871446046829,0.895308352947235
0.127195639006663,4.13139437742233,-1.81976942625046,-0.829105709552765
0.127801332525742,0.404743986797333,1.3632115307807902,0.749212161540985
0.128407026044821,-4.55773648195267,0.6231504956245421,-0.721329830646515
0.129012719563901,-0.828691071796417,-3.12984510984421,0.457019778728485
0.12961841308298,0.780762053203583,2.86249375734329,0.39953930997848497
0.130224106602059,1.15438510007858,-1.19706434812546,-0.374051998615265
0.130829800121139,0.890932951641083,-2.11675184812546,-0.704564693927765
0.131435493640218,-1.4466061108589199,3.81571153078079,0.445044681072235
0.132041187159297,1.1998904711723302,-1.4940467700004598,2.52871167325974
0.132646880678377,3.5134793383598297,1.4230870190620402,-1.3344548306465098
0.133252574197456,-4.6080318921089205,1.11412949953079,0.885728274822235
0.133858267716535,-2.65609097414017,-3.40527235593796,-0.656664303302765
0.134463961235615,1.86091586179733,2.11285264406204,0.15285229825973498
0.135069654754694,-0.294601716327667,0.285452741718292,0.799507571697235
0.135675348273773,2.4021902758598297,-2.59096571531296,-2.21103197908401
0.136281041792853,-1.47055630617142,0.924922956562042,2.02336255216599
0.136886735311932,-0.296996735858917,2.07692735109329,-1.3727751431465098
0.137492428831012,4.46430209226608,-0.334857316875458,0.179197513103485
0.138098122350091,-3.0800094311714203,0.30940293703079197,1.2785114779472402
0.13870381586917,-3.7051095288276703,-2.48318983640671,-1.3176896939277598
0.13930950938825,1.66452426023483,0.148936628437042,0.322898684978485
0.139915202907329,0.0646512133598328,2.63975694093704,0.100161868572235
0.140520896426408,1.77948519773483,-4.19083876218796,-1.2266789517402599
0.141126589945488,-0.376032380390167,1.09496934328079,-1.40870043611526
0.141732283464567,-2.22738247804642,2.06255723390579,3.04603589200974
0.142337976983646,5.27381869382858,-0.981512590312958,-1.0638176236152599
0.142943670502726,-0.09581509523391721,0.565670026874542,0.624671145915985
0.143549364021805,-4.87627407960892,-0.48574354734420805,-0.603973873615265
0.144155057540884,0.5939505297660831,-1.74073378171921,-0.716539791584015
0.144760751059964,0.40713900632858296,1.71527940187454,2.03533764982224
0.145366444579043,0.922068205547333,-0.440238176250458,-2.3283879361152597
0.145972138098122,-0.158085603046417,-3.04841444578171,0.962368899822235
0.146577831617202,-1.2597945874214198,4.42644151124954,-1.7823234829902599
0.147183525136281,3.10153597898483,-1.57308241453171,1.74314526700974
0.14778921865536,2.0405423266410803,0.886602644062042,-0.302201412677765
0.14839491217444,-4.69904263429642,0.9368980542182921,-0.944066647052765
0.149000605693519,-1.9304000561714199,-3.95133680906296,1.3647321810722401
0.149606299212598,1.7004495532035802,3.42292832765579,-0.362076900959015
0.150211992731678,-0.6179293530464169,-0.526458879375458,0.677361575603485
0.150817686250757,2.3590799242973297,-2.0496913012504603,-1.64101733064651
0.151423379769836,-1.30529995851517,0.795591901874542,1.6928498568534902
0.152029073288916,0.6370608813285831,1.93801621828079,-1.32008471345901
0.152634766807995,3.76016635007858,0.733321394062042,0.7635822787284849
0.153240460327075,-3.58056851320267,0.668655866718292,0.600720950603485
0.153846153846154,-3.59254361085892,-2.91908339109421,-1.4446257290840099
0.154451847365233,1.47292269773483,0.809962019062042,0.588745852947235
0.155057540884313,0.821477385234833,2.91278916749954,-0.477037838459015
0.155663234403392,1.09450961179733,-5.05783583250046,0.303738528728485
0.156268927922471,0.06704623289108279,2.1152476635932898,-2.38107836580276
0.156874621441551,-1.88968472414017,1.4829625073432902,2.6245124545097402
0.15748031496063,4.98641635007858,0.26150254640579196,0.215122806072235
0.158086008479709,-1.7387984936714198,0.8195420971870421,-0.484222897052765
0.158691701998789,-5.65465542726517,-3.09152479734421,-0.323756588459015
0.159297395517868,2.12197299070358,0.101036237812042,0.0426813998222353
0.159903089036947,0.768786955547333,2.89841905031204,1.8221809115409902
0.160508782556027,0.723281584453583,-1.15395399656296,-2.62537035799026
0.161114476075106,0.124526701641083,-3.24241102781296,1.2234260287284902
0.161720169594185,-1.55677700929642,3.77739121828079,-0.342916744709015
0.162325863113265,3.56377474851608,-0.42826307859420804,1.0916999545097401
0.162931556632344,0.493359709453583,0.496214460468292,-0.0171940884590147
0.163537250151423,-5.04153042726517,-0.243846574687958,-0.740489986896515
0.164142943670503,0.706516447734833,-3.15858534421921,0.912073489665985
0.164748637189582,1.49208285398483,2.97505967531204,-0.575233639240265
0.165354330708661,-0.385612458515167,-1.3647157153129599,0.751607181072235
0.165960024227741,0.7544168383598331,-1.6640931567192099,-1.78471850252151
0.16656571774682,-1.5591720288276698,2.28529405031204,1.00068921232224
0.167171411265899,2.4524856860160797,0.0651109448432922,0.33966382169723497
0.167777104784979,3.1542264086723297,0.850677351093292,-0.802760494709015
0.168382798304058,-5.11817105226517,-0.0809852465629578,0.919258548259735
0.168988491823137,-2.00225064210892,-2.7849622973442103,-0.881796139240265
0.169594185342217,1.82978060789108,1.6577989331245402,1.3814973177909902
0.170199878861296,-0.615534333515167,1.8853257885932901,-0.790785397052765
0.170805572380376,1.0466092211723301,-3.89385634031296,-0.172870357990265
0.171411265899455,-0.232331208515167,1.1668199292182901,-1.20033373689651
0.172016959418534,-0.0694698803901672,1.72006944093704,0.727656985759735
0.172622652937614,3.5470096117973298,0.323773054218292,1.4677180209159901
0.173228346456693,-2.61537564210892,1.52367783937454,-0.850660885334015
0.173834039975772,-4.55773648195267,-4.15730848875046,0.366009036540985
0.174439733494852,2.61055697507858,1.18598008546829,-1.28415942049026
0.175045427013931,0.905303068828583,2.52240098390579,1.25935132169724
0.17565112053301,0.37600375242233297,-3.52262831296921,-1.3943303189277598
0.17625681405209,1.1016946703910802,-0.11691053953170799,-0.867426022052765
0.176862507571169,-2.1818771069526703,2.06016221437454,2.09042309904099
0.177468201090248,3.7529812914848297,1.2386705151557902,-0.584813717365265
0.178073894609328,-1.04424282960892,-0.38754774656295804,1.67368970060349
0.178679588128407,-4.59845181398392,-1.6473280200004599,-1.6769426236152598
0.179285281647486,2.10041781492233,-1.2545448168754598,0.622276126384735
0.179890975166566,0.32810336179733296,2.83614854249954,0.46899487638473497
0.180496668685645,1.0418191821098302,-0.612679582500458,-1.7966936001777598
0.181102362204724,-0.0694698803901672,-3.74776014890671,0.488155032634735
0.181708055723804,-1.58072720460892,3.90672227296829,-1.29852953767776
0.182313749242883,2.66085238523483,-0.27737684812545804,2.8711994662284903
0.182919442761962,1.95432162351608,0.335748151874542,-1.10453295564651
0.183525136281042,-4.54097134523392,0.14654160890579201,-0.48901293611526503
0.184130829800121,-0.8430611889839169,-2.9047132739067103,0.277393313884735
0.1847365233192,1.42981234617233,1.8637706128120402,0.478574954509735
0.18534221683828,-0.776000642108917,0.0028404370307922398,0.116927005290985
0.185947910357359,1.44178744382858,-1.8700648364067098,-1.4326506314277598
0.186553603876439,-1.37715054445267,0.987193464374542,1.8772663607597402
0.187159297395518,1.5639334399223301,1.9667564526557901,-1.35361498689651
0.187764990914597,3.2572122485160797,-0.169600969219208,1.43897778654099
0.188370684433677,-4.20566861085892,0.5584849682807921,-0.390817135334015
0.188976377952756,-2.56268521242142,-3.04841444578171,-0.330941647052765
0.189582071471835,1.92558138914108,0.714161237812042,0.892913333415985
0.190187764990915,0.196377287578583,2.27571397218704,-1.01112719392776
0.190793458509994,0.859797697734833,-3.98965712156296,-0.642294186115265
0.191399152029073,0.567605314922333,1.0518589917182901,-1.00633715486526
0.192004845548153,-1.14962368898392,1.14286973390579,3.42684399747849
0.192610539067232,3.73142611570358,2.39306992921829,-1.4805510220527598
0.193216232586311,-1.6477877514839199,-0.392337785625458,1.2785114779472402
0.193821926105391,-4.67748745851517,-2.97895887937546,-1.3296647915840099
0.19442761962447,1.9399515063285802,0.127381452655792,-0.165685299396515
0.195033313143549,0.7568118578910831,2.38348985109329,1.4581379427909902
0.195639006662629,1.18552035398483,-0.883316789531708,-2.63495043611526
0.196244700181708,0.34726351804733296,-3.54178846921921,0.914468509197235
0.196850393700787,-1.2166842358589198,3.39179307374954,-1.01352221345901
0.197456087219867,2.93388461179733,1.1356846753120402,2.4185407748222403
0.198061780738946,-0.306576813983917,-0.272586809062958,-0.11778490877151501
0.198667474258025,-4.32541958742142,-1.43177626218796,-1.74639819002151
0.199273167777105,0.6179007250785831,-2.01376600828171,1.1084650912284901
0.199878861296184,1.1448050219535801,3.11157578859329,-0.730909908771515
0.200484554815263,-0.5820040600776669,-0.9934876879692079,-0.326151607990265
0.201090248334343,1.57111849851608,-2.66042128171921,-0.872216061115265
0.201695941853422,-1.53522183351517,1.41350694093704,0.888123294353485
0.202301635372502,1.40825717039108,2.78585313234329,-0.759650143146515
0.202907328891581,2.8285037524223298,-0.29653700437545805,0.742027102947235
0.20351302241066,-3.89192105226517,-1.2449647387504599,0.104951907634735
0.20411871592974,-1.26218960695267,-1.0749183520317098,-1.78471850252151
0.204724409448819,0.881352873516083,0.5177696362495421,2.22933423185349
0.205330102967898,-0.232331208515167,2.0362120190620403,-1.1284831509590099
0.205935796486978,0.811897307109833,-3.95373182859421,0.253443118572235
0.206541490006057,0.0430960375785828,1.21472031984329,-1.4661809048652599
0.207147183525136,-0.38082241945266704,1.78952500734329,1.32401684904099
0.207752877044216,3.78172152585983,0.235157331562042,1.22103100919724
0.208358570563295,-3.05845425539017,0.963243269062042,-1.23386401033401
0.208964264082374,-3.9350314038276704,-3.51544325437546,0.591140872478485
0.209569957601454,2.5722366625785797,1.16921494874954,-0.704564693927765
0.210175651120533,-0.507758454608917,2.0721373120307898,0.945603763103485
0.210781344639612,1.0849295336723301,-1.20185438718796,-2.50082934236526
0.211387038158692,0.505334807109833,-2.5191151293754603,0.845012942790985
0.211992731677771,-0.9580221264839169,2.7666929760932897,-0.36926195955276503
0.21259842519685,2.9075393969535797,2.72597764406204,-0.223165768146515
0.21320411871593,-1.38433560304642,-1.6257728442192099,2.22933423185349
0.213809812235009,-4.19848355226517,-1.80300428953171,-2.1655266079902598
0.214415505754088,1.05618929929733,-0.902476945781708,0.809087649822235
0.215021199273168,1.07295443601608,2.8768638745307897,0.229492923259735
0.215626892792247,0.787947111797333,-0.947982316875458,-0.910536373615265
0.216232586311326,1.13043490476608,-3.20169569578171,-1.37517016267776
0.216838279830406,-1.40349575929642,2.30205918703079,0.440254642009735
0.217443973349485,1.94713656492233,2.58946153078079,2.15987866544724
0.218049666868565,0.864587736797333,-0.183971086406708,-0.474642818927765
0.218655360387644,-4.26554409914017,-2.29398329343796,-0.927301510334015
0.219261053906723,0.282597990703583,-1.5970326098442098,-0.0555144009590147
0.219866747425803,1.36993685789108,2.59185655031204,0.751607181072235
0.220472440944882,-0.747260407733917,0.570460065937042,0.282183352947235
0.221078134463961,1.14720004148483,-3.71422987546921,-0.25909106111526503
0.221683827983041,-0.905331696796417,0.443524030780792,0.730052005290985
0.22228952150212,0.399953947734833,3.4684336987495397,0.533660403728485
0.222895215021199,2.4189554125785797,-0.38754774656295804,1.1635505404472402
0.223500908540279,-2.80458218507767,-0.583939348125458,-1.01352221345901
0.224106602059358,-1.93279507570267,-1.96586561765671,-0.436322506427765
0.224712295578437,1.41544222898483,0.716556257343292,0.591140872478485
0.225317989097517,-0.6203243725776669,1.93801621828079,-0.12017992830276501
0.225923682616596,0.5364700610160831,-2.6388661059379603,-0.797970455646515
0.226529376135675,0.423904143047333,-0.46897841062545803,-0.527333248615265
0.227135069654755,-0.8215060132026669,2.3116392651557898,1.0725397982597402
0.227740763173834,3.7266360766410798,1.32728623781204,-0.321361568927765
0.228346456692913,-2.47646450929642,-1.01504286375046,0.423489505290985
0.228952150211993,-3.79612027101517,-2.1598621996879603,-1.0302873501777599
0.229557843731072,1.7267947680473301,0.0675059643745422,0.600720950603485
0.230163537250151,-0.045519685077667196,2.23978867921829,0.236677981853485
0.230769230769231,1.17115023679733,-1.03420302000046,-0.915326412677765
0.23137492428831,0.459829436016083,-2.84723280515671,-1.0566325650215098
0.231980617807389,-0.8215060132026669,2.26613389406204,-0.00282397127151467
0.232586311326469,2.0070120532035802,3.38460801515579,1.7527253451347402
0.233192004845548,-0.0527047436714172,-0.104935441875458,-0.09383471345901469
0.233797698364627,-4.73736294679642,-2.98374891843796,-0.666244381427765
0.234403391883707,0.783157072734833,-0.662974992656708,-0.199215572834015
0.235009085402786,1.5759085375785802,2.55593125734329,1.06295972013474
0.235614778921866,-0.388007478046417,-0.322882219219208,-0.24711596345901501
0.236220472440945,2.16747836179733,-2.29158827390671,-1.98590014314651
0.236826165960024,-1.2118941967964199,-0.330067277812958,1.9155866732597402
0.237431859479104,1.3364065844535802,4.29950547609329,0.401934329509735
0.238037552998183,0.984338713359833,0.110616315937042,0.191172610759735
0.238643246517262,-3.81049038820267,-2.55264540281296,-0.884191158771515
0.239248940036342,-0.517338532733917,-1.02462294187546,-0.287831295490265
0.239854633555421,1.8585208422660802,1.39913682374954,0.852198001384735
0.2404603270745,-0.474228181171417,2.0362120190620403,-1.1069279751777599
0.24106602059358,0.335288420391083,-4.08785292234421,0.08818677091598531
0.241671714112659,0.672986174297333,0.0986412182807922,-1.5140812954902598
0.242277407631738,-0.605954255390167,3.36305283937454,2.36345532560349
0.242883101150818,2.7015677172660797,0.273477644062042,0.179197513103485
0.243488794669897,-2.05254605226517,-2.04011122312546,-1.0566325650215098
0.244094488188976,-2.80937222414017,-1.62337782468796,-0.00282397127151467
0.244700181708056,1.79625033445358,0.888997663593292,0.104951907634735
0.245305875227135,-0.6035592358589169,1.6146885815620402,0.607906009197235
0.245911568746214,0.763996916484833,-0.926427141094208,-1.17877856111526
0.246517262265294,0.553235197734833,-2.94542860593796,0.203147708415985
0.247122955784373,-0.36166226320266703,3.0996006909370397,-0.398002193927765
0.247728649303452,3.2907425219535797,2.1152476635932898,1.45574292325974
0.248334342822532,-1.97111538820267,-1.24256971921921,0.150457278728485
0.248940036341611,-3.6356539624214204,-1.6425379809379599,-0.666244381427765
0.24954572986069,1.47052767820358,-0.38754774656295804,0.318108645915985
0.25015142337977,-0.0646798413276672,2.00507676515579,0.631856204509735
0.250757116898849,-0.0359396069526672,-1.11563368406296,-0.0770695767402647
0.251362810417929,1.9734817797660802,-1.8652747973442099,-2.2685124478340097
0.251968503937008,-1.08974820070267,-0.0187147387504578,2.9310749545097403
0.252574197456087,1.3795169360160802,5.21919297609329,-1.35840502595901
0.253179890975167,0.201167326641083,-0.7970960864067079,1.13960034513474
0.253785584494246,-4.38769009523392,-3.48430800046921,-0.37884203767776503
0.254391278013325,0.613110686016083,0.218392194843292,-1.3991203579902598
0.254996971532405,1.2813211352348302,1.35602647218704,1.75512036466599
0.255602665051484,0.26822787351608296,1.83982041749954,-1.93560473299026
0.256208358570563,1.2765310961723302,-4.70097792234421,-0.0267741665840147
0.256814052089643,0.37600375242233297,0.11780137453079201,-1.4374406704902598
0.257419745608722,0.0550711352348328,3.89235215578079,2.82808911466599
0.258025439127801,0.7735769946098331,0.433943952655792,0.483364993572235
0.258631132646881,-2.65609097414017,-2.25087294187546,-1.97392504549026
0.25923682616596,-1.50887661867142,-2.02095106687546,1.3096467318534901
0.259842519685039,2.28004427976608,1.9188560620307902,-1.0781877408027598
0.260448213204119,-0.512548493671417,1.59313340578079,0.600720950603485
0.261053906723198,-0.026359528827667202,-1.7718690356254598,-1.1979387173652598
0.261659600242277,0.907698088359833,-3.02685927000046,0.17201245450973499
0.262265293761357,-0.20598599367141698,4.16298936281204,1.1036750521659902
0.262870987280436,1.83936068601608,2.19428330812454,0.538450442790985
0.263476680799515,-0.929281892108917,-3.33581678953171,-0.0363542447090147
0.264082374318595,-2.11242154054642,-0.629444719219208,-1.31529467439651
0.264688067837674,1.01547396726608,-0.6581849535942079,1.14439038419724
0.265293761356753,-0.21077603273391698,2.25894883546829,-1.00154711580276
0.265899454875833,-0.026359528827667202,-0.8785267504692079,0.885728274822235
0.266505148394912,1.27413607664108,-3.0340443285942102,-1.6386223111152598
0.267110841913992,-0.749655427265167,2.37869981203079,0.258233157634735
0.267716535433071,1.39867709226608,2.96547959718704,1.0342194857597402
0.26832222895215,0.7592068774223331,-1.06294325437546,-0.644689205646515
0.26892792247123,-4.2751241772651705,-2.49995497312546,0.023521243572235298
0.269533615990309,0.605925627422333,0.0028404370307922398,-0.948856686115265
0.270139309509388,1.0370291430473302,1.6745640698432902,1.0869099154472401
0.270745003028468,-0.9771822827339169,1.3416563549995402,-1.3128996548652598
0.271350696547547,1.6238089282035801,-4.03516249265671,-0.290226315021515
0.271956390066626,0.265832853984833,0.34293321046829195,-0.443507565021515
0.272562083585706,0.902908049297333,4.80245957765579,1.8724763216972402
0.273167777104785,0.411929045391083,-0.11691053953170799,1.2785114779472402
0.273773470623864,-3.3554366772651703,-2.6221009692192103,-2.10804613924026
0.274379164142944,-0.668224763202667,-1.89401503171921,1.9539069857597402
0.274984857662023,1.9016311938285801,2.2948741284370398,-0.908141354084015
0.275590551181102,-0.483808259296417,1.2482505932807901,-0.10101977205276501
0.276196244700182,1.0130789477348299,-3.12026503171921,-1.10213793611526
0.276801938219261,1.18073031492233,-2.1095667895317103,-0.874611080646515
0.27740763173834,-0.823901032733917,4.47913194093704,2.54547680997849
0.27801332525742,0.732861662578583,2.29726914796829,-0.589603756427765
0.278619018776499,-2.26330777101517,-4.46866102781296,-0.635109127521515
0.279224712295578,-1.71963833742142,-0.524063859844208,-0.591998775959015
0.279830405814658,1.9567166430473302,1.00395860109329,0.191172610759735
0.280436099333737,-0.20119595460891698,1.5045176831245402,0.255838138103485
0.281041792852816,0.047886076641082805,-1.3479505785942099,-0.0818596158027647
0.281647486371896,0.972363615703583,-3.63040419187546,-1.1931486783027598
0.282253179890975,-0.6394845288276669,3.9977330151557897,1.1970808138847402
0.282858873410055,0.17242709226608302,2.3547496167182898,2.27962964200974
0.283464566929134,0.330498381328583,-2.58378065671921,-2.2685124478340097
0.284070260448213,-2.52196988039017,-1.32160536375046,0.06423657560348531
0.284675953967293,0.646640959453583,0.254317487812042,0.251048099040985
0.285281647486372,0.541260100078583,1.25304063234329,-0.450692623615265
0.285887341005451,-0.811925935077667,0.529744733905792,0.263023196697235
0.286493034524531,1.82978060789108,-3.2903114184379603,-0.841080807209015
0.28709872804361,-0.160480622577667,0.8003819409370421,0.562400638103485
0.287704421562689,1.01068392820358,4.71863389406204,0.0929768099784853
0.288310115081769,-0.24191128664016698,-1.8964100512504598,0.806692630290985
0.288915808600848,-3.4584225171089202,-1.9131751879692098,-0.953646725177765
0.289521502119927,0.711306486797333,0.0459507885932922,-0.194425533771515
0.290127195639007,0.850217619609833,0.603990339374542,0.924048587322235
0.290732889158086,-0.395192536640167,2.0481871167182897,-1.01112719392776
0.291338582677165,0.9771536547660831,-4.20760389890671,-1.03747240877151
0.291944276196245,1.1615701586723302,-0.39712782468795804,-0.591998775959015
0.292549969715324,0.0550711352348328,4.49110703859329,3.47234936857224
0.293155663234403,0.249067717266083,1.47338242921829,-1.9068644986152599
0.293761356753483,-3.01534390382767,-4.05671766843796,-0.295016354084015
0.294367050272562,-1.37715054445267,-1.1347938403129598,0.754002200603485
0.294972743791641,2.08844271726608,2.3906749096870397,-1.60509203767776
0.295578437310721,-0.847851228046417,1.1716099682807901,0.777952395915985
0.2961841308298,1.2046805102348301,-1.08928846921921,-1.65299242830276
0.296789824348879,1.3244314867973301,-4.57643690671921,-0.0698845181465147
0.297395517867959,-0.43111782960891704,4.60606797609329,0.241468020915985
0.298001211387038,0.48856967039108296,3.07086045656204,0.854593020915985
0.298606904906118,-1.6525777905464198,-4.15730848875046,-0.556073482990265
0.299212598425197,-1.3699654858589199,-0.952772355937958,-0.431532467365265
0.299818291944276,1.70763461179733,0.9416880932807921,0.296553470134735
0.300423985463356,-0.26107144289016704,1.47577744874954,-0.0411442837715147
0.301029678982435,-0.45027798585891704,-0.186366105937958,-0.208795650959015
0.301635372501514,1.84415072507858,-4.12377821531296,-0.48901293611526503
0.302241066020594,-0.488598298358917,2.0362120190620403,0.730052005290985
0.302846759539673,-0.507758454608917,4.77132432374954,-0.302201412677765
0.303452453058752,0.541260100078583,-3.3669520434379603,0.174407474040985
0.304058146577832,-2.1220016186714203,-1.69283339109421,-0.7931804165840151
0.304663840096911,0.31612826414108297,0.711766218280792,-0.0698845181465147
0.30526953361599,0.29936312742233295,0.831517194843292,0.375589114665985
0.30587522713507,-0.874196442890167,1.55241807374954,-0.771625240802765
0.306480920654149,1.7339798266410802,-4.36807020750046,-0.0722795376777647
0.307086614173228,0.5987405688285831,1.0255137768745402,-0.965621822834015
0.307692307692308,-0.486203278827667,4.70186875734329,1.09648999357224
0.308298001211387,1.06097933835983,-1.2377796801567098,0.361218997478485
0.308903694730466,-2.65609097414017,-2.75622206296921,-0.774020260334015
0.309509388249546,-0.790370759296417,-0.682135148906708,0.109741946697235
0.310115081768625,1.3459866625785801,1.4709874096870401,-0.0746745572090147
0.310720775287704,-0.675409821796417,1.57876328859329,0.751607181072235
0.311326468806784,1.74834994382858,-1.64972303953171,-1.45660082674026
0.311932162325863,0.543655119609833,-3.84356093015671,1.4198176302909902
0.312537855844942,0.610715666484833,5.286253522968289,0.514500247478485
0.313143549364022,-0.24191128664016698,2.03381699953079,0.33008374357223497
0.313749242883101,-2.6704610913276703,-4.75127333250046,-0.14173510408401502
0.31435493640218,-0.5987691967964169,-0.128885637187958,-0.453087643146515
0.31496062992126,0.965178557109833,0.654285749530792,0.603115970134735
0.315566323440339,0.07423129148483279,2.02184190187454,-0.544098385334015
0.316172016959419,0.783157072734833,-1.4078260668754599,0.540845462322235
0.316777710478498,1.8848660571098301,-4.29142958250046,-1.8900993618965098
0.317383403997577,-0.447882966327667,3.43969346437454,1.2401911654472402
0.317989097516657,-0.572423981952667,4.92939561281204,0.322898684978485
0.318594791035736,-0.795160798358917,-4.593202043437961,-0.0818596158027647
0.319200484554815,-1.50887661867142,-1.66169813718796,-0.0674894986152647
0.319806178073895,1.3579617602348302,1.48056748781204,-1.01112719392776
0.320411871592974,0.205957365703583,0.49860947999954197,0.789927493572235
0.321017565112053,-1.13285855226517,1.31291612062454,-1.1668034634590099
0.321623258631133,1.53279818601608,-5.03388563718796,-0.10580981111526501
0.322228952150212,0.7376517016410831,1.51170274171829,0.253443118572235
0.322834645669291,-1.06819302492142,5.2670933667182895,1.20426587247849
0.323440339188371,0.14847689695358302,-3.25917616453171,-0.163290279865265
0.32404603270745,-1.1352535717964198,-1.6736732348442098,-1.40870043611526
0.324651726226529,-0.09342007570266721,0.606385358905792,0.768372317790985
0.325257419745609,0.40713900632858296,0.244737409687042,-0.340521725177765
0.325863113264688,-0.833481110858917,1.71288438234329,-0.31896654939651503
0.326468806783767,1.14959506101608,-2.81609755125046,-0.999152096271515
0.327074500302847,1.1232498461723301,-0.9934876879692079,0.567190677165985
0.327680193821926,-0.809530915546417,5.45150987062454,0.07860669279098531
0.328285887341005,0.7783670336723331,-0.490533586406708,-0.0842546353340147
0.328891580860085,-1.76993374757767,-3.5465785082817103,0.251048099040985
0.329497274379164,-0.7999508374214169,0.47944932374954197,-0.666244381427765
0.330102967898244,1.0466092211723301,0.08427110109329221,0.986319095134735
0.330708661417323,-0.8813815014839169,1.6290586987495401,-0.362076900959015
0.331314354936402,1.62620394773483,-1.68325331296921,-0.405187252521515
0.331920048455482,1.2430008227348301,-3.69746473875046,-0.659059322834015
0.332525741974561,0.251462736797333,4.80964463624954,0.888123294353485
0.33313143549364,-0.455068024921417,3.10199571046829,1.41742261075974
0.33373712901272,-2.0142257397651697,-4.03995253171921,-1.7056828579902599
0.334342822531799,-1.1352535717964198,-1.4389613207817098,1.2401911654472402
0.334948516050878,1.49208285398483,1.5093077221870401,-0.941671627521515
0.335554209569958,0.08141635007858279,1.09975938234329,-0.0674894986152647
0.336159903089037,-0.24670132570266698,-0.181576066875458,-0.165685299396515
0.336765596608116,2.69917269773483,-4.4926112231254605,-1.6673625454902599
0.337371290127196,0.330498381328583,2.16075303468704,2.68199292325974
0.337976983646275,-1.6142574780464198,6.72566026124954,-0.948856686115265
0.338582677165354,-0.986762360858917,-5.03388563718796,1.2018708529472402
0.339188370684434,-0.855036286640167,-1.57787245359421,-0.204005611896515
0.339794064203513,1.1184598071098302,1.99070664796829,-0.647084225177765
0.340399757722592,0.450249357891083,-0.107330461406708,1.22103100919724
0.341005451241672,-0.9197018139839169,1.89490586671829,-0.896166256427765
0.341611144760751,1.1615701586723302,-4.80635878171921,-0.393212154865265
0.34221683827983,1.4346023852348302,0.733321394062042,-0.702169674396515
0.34282253179891,-1.97590542726517,5.50180528078079,2.19340893888474
0.343428225317989,0.342473478984833,-2.42331434812546,-0.587208736896515
0.344033918837068,-0.275441560077667,-2.84244276609421,-0.728514889240265
0.344639612356148,-0.665829743671417,1.1404747143745402,-0.11299486970901501
0.345245305875227,0.5556302172660831,-0.210316301250458,0.303738528728485
0.345850999394306,-1.1400436108589198,1.52367783937454,0.06663159513473531
0.346456692913386,1.06097933835983,-1.9514955004692098,-1.27218432283401
0.347062386432465,1.13761996335983,-2.82567762937546,0.674966556072235
0.347668079951545,-0.637089509296417,6.94600205812454,-0.479432857990265
0.348273773470624,-0.40956265382766704,-0.962352434062958,2.10958325529099
0.348879466989703,-0.826296052265167,-3.75734022703171,-1.4206755337715098
0.349485160508783,-1.01071255617142,1.06143906984329,-0.11538988924026501
0.350090854027862,0.608320646953583,-0.26779677000045804,0.914468509197235
0.350696547546941,-0.00240933351516723,2.08411240968704,-0.970411861896515
0.351302241066021,0.196377287578583,-2.0928016528129603,0.46899487638473497
0.3519079345851,2.8644290453910797,-2.53588026609421,-2.03140551424026
0.352513628104179,-0.110185212421417,2.78824815187454,3.83160229825974
0.353119321623259,-1.30290493898392,5.27906846437454,-1.57635180330276
0.353725015142338,-1.62144253664017,-4.79677870359421,-0.520148190021515
0.354330708661417,-1.31248501710892,-1.95389052000046,1.0318244662284901
0.354936402180497,1.6453641039848301,2.54156114015579,-1.7272380337715099
0.355542095699576,-0.570028962421417,-0.37796766843795804,1.5012482943534902
0.356147789218655,-0.637089509296417,1.8086851635932901,-1.62664721345901
0.356753482737735,2.50757113523483,-5.94638807859421,0.138482181072235
0.357359176256814,1.08971957273483,1.62187364015579,0.15764233732223498
0.357964869775893,-2.42616909914017,6.8765464917182895,0.662991458415985
0.358570563294973,-0.9388619702339169,-4.61475721921921,0.804297610759735
0.359176256814052,-0.0814449780464172,-1.95389052000046,-0.568048580646515
0.359781950333131,0.136501799297333,2.03142197999954,-0.256696041584015
0.360387643852211,0.843032561016083,-0.188761125469208,0.16722241544723498
0.36099333737129,-1.31248501710892,1.77275987062454,-0.821920650959015
0.361599030890369,1.13282992429733,-3.81721571531296,-0.872216061115265
0.362204724409449,1.82978060789108,-1.6042176684379599,1.48687817716599
0.362810417928528,-2.55310513429642,7.10886338624954,-0.0603044400215147
0.363416111447607,-0.20119595460891698,-2.2293177660942103,0.507315188884735
0.364021804966687,0.14847689695358302,-3.90343641843796,-0.647084225177765
0.364627498485766,-0.304181794452667,1.69372422609329,-0.405187252521515
0.365233192004846,0.27780795164108296,-0.809071184062958,1.0342194857597402
0.365838885523925,-1.02029263429642,2.1583580151557897,-1.32008471345901
0.366444579043004,0.670591154766083,-2.08801161375046,0.368404056072235
0.367050272562084,1.8465457446098301,-2.33709364500046,-0.225560787677765
0.367655966081163,-0.9795773022651669,5.81076280031204,-0.20640063142776502
0.368261659600242,-0.747260407733917,-0.009134660625457761,1.3719172396659902
0.368867353119322,-0.586794099140167,-3.60166395750046,-0.862635982990265
0.369473046638401,-0.773605622577667,0.910552839374542,-0.235140865802765
0.37007874015748,0.335288420391083,-0.392337785625458,1.5730988802909902
0.37068443367656,-0.397587556171417,1.71527940187454,-0.467457760334015
0.371290127195639,-0.105395173358917,-0.6557899340629579,-0.740489986896515
0.371895820714718,2.46446078367233,-4.46387098875046,-0.251906002521515
0.372501514233798,0.785552092266083,3.06846543703079,1.48208813810349
0.373107207752877,-1.8106490796089199,6.05026475343704,-0.417162350177765
0.373712901271956,-1.5495919507026699,-5.22069716062546,0.670176517009735
0.374318594791036,-0.632299470233917,-1.40543104734421,-1.01591723299026
0.374924288310115,0.613110686016083,1.81826524171829,0.0259162631034853
0.375529981829194,-0.30178677492141703,-0.236661516094208,0.502525149822235
0.376135675348274,-1.4313983917225401e-05,2.75471787843704,-1.95236986970901
0.376741368867353,1.06097933835983,-6.4086268481254605,0.44983472013473497
0.377347062386432,2.3686600024223297,0.9177378979682921,-1.07100268220901
0.377952755905512,-2.9866036694526703,6.97234727296829,1.87966138029099
0.378558449424591,-1.65018277101517,-3.34539686765671,-0.25909106111526503
0.379164142943671,0.847822600078583,-3.05559950437546,-0.000428951740264675
0.37976983646275,-0.35926724367141705,2.03142197999954,-0.457877682209015
0.380375529981829,1.02026400632858,-0.14804579343795798,0.562400638103485
0.380981223500909,-1.3747555249214198,1.31291612062454,0.342058841228485
0.381586917019988,0.742441740703583,-2.5981507739067102,-1.9332097134590098
0.382192610539067,2.44769564695358,-3.43880262937546,1.70003491544724
0.382798304058147,-1.99267056398392,7.73396348390579,-0.814735592365265
0.383403997577226,-1.4130758374214198,-0.763565812969208,1.86289624357224
0.384009691096305,1.23342074460983,-4.51416639890671,-0.860240963459015
0.384615384615385,-0.222751130390167,1.25783067140579,-0.0794645962715147
0.385221078134464,0.301758146953583,-0.0187147387504578,0.416304446697235
0.385826771653543,-0.991552399921417,1.83503037843704,-1.1069279751777599
0.386432465172623,0.08141635007858279,-1.9251502856254599,0.967158938884735
0.387038158691702,2.90993441648483,-2.66281630125046,-1.66975756502151
0.387643852210781,-1.18794400148392,4.97969102296829,1.71201001310349
0.388249545729861,-1.59509732179642,1.7104893628120401,0.471389895915985
0.38885523924894,0.20835238523483302,-4.46387098875046,-1.37038012361526
0.389460932768019,-0.823901032733917,0.592015241718292,0.538450442790985
0.390066626287099,0.07183627195358279,0.5177696362495421,-0.00282397127151467
0.390672319806178,0.373608732891083,1.1668199292182901,-0.0195891079902647
0.391278013325257,-0.323341950702667,0.37167344484329196,-0.548888424396515
0.391883706844337,2.1698733813285798,-5.2781776293754605,-0.809945553302765
0.392489400363416,1.33161654539108,2.8169883862495397,0.361218997478485
0.393095093882495,-2.37347866945267,6.01673447999954,1.44855786466599
0.393700787401575,-1.4513961499214199,-4.15730848875046,0.100161868572235
0.394306480920654,-0.529313630390167,-2.3323036059379603,0.0354963412284853
0.394912174439733,0.507729826641083,1.62187364015579,-0.395607174396515
0.395517867958813,0.352053557109833,0.223182233905792,-0.204005611896515
0.396123561477892,-0.510153474140167,1.9787315503120402,-0.165685299396515
0.396729254996972,1.65973422117233,-3.84356093015671,-1.6026970181465099
0.397334948516051,2.0525174242973296,-1.9131751879692098,0.964763919353485
0.39794064203513,-2.60340054445267,8.13632676515579,0.0570515170097353
0.39854633555421,-1.9471651928901699,-2.86878798093796,1.44376782560349
0.399152029073289,1.55195834226608,-3.8291908129692103,-0.968016842365265
0.399757722592368,-0.256281403827667,2.36672471437454,-0.807550533771515
0.400363416111448,0.34726351804733296,-0.6797401293754579,0.574375735759735
0.400969109630527,-0.268256501483917,2.45534043703079,-0.896166256427765
0.401574803149606,-0.124555329608917,-2.5718055590629603,1.0270344271659901
0.402180496668686,3.38893832273483,-2.89034315671921,-0.278251217365265
0.402786190187765,-2.11960659914017,5.51857041749954,1.2186359896659902
0.403391883706844,-2.45490933351517,1.09257432374954,-0.12736498689651501
0.403997577225924,1.8752859789848302,-4.56685682859421,0.109741946697235
0.404603270745003,-0.00959439210891722,1.03509385499954,0.603115970134735
0.405208964264082,-0.165270661640167,0.465079206562042,-0.656664303302765
0.405814657783162,-0.708940095233917,0.443524030780792,0.605510989665985
0.406420351302241,-0.258676423358917,0.242342390155792,-0.623134029865265
0.40702604482132,2.63929720945358,-4.39441542234421,0.416304446697235
0.4076317383404,-0.24191128664016698,4.42644151124954,-0.290226315021515
0.408237431859479,-2.52196988039017,2.76429795656204,1.22582104825974
0.408843125378558,0.7137015063285831,-4.35609510984421,-0.424347408771515
0.409448818897638,0.198772307109833,0.6997911206245421,-0.623134029865265
0.410054512416717,-0.910121735858917,0.263897565937042,0.727656985759735
0.410660205935796,0.323313322734833,0.831517194843292,-0.752465084552765
0.411265899454876,-0.378427399921417,1.08778428468704,0.22230786466598498
0.411871592973955,1.79625033445358,-3.8723011645317102,-1.5260563931465099
0.412477286493035,1.82259554929733,0.031580671405792196,1.19468579435349
0.413082980012114,-2.7638668530464203,6.9962974682807895,0.284578372478485
0.413688673531193,-1.54001187257767,-3.1011048754692103,0.114531985759735
0.414294367050273,0.443064299297333,-3.29989149656296,0.634251224040985
0.414900060569352,0.23709261960983302,2.60622666749954,-0.812340572834015
0.415505754088431,-0.124555329608917,-1.10126356687546,0.677361575603485
0.416111447607511,-0.277836579608917,2.50324082765579,-1.3631950650215099
0.41671714112659,1.3196414477348302,-3.8291908129692103,0.22709790372848498
0.417322834645669,2.8979593188285797,-2.71550673093796,-0.0291691861152647
0.417928528164749,-2.65130093507767,7.88963975343704,-0.10101977205276501
0.418534221683828,-3.30035122804642,-2.19339247312546,1.9107966341972402
0.419139915202907,2.31117953367233,-4.07587782468796,-1.72484301424026
0.419745608721987,-0.00959439210891722,2.60143662843704,-0.587208736896515
0.420351302241066,-0.21077603273391698,-0.40910292234420803,-0.0291691861152647
0.420956995760145,-0.13174038820266698,0.833912214374542,-0.194425533771515
0.421562689279225,-0.344897126483917,-1.18748427000046,0.210332767009735
0.422168382798304,3.3673831469535798,-3.30947157468796,-0.21119067049026502
0.422774076317383,-1.58072720460892,4.6946836987495395,0.538450442790985
0.423379769836463,-3.15186001710892,2.3212193432807897,-0.12736498689651501
0.423985463355542,2.19861361570358,-5.24225233640671,0.234282962322235
0.424591156874621,0.661011076641083,0.972823347187042,-0.474642818927765
0.425196850393701,-0.8574313061714169,0.493819440937042,-0.160895260334015
0.42580254391278,-0.213171052265167,-0.049849992656707795,-0.160895260334015
0.426408237431859,-0.41195767335891703,1.1572398510932902,-0.273461178302765
0.427013930950939,2.52433627195358,-3.94175673093796,0.0187312045097353
0.427619624470018,0.790342131328583,2.97505967531204,0.239073001384735
0.428225317989098,-3.56619839601517,3.45645860109329,1.0701447787284901
0.428831011508177,0.7160965258598331,-4.36088514890671,-0.692589596271515
0.429436705027256,0.708911467266083,-0.102540422344208,0.301343509197235
0.430042398546336,-1.03945279054642,1.08778428468704,-0.09143969392776469
0.430648092065415,0.6394559008598331,0.031580671405792196,-0.771625240802765
0.431253785584494,-0.605954255390167,1.1237095776557902,-0.297411373615265
0.431859479103574,2.1890335375785797,-3.1609803637504603,-0.833895748615265
0.432465172622653,2.6153470141410797,-0.746800676250458,1.32401684904099
0.433070866141732,-2.88122281007767,7.59265733156204,-1.1332731900215098
0.433676559660812,-2.49562466554642,-3.13224012937546,1.25935132169724
0.434282253179891,1.5040579516410801,-3.15140028562546,0.567190677165985
0.43488794669897,0.0287259203910828,3.55944444093704,-1.6242521939277599
0.43549364021805,-0.644274567890167,-1.7383387621879598,0.902493411540985
0.436099333737129,0.07423129148483279,2.14398789796829,-1.2099138150215099
0.436705027256208,0.680171232891083,-3.31186659421921,0.260628177165985
0.437310720775288,3.35540804929733,-3.1011048754692103,-0.007614010334014669
0.437916414294367,-2.6800411694526702,7.66450791749954,0.423489505290985
0.438522107813446,-3.9110812085151703,-0.411497941875458,1.25935132169724
0.439127801332526,3.2500271899223296,-5.02670057859421,-0.968016842365265
0.439733494851605,-0.19161587648391698,1.82305528078079,-0.220770748615265
0.440339188370684,-0.814320954608917,0.426758894062042,-0.512963131427765
0.440944881889764,0.246672697734833,0.627940534687042,0.768372317790985
0.441550575408843,-0.816715974140167,-0.210316301250458,-0.304596432209015
0.442156268927922,3.2907425219535797,-4.41597059812546,-0.129760006427765
0.442761962447002,-0.730495271015167,3.9642027417182897,0.662991458415985
0.443367655966081,-4.1290279858589205,3.30317735109329,0.418699466228485
0.44397334948516,1.91600131101608,-5.08418104734421,-0.0794645962715147
0.44457904300424,1.06576937742233,0.615965437030792,-0.611158932209015
0.445184736523319,-1.21428921632767,0.7021861401557921,0.540845462322235
0.445790430042399,-0.09581509523391721,0.0579258862495422,-1.01831225252151
0.446396123561478,-0.8813815014839169,0.6183604565620421,0.423489505290985
0.447001817080557,2.7877884203910797,-3.1011048754692103,-0.376447018146515
0.447607510599637,1.51363802976608,2.43857530031204,0.44983472013473497
0.448213204118716,-3.8416256421089203,4.02407822999954,1.26414136075974
0.448818897637795,0.20835238523483302,-3.83158583250046,-1.7487932095527599
0.449424591156875,1.32922152585983,-1.68325331296921,1.3719172396659902
0.450030284675954,-1.0370577710151698,2.41223008546829,-1.0302873501777599
0.450635978195033,0.193982268047333,-0.100145402812958,0.375589114665985
0.451241671714113,-0.45027798585891704,0.8602574292182921,0.706101809978485
0.451847365233192,2.13155306882858,-2.65563124265671,-1.97871508455276
0.452453058752271,2.5985818774223297,-1.45333143796921,0.579165774822235
0.453058752271351,-2.53873501710892,7.53996690187454,0.0474714388847353
0.45366444579043,-3.12551480226517,-2.0353211840629597,1.23300610685349
0.454270139309509,1.54477328367233,-3.65195936765671,-0.699774654865265
0.454875832828589,-0.273046540546417,1.87095567140579,0.344453860759735
0.455481526347668,-0.46225308351516703,-0.29893202390670803,-0.342916744709015
0.456087219866747,0.25864779539108296,1.89969590578079,-0.215980709552765
0.456692913385827,0.07662631101608279,-2.2628480395317103,-0.0650944790840147
0.457298606904906,4.0403836352348295,-2.80412245359421,-0.505778072834015
0.457904300423985,-2.35910855226517,5.6526915112495395,1.25935132169724
0.458509993943065,-4.85711392335892,0.0507408276557922,0.928838626384735
0.459115687462144,2.18424349851608,-4.32256483640671,-0.594393795490265
0.459721380981224,0.8741678149223331,2.45294541749954,-0.934486568927765
0.460327074500303,-0.831086091327667,0.031580671405792196,0.210332767009735
0.460932768019382,0.31612826414108297,0.524954694843292,-0.601578854084015
0.461538461538462,-1.0322677319526699,-0.104935441875458,0.7037067904472349
0.462144155057541,2.79018343992233,-3.60405897703171,-0.625529049396515
0.46274984857662,0.452644377422333,3.4923838940620398,-0.227955807209015
0.4633555420957,-5.38880825929642,2.85530869874954,1.6114191927909902
0.463961235614779,2.05730746335983,-3.8627210864067103,-1.25062914705276
0.464566929133858,2.29441439695358,-0.641419816875458,1.0437995638847402
0.465172622652938,-1.93279507570267,1.53565293703079,-0.740489986896515
0.465778316172017,0.392768889141083,-0.0594300707817078,-0.271066158771515
0.466384009691096,-1.14483364992142,0.46028916749954196,0.694126712322235
0.466989703210176,2.22735385007858,-1.9514955004692098,-1.27218432283401
0.467595396729255,1.8154104907035802,-0.188761125469208,2.08323804044724
0.468201090248334,-3.79612027101517,5.4467198315620395,-0.826710690021515
0.468806783767414,-0.28023159914016704,-3.30468153562546,0.239073001384735
0.469412477286493,2.12676302976608,-2.19818251218796,0.811482669353485
0.470018170805572,-0.8981466382026669,2.8433336010932897,-1.3033195767402599
0.470623864324652,-0.426327790546417,-1.3192103442192098,0.629461184978485
0.471229557843731,-0.09821011476516721,1.45422227296829,-0.752465084552765
0.47183525136281,1.17354525632858,-2.8544178637504602,-0.230350826740265
0.47244094488189,4.10265414304733,-1.46530653562546,-0.0555144009590147
0.473046638400969,-3.07521939210892,5.96404405031204,0.560005618572235
0.473652331920048,-4.03083218507767,-0.943192277812958,-0.0387492642402647
0.474258025439128,2.68240756101608,-3.34300184812546,0.864173099040985
0.474863718958207,-0.122160310077667,1.89969590578079,-0.11059985017776501
0.475469412477286,-0.850246247577667,-0.20313124265670798,-1.1284831509590099
0.476075105996366,0.0886014086723328,0.546509870624542,0.825852786540985
0.476680799515445,-0.251491364765167,-0.902476945781708,-0.865031002521515
0.477286493034525,4.02361849851608,-4.1932337817192105,1.1204401888847402
0.477892186553604,-1.9351900952339198,5.54491563234329,0.12171704435348499
0.478497880072683,-5.43910366945267,1.57157822999954,1.71201001310349
0.479103573591763,3.13985629148483,-4.6195472582817105,-0.824315670490265
0.479709267110842,0.943623381328583,0.7788267651557921,-0.781205318927765
0.480314960629921,-1.6094674389839199,0.7405064526557921,0.0139411654472353
0.480920654149001,0.342473478984833,0.572855085468292,-0.898561275959015
0.48152634766808,-0.972392243671417,0.38125352296829196,0.39953930997848497
0.482132041187159,2.5650516039848297,-3.41485243406296,-0.922511471271515
0.482737734706239,0.809502287578583,0.874627546405792,0.775557376384735
0.483343428225318,-4.89064419679642,4.92939561281204,0.310923587322235
0.483949121744397,1.43220736570358,-3.2807313403129603,0.00436108732223533
0.484554815263477,2.6488772875785798,-1.4461463793754599,0.0307063021659853
0.485160508782556,-1.5280367749214199,1.48056748781204,-0.357286861896515
0.485766202301635,-0.21556607179641699,-0.540828996562958,-0.577628658771515
0.486371895820715,-0.845456208515167,0.493819440937042,0.169617434978485
0.486977589339794,2.15789828367233,-1.95389052000046,-0.124969967365265
0.487583282858873,2.6249270922660797,0.0962461987495422,0.492945071697235
0.488188976377953,-4.35655484132767,4.68989365968704,0.265418216228485
0.488794669897032,-1.2071041577339199,-2.67718641843796,-0.539308346271515
0.489400363416111,2.5650516039848297,-2.72748182859421,0.502525149822235
0.490006056935191,-1.21907925539017,2.6373619214057897,-0.905746334552765
0.49061175045427,-0.548473786640167,-0.45700331296920804,0.0977668490409853
0.491217443973349,0.191587248516083,0.932108015155792,-0.0195891079902647
0.491823137492429,1.05379427976608,-1.75270887937546,-0.752465084552765
0.492428831011508,3.2141018969535797,-2.25805800046921,0.0498664584159853
0.493034524530587,-1.69329312257767,6.0382896557807895,0.610301028728485
0.493640218049667,-4.22482876710892,-0.176786027812958,1.11086011075974
0.494245911568746,1.63099398679733,-4.04234755125046,-0.539308346271515
0.494851605087826,0.591555510234833,1.4566172924995402,0.380379153728485
0.495457298606905,-0.833481110858917,-0.174391008281708,-0.37884203767776503
0.496062992125984,0.282597990703583,1.55720811281204,-0.654269283771515
0.496668685645064,-0.0311495678901672,-0.593519426250458,0.28936841154098497
0.497274379164143,3.0775857836723297,-3.53220839109421,-0.599183834552765
0.497880072683222,-0.45027798585891704,3.86361192140579,0.782742434978485
0.498485766202302,-6.04025357179642,1.4949376049995402,1.3551521029472402
0.499091459721381,2.00940707273483,-3.18493055906296,-1.4374406704902598
0.49969715324046,2.57702670164108,0.548904890155792,0.574375735759735
0.50030284675954,-1.65976284914017,0.826727155780792,-0.680614498615265
0.500908540278619,0.45743441648483296,-0.36838759031295804,-0.21119067049026502
0.501514233797698,-0.752050446796417,0.263897565937042,-0.0339592251777647
0.502119927316778,2.47404086179733,-2.04490126218796,-0.785995357990265
0.502725620835857,1.1567801196098302,0.407598737812042,1.0437995638847402
0.503331314354936,-4.84274380617142,4.30669053468704,-0.235140865802765
0.503937007874016,0.06704623289108279,-2.85920790281296,0.397144290447235
0.504542701393095,3.4536038500785797,-1.68804335203171,-0.493802975177765
0.505148394912174,-1.28613980226517,1.55720811281204,0.07621167325973531
0.505754088431254,-0.823901032733917,-0.241451555156708,-0.0626994595527647
0.506359781950333,-0.43111782960891704,0.424363874530792,0.0570515170097353
0.506965475469413,1.86810092039108,-1.9514955004692098,-0.249510982990265
0.507571168988492,2.92669955320358,-0.5743592700004579,1.19947583341599
0.508176862507571,-4.0954977124214205,4.46476182374954,0.361218997478485
0.50878255602665,-2.00225064210892,-1.5970326098442098,-1.16919848299026
0.50938824954573,2.90035433835983,-2.94303358640671,1.2138459506034902
0.509993943064809,-0.364057282733917,2.2613438549995397,-0.812340572834015
0.510599636583889,-0.926886872577667,-0.607889543437958,0.12411206388473499
0.511205330102968,-0.043124665546417196,0.730926374530792,-0.443507565021515
0.511811023622047,0.941228361797333,-1.4677015551567099,-0.160895260334015
0.512416717141127,3.30511263914108,-2.07843153562546,-0.0243791470527647
0.513022410660206,-1.56156704835892,5.60000108156204,-1.2194938931465098
0.513628104179285,-5.19481167726517,-0.921637102031708,2.83048413419724
0.514233797698365,2.48362093992233,-2.47360975828171,-0.838685787677765
0.514839491217444,0.979548674297333,1.27459580812454,-0.342916744709015
0.515445184736523,-1.81783413820267,-0.423473039531708,-0.0794645962715147
0.516050878255603,0.562815275859833,0.968033308124542,-0.460272701740265
0.516656571774682,0.0526761157035828,-1.44854139890671,0.689336673259735
0.517262265293761,3.4536038500785797,-1.6952284106254598,-1.41349047517776
0.517867958812841,-0.5436837475776669,2.31882432374954,1.6976398959159902
0.51847365233192,-5.42712857179642,2.4313902417182898,-0.539308346271515
0.519079345850999,1.50166293210983,-3.3932972582817102,-0.31896654939651503
0.519685039370079,2.44290560789108,-0.871341691875458,0.780347415447235
0.520290732889158,-1.39870572023392,1.9954966870307902,-0.867426022052765
0.520896426408237,-0.24670132570266698,-0.5767542895317079,1.0318244662284901
0.521502119927317,-0.208381013202667,0.0651109448432922,-0.225560787677765
0.522107813446396,1.95432162351608,-2.43049940671921,1.0916999545097401
0.522713506965475,1.95432162351608,0.5800401440620421,0.16243237638473498
0.523319200484555,-4.69904263429642,3.17145127687454,0.377984134197235
0.523924894003634,-0.871801423358917,-1.1252137621879599,-0.299806393146515
0.524530587522714,4.07870394773483,-1.79102919187546,0.0139411654472353
0.525136281041793,-0.950837067890167,0.414783796405792,0.116927005290985
0.525741974560872,-0.869406403827667,0.613570417499542,-1.2961345181465098
0.526347668079951,-0.6610397046089169,-0.27977186765670803,0.713286868572235
0.526953361599031,1.35077670164108,-0.509693742656708,-0.472247799396515
0.52755905511811,3.38893832273483,-0.7947010668754579,1.4844831576347401
0.52816474863719,-3.3290914624214203,3.78936631593704,-0.747675045490265
0.528770442156269,-2.7039913647651703,-0.909662004375458,-0.922511471271515
0.529376135675348,2.6153470141410797,-3.19211561765671,1.14918042325974
0.529981829194428,0.0239358813285828,2.07932237062454,-0.508173092365265
0.530587522713507,-1.48732144289017,0.182466901874542,-0.0698845181465147
0.531193216232586,-0.18682583742141698,0.42196885499954195,-0.177660397052765
0.531798909751666,1.30048129148483,-1.0318080004692098,-0.230350826740265
0.532404603270745,3.4464187914848297,-2.38738905515671,-0.441112545490265
0.533010296789824,-0.428722810077667,4.40728135499954,0.7635822787284849
0.533615990308904,-5.70255581789017,0.366883405780792,1.8509211459159902
0.534221683827983,1.4609476000785802,-3.12026503171921,-1.22188891267776
0.534827377347062,1.70763461179733,0.572855085468292,0.888123294353485
0.535433070866142,-1.4346310132026698,0.48184434328079195,-0.975201900959015
0.536038764385221,0.883747893047333,0.769246687030792,-0.824315670490265
0.5366444579043,-0.474228181171417,-1.09886854734421,0.924048587322235
0.53725015142338,3.35301302976608,-1.61619276609421,-1.52845141267776
0.537855844942459,0.273017912578583,1.03269883546829,1.5826789584159902
0.538461538461538,-5.74327114992142,3.1259459057807897,-0.872216061115265
0.539067231980618,0.07902133054733279,-2.95979872312546,0.684546634197235
0.539672925499697,3.6068851000785798,-0.7587757739067079,-0.0674894986152647
0.540278619018776,-0.764025544452667,1.27459580812454,-0.357286861896515
0.540884312537856,-0.572423981952667,-0.413892961406708,-0.11538988924026501
0.541490006056935,0.16284701414108302,0.000445417499542242,-0.608763912677765
0.542095699576015,1.10887972898483,-2.29398329343796,1.2401911654472402
0.542701393095094,2.1291580492973297,0.723741315937042,-0.817130611896515
0.543307086614173,-3.73624478273392,2.50563584718704,0.679756595134735
0.543912780133253,-1.76514370851517,-0.526458879375458,-0.936881588459015
0.544518473652332,3.73142611570358,-2.40175917234421,1.00068921232224
0.545124167171411,-0.0742599194526672,1.19316514406204,-0.529728268146515
0.545729860690491,-1.62383755617142,0.287847761249542,-0.43871752595901503
0.54633555420957,-0.0694698803901672,-0.330067277812958,0.433069583415985
0.546941247728649,1.23342074460983,-0.521668840312958,-1.01591723299026
0.547546941247729,3.04884554929733,-1.27370497312546,1.2785114779472402
0.548152634766808,-2.22977749757767,4.53421739015579,-1.4206755337715098
0.548758328285887,-3.5182980053901702,-0.624654680156708,0.7635822787284849
0.549364021804967,2.56265658445358,-3.01488417234421,0.959973880290985
0.549969715324046,0.809502287578583,1.8470054760932901,-0.572838619709015
0.550575408843125,-1.70287320070267,-0.0306898364067078,0.377984134197235
0.551181102362205,0.0526761157035828,0.7021861401557921,-1.43983569002151
0.551786795881284,0.591555510234833,-1.3144203051567098,0.677361575603485
0.552392489400363,3.28834750242233,-1.3479505785942099,0.128902102947235
0.552998182919443,-0.502968415546417,2.60143662843704,1.47011304044724
0.553603876438522,-4.81879361085892,1.6625889721870402,-0.603973873615265
0.554209569957601,0.531680021953583,-3.09631483640671,-0.242325924396515
0.554815263476681,1.50884799070358,-0.0881703051567078,0.28936841154098497
0.55542095699576,-1.14962368898392,1.05664903078079,-0.783600338459015
0.556026650514839,0.0407010180473328,0.7429014721870421,-0.007614010334014669
0.556632344033919,0.34726351804733296,-0.164810930156708,-0.522543209552765
0.557238037552998,1.99743197507858,-2.65084120359421,0.210332767009735
0.557843731072078,1.34359164304733,2.1751231518745398,-0.412372311115265
0.558449424591157,-5.70734585695267,2.0984825268745397,1.59225903654099
0.559055118110236,-0.893356599140167,-0.746800676250458,-1.2362590298652598
0.559660811629316,3.77453646726608,-1.99221083250046,1.20426587247849
0.560266505148395,-0.514943513202667,1.16442490968704,-0.647084225177765
0.560872198667474,-0.6993600171089169,1.01114365968704,-0.642294186115265
0.561477892186554,-0.0694698803901672,-0.924032121562958,1.2833015170097402
0.562083585705633,1.75793002195358,-0.8761317309379579,-0.872216061115265
0.562689279224712,1.89444613523483,-0.464188371562958,-0.00282397127151467
0.563294972743792,-3.36980679445267,2.63975694093704,-0.0507243618965147
0.563900666262871,-2.84529751710892,-0.7156654223442079,1.06295972013474
0.56450635978195,3.9062625414848298,-1.50362684812546,-0.730909908771515
0.56511205330103,0.46701449460983296,0.47944932374954197,-0.09862475252151469
0.565717746820109,-1.99267056398392,0.536929792499542,-0.472247799396515
0.566323440339188,0.20356234617233301,0.0459507885932922,-0.160895260334015
0.566929133858268,0.649035978984833,-1.2162245043754598,0.528870364665985
0.567534827377347,3.25242220945358,-0.35880751218795803,-0.177660397052765
0.568140520896426,-1.84417935304642,3.09720567140579,0.0426813998222353
0.568746214415506,-4.39727017335892,-0.236661516094208,0.332478763103485
0.569351907934585,2.56984164304733,-2.4185243090629602,-0.124969967365265
0.569957601453664,1.60464877195358,0.6375206128120421,0.107346927165985
0.570563294972744,-1.76274868898392,0.824332136249542,-0.275856197834015
0.571168988491823,-0.397587556171417,0.393228620624542,-0.09383471345901469
0.571774682010902,0.522099943828583,-1.5443421801567099,0.00915112638473533
0.572380375529982,3.68113070554733,-0.9192420825004579,-0.30938647127151503
0.572986069049061,-0.189220856952667,2.3212193432807897,1.2282160677909901
0.57359176256814,-4.65832730226517,1.8158702221870402,-0.855450924396515
0.57419745608722,-0.160480622577667,-2.9310584887504603,0.480969974040985
0.574803149606299,2.36386996335983,0.218392194843292,-0.280646236896515
0.575408843125379,-1.06100796632767,0.568065046405792,-0.484222897052765
0.576014536644458,-0.29220669679641703,0.103431257343292,-0.481827877521515
0.576620230163537,0.42629916257858297,-0.430658098125458,-0.213585690021515
0.577225923682617,1.75074496335983,-1.38148085203171,-0.383632076740265
0.577831617201696,1.88965609617233,0.896182722187042,0.725261966228485
0.578437310720775,-4.8810641186714205,1.74641465578079,0.0953718295097353
0.579043004239855,-1.65976284914017,-0.6773451098442079,-0.278251217365265
0.579648697758934,3.38414828367233,-1.7551038989067098,1.84613110685349
0.580254391278013,0.20835238523483302,1.26262071046829,-2.46250902986526
0.580860084797093,-1.54001187257767,-0.461793352031708,0.718076907634735
0.581465778316172,0.10297152585983299,-0.0809852465629578,-0.608763912677765
0.582071471835251,1.4010721117973302,-0.792306047344208,-0.419557369709015
0.582677165354331,2.2393289477348297,-0.150440812969208,0.615091067790985
0.58328285887341,-2.83092739992142,2.43618028078079,-0.539308346271515
0.583888552392489,-3.89671109132767,-0.430658098125458,0.457019778728485
0.584494245911569,4.09786410398483,-1.62816786375046,-0.172870357990265
0.585099939430648,1.27174105710983,0.182466901874542,0.593535892009735
0.585705632949727,-2.3207882397651702,1.34884141359329,-1.5308464322090098
0.586311326468807,0.349658537578583,-0.792306047344208,0.861778079509735
0.586917019987886,1.0849295336723301,-1.12281874265671,-0.09862475252151469
0.587522713506965,2.94346468992233,-0.049849992656707795,-0.395607174396515
0.588128407026045,-0.950837067890167,2.12722276124954,1.2737214388847402
0.588734100545124,-4.3421847241401705,0.48902940187454197,-0.615948971271515
0.589339794064203,1.6669192797660801,-2.48079481687546,0.430674563884735
0.589945487583283,2.15071322507858,0.6590757885932921,-0.0315642056465147
0.590551181102362,-1.75795864992142,0.764456647968292,-0.280646236896515
0.591156874621442,-0.675409821796417,0.26150254640579196,-0.867426022052765
0.591762568140521,0.641850920391083,-1.1731141528129598,-0.13215502595901502
0.5923682616596,3.57574984617233,-1.4772816332817098,0.552820559978485
0.59297395517868,0.349658537578583,2.88404893312454,-0.271066158771515
0.593579648697759,-5.13493618898392,1.23388047609329,0.140877200603485
0.594185342216838,-0.198800935077667,-2.71311171140671,0.0522614779472353
0.594791035735918,3.16859652585983,0.443524030780792,-0.134550045490265
0.595396729254997,-1.6956881421089198,0.414783796405792,-0.366866940021515
0.596002422774076,-0.00959439210891722,0.433943952655792,-0.649479244709015
0.596608116293156,0.531680021953583,-0.689320207500458,0.533660403728485
0.597213809812235,1.58788363523483,-0.921637102031708,-0.541703365802765
0.597819503331314,1.6453641039848301,-0.593519426250458,0.562400638103485
0.598425196850394,-4.0092770092964205,2.88165391359329,-1.1452482876777599
0.599030890369473,-2.6968063061714203,-1.1084486254692099,2.29160473966599
0.599636583888552,3.45120883054733,-1.62098280515671,0.224702884197235
0.600242277407632,1.02744906492233,1.6577989331245402,-1.83261889314651
0.600847970926711,-2.45011929445267,-0.706085344219208,1.3814973177909902
0.60145366444579,0.5747903735160831,0.786011823749542,-2.31401781892776
0.60205935796487,1.00110385007858,-1.79102919187546,1.39586743497849
0.602665051483949,2.30638949460983,0.730926374530792,-0.663849361896515
0.603270745003028,-2.3974288647651703,1.1883751049995401,-0.0195891079902647
0.603876438522108,-4.16734829835892,-0.605494523906708,0.758792239665985
0.604482132041187,3.47276400632858,-0.890501848125458,-0.278251217365265
0.605087825560267,1.81062045164108,-0.107330461406708,0.112136966228485
0.605693519079346,-2.08607632570267,1.0470689526557901,-0.694984615802765
0.606299212598425,-0.165270661640167,-0.42826307859420804,-0.0674894986152647
0.606904906117504,0.6394559008598331,-1.51799696531296,0.195962649822235
0.607510599636584,2.82610873289108,1.46380235109329,-1.3943303189277598
0.608116293155663,-1.33883023195267,1.39434678468704,1.07493481779099
0.608721986674743,-3.87276089601517,0.376463483905792,0.852198001384735
0.609327680193822,1.86091586179733,-1.6353529223442098,-0.635109127521515
0.609933373712901,1.7339798266410802,-1.16113905515671,1.3695222201347401
0.610539067231981,-1.4513961499214199,1.33207627687454,-1.3895402798652599
0.61114476075106,-1.2118941967964199,-0.227081437969208,-0.304596432209015
0.611750454270139,1.1448050219535801,-1.2377796801567098,0.478574954509735
0.612356147789219,2.69917269773483,-1.27370497312546,0.600720950603485
0.612961841308298,0.763996916484833,3.13073594484329,0.21272778654098498
0.613567534827377,-4.44756558351517,1.1668199292182901,0.0259162631034853
0.614173228346457,-1.4513961499214199,-2.73945692625046,0.164827395915985
0.614778921865536,3.2907425219535797,0.177676862812042,0.521685306072235
0.615384615384615,-1.5495919507026699,0.843492292499542,-0.170475338459015
0.615990308903695,-0.790370759296417,0.0938511792182922,-0.251906002521515
0.616596002422774,0.823872404766083,-0.765960832500458,-0.18724047517776501
0.617201695941853,1.67649935789108,-0.871341691875458,-0.36926195955276503
0.617807389460933,1.8585208422660802,0.592015241718292,0.974343997478485
0.618413082980012,-3.6883443921089203,2.2349986401557898,-1.4494157681465099
0.619018776499091,-3.32430142335892,-1.68804335203171,1.43897778654099
0.619624470018171,3.29792758054733,-1.03420302000046,0.332478763103485
0.62023016353725,0.6993313891410831,0.6375206128120421,-1.0829777798652598
0.620835857056329,-1.77472378664017,0.28066270265579196,0.239073001384735
0.621441550575409,0.5340750414848331,-0.14325575437545798,-0.680614498615265
0.622047244094488,1.36993685789108,-1.22580458250046,0.375589114665985
0.622652937613568,2.22495883054733,0.436338972187042,0.392354251384735
0.623258631132647,-2.44532925539017,1.10933946046829,-0.218375729084015
0.623864324651726,-3.73624478273392,-0.11691053953170799,0.150457278728485
0.624470018170806,2.75665316648483,-1.60661268796921,1.1635505404472402
0.625075711689885,2.3758450610160797,0.6973961010932921,-1.28415942049026
0.625681405208964,-2.10284146242142,0.649495710468292,0.006756106853485331
0.626287098728044,-0.277836579608917,-0.0761952075004578,-0.00282397127151467
0.626892792247123,0.931648283672333,-0.885711809062958,-0.223165768146515
0.627498485766202,2.45727572507858,-0.26779677000045804,0.852198001384735
0.628104179285282,-0.09581509523391721,2.5271910229682897,0.07860669279098531
0.628709872804361,-4.79963345460892,0.33095811281204196,-0.299806393146515
0.62931556632344,0.6753811938285831,-1.7982142504692098,0.418699466228485
0.62992125984252,2.79976351804733,0.07948106203079221,-0.182450436115265
0.630526953361599,-1.62862759523392,0.503399519062042,-0.879401119709015
0.631132646880678,-0.8406661694526669,0.0555308667182922,-0.371656979084015
0.631738340399758,0.9939187914848331,-1.5539222582817098,-0.163290279865265
0.632344033918837,2.4357205492973297,-1.3862708910942099,0.22709790372848498
0.632949727437916,1.34359164304733,3.37502793703079,0.0953718295097353
0.633555420956996,-4.90980435304642,0.9991685620307921,0.679756595134735
0.634161114476075,-1.8920797436714198,-2.5550404223442102,-0.280646236896515
0.634766807995154,3.76016635007858,0.393228620624542,0.06902661466598531
0.635372501514234,-1.00352749757767,0.7979869214057921,-0.855450924396515
0.635978195033313,-0.752050446796417,0.6015953198432921,-0.386027096271515
0.636583888552392,0.455039396953583,-1.3479505785942099,0.07142163419723531
0.637189582071472,1.32203646726608,-1.06294325437546,-0.474642818927765
0.637795275590551,1.8848660571098301,1.1883751049995401,0.291763431072235
0.638400969109631,-3.35304165773392,1.69372422609329,-0.0387492642402647
0.63900666262871,-3.1662301342964203,-0.811466203594208,0.952788821697235
0.639612356147789,3.86315218992233,-1.0318080004692098,-0.884191158771515
0.640218049666869,1.0681643969535801,0.0914561596870422,0.761187259197235
0.640823743185948,-2.1483468335151703,1.0686241284370401,-0.13215502595901502
0.641429436705027,-0.00719937257766723,-0.7156654223442079,-0.304596432209015
0.642035130224107,1.44178744382858,-1.12042372312546,1.3479670443534901
0.642640823743186,2.8716141039848297,0.6375206128120421,-0.261486080646515
0.643246517262265,-1.79148892335892,0.8578624096870421,0.382774173259735
0.643852210781345,-4.47870083742142,-0.0857752856254578,-0.010009029865264701
0.644457904300424,2.23693392820358,-1.5706873950004598,0.833037845134735
0.645063597819503,2.96022982664108,0.433943952655792,-0.496197994709015
0.645669291338583,-2.36389859132767,0.735716413593292,-0.644689205646515
0.646274984857662,-0.524523591327667,0.0555308667182922,-0.656664303302765
0.646880678376741,0.869377775859833,-1.8269544848442099,0.267813235759735
0.647486371895821,2.61295199460983,0.0770860424995422,0.294158450603485
0.6480920654149,-0.395192536640167,2.9032090893745397,0.0163361849784853
0.648697758933979,-5.22355191164017,-0.150440812969208,0.308528567790985
0.649303452453059,0.9747586352348331,-2.32990858640671,0.490550052165985
0.649909145972138,2.2321438891410796,-0.100145402812958,-0.479432857990265
0.650514839491217,-1.19752407960892,0.793196882343292,-0.338126705646515
0.651120533010297,-0.953232087421417,0.287847761249542,0.785137454509735
0.651726226529376,0.704121428203583,-0.251031633281708,-1.8517790493965098
0.652331920048455,2.88358920164108,-2.1694422778129603,0.648621341228485
0.652937613567535,1.01547396726608,2.35953965578079,-0.620739010334015
0.653543307086614,-4.61761197023392,1.9835215893745402,-0.433927486896515
0.654149000605693,-2.0884713452339203,-2.32032850828171,1.6856647982597401
0.654754694124773,3.8823123461723297,0.615965437030792,-0.354891842365265
0.655360387643852,-1.00831753664017,-0.540828996562958,0.195962649822235
0.655966081162932,-0.5197335522651669,0.687816022968292,-1.0470524868965099
0.656571774682011,0.5388650805473331,-0.454608293437958,-0.290226315021515
0.65717746820109,1.25258090085983,-1.9083851489067098,0.651016360759735
0.65778316172017,2.47643588132858,1.3201011792182902,-0.386027096271515
0.658388855239249,-3.8943160717964203,1.35602647218704,-0.0195891079902647
0.658994548758328,-3.66678921632767,-1.4629115160942099,0.907283450603485
0.659600242277408,3.9493728930473297,-0.600704484844208,-0.342916744709015
0.660205935796487,1.56632845945358,0.194441999530792,-0.273461178302765
0.660811629315566,-1.9854855053901699,1.32728623781204,-0.546493404865265
0.661417322834646,-0.404772614765167,-0.325277238750458,-0.156105221271515
0.662023016353725,1.24539584226608,-1.5874525317192099,0.0402863802909853
0.662628709872804,2.24411898679733,0.187256940937042,0.457019778728485
0.663234403391884,-1.36517544679642,1.76317979249954,-0.30938647127151503
0.663840096910963,-4.38050503664017,-0.0330848559379578,0.370799075603485
0.664445790430042,2.25130404539108,-1.2449647387504599,0.380379153728485
0.665051483949122,3.06321566648483,-0.102540422344208,-0.539308346271515
0.665657177468201,-2.1148165600776703,0.208812116718292,-0.194425533771515
0.66626287098728,-0.6227193921089169,0.515374616718292,-0.711749752521515
0.66686856450636,0.8933279711723331,-1.48207167234421,0.337268802165985
0.667474258025439,2.6416922289848297,0.544114851093292,-0.0698845181465147
0.668079951544518,0.26822787351608296,2.58467149171829,0.354033938884735
0.668685645063598,-5.04632046632767,-0.612679582500458,0.516895267009735
0.669291338582677,0.263437834453583,-1.38148085203171,-0.0674894986152647
0.669897032101756,3.46797396726608,-0.0115296801567078,0.0929768099784853
0.670502725620836,-1.48013638429642,0.7213462964057921,0.11932202482223499
0.671108419139915,-0.828691071796417,1.17400498781204,-0.654269283771515
0.671714112658994,0.17721713132858302,-1.90599012937546,0.176802493572235
0.672319806178074,2.5123611742973297,-0.888106828594208,-0.546493404865265
0.672925499697153,1.5974637133598302,1.87095567140579,0.622276126384735
0.673531193216233,-4.89064419679642,1.90927598390579,-0.13694506502151502
0.674136886735312,-2.2585177319526704,-2.05448134031296,0.310923587322235
0.674742580254391,3.95176791257858,-0.7180604418754579,0.421094485759735
0.675348273773471,-0.713730134296417,1.06622910890579,-0.917721432209015
0.67595396729255,-1.39391568117142,0.285452741718292,-0.38842211580276503
0.676559660811629,0.8358475024223331,-0.452213273906708,-0.556073482990265
0.677165354330709,1.63099398679733,-0.959957414531708,0.492945071697235
0.677771047849788,2.56026156492233,0.766851667499542,-0.09622973299026469
0.678376741368867,-3.3793868725776703,1.33447129640579,-0.09143969392776469
0.678982434887947,-4.07154751710892,-0.806676164531708,0.955183841228485
0.679588128407026,3.8392019946098297,-0.6390247973442079,-0.139340084552765
0.680193821926105,1.54956332273483,0.333353132343292,0.0953718295097353
0.680799515445185,-2.13637173585892,0.994378522968292,-0.920116451740265
0.681405208964264,-0.0167794507026672,-0.49532362546920805,-0.321361568927765
0.682010902483343,1.1184598071098302,-1.08928846921921,0.612696048259735
0.682616596002423,2.6919876391410797,0.172886823749542,0.497735110759735
0.683222289521502,-1.59030728273392,1.22909043703079,-0.26867113924026503
0.683827983040581,-4.854718903827671,0.297427839374542,0.0498664584159853
0.684433676559661,2.28722933835983,-1.5706873950004598,1.59225903654099
0.68503937007874,3.3003226000785797,0.275872663593292,-0.888981197834015
0.68564506359782,-2.3112081616401703,0.503399519062042,-0.148920162677765
0.686250757116899,-0.8430611889839169,0.101036237812042,-0.572838619709015
0.686856450635978,0.972363615703583,-1.5826624926567099,0.298948489665985
0.687462144155058,2.16508334226608,-0.234266496562958,0.27020825529098497
0.688067837674137,0.215537443828583,2.50563584718704,-0.0339592251777647
0.688673531193216,-4.33978970460892,-0.047454973125457794,1.04140454435349
0.689279224712296,0.251462736797333,-1.5060218676567099,-1.61946215486526
0.689884918231375,3.0440555102348297,-0.492928605937958,0.976739017009735
0.690490611750454,-1.28374478273392,0.867442487812042,-0.189635494709015
0.691096305269534,-1.13285855226517,0.656680769062042,-0.762045162677765
0.691701998788613,0.304153166484833,-1.3742957934379598,0.698916751384735
0.692307692307692,2.3590799242973297,-0.900081926250458,-1.32008471345901
0.692913385826772,2.20340365476608,2.4673155346870397,0.854593020915985
0.693519079345851,-4.8810641186714205,1.7176744214057902,0.413909427165985
0.69412477286493,-2.2776778882026703,-2.72987684812546,-0.11299486970901501
0.69473046638401,3.71226595945358,-0.272586809062958,0.955183841228485
0.695336159903089,-1.09932827882767,1.02311875734329,-0.0171940884590147
0.695941853422168,-0.529313630390167,0.132171491718292,-0.776415279865265
0.696547546941248,0.313733244609833,-1.00546278562546,-0.000428951740264675
0.697153240460327,1.49687289304733,-1.0365980395317098,-0.0890446743965147
0.697758933979406,2.25369906492233,1.2698057690620401,-0.37884203767776503
0.698364627498486,-3.6284689038276703,1.4566172924995402,0.428279544353485
0.698970321017565,-3.54943325929642,-0.5360389575004579,0.509710208415985
0.699576014536644,3.2572122485160797,-0.9144520434379579,0.229492923259735
0.700181708055724,1.83217562742233,0.14654160890579201,0.126507083415985
0.700787401574803,-1.8489693921089199,0.874627546405792,-0.232745846271515
0.701393095093882,-0.45027798585891704,-0.15283583250045799,-0.788390377521515
0.701998788612962,1.32203646726608,-1.2545448168754598,0.514500247478485
0.702604482132041,2.8380838305473297,-0.449818254375458,0.464204837322235
0.703210175651121,-1.2334493725776698,1.74162461671829,-0.888981197834015
0.7038158691702,-4.59366177492142,0.0028404370307922398,0.742027102947235
0.704421562689279,1.7004495532035802,-1.39345594968796,0.286973392009735
0.705027256208359,3.13985629148483,-0.193551164531708,-0.362076900959015
0.705632949727438,-1.89447476320267,0.347723249530792,0.06902661466598531
0.706238643246517,-0.967602204608917,0.7596666089057921,-0.958436764240265
0.706844336765597,0.7376517016410831,-1.97544569578171,0.337268802165985
0.707450030284676,2.51715121335983,-0.263006730937958,0.246258059978485
0.708055723803755,0.225117521953583,2.6110167065620398,0.0378913607597353
0.708661417322835,-4.17453335695267,0.0914561596870422,0.552820559978485
0.709267110841914,0.150871916484833,-1.6688831957817098,-0.577628658771515
0.709872804360993,3.22607699460983,-0.27737684812545804,0.337268802165985
0.710478497880073,-1.1783639233589198,0.5201646557807921,-0.405187252521515
0.711084191399152,-1.18075894289017,0.6782359448432921,-0.623134029865265
0.711689884918231,0.23230258054733302,-1.3311854418754598,0.413909427165985
0.712295578437311,1.81301547117233,-1.32400038328171,-0.774020260334015
0.71290127195639,2.66564242429733,2.4505503979682897,0.337268802165985
0.713506965475469,-4.17932339601517,1.9571763745307902,0.775557376384735
0.714112658994549,-2.3183932202339204,-2.17662733640671,-0.244720943927765
0.714718352513628,3.4464187914848297,-0.952772355937958,0.586350833415985
0.715324046032707,-0.368847321796417,1.01114365968704,-0.371656979084015
0.715929739551787,-0.8981466382026669,0.37885850343704197,-0.568048580646515
0.716535433070866,0.349658537578583,-0.0187147387504578,-0.797970455646515
0.717141126589945,1.5854886157035801,-1.59463759031296,0.440254642009735
0.717746820109025,2.97938998289108,0.790801862812042,-0.263881100177765
0.718352513628104,-3.30993130617142,2.17033311281204,-0.326151607990265
0.718958207147184,-4.6415621655464205,-1.37190077390671,1.35036206388474
0.719563900666263,3.65718051023483,-0.548014055156708,-0.881796139240265
0.720169594185342,1.37712191648483,-0.0785902270317078,0.375589114665985
0.720775287704422,-1.4729513257026698,0.9368980542182921,-0.522543209552765
0.721380981223501,-0.287416657733917,-0.464188371562958,-0.10341479158401501
0.72198667474258,1.15199008054733,-1.2545448168754598,0.38995923185348497
0.72259236826166,2.5219412524223297,0.37885850343704197,-0.251906002521515
0.723198061780739,-1.5543819897651698,1.01114365968704,0.418699466228485
0.723803755299818,-4.52660122804642,0.627940534687042,-0.182450436115265
0.724409448818898,1.2430008227348301,-1.24017469968796,0.215122806072235
0.725015142337977,3.3601980883598297,-0.28935194578170803,-0.11299486970901501
0.725620835857056,-1.78190884523392,1.05664903078079,-0.702169674396515
0.726226529376136,-1.18075894289017,0.946478132343292,-0.8530559048652651
0.726832222895215,0.986733732891083,-2.0664564379692103,0.0618415560722353
0.727437916414294,2.55786654539108,-0.133675676250458,0.286973392009735
0.728043609933374,-0.09581509523391721,2.84093858156204,0.370799075603485
0.728649303452453,-4.63916714601517,-0.332462297344208,0.811482669353485
0.729254996971532,-0.20598599367141698,-0.926427141094208,-0.944066647052765
0.729860690490612,3.1709915453910797,-0.251031633281708,0.291763431072235
0.730466384009691,-1.30050991945267,0.6015953198432921,0.308528567790985
0.73107207752877,-0.8574313061714169,1.2099302807807901,-0.491407955646515
0.73167777104785,0.196377287578583,-1.9299403246879598,0.888123294353485
0.732283464566929,1.69086947507858,-0.950377336406708,-1.1212980923652598
0.732889158086008,2.78299838132858,2.08411240968704,1.2497712435722401
0.733494851605088,-4.50025601320267,1.37039658937454,0.07860669279098531
0.734100545124167,-2.1483468335151703,-1.4724915942192098,-0.594393795490265
0.734706238643246,2.86203402585983,-1.56829237546921,1.37431225919724
0.735311932162326,-0.5436837475776669,1.09975938234329,-1.31529467439651
0.735917625681405,-1.00831753664017,1.01832871828079,0.466599856853485
0.736523319200485,0.129316740703583,-0.29653700437545805,-1.0949528775215098
0.737129012719564,1.7603250414848302,-1.7239686450004599,0.641436282634735
0.737734706238643,2.2129837328910797,0.809962019062042,-0.199215572834015
0.738340399757723,-2.53873501710892,1.4661973706245401,0.600720950603485
0.738946093276802,-4.67748745851517,-0.461793352031708,0.993504153728485
0.739551786795881,2.90514437742233,-0.363597551250458,-1.1236931118965099
0.740157480314961,2.13873812742233,-1.04138807859421,1.19468579435349
0.74076317383404,-1.1903390210151699,2.00986680421829,-2.19666186189651
0.741368867353119,-0.397587556171417,-0.9144520434379579,0.809087649822235
0.741974560872199,0.907698088359833,-1.12042372312546,-0.0387492642402647
0.742580254391278,2.38063510007858,0.11780137453079201,-0.11778490877151501
0.743185947910357,-0.7975558178901669,0.8027769604682921,0.521685306072235
0.743791641429437,-4.27751919679642,0.824332136249542,-0.443507565021515
0.744397334948516,0.981943693828583,-1.6473280200004599,1.0821198763847402
0.745003028467595,3.4464187914848297,-0.430658098125458,-0.393212154865265
0.745608721986675,-1.74837857179642,0.5992003003120421,-0.496197994709015
0.746214415505754,-0.9412569897651669,0.589620222187042,-0.517753170490265
0.746820109024833,0.845427580547333,-1.4078260668754599,0.512105227947235
0.747425802543913,2.3758450610160797,-0.195946184062958,0.454624759197235
0.748031496062992,0.548445158672333,2.5104258862495397,-0.172870357990265
0.748637189582071,-4.56492154054642,-0.270191789531708,0.852198001384735
0.749242883101151,-0.665829743671417,-1.06054823484421,-1.6386223111152598
0.74984857662023,3.4631839282035797,-0.500113664531708,0.473784915447235
0.75045427013931,-0.792765778827667,0.8387022534370421,-0.0363542447090147
0.751059963658389,-1.15920376710892,1.0135386792182899,-0.627924068927765
0.751665657177468,0.196377287578583,-1.76468397703171,0.382774173259735
0.752271350696547,1.48489779539108,-0.8138612231254579,-0.869821041584015
0.752877044215627,2.5219412524223297,1.6410337964057902,1.40544751310349
0.753482737734706,-4.41403531007767,2.3379844799995397,-0.455482662677765
0.754088431253786,-2.27528286867142,-1.79102919187546,0.670176517009735
0.754694124772865,3.44881381101608,-1.20185438718796,0.751607181072235
0.755299818291944,-0.258676423358917,1.1021544018745402,-1.16440844392776
0.755905511811024,-1.06579800539017,0.0675059643745422,-0.10820483064651501
0.756511205330103,-0.0167794507026672,-0.0881703051567078,-1.0853727993965099
0.757116898849182,1.23102572507858,-1.16113905515671,0.7635822787284849
0.757722592368262,2.6848025805473297,0.8003819409370421,-0.639899166584015
0.758328285887341,-2.32557827882767,1.0973643628120402,0.945603763103485
0.75893397940642,-4.39966519289017,-0.9384022387504579,1.02942944669724
0.7595396729255,3.10632601804733,-0.109725480937958,-1.1835686001777599
0.760145366444579,1.3747268969535802,-0.6941102465629579,1.16594555997849
0.760751059963658,-1.4130758374214198,1.0518589917182901,-1.49013110017776
0.761356753482738,-0.713730134296417,-0.136070695781708,-0.00282397127151467
0.761962447001817,0.725676603984833,-1.1300038012504598,0.792322513103485
0.762568140520896,2.79018343992233,-0.11451552000045799,0.39953930997848497
0.763173834039976,-0.505363435077667,0.872232526874542,0.473784915447235
0.763779527559055,-4.4882809155464205,0.8003819409370421,-0.321361568927765
0.764385221078134,0.510124846172333,-1.31202528562546,0.715681888103485
0.764990914597214,3.7098709399223297,-0.612679582500458,0.114531985759735
0.765596608116293,-1.41547085695267,0.6423106518745421,-0.819525631427765
0.766202301635373,-1.2118941967964199,0.695001081562042,-0.208795650959015
0.766807995154452,0.929253264141083,-1.50123182859421,0.131297122478485
0.767413688673531,2.31117953367233,-0.380362687969208,-0.177660397052765
0.768019382192611,0.399953947734833,2.94152940187454,-0.32854662752151503
0.76862507571169,-4.48588589601517,-0.492928605937958,1.17313061857224
0.769230769230769,-1.0274776928901699,-1.1563490160942098,-1.2578142056465098
0.769836462749849,3.47755404539108,-0.502508684062958,0.878543216228485
0.770442156268928,-0.768815583515167,0.364488386249542,0.183987552165985
0.771047849788007,-1.18554898195267,1.3033360424995402,-1.5308464322090098
0.771653543307087,0.179612150859833,-2.0496913012504603,1.05337964200974
0.772259236826166,1.5639334399223301,-0.969537492656708,-0.443507565021515
0.772864930345245,2.4788309008598297,1.47577744874954,0.744422122478485
0.773470623864325,-3.55422329835892,2.59664658937454,-0.299806393146515
0.774076317383404,-2.91475308351517,-2.1694422778129603,0.375589114665985
0.774682010902483,3.27158236570358,-1.41980116453171,-0.00521899080276467
0.775287704421563,0.354448576641083,1.5093077221870401,-0.683009518146515
0.775893397940642,-1.72203335695267,0.199232038593292,0.239073001384735
0.776499091459721,0.280202971172333,0.30940293703079197,-1.22188891267776
0.777104784978801,1.1663601977348301,-2.05208632078171,0.571980716228485
0.77771047849788,3.0943509203910797,0.9201329174995421,-0.400397213459015
0.778316172016959,-2.8069772046089203,1.15244981203079,0.926443606853485
0.778921865536039,-4.914594392108921,-0.531248918437958,0.0929768099784853
0.779527559055118,3.3075076586723298,-0.20313124265670798,-0.11778490877151501
0.780133252574197,1.39867709226608,-0.8354163989067079,0.995899173259735
0.780738946093277,-1.1783639233589198,1.37039658937454,-1.9164445767402598
0.781344639612356,-0.577214021015167,-0.806676164531708,0.706101809978485
0.781950333131435,0.42869418210983296,-0.524063859844208,-0.129760006427765
0.782556026650515,2.8213186938285797,-0.0378748950004578,0.428279544353485
0.783161720169594,-0.924491853046417,0.6614708081245421,-0.09622973299026469
0.783767413688674,-4.8140035717964205,0.934503034687042,-0.486617916584015
0.784373107207753,0.42629916257858297,-1.20903944578171,1.01984936857224
0.784978800726832,3.58532992429733,-0.320487199687958,0.28936841154098497
0.785584494245912,-1.4681612866401699,0.48902940187454197,-0.12736498689651501
0.786190187764991,-1.40589077882767,0.608780378437042,-0.948856686115265
0.78679588128407,1.06097933835983,-1.48686171140671,0.512105227947235
0.78740157480315,2.32315463132858,-0.413892961406708,0.421094485759735
0.788007268322229,0.665801115703583,2.69244737062454,-0.263881100177765
0.788612961841308,-4.33739468507767,-0.052245012187957796,0.473784915447235
0.789218655360388,-0.5820040600776669,-1.40064100828171,-0.510568111896515
0.789824348879467,3.57574984617233,-0.449818254375458,0.516895267009735
0.790430042398546,-0.7424703686714169,0.726136335468292,-0.407582272052765
0.791035735917626,-1.0322677319526699,0.910552839374542,0.188777591228485
0.791641429436705,0.301758146953583,-1.18269423093796,0.380379153728485
0.792247122955784,1.5256131274223301,-1.06054823484421,0.136087161540985
0.792852816474864,2.3926101977348297,1.0374888745307902,1.00308423185349
0.793458509993943,-3.26442593507767,2.8696788159370397,-0.398002193927765
0.794064203513022,-3.31711636476517,-1.66648817625046,0.983924075603485
0.794669897032102,3.3266678149223297,-0.8785267504692079,-0.295016354084015
0.795275590551181,0.462224455547333,0.790801862812042,-0.00282397127151467
0.79588128407026,-1.4298409741401699,0.244737409687042,-0.44829760408401503
0.79648697758934,0.42629916257858297,0.287847761249542,-0.944066647052765
0.797092671108419,0.929253264141083,-1.70001844968796,0.892913333415985
0.797698364627498,3.17338656492233,0.9991685620307921,-0.649479244709015
0.798304058146578,-2.45251431398392,0.7596666089057921,0.895308352947235
0.798909751665657,-4.96249478273392,-0.176786027812958,-0.302201412677765
0.799515445184736,3.1805716235160797,-0.581544328594208,0.780347415447235
0.800121138703816,1.9183963305473302,0.000445417499542242,0.14806225919723498
0.800726832222895,-1.71484829835892,0.544114851093292,-1.2147038540840098
0.801332525741975,-0.397587556171417,-0.492928605937958,0.567190677165985
0.801938219261054,0.704121428203583,-0.320487199687958,-0.42913744783401503
0.802543912780133,2.88598422117233,-0.7779359301567079,0.33966382169723497
0.803149606299213,-0.354477204608917,0.927317976093292,-0.295016354084015
0.803755299818292,-4.60084683351517,0.809962019062042,0.045076419353485296
0.804360993337371,0.668196135234833,-0.967142473125458,0.457019778728485
0.804966686856451,3.13506625242233,-0.40670790281295804,0.605510989665985
0.80557238037553,-1.4466061108589199,0.8410972729682921,-0.994362057209015
0.806178073894609,-1.12327847414017,0.187256940937042,-0.618343990802765
0.806783767413689,0.8574026782035831,-0.9743275317192079,0.08339673185348531
0.807389460932768,2.40458529539108,-0.5360389575004579,-0.24711596345901501
0.807995154451847,0.6562210375785831,1.7344395581245402,0.351638919353485
0.808600847970927,-4.78526333742142,0.8578624096870421,0.373194095134735
0.809206541490006,-1.11130337648392,-1.01264784421921,-0.20640063142776502
0.809812235009085,3.84159701414108,-0.6557899340629579,0.560005618572235
0.810417928528165,-1.00352749757767,0.572855085468292,-0.400397213459015
0.811023622047244,-1.2765597241401698,0.5608799878120421,-0.199215572834015
0.811629315566323,0.241882658672333,-1.0365980395317098,0.00196606779098533
0.812235009085403,1.22863070554733,-1.27370497312546,-0.0555144009590147
0.812840702604482,2.8811941821098297,1.4111119214057901,0.0498664584159853
0.813446396123562,-3.8583907788276703,2.50324082765579,-0.474642818927765
0.814052089642641,-3.5159029858589204,-1.90599012937546,0.660596438884735
0.81465778316172,3.7697464282035797,-1.08210341062546,-0.335731686115265
0.815263476680799,0.35684359617233297,1.0973643628120402,0.0594465365409853
0.815869170199879,-1.44900113039017,0.5225596753120421,-0.510568111896515
0.816474863718958,-0.0622848217964172,-0.423473039531708,-0.642294186115265
0.817080557238038,1.03463412351608,-1.48686171140671,0.945603763103485
0.817686250757117,3.21889193601608,0.615965437030792,-0.189635494709015
0.818291944276196,-2.90277798585892,1.0422789135932902,0.548030520915985
0.818897637795276,-4.26793911867142,0.651890729999542,-0.393212154865265
0.819503331314355,2.3087845141410797,-1.88922499265671,1.8820563998222402
0.820109024833434,1.9615066821098301,0.12019639406204201,-1.42546557283401
0.820714718352514,-1.52564175539017,0.8027769604682921,-1.0614226040840098
0.821320411871593,-0.704150056171417,-0.531248918437958,0.519290286540985
0.821926105390672,1.2430008227348301,0.0914561596870422,-0.915326412677765
0.822531798909752,1.85612582273483,-1.1467689379692099,1.66171460294724
0.823137492428831,0.00477572507858277,1.3033360424995402,-0.656664303302765
0.82374318594791,-4.18411343507767,0.644705671405792,0.536055423259735
0.82434887946699,-0.129345368671417,-1.08210341062546,0.258233157634735
0.824954572986069,3.51826937742233,-0.507298723125458,0.164827395915985
0.825560266505148,-1.12567349367142,0.5608799878120421,-0.572838619709015
0.826165960024228,-1.2502145092964199,0.568065046405792,-0.647084225177765
0.826771653543307,0.541260100078583,-1.23538466062546,0.485760013103485
0.827377347062386,1.8537308032035802,-0.6773451098442079,-0.32854662752151503
0.827983040581466,1.56632845945358,2.50803086671829,0.193567630290985
0.828588734100545,-4.44756558351517,0.30940293703079197,0.955183841228485
0.829194427619624,-1.20231411867142,-1.2162245043754598,-0.802760494709015
0.829800121138704,3.71226595945358,-0.42586805906295805,0.514500247478485
0.830405814657783,-0.529313630390167,0.7788267651557921,-0.371656979084015
0.831011508176863,-1.0538229077339198,0.886602644062042,-0.524938229084015
0.831617201695942,0.0886014086723328,-1.1898792895317098,-0.261486080646515
0.832222895215021,1.15917513914108,-1.4988368090629598,-0.10341479158401501
0.8328285887341,3.05363558835983,1.3368663159370402,0.318108645915985
0.83343428225318,-3.51111294679642,2.6469419995307897,-0.395607174396515
0.834039975772259,-3.53745816164017,-1.3790858325004598,0.801902591228485
0.834645669291339,3.53263949460983,-1.3695057543754598,0.100161868572235
0.835251362810418,0.5149148852348331,0.7620616284370421,-0.472247799396515
0.835857056329497,-1.12327847414017,0.774036726093292,-0.805155514240265
0.836462749848577,-0.0335445874214172,-0.5575941332817079,-0.467457760334015
0.837068443367656,1.2980862719535802,-1.5443421801567099,0.995899173259735
0.837674136886735,3.42486361570358,0.8578624096870421,-0.642294186115265
0.838279830405815,-2.55310513429642,0.6183604565620421,0.957578860759735
0.838885523924894,-4.47151577882767,0.328563093280792,-0.263881100177765
0.839491217443973,2.48362093992233,-1.12760878171921,0.811482669353485
0.840096910963053,2.1531082446098297,-0.342042375469208,0.14806225919723498
0.840702604482132,-1.26937466554642,1.39913682374954,-2.0290104947090097
0.841308298001211,-0.936466950702667,-0.373177629375458,0.0929768099784853
0.841913991520291,1.08253451414108,-1.0365980395317098,0.23188794279098499
0.84251968503937,2.16029330320358,-0.42586805906295805,0.114531985759735
0.843125378558449,-0.0646798413276672,0.946478132343292,0.160037356853485
0.843731072077529,-4.60324185304642,0.5225596753120421,0.457019778728485
0.844336765596608,-0.09581509523391721,-0.7156654223442079,-0.38842211580276503
0.844942459115687,3.61886019773483,-1.3790858325004598,0.830642825603485
0.845548152634767,-0.886171540546417,1.0853892651557902,-1.3081096158027599
0.846153846153846,-1.4466061108589199,0.529744733905792,-0.11538988924026501
0.846759539672925,0.471804533672333,-1.89880507078171,0.385169192790985
0.847365233192005,2.24411898679733,-0.155230852031708,-0.644689205646515
0.847970926711084,1.1064847094535801,2.1679380932807897,0.811482669353485
0.848576620230164,-4.60084683351517,0.496214460468292,-0.232745846271515
0.849182313749243,-0.869406403827667,-1.1731141528129598,-0.290226315021515
0.849788007268322,3.68113070554733,-0.921637102031708,1.07972485685349
0.850393700787402,-0.38082241945266704,1.01114365968704,-0.606368893146515
0.850999394306481,-1.32446011476517,0.944083112812042,-0.486617916584015
0.85160508782556,-0.170060700702667,-1.2281996020317099,0.0163361849784853
0.85221078134464,1.63338900632858,-1.27849501218796,1.01505932950974
0.852816474863719,2.55068148679733,1.0638340893745402,0.404329349040985
0.853422168382798,-3.2261056225776703,2.7403477612495397,-0.589603756427765
0.854027861901878,-3.6284689038276703,-1.58026747312546,0.773162356853485
0.854633555420957,3.39133334226608,-1.5754774340629598,0.560005618572235
0.855239248940036,0.567605314922333,0.9800084057807921,-0.398002193927765
0.855844942459116,-1.4897164624214199,0.635125593280792,-0.21119067049026502
0.856450635978195,0.0119607836723328,-0.013924699687957799,-0.587208736896515
0.857056329497274,1.1448050219535801,-1.3359754809379598,0.186382571697235
0.857662023016354,3.19973177976608,0.503399519062042,0.258233157634735
0.858267716535433,-2.47167447023392,0.972823347187042,0.265418216228485
0.858873410054512,-4.41643032960892,0.43873399171829197,-0.335731686115265
0.859479103573592,2.26088412351608,-1.1467689379692099,1.05337964200974
0.860084797092671,2.2129837328910797,-0.521668840312958,0.176802493572235
0.86069049061175,-1.29571988039017,1.0470689526557901,-1.44702074861526
0.86129618413083,-0.871801423358917,-0.27977186765670803,-0.0842546353340147
0.861901877649909,1.04900424070358,-0.940797258281708,0.229492923259735
0.862507571168988,2.36386996335983,-0.210316301250458,0.274998294353485
0.863113264688068,-0.376032380390167,0.5608799878120421,0.457019778728485
0.863718958207147,-4.19848355226517,0.8171470776557921,-0.175265377521515
0.864324651726227,0.00717074460983277,-0.907266984844208,0.23188794279098499
0.864930345245306,3.56377474851608,-1.13718885984421,0.871358157634735
0.865536038764385,-0.914911774921417,1.03509385499954,-1.31050463533401
0.866141732283465,-1.46097622804642,0.192046979999542,-0.122574947834015
0.866747425802544,0.821477385234833,-0.9551673754692079,-0.409977291584015
0.867353119321623,1.41304720945358,-0.684530168437958,0.21272778654098498
0.867958812840703,1.17115023679733,2.26613389406204,0.21751782560348498
0.868564506359782,-4.20087857179642,1.23388047609329,-0.347706783771515
0.869170199878861,-1.14243863039017,-1.6640931567192099,0.940813724040985
0.869775893397941,3.53503451414108,-0.440238176250458,0.164827395915985
0.87038158691702,-0.5221285717964169,0.6973961010932921,-0.323756588459015
0.870987280436099,-1.3196700757026698,0.692606062030792,0.143272220134735
0.871592973955179,0.0430960375785828,-0.334857316875458,-0.457877682209015
0.872198667474258,1.40825717039108,-1.50123182859421,0.255838138103485
0.872804360993337,2.5985818774223297,1.19316514406204,-0.398002193927765
0.873410054512417,-3.11114468507767,2.64215196046829,-0.134550045490265
0.874015748031496,-3.22850064210892,-1.2281996020317099,0.770767337322235
0.874621441550575,3.27876742429733,-1.3695057543754598,-0.172870357990265
0.875227135069655,0.644245939922333,0.910552839374542,-0.603973873615265
0.875832828588734,-1.59988736085892,0.48184434328079195,0.0163361849784853
0.876438522107813,-0.040729646015167195,0.00523545656204224,-0.493802975177765
0.877044215626893,1.06576937742233,-1.35992567625046,0.598325931072235
0.877649909145972,3.32427279539108,0.5393248120307921,0.08100171232223531
0.878255602665051,-2.07410122804642,0.924922956562042,0.7037067904472349
0.878861296184131,-4.45714566164017,0.39083360109329196,-0.465062740802765
0.87946698970321,2.49320101804733,-1.2593348559379598,0.983924075603485
0.880072683222289,2.19142855710983,-0.272586809062958,0.12411206388473499
0.880678376741369,-1.31727505617142,0.956058210468292,-0.759650143146515
0.881284070260448,-0.711335114765167,-0.47855848875045803,0.258233157634735
0.881889763779528,1.0633743578910801,-0.646209855937958,-0.00521899080276467
0.882495457298607,2.22735385007858,-0.782725969219208,1.0653547396659901
0.883101150817686,0.047886076641082805,1.27938584718704,-0.833895748615265
0.883706844336766,-4.3948751538276705,0.477054304218292,0.706101809978485
0.884312537855845,-0.110185212421417,-0.662974992656708,0.504920169353485
0.884918231374924,3.6667605883598298,-0.7372205981254579,0.495340091228485
0.885523924894004,-1.04424282960892,0.512979597187042,-0.738094967365265
0.886129618413083,-1.63820767335892,0.568065046405792,-0.601578854084015
0.886735311932162,0.49814974851608296,-1.0533631762504598,0.354033938884735
0.887341005451242,1.4872928149223301,-0.09775038328170779,-0.395607174396515
0.887946698970321,1.53279818601608,1.7655748120307901,0.722866946697235
0.8885523924894,-4.18411343507767,0.805171979999542,0.0283112826347353
0.88915808600848,-1.55198697023392,-1.3958509692192098,-0.199215572834015
0.889763779527559,3.83680697507858,-0.8737367114067079,0.983924075603485
0.890369473046638,-0.771210603046417,0.9776133862495421,-0.936881588459015
0.890975166565718,-1.60467739992142,0.615965437030792,0.006756106853485331
0.891580860084797,0.282597990703583,-0.801886125469208,-0.249510982990265
0.892186553603876,1.4274173266410801,-1.75270887937546,-0.12017992830276501
0.892792247122956,2.38063510007858,1.7224644604682902,-0.728514889240265
0.893397940642035,-2.72315152101517,2.4840806714057897,0.610301028728485
0.894003634161115,-3.60691372804642,-1.55152723875046,0.715681888103485
0.894609327680194,3.22607699460983,-1.49165175046921,-0.180055416584015
0.895215021199273,0.744836760234833,0.788406843280792,0.16722241544723498
0.895820714718352,-1.54240689210892,0.836307233905792,-0.654269283771515
0.896426408237432,0.354448576641083,-0.236661516094208,0.538450442790985
0.897032101756511,0.8190823657035831,-0.9551673754692079,-0.158500240802765
0.897637795275591,3.1374612719535797,0.323773054218292,-0.10341479158401501
0.89824348879467,-2.25372769289017,0.709371198749542,0.895308352947235
0.898849182313749,-4.35415982179642,0.6973961010932921,-0.934486568927765
0.899454875832829,1.9830618578910801,-0.912057023906708,1.2018708529472402
0.900060569351908,2.2656741625785797,-0.32767225828170804,0.08818677091598531
0.900666262870987,-1.14243863039017,0.8578624096870421,-0.872216061115265
0.901271956390067,-1.0801681225776698,-0.6390247973442079,0.45941479825973497
0.901877649909146,0.828662443828583,-0.650999895000458,-0.522543209552765
0.902483343428225,2.11478793210983,-0.167205949687958,0.492945071697235
0.903089036947305,0.294573088359833,0.6806309643745421,0.16243237638473498
0.903694730466384,-4.19848355226517,0.850677351093292,-0.0866496548652647
0.904300423985463,-0.483808259296417,-0.691715227031708,0.274998294353485
0.904906117504543,3.74819125242233,-0.8761317309379579,0.682151614665985
0.905511811023622,-0.953232087421417,0.7213462964057921,-0.970411861896515
0.906117504542701,-1.66694790773392,0.338143171405792,-0.534518307209015
0.906723198061781,0.550840178203583,-1.12281874265671,-0.254301022052765
0.90732889158086,1.53998324460983,-0.581544328594208,-0.376447018146515
0.907934585099939,1.51842806882858,1.7559947339057902,0.945603763103485
0.908540278619019,-3.83204556398392,1.43266709718704,-0.721329830646515
0.909145972138098,-1.53043179445267,-1.2880750903129599,0.274998294353485
0.909751665657177,3.58053988523483,-1.1252137621879599,0.919258548259735
0.910357359176257,-0.167665681171417,1.2865709057807901,-1.16440844392776
0.910963052695336,-1.71005825929642,0.5201646557807921,0.17201245450973499
0.911568746214416,-0.0335445874214172,-0.567174211406708,-0.589603756427765
0.912174439733495,1.42502230710983,-1.5275770434379599,1.01026929044724
0.912780133252574,1.90402621335983,1.3895567456245401,-0.44829760408401503
0.913385826771653,-2.20343228273392,2.4745005932807898,0.0378913607597353
0.913991520290733,-3.43447232179642,-2.0664564379692103,1.2186359896659902
0.914597213809812,2.75665316648483,-0.440238176250458,-0.948856686115265
0.915202907328892,0.601135588359833,0.5584849682807921,0.806692630290985
0.915808600847971,-1.60228238039017,0.175281843280792,-0.714144772052765
0.91641429436705,0.47659457273483297,-0.198341203594208,-0.235140865802765
0.91701998788613,0.646640959453583,-1.4509364184379598,0.33008374357223497
0.917625681405209,3.0704007250785796,0.5225596753120421,-0.09862475252151469
0.918231374924288,-1.72203335695267,0.891392683124542,0.588745852947235
0.918837068443368,-4.35415982179642,0.132171491718292,-0.814735592365265
0.919442761962447,1.71960970945358,-1.0964735278129598,1.1419953646659902
0.920048455481526,2.31836459226608,0.07948106203079221,-0.582418697834015
0.920654149000606,-1.38194058351517,0.546509870624542,-0.651874264240265
0.921259842519685,-0.8598263257026669,-0.100145402812958,-0.220770748615265
0.921865536038764,0.8358475024223331,-1.0964735278129598,0.447439700603485
0.922471229557844,2.2920193774223296,0.0675059643745422,0.0163361849784853
0.923076923076923,0.174822111797333,0.635125593280792,0.104951907634735
0.923682616596002,-4.48349087648392,0.453104108905792,0.358823977947235
0.924288310115082,-0.610744294452667,-0.363597551250458,-0.19682055330276502
0.924894003634161,3.51587435789108,-0.986302629375458,0.677361575603485
0.92549969715324,-0.895751618671417,0.750086530780792,-1.06621264314651
0.92610539067232,-1.47534634523392,0.204022077655792,0.07381665372848531
0.926711084191399,0.684961271953583,-0.952772355937958,-0.285436275959015
0.927316777710478,1.00589388914108,-0.811466203594208,0.0259162631034853
0.927922471229558,2.07407260007858,1.45901231203079,0.751607181072235
0.928528164748637,-3.76738003664017,1.3296812573432901,-0.0339592251777647
0.929133858267717,-2.00704068117142,-1.01743788328171,-0.326151607990265
0.929739551786796,3.97332308835983,-1.33358046140671,0.662991458415985
0.930345245305875,-0.0239645092964172,1.03269883546829,-0.606368893146515
0.930950938824954,-1.6477877514839199,0.783616804218292,-0.0147990689277647
0.931556632344034,0.34726351804733296,-0.564779191875458,-0.304596432209015
0.932162325863113,1.21426058835983,-1.32400038328171,-0.12017992830276501
0.932768019382193,2.2992044360160797,1.0135386792182899,-0.302201412677765
0.933373712901272,-1.9136349194526698,2.13919785890579,0.679756595134735
0.933979406420351,-4.17692837648392,-1.28568007078171,0.713286868572235
0.934585099939431,3.09195590085983,-0.789911027812958,-0.393212154865265
0.93519079345851,0.804712248516083,0.5608799878120421,0.358823977947235
0.935796486977589,-1.4130758374214198,0.685421003437042,-1.0781877408027598
0.936402180496669,0.20835238523483302,-0.160020891094208,-0.0339592251777647
0.937007874015748,0.507729826641083,-0.912057023906708,0.430674563884735
0.937613567534827,3.3697781664848296,0.21120713624954202,0.433069583415985
0.938219261053907,-1.71005825929642,0.874627546405792,0.0474714388847353
0.938824954572986,-4.5816866772651705,0.548904890155792,-0.922511471271515
0.939430648092065,1.60943881101608,-1.1994593676567098,1.6305793490409901
0.940036341611145,2.7686282641410798,0.113011335468292,-0.285436275959015
0.940642035130224,-1.3579903882026698,0.625545515155792,-0.764440182209015
0.941247728649303,-0.5580538647651669,-0.241451555156708,0.023521243572235298
0.941853422168383,1.21186556882858,-1.01025282468796,0.255838138103485
0.942459115687462,1.91121127195358,-0.227081437969208,0.346848880290985
0.943064809206541,0.364028654766083,1.02790879640579,-0.290226315021515
0.943670502725621,-4.1553732007026705,0.15133164796829202,0.696521731853485
0.9442761962447,-0.524523591327667,-0.11451552000045799,-0.527333248615265
0.94488188976378,3.66197054929733,-0.6581849535942079,0.598325931072235
0.945487583282859,-0.675409821796417,0.436338972187042,-0.493802975177765
0.946093276801938,-1.40589077882767,0.644705671405792,-0.699774654865265
0.946698970321018,0.29696810789108297,-1.30723524656296,0.116927005290985
0.947304663840097,1.21426058835983,-0.36599257078170805,-0.335731686115265
0.947910357359176,1.75313998289108,0.771641706562042,0.806692630290985
0.948516050878256,-3.36501675539017,1.5691832104682901,-0.850660885334015
0.949121744397335,-2.4141940014839203,-0.986302629375458,0.445044681072235
0.949727437916414,3.37456820554733,-1.0365980395317098,0.512105227947235
0.950333131435494,0.11015658445358299,0.944083112812042,-0.481827877521515
0.950938824954573,-1.81783413820267,0.129776472187042,0.385169192790985
0.951544518473652,0.414324064922333,-0.35880751218795803,-0.508173092365265
0.952150211992732,1.15438510007858,-1.44135634031296,0.562400638103485
0.952755905511811,2.27046420164108,1.4111119214057901,-0.932091549396515
0.95336159903089,-2.11242154054642,2.2445787182807897,0.39953930997848497
0.95396729254997,-3.97574673585892,-1.65930311765671,0.971948977947235
0.954572986069049,2.81892367429733,-0.9192420825004579,-0.580023678302765
0.955178679588128,1.0250540453910801,0.625545515155792,0.442649661540985
0.955784373107208,-1.57354214601517,0.48184434328079195,-0.927301510334015
0.956390066626287,0.342473478984833,0.127381452655792,-0.718934811115265
0.956995760145366,0.771181975078583,-1.86287977781296,0.23188794279098499
0.957601453664446,3.4296536547660796,0.158516706562042,-0.21119067049026502
0.958207147183525,-1.4513961499214199,1.7272544995307901,0.27020825529098497
0.958812840702604,-4.49307095460892,-0.0402699145317078,-0.295016354084015
0.959418534221684,1.54956332273483,-1.21382948484421,0.710891849040985
0.960024227740763,2.5818167407035797,0.227972272968292,-0.481827877521515
0.960629921259842,-1.16159878664017,0.0722960034370422,0.236677981853485
0.961235614778922,-0.9987374585151669,0.201627058124542,-0.790785397052765
0.961841308298001,0.7592068774223331,-1.1994593676567098,0.179197513103485
0.962447001817081,2.03814730710983,-0.34922743406295803,0.320503665447235
0.96305269533616,0.620295744609833,0.9201329174995421,-0.306991451740265
0.963658388855239,-4.01167202882767,0.5992003003120421,0.435464602947235
0.964264082374319,-1.22626431398392,-0.847391496562958,-0.09143969392776469
0.964869775893398,3.81764681882858,-0.643814836406708,0.0402863802909853
0.965475469412477,-0.40956265382766704,0.869837507343292,-0.601578854084015
0.966081162931557,-1.65976284914017,0.14654160890579201,0.0378913607597353
0.966686856450636,0.752021818828583,-1.0270179614067099,-0.599183834552765
0.967292549969715,0.9148831469535831,-1.0653382739067099,0.442649661540985
0.967898243488795,2.02138217039108,1.63384873781204,0.308528567790985
0.968503937007874,-3.42728726320267,1.99310166749954,-0.479432857990265
0.969109630526953,-2.58184536867142,-1.41980116453171,0.914468509197235
0.969715324046033,3.93021273679733,-1.2162245043754598,0.181592532634735
0.970321017565112,0.141291838359833,0.9416880932807921,-0.572838619709015
0.970926711084191,-1.81783413820267,0.855467390155792,-0.172870357990265
0.971532404603271,0.050281096172332805,-0.545619035625458,-0.582418697834015
0.97213809812235,1.17594027585983,-1.4940467700004598,0.102556888103485
0.972743791641429,2.6680374438285797,1.12131455812454,0.0905817904472353
0.973349485160509,-1.80106900148392,2.37630479249954,0.538450442790985
0.973955178679588,-4.30146939210892,-1.1946693285942098,-0.0243791470527647
0.974560872198667,2.7446780688285797,-1.83413954343796,0.45941479825973497
0.975166565717747,1.1998904711723302,1.03269883546829,-0.0866496548652647
0.975772259236826,-1.78430386476517,0.565670026874542,-1.16919848299026
0.976377952755905,0.33768343992233296,-0.14804579343795798,-0.0267741665840147
0.976983646274985,0.445459318828583,-1.30244520750046,-0.0147990689277647
0.977589339794064,3.44881381101608,-0.528853898906708,0.576770755290985
0.978195033313144,-0.907726716327667,2.17991319093704,-0.704564693927765
0.978800726832223,-5.5923849194526705,0.07948106203079221,-0.443507565021515
0.979406420351302,1.04421420164108,-1.7383387621879598,1.0605647006034902
0.980012113870382,3.34582797117233,0.0746910229682922,-0.819525631427765
0.980617807389461,-1.36278042726517,0.946478132343292,-0.09622973299026469
0.98122350090854,-0.9173067944526669,0.34293321046829195,-0.395607174396515
0.98182919442762,0.47659457273483297,-1.5658973559379599,0.191172610759735
0.982434887946699,2.09083773679733,-0.25821669187545804,0.0953718295097353
0.983040581465778,0.471804533672333,1.1620298901557902,-0.6734294400215151
0.983646274984858,-4.02125210695267,0.5584849682807921,0.22230786466598498
