Time (s),Accel X (m/s^2),Accel Y (m/s^2),Accel Z (m/s^2)
0.0,0.518008483314514,0.536531714057922,0.329653762722015
0.000606060606060606,-3.67327569637299,2.91718112812042,-0.6475142060279849
0.00121212121212121,2.7310065301895103,-2.50274807109833,-0.254731002902985
0.00181818181818182,0.632969420814514,-0.785519067192078,0.34641889944076504
0.00242424242424242,1.4448810419082598,1.49932956562042,-0.106239791965485
0.00303030303030303,-0.200497376060486,-0.23466457500457802,0.33683882131576504
0.00363636363636364,-5.98686456356049,1.09936130390167,-0.269101120090485
0.00424242424242424,2.9034479364395103,-1.99260891094208,1.05534468069076
0.00484848484848485,3.59321356143951,-0.13886379375457802,-0.386457077121735
0.00545454545454545,-3.7594963994979897,3.25248386249542,-0.264311081027985
0.00606060606060606,1.11436834659576,-1.38427395000458,0.17158247365951498
0.00666666666666667,1.3466852411270098,-1.44654445781708,-1.14088822946549
0.00727272727272727,0.527588561439514,0.407200659370422,0.564365676784515
0.00787878787878788,1.33231512393951,0.8215390382766721,-0.616378952121735
0.00848484848484848,-5.63000665340424,1.35562839374542,0.27696333303451504
0.00909090909090909,0.27850653018951405,-1.64533107891083,0.300913528347015
0.0096969696969697,5.822976745033261,-2.00697902812958,-0.968446823215485
0.0103030303030303,-3.9415178838729896,3.03693210468292,1.46249800100326
0.0109090909090909,-1.0531243291854901,0.673047827339172,-0.245150924777985
0.0115151515151515,2.4651593622207604,-2.77578029766083,-0.867856002902985
0.0121212121212121,-0.133436829185486,0.416780737495422,0.583525833034515
0.0127272727272727,1.61253240909576,0.46228610858917196,-1.09059281930924
0.0133333333333333,-3.41221856746674,0.795193823432922,0.892483352565765
0.0139393939393939,-1.86743096981049,0.694603003120422,-0.173300338840485
0.0145454545454545,4.84341375675201,-3.75294826641083,-0.374481979465485
0.0151515151515152,-1.98478692684174,1.85139743671417,-0.13737504587173502
0.0157575757575758,-3.44095880184174,2.82856540546417,0.617056106472015
0.0163636363636364,3.40400701847076,-3.08713283672333,0.183557571315765
0.016969696969697,0.8844464715957641,0.31139987812042197,-0.774450241184235
0.0175757575757576,1.04970281925201,-0.0885683835983276,-0.15653520212173502
0.0181818181818182,-0.566935364341736,0.534136694526672,-0.34095170602798497
0.0187878787878788,-4.93784600887299,1.32209812030792,1.26131636037826
0.0193939393939394,3.99078680362701,-1.76987209453583,0.08296675100326491
0.02,0.9850372919082641,0.186858862495422,0.140447219753265
0.0206060606060606,-3.59184503231049,3.00819187030792,-0.8463008271217349
0.0212121212121212,2.41246893253326,-2.05727443828583,-0.120609909152985
0.0218181818181818,0.6449445184707641,-0.6394228757858279,-0.228385788059235
0.0224242424242424,1.60774237003326,1.01314060077667,0.229062942409515
0.023030303030303,-0.210077454185486,-0.210714379692078,0.09494184865951491
0.0236363636363636,-6.04913507137299,1.00595554218292,-0.108634811496735
0.0242424242424242,2.90105291690826,-1.28128811016083,0.832607864284515
0.0248484848484848,3.4830426630020104,-0.0119277585983276,-0.458307663059235
0.0254545454545455,-3.8984075323104896,2.98424167499542,-0.111029831027985
0.0260606060606061,1.26764959659576,-1.11124172344208,-0.542133346652985
0.0266666666666667,1.25327947940826,-2.05008937969208,-0.599613815402985
0.0272727272727273,0.795830748939514,0.852674292182922,0.27696333303451504
0.0278787878787879,1.57421209659576,0.689812964057922,-0.499022995090485
0.0284848484848485,-5.88148370418549,0.809563940620422,0.38713423147201503
0.0290909090909091,0.0964850458145142,-1.17351223125458,-0.35053178415298497
0.0296969696969697,5.61461004581451,-2.25606105937958,-0.254731002902985
0.0303030303030303,-3.5367595830917398,3.30996433124542,0.27696333303451504
0.0309090909090909,-1.13215997371674,0.9173398195266721,-0.0727095185279851
0.0315151515151515,2.12027654972076,-3.19011867656708,-0.185275436496735
0.0321212121212121,0.024634459877014202,0.632332495307922,-0.0295991669654851
0.0327272727272727,1.7442584833145098,-0.112518578910828,-0.235570846652985
0.0333333333333333,-3.10565606746674,1.19755710468292,0.0518314970970149
0.0339393939393939,-2.16680841121674,1.06583103046417,0.648191360378265
0.0345454545454545,4.63504705753326,-4.06190578594208,-0.09665971384048509
0.0351515151515151,-1.34292169246674,2.19628024921417,-1.13849320993424
0.0357575757575758,-3.8984075323104896,2.40225192890167,1.53434858694076
0.0363636363636364,2.93218817081451,-2.56980861797333,-0.788820358371735
0.036969696969697,1.32992010440826,0.5580868898391721,-0.5876387177467349
0.0375757575757576,1.1071832880020098,-0.821444360160828,1.17030561819076
0.0381818181818182,-1.75965509090424,0.354510229682922,-1.37799516305924
0.0387878787878788,-4.52829766902924,1.87534763202667,0.6697465361595151
0.0393939393939394,4.42907537784576,-1.89680812969208,1.07210981740951
0.04,1.12155340518951,0.328165014839172,0.291333450222015
0.0406060606060606,-3.30923272762299,2.58427341327667,-0.295446334934235
0.0412121212121212,2.23284246768951,-2.44526760234833,-0.30263139352798496
0.0418181818181818,0.836546080970764,-0.419081078910828,0.14284223928451498
0.0424242424242424,0.6449445184707641,0.828724096870422,0.0542265166282649
0.043030303030303,0.558723815345764,0.275474585151672,-0.168510299777985
0.0436363636363636,-5.88866876277924,0.6395175539016721,1.41699262990951
0.0442424242424242,2.4244440301895103,-1.20225246562958,-0.393642135715485
0.0448484848484848,3.46388250675201,-0.335255395317078,-0.225990768527985
0.0454545454545455,-4.06845391902924,2.51481784687042,-0.249940963840485
0.0460606060606061,1.2556744989395099,-0.826234399223328,-0.479862838840485
0.0466666666666667,0.908396666908264,-1.97344875469208,-0.08707963571548509
0.0472727272727273,1.58858221378326,0.946080053901672,-0.285866256809235
0.0478787878787879,1.0808380731582599,0.0479477296829224,0.626636184597015
0.0484848484848485,-6.28863702449799,1.91606296405792,-0.8055854950904849
0.0490909090909091,0.7024249872207641,-1.63814602031708,0.767942336940765
0.0496969696969697,5.69364569034576,-2.77578029766083,-0.415197311496735
0.0503030303030303,-3.8984075323104896,3.83447360858917,-0.695414596652985
0.0509090909090909,-1.4938079229354901,0.313794897651672,0.6122660674095151
0.0515151515151515,2.21607733097076,-2.98414699687958,-0.839115768527985
0.0521212121212121,0.482083190345764,0.9412900148391721,-0.134980026340485
0.0527272727272727,1.4448810419082598,-0.24424465312957802,-0.5469233857154849
0.0533333333333333,-3.3571331182479898,1.03948581562042,0.399109329128265
0.0539393939393939,-1.75726007137299,0.8574643312454221,0.15242231740951498
0.0545454545454545,5.34876287784576,-3.77210842266083,-0.539738327121735
0.0551515151515152,-1.92012139949799,2.05497409687042,0.14284223928451498
0.0557575757575758,-3.80500177059174,1.98791354999542,0.504490188503265
0.0563636363636364,3.31060125675201,-2.46921779766083,-0.913361373996735
0.056969696969697,0.534773620033264,0.12937839374542198,0.173977493190765
0.0575757575757576,0.7024249872207641,0.0814780031204224,-0.8463008271217349
0.0581818181818182,-0.492689758872986,0.0910580812454224,-0.264311081027985
0.0587878787878788,-4.42052179012299,1.08020114765167,0.715251907253265
0.0593939393939394,3.69619940128326,-0.723248559379578,-0.13258500680923502
0.06,0.515613463783264,0.208414038276672,0.399109329128265
0.0606060606060606,-3.74991632137299,2.64175388202667,-1.0546675263404899
0.0612121212121212,2.66873602237701,-2.50753811016083,0.461379836940765
0.0618181818181818,1.48559637393951,-0.0262978757858276,-0.920546432590485
0.0624242424242424,1.4353009637832599,-0.162813989067078,1.5199784697532601
0.063030303030303,0.12522528018951398,0.258709448432922,-0.9852119599342349
0.0636363636363636,-5.78568292293549,1.00116550312042,0.413479446315765
0.0642424242424242,1.51194158878326,-1.92554836406708,1.14396040334701
0.0648484848484848,4.51529608097076,0.335350073432922,-1.12412309274674
0.0654545454545455,-3.82655694637299,1.83223728046417,1.34274702444076
0.0660606060606061,0.965877135658264,-0.270589867973328,-1.33727983102799
0.0666666666666667,1.01377752628326,-2.38299709453583,0.21229780569076498
0.0672727272727273,0.115645202064514,1.00835056171417,-0.8271406708717349
0.0678787878787879,2.26397772159576,0.6371225343704221,0.578735793972015
0.0684848484848485,-5.73778253231049,1.25264255390167,0.344023879909515
0.0690909090909091,-0.7321917119979859,-1.30523830547333,-0.520578170871735
0.0696969696969697,6.61093817081451,-2.02134914531708,0.224272903347015
0.0703030303030303,-3.61100518856049,2.52918796405792,0.878113235378265
0.0709090909090909,-1.24472589168549,1.22390231952667,0.173977493190765
0.0715151515151515,2.1514118036270102,-2.96977687969208,-0.654699264621735
0.0721212121212121,-0.054401184654235796,0.390435522651672,0.32725874319076503
0.0727272727272727,2.1514118036270102,0.629937475776672,-0.20683061227798502
0.0733333333333333,-3.43856378231049,0.488631323432922,0.787102493190765
0.0739393939393939,-2.1356731573104897,0.946080053901672,0.15721235647201498
0.0745454545454545,4.85299383487701,-3.44878078594208,-0.6666743622779849
0.0751515151515151,-0.899843079185486,1.73404147968292,0.288938430690765
0.0757575757575758,-4.49955743465424,2.38548679218292,0.844582961940765
0.0763636363636364,2.57533026065826,-2.11954494609833,-1.02353227243424
0.076969696969697,1.1622687372207599,-0.380760766410828,0.700881790065765
0.0775757575757576,1.41374578800201,0.36169528827667197,-1.14567826852799
0.0781818181818182,-0.475924622154236,0.0144174562454224,-0.309816452121735
0.0787878787878788,-5.40247979793549,1.04188083515167,1.51279341115951
0.0793939393939394,3.3129962762832603,-1.37708889141083,0.09254682912826491
0.08,1.0592828973770099,-0.253824731254578,0.5499955595970151
0.0806060606060606,-3.55112970027924,2.84293552265167,-1.29656449899674
0.0812121212121212,2.30708807315826,-1.78424221172333,0.0733866728782649
0.0818181818181818,1.31075994815826,-1.12800686016083,0.10212690725326501
0.0824242424242424,2.14662176456451,0.392830542182922,-0.496627975559235
0.083030303030303,0.529983580970764,0.287449682807922,-0.24754594430923502
0.0836363636363636,-6.91613214168549,1.23108737812042,-0.257126022434235
0.0842424242424242,1.80173895206451,-1.74113186016083,1.46489302053451
0.0848484848484849,4.36440985050201,0.0742929445266724,-0.29305131540298496
0.0854545454545454,-3.57507989559174,2.42859714374542,0.5499955595970151
0.0860606060606061,-0.0807463994979858,-0.720853539848328,-0.664279342746735
0.0866666666666667,0.836546080970764,-2.32551662578583,-0.379272018527985
0.0872727272727273,0.965877135658264,0.766453589057922,0.0685966338157649
0.0878787878787879,2.12027654972076,1.17600192890167,-0.934916549777985
0.0884848484848485,-5.05759698543549,0.570061987495422,0.842187942409515
0.0890909090909091,-1.64948419246674,-1.21422756328583,-0.15174516305923502
0.0896969696969697,5.28649237003326,-1.56150539531708,0.7511772002220151
0.0903030303030303,-2.14046319637299,2.37590671405792,0.645796340847015
0.0909090909090909,-1.58242364559174,0.955660132026672,-1.58636186227799
0.0915151515151515,1.74186346378326,-2.77578029766083,0.0206962431907649
0.0921212121212121,0.292876647377014,0.0311825929641724,-0.259521041965485
0.0927272727272727,2.01729070987701,0.500606421089172,-0.37208695993423496
0.0933333333333333,-3.74512628231049,0.847884253120422,0.708066848659515
0.0939393939393939,-2.7440081182479896,0.510186499214172,-0.592428756809235
0.0945454545454545,5.58586981143951,-3.42483059062958,0.641006301784515
0.0951515151515152,-0.463949524497986,2.16754001483917,-0.669069381809235
0.0957575757575758,-4.29358575496674,1.96635837421417,1.03378950490951
0.0963636363636364,2.10351141300201,-2.06924953594208,-1.30853959665299
0.096969696969697,1.2772296747207599,-0.5723623289108279,0.478144973659515
0.0975757575757576,1.60055731143951,0.955660132026672,-0.848695846652985
0.0981818181818182,-0.5118499151229859,0.23475925312042198,-0.975631881809235
0.0987878787878788,-4.73905938777924,0.464681128120422,1.57027387990951
0.0993939393939394,2.8866827997207603,-1.23099270000458,-0.16132524118423502
0.1,1.1670587762832598,4.73390579223755e-05,0.597895950222015
0.100606060606061,-3.3595281377792396,2.85012058124542,-0.7073896943092349
0.101212121212121,1.7442584833145098,-2.01895412578583,0.439824661159515
0.101818181818182,1.12155340518951,-1.13998195781708,-0.0008589325904851421
0.102424242424242,1.3634503778457598,0.776033667182922,-0.309816452121735
0.103030303030303,0.367122252845764,0.48144626483917197,-0.0655244599342351
0.103636363636364,-6.18086114559174,0.9987704835891721,-0.41280229196548496
0.104242424242424,1.06167791690826,-1.70760158672333,0.961938918972015
0.104848484848485,4.49134588565826,0.469471167182922,0.00393110647201486
0.105454545454545,-3.43377374324799,2.39746188983917,0.734412063503265
0.106060606060606,0.242581237220764,-0.6202627195358279,-0.956471725559235
0.106666666666667,1.1622687372207599,-2.11235988750458,-0.721759811496735
0.107272727272727,0.230606139564514,-0.0909634031295776,1.1607255400657601
0.107878787878788,2.1514118036270102,1.36281345233917,-0.139770065402985
0.108484848484848,-5.2276433721542395,0.531741674995422,1.02660444631576
0.109090909090909,-1.15850518856049,-1.07531643047333,-0.307421432590485
0.10969696969697,5.85171697940826,-1.90638820781708,-0.29305131540298496
0.11030303030303,-2.45660577449799,1.76038669452667,0.655376418972015
0.110909090909091,-1.87940606746674,2.08610935077667,-1.19597367868424
0.111515151515152,1.42093084659576,-3.18293361797333,0.09494184865951491
0.112121212121212,0.364727233314514,0.103033178901672,-0.34095170602798497
0.112727272727273,1.74186346378326,0.788008764839172,-0.573268600559235
0.113333333333333,-2.76316827449799,0.390435522651672,1.02660444631576
0.113939393939394,-2.3655950323104897,0.9796103273391721,0.320073684597015
0.114545454545455,4.74761297550201,-2.99372707500458,-0.575663620090485
0.115151515151515,-0.33940850887298596,0.7592685304641721,0.858953079128265
0.115757575757576,-4.46842218074799,2.94831638202667,0.300913528347015
0.116363636363636,2.29271795597076,-1.70760158672333,-1.33009477243424
0.116969696969697,1.54786688175201,-1.64533107891083,0.727227004909515
0.117575757575758,1.10957830753326,1.44663913593292,-1.69653276071549
0.118181818181818,-0.176547180747986,-0.371180688285828,0.626636184597015
0.118787878787879,-4.43010186824799,1.2143222414016699,0.243433059597015
0.119393939393939,2.35738348331451,-1.09687160625458,0.324863723659515
0.12,1.8208991083145099,-0.452611352348328,-0.046364303684235095
0.120606060606061,-3.70441095027924,2.73994968280792,-0.843905807590485
0.121212121212121,1.80652899112701,-1.86327785625458,0.554785598659515
0.121818181818182,2.02687078800201,-0.8956899656295779,-0.992397018527985
0.122424242424242,1.3418952020645099,0.15572360858917197,0.47574995412826504
0.123030303030303,1.32752508487701,0.8790195070266721,-1.07382768259049
0.123636363636364,-6.32935235652924,0.297029760932922,0.621846145534515
0.124242424242424,0.175520690345764,-0.8358144773483279,0.518860305690765
0.124848484848485,5.09489080753326,-0.471771508598328,-0.616378952121735
0.125454545454545,-3.22780206356049,1.83942233905792,0.039856399440764904
0.126060606060606,0.539563659095764,0.6850229249954221,-0.9253364716529849
0.126666666666667,1.25806951847076,-2.87637111797333,0.183557571315765
0.127272727272727,0.24497625675201398,1.41310886249542,-0.448727584934235
0.127878787878788,1.95981024112701,1.04427585468292,0.284148391628265
0.128484848484848,-4.93784600887299,-0.24424465312957802,0.48533003225326504
0.129090909090909,-1.45788262996674,-0.6130776609420779,0.372764114284515
0.12969696969697,5.74873113956451,-2.06206447734833,0.190742629909515
0.13030303030303,-2.1021428838729896,2.16035495624542,1.51039839162826
0.130909090909091,-2.3488298955917397,1.94959323749542,-0.29065629587173497
0.131515151515152,1.96699529972076,-3.38411525859833,-0.26191606149673496
0.132121212121212,0.115645202064514,0.354510229682922,0.384739211940765
0.132727272727273,1.84005926456451,0.6993930421829221,-0.269101120090485
0.133333333333333,-1.90575128231049,0.634727514839172,0.209902786159515
0.133939393939394,-3.38108331356049,0.9844003664016721,-0.09426469430923509
0.134545454545455,4.71887274112701,-3.30507961406708,-0.384062057590485
0.135151515151515,0.374307311439514,0.629937475776672,0.648191360378265
0.135757575757576,-4.79414483699799,3.56862644062042,0.274568313503265
0.136363636363636,2.55856512393951,-1.96147365703583,-0.733734909152985
0.136969696969697,1.6748029169082599,-1.37229885234833,0.45658979787826504
0.137575757575758,1.30836492862701,1.00116550312042,-1.93124467477799
0.138181818181818,-0.413654114341736,-0.7136684812545779,0.559575637722015
0.138787878787879,-5.08873223934174,1.7532016359329199,0.839792922878265
0.139393939393939,2.5082697137832604,-1.28128811016083,-0.419987350559235
0.14,2.29990301456451,-0.543622094535828,0.775127395534515
0.140606060606061,-3.82416192684174,3.09680759296417,-0.7265498505592349
0.141212121212121,1.93346502628326,-1.77705715312958,-0.326581588840485
0.141818181818182,1.44967108097076,-1.45133449687958,0.767942336940765
0.142424242424242,0.776670592689514,1.43945407733917,-0.642724166965485
0.143030303030303,1.7011481317520099,-0.107728539848328,0.044646438503264906
0.143636363636364,-6.1856511846542395,0.9221298585891721,-0.398432174777985
0.144242424242424,0.029424498939514203,-0.941195336723328,0.873323196315765
0.144848484848485,5.26254217472076,-0.783124047660828,0.379949172878265
0.145454545454545,-3.43137872371674,2.28729099140167,0.027881301784514898
0.146060606060606,0.18510076847076398,0.572457007026672,-1.46900590524674
0.146666666666667,1.74904852237701,-3.11587307109833,0.607476028347015
0.147272727272727,-0.109486633872986,0.670652807807922,-0.127794967746735
0.147878787878788,2.05321600284576,1.41310886249542,-0.326581588840485
0.148484848484848,-5.04562188777924,-0.22508449687957802,2.47080122365952
0.149090909090909,-1.70217462215424,0.390435522651672,-1.82107377634049
0.14969696969697,5.77747137393951,-3.11587307109833,0.238643020534515
0.15030303030303,-2.20033868465424,2.05257907733917,0.281753372097015
0.150909090909091,-2.23626397762299,2.52200290546417,-0.999582077121735
0.151515151515152,1.98136541690826,-3.58050686016083,0.684116653347015
0.152121212121212,-0.0975115362167358,0.42157077655792197,-0.5277632294654849
0.152727272727273,1.61013738956451,-0.0454580320358276,-0.190065475559235
0.153333333333333,-1.81713555965424,0.328165014839172,0.799077590847015
0.153939393939394,-3.3499480596542397,2.15556491718292,-0.278681198215485
0.154545454545455,4.6518121942520105,-3.68109768047333,-0.278681198215485
0.155151515151515,0.182705748939514,-0.304120141410828,0.794287551784515
0.155757575757576,-4.95940118465424,3.82728854999542,-0.465492721652985
0.156363636363636,2.4076788934707603,-2.09319973125458,-0.309816452121735
0.156969696969697,1.41135076847076,-1.28128811016083,0.463774856472015
0.157575757575758,0.7455353387832641,1.42747897968292,-1.09059281930924
0.158181818181818,0.07013983097076419,-1.31960842266083,0.6314262236595151
0.158787878787879,-4.5761980596542395,1.49932956562042,-0.561293502902985
0.159393939393939,2.1585968622207603,-1.45851955547333,0.835002883815765
0.16,2.60646551456451,-0.469376489067078,-0.0798945771217351
0.160606060606061,-4.66960382137299,3.49677585468292,0.0135111845970149
0.161212121212121,1.50715154972076,-1.88962307109833,0.6721415556907651
0.161818181818182,2.1154865106582603,-1.42977932109833,-1.07382768259049
0.162424242424242,0.333591979408264,0.7017880617141721,0.111706985378265
0.163030303030303,2.0915363153457602,4.73390579223755e-05,-0.106239791965485
0.163636363636364,-6.20002130184174,1.24545749530792,0.300913528347015
0.164242424242424,-0.701056458091736,-0.371180688285828,0.667351516628265
0.164848484848485,5.54036444034576,-1.80819240703583,0.250618118190765
0.165454545454545,-3.15595147762299,2.29208103046417,-0.719364791965485
0.166060606060606,-0.162177063560486,1.05625095233917,-0.9061763154029849
0.166666666666667,1.84724432315826,-3.04641750469208,0.755967239284515
0.167272727272727,-0.0639812627792358,0.5796420656204221,-0.27149613962173497
0.167878787878788,2.1681769403457603,0.953265112495422,0.042251418972014905
0.168484848484848,-4.59056817684174,0.766453589057922,1.33795698537826
0.169090909090909,-2.4781609502792397,0.182068823432922,-1.09777787790299
0.16969696969697,6.57980291690826,-3.03204738750458,-0.0391792450904851
0.17030303030303,-1.90335626277924,1.92324802265167,0.753572219753265
0.170909090909091,-3.0433855596542396,2.52918796405792,-1.20794877634049
0.171515151515152,2.35977850284576,-3.62840725078583,0.463774856472015
0.172121212121212,0.201865905189514,0.376065405464172,-0.24275590524673502
0.172727272727273,1.90711981143951,0.548506811714172,-0.609193893527985
0.173333333333333,-2.1452532354354896,-0.0670132078170776,0.734412063503265
0.173939393939394,-3.6397454229354897,2.20825534687042,-0.043969284152985094
0.174545454545455,5.26014715518951,-3.50386623516083,-0.28107621774673497
0.175151515151515,0.386282409095764,-0.45740139141082803,0.253013137722015
0.175757575757576,-5.29230889949799,4.30629245624542,-0.348136764621735
0.176363636363636,2.46276434268951,-2.15786525859833,-0.130189987277985
0.176969696969697,1.8759845575332599,-0.986700707817078,0.28654341115951504
0.177575757575758,1.02096258487701,0.7616635499954221,-0.597218795871735
0.178181818181818,0.120435241127014,-0.802284203910828,-0.0319941864967351
0.178787878787879,-5.0552019659042395,1.91606296405792,-0.15653520212173502
0.179393939393939,1.9837604364395098,-1.10884670391083,0.34641889944076504
0.18,2.75974676456451,-0.627447778129578,0.344023879909515
0.180606060606061,-4.49955743465424,3.14231296405792,-0.273891159152985
0.181212121212121,1.44727606143951,-1.11842678203583,-0.0343892060279851
0.181818181818182,1.95023016300201,-1.79621730937958,0.118892043972015
0.182424242424242,0.628179381752014,1.01793063983917,-0.369691940402985
0.183030303030303,1.93825506534576,0.110218237495422,-0.309816452121735
0.183636363636364,-6.00362970027924,0.6251474367141721,0.0781767119407649
0.184242424242424,-0.504664856529236,-0.368785668754578,0.638611282253265
0.184848484848485,5.17871649112701,-1.29805324687958,0.394319290065765
0.185454545454545,-3.00267022762299,2.09329440937042,-0.0367842255592351
0.186060606060606,-0.119066711997986,1.11133640155792,-0.939706588840485
0.186666666666667,1.37303045597076,-2.83805080547333,0.0230912627220149
0.187272727272727,0.213841002845764,0.6850229249954221,0.0326713408470149
0.187878787878788,2.37893865909576,0.610777319526672,0.444614700222015
0.188484848484848,-5.16537286434174,0.49102634296417197,0.705671829128265
0.189090909090909,-2.50929620418549,0.19883396015167198,0.0997318877220149
0.18969696969697,7.20250799503326,-2.64644924297333,-0.051154342746735096
0.19030303030303,-1.88180108699799,1.74362155780792,0.130867141628265
0.190909090909091,-3.04578057918549,2.97945163593292,-1.43787065134049
0.191515151515152,1.9957355340957599,-3.49668117656708,0.135657180690765
0.192121212121212,0.0629547723770142,-0.0119277585983276,-0.13258500680923502
0.192727272727273,1.70833319034576,0.608382299995422,-0.479862838840485
0.193333333333333,-1.52973321590424,0.265894507026672,-0.166115280246735
0.193939393939394,-3.1703215948104897,1.23348239765167,-0.051154342746735096
0.194545454545455,4.41710028018951,-2.93145656719208,-0.0727095185279851
0.195151515151515,0.534773620033264,-0.404710961723328,0.741597122097015
0.195757575757576,-4.88036554012299,3.42253024921417,-0.319396530246735
0.196363636363636,1.9574152215957599,-1.65730617656708,-0.388852096652985
0.196969696969697,1.75383856143951,-1.70041652812958,0.674536575222015
0.197575757575758,1.78976385440826,1.40592380390167,-0.915756393527985
0.198181818181818,-0.550170227622986,-0.761568871879578,1.11282514944076
0.198787878787879,-5.03364679012299,1.61668552265167,-0.8870161591529849
0.199393939393939,2.06998113956451,-1.46091457500458,1.17270063772201
0.2,2.67831610050201,-0.443031274223328,0.25780317678451503
0.200606060606061,-3.8289519659042397,3.13273288593292,-1.16483842477799
0.201212121212121,1.38979559268951,-1.65251613750458,0.219482864284515
0.201818181818182,2.17057195987701,-1.42259426250458,-0.618773971652985
0.202424242424242,0.455737975502014,0.706578100776672,0.130867141628265
0.203030303030303,1.44967108097076,0.651492651557922,-0.424777389621735
0.203636363636364,-5.63000665340424,0.486236303901672,1.01462934865951
0.204242424242424,-0.43999932918548595,-0.5555971921920779,0.454194778347015
0.204848484848485,4.92005438175201,-0.809469262504578,0.044646438503264906
0.205454545454545,-2.50690118465424,1.80828708515167,0.00872114553451486
0.206060606060606,0.115645202064514,1.07062106952667,-1.3540449677467399
0.206666666666667,1.3754254755020099,-3.07994777812958,0.621846145534515
0.207272727272727,-0.0065007940292358506,0.771243628120422,-0.508603073215485
0.207878787878788,1.70833319034576,1.24306247577667,0.49491011037826504
0.208484848484848,-4.04689874324799,0.594012182807922,0.636216262722015
0.209090909090909,-2.02789727840424,-0.107728539848328,-0.870251022434235
0.20969696969697,5.3032575067520105,-3.09431789531708,0.933198684597015
0.21030303030303,-1.23993585262299,2.31842624530792,-0.47267778024673496
0.210909090909091,-2.7416130987167397,2.39506687030792,-0.240360885715485
0.211515151515152,1.7442584833145098,-3.48231105937958,0.561970657253265
0.212121212121212,0.256951354408264,0.354510229682922,-1.34925492868424
0.212727272727273,1.0856281122207598,-0.23945461406707802,0.20750776662826498
0.213333333333333,-0.847152649497986,0.752083471870422,-0.28347123727798496
0.213939393939394,-3.5223894659042396,1.69572116718292,0.45658979787826504
0.214545454545455,3.88061590518951,-2.85002590312958,-0.127794967746735
0.215151515151515,1.24130438175201,-0.869344750785828,0.7894975127220151
0.215757575757576,-4.51871759090424,3.78178317890167,-0.419987350559235
0.216363636363636,1.80173895206451,-1.07771145000458,-0.669069381809235
0.216969696969697,1.66522283878326,-1.92794338359833,0.705671829128265
0.217575757575758,1.2820197137832599,1.33167819843292,-0.8271406708717349
0.218181818181818,0.355147155189514,-1.28847316875458,0.858953079128265
0.218787878787879,-4.43010186824799,2.29208103046417,-1.75161820993424
0.219393939393939,0.999407409095764,-1.04657619609833,1.86246626272201
0.22,2.8699176630020102,-0.668163110160828,0.274568313503265
0.220606060606061,-3.6996209112167397,3.11357272968292,-1.08580278024674
0.221212121212121,0.640154479408264,-1.69562648906708,0.966728958034515
0.221818181818182,2.7046613153457604,-1.1208218015670801,-1.60073197946549
0.222424242424242,0.173125670814514,0.34253513202667196,0.324863723659515
0.223030303030303,1.9957355340957599,0.6035922609329221,-0.386457077121735
0.223636363636364,-5.22285333309174,0.505396460151672,1.12480024709701
0.224242424242424,-1.7069646612167402,0.153328589057922,0.0973368681907649
0.224848484848485,5.164346373939511,-1.42738430156708,0.490120071315765
0.225454545454545,-2.51408624324799,1.82026218280792,-0.13737504587173502
0.226060606060606,-0.0855364385604858,1.45621921405792,-1.10017289743424
0.226666666666667,1.7179132684707599,-3.44399074687958,0.739202102565765
0.227272727272727,-0.5334050909042359,1.25503757343292,-1.01634721384049
0.227878787878788,1.98855047550201,0.268289526557922,1.36190718069076
0.228484848484848,-3.56549981746674,0.464681128120422,-0.604403854465485
0.229090909090909,-3.44814386043549,0.0934531007766724,-0.508603073215485
0.22969696969697,5.8493219598770105,-3.35298000469208,0.743992141628265
0.23030303030303,-0.6531560674667359,2.12442966327667,-0.446332565402985
0.230909090909091,-3.17271661434174,2.40464694843292,0.332048782253265
0.231515151515152,1.8544293817520099,-3.25238918437958,-0.0391792450904851
0.232121212121212,0.24976629581451398,0.503001440620422,-0.556503463840485
0.232727272727273,1.29638983097076,0.416780737495422,0.348813918972015
0.233333333333333,-0.6914763799667359,-0.0670132078170776,0.0159062041282649
0.233939393939394,-3.85290216121674,2.50284274921417,-0.49183793649673496
0.234545454545455,3.3656867059707603,-3.19251369609833,0.564365676784515
0.235151515151515,1.8544293817520099,-1.36990383281708,0.569155715847015
0.235757575757576,-4.8755755010604895,4.50747409687042,-0.731339889621735
0.236363636363636,1.32752508487701,-1.43456936016083,0.478144973659515
0.236969696969697,2.10111639347076,-1.80819240703583,-0.139770065402985
0.237575757575758,1.04012274112701,0.890994604682922,-0.8463008271217349
0.238181818181818,0.484478209877014,-0.842999535942078,1.05534468069076
0.238787878787879,-4.78935479793549,2.43817722187042,-0.855880905246735
0.239393939393939,1.31315496768951,-1.01544094219208,0.801472610378265
0.24,3.9452814325332604,-1.22380764141083,0.23624800100326498
0.240606060606061,-3.86966729793549,3.03932712421417,-0.7457100068092349
0.241212121212121,0.860496276283264,-0.8980849851608279,-0.0774995575904851
0.241818181818182,2.0651911005020103,-1.74352687969208,-0.630749069309235
0.242424242424242,0.07253485050201419,0.608382299995422,-0.051154342746735096
0.243030303030303,2.54179998722076,0.335350073432922,-0.0295991669654851
0.243636363636364,-5.22045831356049,0.7448984132766721,0.621846145534515
0.244242424242424,-1.69738458309174,-0.0526430906295776,0.0111161650657649
0.244848484848485,5.37510809268951,-1.62617092266083,1.02420942678451
0.245454545454545,-2.1787835088729897,2.14598483905792,-0.872646041965485
0.246060606060606,-0.519034973716736,1.02990573749542,-0.937311569309235
0.246666666666667,1.3850055536270098,-2.81649562969208,0.382344192409515
0.247272727272727,0.149175475502014,0.646702612495422,-0.367296920871735
0.247878787878788,2.1059064325332604,0.5652719484329221,0.7511772002220151
0.248484848484848,-3.85050714168549,1.01793063983917,-0.484652877902985
0.249090909090909,-3.4265886846542397,-0.227479516410828,0.243433059597015
0.24969696969697,5.67209051456451,-2.96738186016083,-0.16132524118423502
0.25030303030303,-0.214867493247986,1.88253269062042,-0.24754594430923502
0.250909090909091,-3.82416192684174,2.82856540546417,0.657771438503265
0.251515151515152,1.79694891300201,-3.11108303203583,0.449404739284515
0.252121212121212,0.767090514564514,-0.40710598125457803,-0.154140182590485
0.252727272727273,1.21495916690826,0.5820370851516721,-0.578058639621735
0.253333333333333,-0.660341126060486,0.13416843280792198,0.047041458034514906
0.253939393939394,-3.9654680791854897,1.73164646015167,0.35599897756576504
0.254545454545455,3.27228094425201,-2.52190822734833,-0.360111862277985
0.255151515151515,1.96460028018951,-1.5998257078170801,0.554785598659515
0.255757575757576,-4.50674249324799,4.07397556171417,-0.800795456027985
0.256363636363636,0.997012389564514,-0.8334194578170779,0.22187788381576498
0.256969696969697,2.28074285831451,-1.71718166484833,-0.257126022434235
0.257575757575758,1.37303045597076,0.6586777101516721,-0.46070268259048497
0.258181818181818,0.5419586786270141,-0.36639064922332804,0.21708784475326498
0.258787878787879,-4.67918389949799,0.929314917182922,0.0159062041282649
0.259393939393939,0.759905455970764,-0.6537929929733279,0.334443801784515
0.26,3.77284002628326,-0.7759389890670779,0.399109329128265
0.260606060606061,-3.4792791143417396,2.58906345233917,-0.254731002902985
0.261212121212121,0.403047545814514,-0.447821313285828,-0.9852119599342349
0.261818181818182,2.1849420770645103,-2.71829982891083,0.19792768850326498
0.262424242424242,0.482083190345764,1.44184909687042,-0.661884323215485
0.263030303030303,1.57181707706451,0.493421362495422,0.521255325222015
0.263636363636364,-4.52350762996674,0.00483737812042238,0.360789016628265
0.264242424242424,-2.24105401668549,0.12219333515167201,-0.8055854950904849
0.264848484848485,4.38836004581451,-2.05008937969208,1.3403520049095101
0.265454545454545,-1.3357366338729901,2.12921970233917,-0.930126510715485
0.266060606060606,-0.806437317466736,1.26940769062042,-0.0176240693092351
0.266666666666667,1.57900213565826,-2.85242092266083,0.444614700222015
0.267272727272727,-0.26995294246673596,0.6371225343704221,-1.12172807321549
0.267878787878788,1.88795965518951,0.0407626710891724,1.15114546194076
0.268484848484848,-2.81585870418549,1.44424411640167,-0.733734909152985
0.269090909090909,-3.90319757137299,0.48144626483917197,0.173977493190765
0.26969696969697,5.41582342472076,-3.48231105937958,1.10324507131576
0.27030303030303,0.6425494989395141,1.56399509296417,-1.00676713571549
0.270909090909091,-4.05408380184174,2.83096042499542,-0.0248091279029851
0.271515151515151,1.56702703800201,-2.90750637187958,0.0997318877220149
0.272121212121212,0.9251618036270141,-0.16041896953582802,-0.954076706027985
0.272727272727273,0.939531920814514,0.347325171089172,0.652981399440765
0.273333333333333,-0.255582825279236,0.191648901557922,-0.630749069309235
0.273939393939394,-3.9918132940292397,1.6334506593704199,0.28654341115951504
0.274545454545455,3.2890460809707602,-2.49077297344208,0.473354934597015
0.275151515151515,2.44360418643951,-1.47528469219208,-0.0008589325904851421
0.275757575757576,-5.00490655574799,4.03565524921417,-0.467887741184235
0.276363636363636,0.934741881752014,-1.49683986797333,0.887693313503265
0.276969696969697,2.33343328800201,-1.74352687969208,-0.733734909152985
0.277575757575758,0.609019225502014,1.04906589374542,-0.5469233857154849
0.278181818181818,1.16466375675201,-0.531646996879578,0.238643020534515
0.278787878787879,-4.55703790340424,1.53764987812042,-0.676254440402985
0.279393939393939,-0.119066711997986,-0.8525796140670779,1.02899946584701
0.28,3.9045661005020103,-1.57108547344208,0.657771438503265
0.280606060606061,-3.38826837215424,2.50523776874542,0.5499955595970151
0.281212121212121,0.304851745033264,0.38085544452667197,-0.154140182590485
0.281818181818182,2.2280524286270103,-2.60094387187958,0.291333450222015
0.282424242424242,0.33838201847076405,0.670652807807922,-0.35053178415298497
0.283030303030303,1.9406500848770099,0.246734350776672,0.320073684597015
0.283636363636364,-4.57140802059174,0.388040503120422,0.248223098659515
0.284242424242424,-2.6649724737167397,0.258709448432922,-0.0272041474342351
0.284848484848485,5.12123602237701,-1.64533107891083,0.9691239775657651
0.285454545454545,-1.7883953252792402,1.94480319843292,-1.14088822946549
0.286060606060606,-0.863917786216736,1.21192722187042,-0.530158248996735
0.286666666666667,2.12027654972076,-2.68955959453583,0.229062942409515
0.287272727272727,-0.875892883872986,0.5628769289016721,-0.20683061227798502
0.287878787878788,2.3454083856582604,0.965240210151672,0.799077590847015
0.288484848484849,-2.88531427059174,0.9173398195266721,-0.448727584934235
0.289090909090909,-3.97983819637299,0.158118628120422,-0.333766647434235
0.28969696969697,5.13800115909576,-3.66912258281708,0.37755415334701503
0.29030303030303,0.307246764564514,2.13640476093292,-0.544528366184235
0.290909090909091,-4.06605889949799,3.06567233905792,0.600290969753265
0.291515151515152,1.61732244815826,-3.12305812969208,-0.30263139352798496
0.292121212121212,1.08323309268951,-0.272984887504578,-0.714574752902985
0.292727272727273,1.0257526239395098,0.11979831562042201,0.693696731472015
0.293333333333333,0.027029479408264202,0.7784286867141721,-0.839115768527985
0.293939393939394,-4.51153253231049,2.06215915546417,0.418269485378265
0.294545454545455,3.2459357294082603,-2.40934230937958,0.262593215847015
0.295151515151515,2.36935858097076,-1.88243801250458,-0.556503463840485
0.295757575757576,-4.77019464168549,4.30150241718292,-0.47267778024673496
0.296363636363636,0.515613463783264,-1.30284328594208,1.21820600881576
0.296969696969697,2.67592108097076,-1.55671535625458,-0.970841842746735
0.297575757575758,1.25327947940826,0.934104956245422,-0.554108444309235
0.298181818181818,0.977852233314514,-1.19985744609833,0.200322708034515
0.298787878787879,-4.97616632137299,1.82265720233917,-0.810375534152985
0.299393939393939,-0.210077454185486,-0.900480004692078,1.91755171194076
0.3,4.39075506534576,-1.34595363750458,0.0638065947532649
0.300606060606061,-3.6493255010604897,2.72557956562042,-0.479862838840485
0.301212121212121,0.230606139564514,-0.0286928953170776,-0.740919967746735
0.301818181818182,2.25439764347076,-2.49077297344208,-0.305026413059235
0.302424242424242,0.218631041908264,0.9245248781204221,0.22187788381576498
0.303030303030303,1.8424542840957598,0.6850229249954221,0.111706985378265
0.303636363636364,-4.44686700496674,0.44073093280792197,0.300913528347015
0.304242424242424,-2.3152996221542397,-0.469376489067078,-0.130189987277985
0.304848484848485,5.51162420597076,-1.77466213359833,0.736807083034515
0.305454545454545,-1.90335626277924,2.17951511249542,-0.630749069309235
0.306060606060606,-1.4674627080917402,1.14486667499542,-0.0391792450904851
0.306666666666667,2.43881414737701,-2.30635646953583,-0.307421432590485
0.307272727272727,-0.660341126060486,0.232364233589172,-0.101449752902985
0.307878787878788,1.9358600458145099,0.476656225776672,0.34641889944076504
0.308484848484848,-2.4949260869979897,0.852674292182922,-0.388852096652985
0.309090909090909,-4.24568536434174,0.14374851093292199,0.617056106472015
0.30969696969697,5.53557440128326,-2.89313625469208,-0.405617233371735
0.31030303030303,0.8245709833145141,1.32209812030792,0.16679243459701498
0.310909090909091,-3.97265313777924,2.63217380390167,1.35951216115951
0.311515151515152,1.56702703800201,-2.50035305156708,-0.8846211396217349
0.312121212121212,0.798225768470764,-0.708878442192078,-0.33137162790298497
0.312727272727273,1.48080633487701,0.5604819093704221,0.533230422878265
0.313333333333333,-0.303483215904236,0.17488376483917198,-0.551713424777985
0.313939393939394,-4.26484552059174,1.48016940937042,1.01941938772201
0.314545454545455,2.95134832706451,-2.19139553203583,-0.0798945771217351
0.315151515151515,2.30948309268951,-2.19858059062958,-0.233175827121735
0.315757575757576,-4.74145440731049,4.18654147968292,0.04943647756576491
0.316363636363636,0.46052801456451403,-0.8190493406295779,0.636216262722015
0.316969696969697,2.52024481143951,-1.87525295391083,-1.05945756540299
0.317575757575758,0.242581237220764,0.8215390382766721,-0.30263139352798496
0.318181818181818,1.28920477237701,-0.601102563285828,-0.0727095185279851
0.318787878787879,-3.6828557744979897,1.54243991718292,0.470959915065765
0.319393939393939,-0.748956848716736,-0.14365383281707803,0.643401321315765
0.32,4.42428533878326,-1.31721340312958,0.0973368681907649
0.320606060606061,-3.38826837215424,2.12921970233917,0.08536177053451491
0.321212121212121,-0.26755792293548597,0.713763159370422,-1.81388871774674
0.321818181818182,2.6711310419082603,-2.88355617656708,1.11282514944076
0.322424242424242,-0.054401184654235796,1.04427585468292,-0.819955612277985
0.323030303030303,2.24242254581451,0.263499487495422,0.526045364284515
0.323636363636364,-3.93433282527924,0.567666967964172,-0.0391792450904851
0.324242424242424,-3.45053887996674,0.100638159370422,-0.328976608371735
0.324848484848485,5.76789129581451,-1.92315334453583,0.858953079128265
0.325454545454545,-0.998038879966736,2.39506687030792,-0.851090866184235
0.326060606060606,-1.97041680965424,0.874229467964172,0.945173782253265
0.326666666666667,2.90584295597076,-2.11954494609833,-1.58636186227799
0.327272727272727,-0.705846497154236,-0.24424465312957802,0.619451126003265
0.327878787878788,2.04603094425201,1.16163181171417,0.214692825222015
0.328484848484848,-2.2721892705917397,0.7041830812454221,-0.774450241184235
0.329090909090909,-4.7486394659042395,-0.0143227781295776,0.947568801784515
0.32969696969697,5.48048895206451,-2.50035305156708,-0.628354049777985
0.33030303030303,1.1239484247207598,0.773638647651672,-0.17809037790298501
0.330909090909091,-4.25526544246674,2.89323093280792,1.11761518850326
0.331515151515152,1.5215216669082599,-2.42850246562958,-0.843905807590485
0.332121212121212,0.692844909095764,-1.27889309062958,0.09494184865951491
0.332727272727273,1.2221442255020099,0.8574643312454221,0.300913528347015
0.333333333333333,-0.0951165166854858,0.299424780464172,-0.336161666965485
0.333939393939394,-4.18101983699799,1.73164646015167,0.480539993190765
0.334545454545455,2.5944904169082603,-2.12912502422333,0.253013137722015
0.335151515151515,2.44599920597076,-1.99260891094208,-0.5852436982154849
0.335757575757576,-4.93784600887299,3.90153415546417,-0.0607344208717351
0.336363636363636,0.034214538002014204,-0.761568871879578,1.18467573537826
0.336969696969697,3.2195905145645103,-1.76747707500458,-1.63426225290299
0.337575757575758,0.712005065345764,0.172488745307922,0.269778274440765
0.338181818181818,1.5047565301895098,-0.172394067192078,-0.609193893527985
0.338787878787879,-5.00490655574799,1.25982761249542,0.0685966338157649
0.339393939393939,-0.5932805791854859,-0.222689477348328,1.10803511037826
0.34,4.625466979408261,-1.36511379375458,0.43503462209701504
0.340606060606061,-3.5367595830917398,2.62259372577667,0.554785598659515
0.341212121212121,-0.42802423152923597,0.488631323432922,-0.621168991184235
0.341818181818182,2.74537664737701,-3.12784816875458,-0.295446334934235
0.342424242424242,-0.140621887779236,0.9604501710891721,-0.0319941864967351
0.343030303030303,2.03884588565826,0.649097632026672,0.37515913381576504
0.343636363636364,-3.78344659481049,0.227574194526672,0.121287063503265
0.344242424242424,-3.55112970027924,0.332955053901672,0.588315872097015
0.344848484848485,5.77028631534576,-1.23099270000458,0.348813918972015
0.345454545454545,-1.4554876104354901,1.3939487062454199,-0.348136764621735
0.346060606060606,-2.37757012996674,1.29575290546417,0.0135111845970149
0.346666666666667,2.2615827020645103,-2.38539211406708,-0.963656784152985
0.347272727272727,-0.253187805747986,-0.0191128171920776,-0.041574264621735094
0.347878787878788,2.79806707706451,0.953265112495422,0.775127395534515
0.348484848484849,-2.95476983699799,0.201228979682922,0.0733866728782649
0.349090909090909,-5.22045831356049,0.790403784370422,-0.0583394013404851
0.34969696969697,5.9690729364395105,-2.96019680156708,-0.115819870090485
0.35030303030303,1.0760480340957599,0.9604501710891721,-0.257126022434235
0.350909090909091,-4.25526544246674,3.84165866718292,0.617056106472015
0.351515151515152,1.62211248722076,-3.03923244609833,-0.609193893527985
0.352121212121212,0.850916198158264,-0.8956899656295779,-0.101449752902985
0.352727272727273,0.968272155189514,0.814353979682922,0.288938430690765
0.353333333333333,0.180310729408264,-0.313700219535828,-0.38166703805923496
0.353939393939394,-4.41094171199799,2.12682468280792,0.614661086940765
0.354545454545455,3.09744451847076,-1.99021389141083,-0.18767045602798502
0.355151515151515,2.75495672550201,-1.66928127422333,-0.118214889621735
0.355757575757576,-5.14621270809174,3.42013522968292,0.320073684597015
0.356363636363636,0.6233893426895141,-0.730433617973328,0.42784956350326503
0.356969696969697,2.52263983097076,-1.14716701641083,-0.738524948215485
0.357575757575758,0.616204284095764,0.529346655464172,0.0542265166282649
0.358181818181818,1.6628278192520098,-0.428661157035828,-0.259521041965485
0.358787878787879,-4.39417657527924,1.00356052265167,0.190742629909515
0.359393939393939,-0.665131165122986,-0.16041896953582802,0.391924270534515
0.36,3.76325994815826,-1.61180080547333,0.717646926784515
0.360606060606061,-2.92602960262299,2.37351169452667,-0.755290084934235
0.361212121212121,0.00307928409576415,0.627542456245422,-0.6451191864967349
0.361818181818182,2.42204901065826,-2.48598293437958,0.576340774440765
0.362424242424242,0.18510076847076398,0.955660132026672,-1.14328324899674
0.363030303030303,1.83047918643951,0.289844702339172,0.861348098659515
0.363636363636364,-3.66369561824799,0.596407202339172,0.28654341115951504
0.364242424242424,-3.4625139776229896,-0.25621975078582804,0.743992141628265
0.364848484848485,4.99190496768951,-1.43217434062958,0.432639602565765
0.365454545454545,-0.902238098716736,1.98072849140167,-0.867856002902985
0.366060606060606,-1.9560466924667401,0.950870092964172,0.581130813503265
0.366666666666667,2.5082697137832604,-1.99260891094208,-1.15765336618424
0.367272727272727,-0.37772882137298597,-0.284959985160828,0.13805220022201498
0.367878787878788,2.0987213739395103,0.706578100776672,0.408689407253265
0.368484848484848,-1.91054132137299,0.9029697023391721,-0.487047897434235
0.369090909090909,-5.06478204402924,0.13416843280792198,0.243433059597015
0.36969696969697,4.30453436222076,-3.03204738750458,-0.00564897165298514
0.37030303030303,2.40049383487701,1.40592380390167,0.279358352565765
0.370909090909091,-3.5295745244979897,3.01777194843292,0.401504348659515
0.371515151515152,0.877261413002014,-2.26324611797333,-0.28107621774673497
0.372121212121212,1.1071832880020098,-0.881319848442078,-0.190065475559235
0.372727272727273,1.35147528018951,0.17967380390167198,0.358393997097015
0.373333333333333,0.149175475502014,0.400015600776672,0.042251418972014905
0.373939393939394,-4.6288884893417395,1.90169284687042,-0.28347123727798496
0.374545454545455,2.4675543817520103,-2.31354152812958,0.559575637722015
0.375151515151515,3.66027410831451,-1.05376125469208,-0.602008834934235
0.375757575757576,-4.715109192466739,3.20697849140167,0.288938430690765
0.376363636363636,-0.502269836997986,-0.787914086723328,0.372764114284515
0.376969696969697,2.2280524286270103,-1.82974758281708,-1.10735795602799
0.377575757575758,1.00898748722076,0.5652719484329221,0.0685966338157649
0.378181818181818,1.87358953800201,-0.328070336723328,-0.367296920871735
0.378787878787879,-4.95700616512299,0.8215390382766721,0.00632612600326486
0.379393939393939,-0.837572571372986,-0.18436916484832802,0.981099075222015
0.38,3.98360174503326,-1.92315334453583,0.760757278347015
0.380606060606061,-2.74879815731049,2.86688571796417,-0.669069381809235
0.381212121212121,-0.188522278404236,0.359300268745422,-0.489442916965485
0.381818181818182,2.2448175653457603,-2.51711818828583,-0.16132524118423502
0.382424242424242,0.223421080970764,0.831119116401672,-0.913361373996735
0.383030303030303,2.35977850284576,0.18446384296417198,0.545205520534515
0.383636363636364,-4.14748956356049,1.18797702655792,-0.252335983371735
0.384242424242424,-3.90798761043549,-0.8190493406295779,0.391924270534515
0.384848484848485,5.87327215518951,-1.43456936016083,1.00025923147201
0.385454545454545,-1.2758611455917401,2.15316989765167,-0.259521041965485
0.386060606060606,-1.9177263799667401,0.325769995307922,0.0111161650657649
0.386666666666667,2.64239080753326,-1.93991848125458,-1.09777787790299
0.387272727272727,-0.729796692466736,-0.387945825004578,0.8517680205345151
0.387878787878788,2.32624822940826,1.25024753437042,-0.5062080536842349
0.388484848484848,-2.12130304012299,0.555691870307922,0.528440383815765
0.389090909090909,-4.91868585262299,0.5197665773391721,0.109311965847015
0.38969696969697,4.95597967472076,-2.85242092266083,-0.5876387177467349
0.39030303030303,1.26285955753326,0.570061987495422,0.8110526885032651
0.390909090909091,-3.6996209112167397,3.63089694843292,-0.09426469430923509
0.391515151515152,1.07365301456451,-2.49077297344208,-0.257126022434235
0.392121212121212,0.814990905189514,-1.10166164531708,-0.27149613962173497
0.392727272727273,1.6628278192520098,0.16051364765167198,0.288938430690765
0.393333333333333,-0.0879314580917358,0.41199069843292196,-0.46309770212173496
0.393939393939394,-4.50195245418549,2.17712009296417,0.30809858694076503
0.394545454545455,1.9190949090957599,-2.97217189922333,0.820632766628265
0.395151515151515,3.4327472528457603,-1.24775783672333,-1.49056108102799
0.395757575757576,-4.98095636043549,3.67879733905792,0.801472610378265
0.396363636363636,-0.0376360479354858,-0.20352932109832803,0.31528364553451504
0.396969696969697,2.96092840518951,-2.01176906719208,-0.728944870090485
0.397575757575758,0.261741393470764,0.337745092964172,0.341628860378265
0.398181818181818,2.00531561222076,0.210809057807922,-0.714574752902985
0.398787878787879,-4.58098809871674,-0.0430630125045776,1.09845503225326
0.399393939393939,-0.799252258872986,0.912549780464172,-1.08101274118424
0.4,3.55728826847076,-2.21534572734833,1.65409956350326
0.400606060606061,-2.7440081182479896,2.77347995624542,-0.779240280246735
0.401212121212121,-0.363358704185486,0.7185531984329221,0.195532668972015
0.401818181818182,2.15620184268951,-3.04402248516083,0.423059524440765
0.402424242424242,0.47729315128326405,1.62866062030792,-1.67258256540299
0.403030303030303,1.84724432315826,-0.13407375469207802,1.71637007131576
0.403636363636364,-3.26612237606049,0.974820288276672,-1.19597367868424
0.404242424242424,-4.3031658330917395,-0.605892602348328,0.952358840847015
0.404848484848485,5.5499445184707605,-1.52318508281708,0.269778274440765
0.405454545454545,-0.291508118247986,1.80589206562042,-0.269101120090485
0.406060606060606,-2.23147393856049,1.77236179218292,-0.0583394013404851
0.406666666666667,2.48192449893951,-2.42610744609833,-0.879831100559235
0.407272727272727,-0.550170227622986,-0.7591738523483279,0.43503462209701504
0.407878787878788,2.1250665887832603,1.16163181171417,-0.17809037790298501
0.408484848484849,-2.0302922979354903,0.464681128120422,0.238643020534515
0.409090909090909,-5.15339776668549,0.8047739015579221,0.576340774440765
0.40969696969697,4.75000799503326,-2.84044582500458,0.22187788381576498
0.41030303030303,1.41614080753326,0.486236303901672,-0.642724166965485
0.410909090909091,-4.31514093074799,2.79503513202667,0.688906692409515
0.411515151515152,1.2868097528457598,-1.71718166484833,-1.11933305368424
0.412121212121212,0.589859069252014,-0.8358144773483279,-0.20683061227798502
0.412727272727273,1.3371051630020099,0.613172339057922,0.44700971975326503
0.413333333333333,0.237791198158264,0.150933569526672,-1.01155717477799
0.413939393939394,-4.77977471981049,1.58555026874542,0.758362258815765
0.414545454545455,2.12746160831451,-1.91357326641083,0.17637251272201498
0.415151515151515,3.2100104364395103,-1.81058742656708,-0.635539108371735
0.415757575757576,-4.90910577449799,3.55186130390167,0.502095168972015
0.416363636363636,-0.0280559698104858,-0.522066918754578,0.114102004909515
0.416969696969697,3.08067938175201,-2.18900051250458,-0.659489303684235
0.417575757575758,0.8054108270645141,0.629937475776672,0.12607710256576501
0.418181818181818,1.58858221378326,-0.280169946098328,-0.690624557590485
0.418787878787879,-4.65044366512299,1.36760349140167,0.506885208034515
0.419393939393939,-1.2758611455917401,-0.0239028562545776,0.765547317409515
0.42,4.34764471378326,-2.05487941875458,-0.549318405246735
0.420606060606061,-2.85657403621674,2.35914157733917,0.00632612600326486
0.421212121212121,-0.808832336997986,0.9221298585891721,-0.563688522434235
0.421818181818182,2.46994940128326,-2.63926418437958,-0.0631294404029851
0.422424242424242,-0.272347961997986,0.7185531984329221,-0.17809037790298501
0.423030303030303,2.40049383487701,0.337745092964172,0.00153608694076486
0.423636363636364,-3.45772393856049,0.550901831245422,0.00393110647201486
0.424242424242424,-4.07803399715424,0.486236303901672,0.0135111845970149
0.424848484848485,6.00499822940826,-1.94710353984833,1.59901411428451
0.425454545454545,-0.394493958091736,2.15077487812042,-0.843905807590485
0.426060606060606,-2.74640313777924,1.09696628437042,0.21708784475326498
0.426666666666667,2.5681452020645104,-2.32791164531708,-0.716969772434235
0.427272727272727,-0.519034973716736,0.12458835468292201,-0.0272041474342351
0.427878787878788,2.11309149112701,0.7425033937454221,0.643401321315765
0.428484848484848,-1.38603204402924,0.615567358589172,-0.556503463840485
0.429090909090909,-5.75215264949799,0.610777319526672,0.8900883330345151
0.42969696969697,4.61109686222076,-2.73506496562958,-0.681044479465485
0.43030303030303,2.03405584659576,0.105428198432922,0.150027297878265
0.430909090909091,-3.97265313777924,3.50396091327667,1.35711714162826
0.431515151515152,1.42093084659576,-1.93991848125458,-0.6451191864967349
0.432121212121212,0.829361022377014,-1.93033840312958,0.523650344753265
0.432727272727273,1.5263117059707598,1.04906589374542,-0.374481979465485
0.433333333333333,0.027029479408264202,-0.0454580320358276,-0.103844772434235
0.433939393939394,-4.73187432918549,2.06934421405792,0.693696731472015
0.434545454545455,2.06998113956451,-2.25606105937958,0.130867141628265
0.435151515151515,3.8854059442520104,-2.29198635234833,-0.637934127902985
0.435757575757576,-5.28991387996674,3.87758396015167,0.43742964162826503
0.436363636363636,-0.444789368247986,-0.146048852348328,0.430244583034515
0.436969696969697,3.6219537958145103,-2.05248439922333,-0.693019577121735
0.437575757575758,-0.198102356529236,0.103033178901672,0.272173293972015
0.438181818181818,1.71551824893951,-0.263404809379578,-1.10496293649674
0.438787878787879,-3.55352471981049,0.22517917499542198,1.10564009084701
0.439393939393939,-1.5105730596542402,0.946080053901672,-0.180485397434235
0.44,3.91654119815826,-1.97823879375458,0.997864211940765
0.440606060606061,-3.03141046199799,2.47410251483917,-0.673859420871735
0.441212121212121,-0.509454895591736,0.49102634296417197,-0.554108444309235
0.441818181818182,2.60886053409576,-3.09192287578583,0.188347610378265
0.442424242424242,-0.147806946372986,1.65021579608917,-1.45463578805924
0.443030303030303,2.31666815128326,-0.591522485160828,1.72834516897201
0.443636363636364,-2.93560968074799,1.11373142108917,-1.33727983102799
0.444242424242424,-4.36783136043549,0.294634741401672,0.8110526885032651
0.444848484848485,4.97992987003326,-1.92075832500458,0.557180618190765
0.445454545454545,-0.052006165122985795,1.20234714374542,-0.28347123727798496
0.446060606060606,-2.7943035284042397,2.16993503437042,0.0518314970970149
0.446666666666667,2.39570379581451,-2.12912502422333,-1.01395219430924
0.447272727272727,-0.665131165122986,-1.10884670391083,0.906853469753265
0.447878787878788,1.92867498722076,1.67177097187042,-0.6666743622779849
0.448484848484848,-1.28304620418549,-0.423871117973328,0.7511772002220151
0.449090909090909,-4.8755755010604895,1.38436862812042,-0.259521041965485
0.44969696969697,4.60870184268951,-2.42371242656708,-0.384062057590485
0.45030303030303,2.0819562372207603,-0.5603872312545779,0.43503462209701504
0.450909090909091,-3.92475274715424,3.97817478046417,-0.144560104465485
0.451515151515152,0.932346862220764,-2.01176906719208,-0.338556686496735
0.452121212121212,0.946716979408264,-1.75310695781708,0.15242231740951498
0.452727272727273,1.15268865909576,1.20474216327667,-0.111029831027985
0.453333333333333,0.441367858314514,-0.0933584226608276,0.0230912627220149
0.453939393939394,-4.30556085262299,2.06694919452667,0.41587446584701504
0.454545454545455,0.994617370033264,-2.05008937969208,-0.08707963571548509
0.455151515151515,4.38836004581451,-2.51232814922333,-0.556503463840485
0.455757575757576,-5.12944757137299,3.71951267108917,0.755967239284515
0.456363636363636,-1.14413507137299,0.493421362495422,-0.5876387177467349
0.456969696969697,3.6650641473770103,-2.75662014141083,0.360789016628265
0.457575757575758,0.180310729408264,0.493421362495422,-0.396037155246735
0.458181818181818,1.91190985050201,0.0503427492141724,-0.831930709934235
0.458787878787879,-3.54873468074799,0.306609839057922,1.03139448537826
0.459393939393939,-1.63750909481049,0.7999838624954221,-0.494232956027985
0.46,3.96683660831451,-2.39736721172333,0.937988723659515
0.460606060606061,-2.26979425106049,2.64893894062042,-0.37208695993423496
0.461212121212121,-1.29023126277924,1.07301608905792,1.41938764944076
0.461818181818182,2.89865789737701,-2.83565578594208,-0.712179733371735
0.462424242424242,-0.265162903404236,0.6251474367141721,-0.7073896943092349
0.463030303030303,2.28313787784576,0.651492651557922,0.835002883815765
0.463636363636364,-2.1955486455917397,0.191648901557922,-0.225990768527985
0.464242424242424,-5.1677678838729895,0.150933569526672,0.981099075222015
0.464848484848485,5.37510809268951,-1.74352687969208,0.566760696315765
0.465454545454545,0.589859069252014,0.914944799995422,0.250618118190765
0.466060606060606,-2.4350505987167397,2.83096042499542,-1.01155717477799
0.466666666666667,2.4579743036270103,-2.50035305156708,-0.503813034152985
0.467272727272727,-0.296298157310486,-0.823839379692078,0.36797407522201503
0.467878787878788,1.71312322940826,1.10415134296417,-0.0319941864967351
0.468484848484849,-1.04354425106049,0.0431576906204224,0.432639602565765
0.469090909090909,-4.91150079402924,1.35083835468292,0.38713423147201503
0.46969696969697,3.85906072940826,-2.18660549297333,-0.563688522434235
0.47030303030303,2.85315252628326,-1.39864406719208,1.00744429006576
0.470909090909091,-4.34867120418549,4.48112888202667,-0.860670944309235
0.471515151515151,0.752720397377014,-1.40343410625458,-0.594823776340485
0.472121212121212,1.14789862003326,-2.74464504375458,0.6913017119407651
0.472727272727273,0.879656432533264,1.31012302265167,-0.994792038059235
0.473333333333333,0.6617096551895141,-0.608287621879578,0.794287551784515
0.473939393939394,-4.47800225887299,2.19149021015167,-0.386457077121735
0.474545454545455,0.599439147377014,-1.52318508281708,0.245828079128265
0.475151515151515,4.6446271356582605,-2.77817531719208,-0.276286178684235
0.475757575757576,-4.64565362606049,2.67049411640167,0.09015180959701491
0.476363636363636,-1.57763360652924,1.10415134296417,-1.02832231149674
0.476969696969697,3.34413153018951,-2.63926418437958,0.09254682912826491
0.477575757575758,0.352752135658264,0.18925388202667198,-0.0367842255592351
0.478181818181818,1.85203436222076,0.608382299995422,-1.42589555368424
0.478787878787879,-3.3499480596542397,-0.162813989067078,1.26850141897201
0.479393939393939,-1.96562677059174,0.9604501710891721,-0.38166703805923496
0.48,4.65899725284576,-1.70520656719208,0.861348098659515
0.480606060606061,-2.2721892705917397,1.67895603046417,-0.00564897165298514
0.481212121212121,-2.18836358699799,1.34844333515167,-0.499022995090485
0.481818181818182,3.4064020380020104,-2.87397609844208,-0.254731002902985
0.482424242424242,-0.337013489341736,0.665862768745422,-0.554108444309235
0.483030303030303,1.75144354190826,0.340140112495422,0.868533157253265
0.483636363636364,-1.50338800106049,0.6179623781204221,-0.503813034152985
0.484242424242424,-5.87669366512299,0.158118628120422,1.06971479787826
0.484848484848485,4.94639959659576,-1.71478664531708,0.0326713408470149
0.485454545454545,1.01856756534576,0.790403784370422,-0.051154342746735096
0.486060606060606,-3.3762932744979897,2.83335544452667,-0.6259590302467349
0.486666666666667,2.61844061222076,-1.9590786375045801,-1.02592729196549
0.487272727272727,-0.363358704185486,-1.55432033672333,0.983494094753265
0.487878787878788,1.83526922550201,1.72446140155792,-1.23908403024674
0.488484848484848,-0.648366028404236,-0.208319360160828,0.260198196315765
0.489090909090909,-5.86471856746674,1.53525485858917,1.19186079397201
0.48969696969697,4.46021063175201,-0.941195336723328,-0.501418014621735
0.49030303030303,3.19564031925201,-2.10996486797333,1.20144087209701
0.490909090909091,-4.13790948543549,3.81291843280792,0.0662016142845149
0.491515151515152,0.5060333856582641,-1.41061916484833,-0.367296920871735
0.492121212121212,0.9036066278457641,-2.44526760234833,0.559575637722015
0.492727272727273,1.45446112003326,1.81068210468292,-0.173300338840485
0.493333333333333,0.8413361200332641,-1.0010708250045801,0.334443801784515
0.493939393939394,-4.43968194637299,2.02862888202667,-1.16004838571549
0.494545454545455,0.666499694252014,-1.4800747312545801,0.128472122097015
0.495151515151515,4.31650945987701,-2.36623195781708,0.5499955595970151
0.495757575757576,-5.14860772762299,3.19260837421417,0.09494184865951491
0.496363636363636,-1.15371514949799,0.7616635499954221,-0.657094284152985
0.496969696969697,2.9872736200332604,-2.84763088359833,0.688906692409515
0.497575757575758,0.494058288002014,0.771243628120422,-1.28458940134049
0.498181818181818,2.1657819208145104,-0.0143227781295776,-0.678649459934235
0.498787878787879,-3.31162774715424,0.438335913276672,0.9715189970970151
0.499393939393939,-2.10693292293549,0.9796103273391721,-0.307421432590485
0.5,4.17041326847076,-1.99021389141083,1.62296430959701
0.500606060606061,-1.87222100887299,2.13400974140167,-0.702599655246735
0.501212121212121,-2.12848809871674,0.553296850776672,-0.307421432590485
0.501818181818182,3.03756903018951,-2.08361965312958,-0.769660202121735
0.502424242424242,-0.030450989341735797,1.02272067890167,-0.487047897434235
0.503030303030303,1.84963934268951,-0.342440453910828,0.7320170439720151
0.503636363636364,-1.52494317684174,0.5604819093704221,-0.932521530246735
0.504242424242424,-5.52223077449799,-0.0430630125045776,1.25892134084701
0.504848484848485,4.82904363956451,-0.888504907035828,-0.0176240693092351
0.505454545454545,0.7239801630020141,0.6251474367141721,0.918828567409515
0.506060606060606,-2.28416436824799,2.15316989765167,-1.13849320993424
0.506666666666667,2.2088922723770104,-1.84890773906708,-0.867856002902985
0.507272727272727,-1.00522393856049,-1.06334133281708,0.629031204128265
0.507878787878788,2.6040704950332603,1.52567478046417,-0.479862838840485
0.508484848484849,-0.394493958091736,-0.131678735160828,1.05294966115951
0.509090909090909,-5.80963311824799,1.70769626483917,-0.834325729465485
0.50969696969697,2.80285711612701,-2.04290432109833,0.133262161159515
0.51030303030303,3.9117511590957603,-0.7927041257858279,0.559575637722015
0.510909090909091,-4.15467462215424,3.21176853046417,-0.657094284152985
0.511515151515151,-0.016080872154235797,-1.31242336406708,-0.36250688180923496
0.512121212121212,1.45446112003326,-2.40215725078583,0.49730512990951503
0.512727272727273,0.647339538002014,0.931709936714172,-0.537343307590485
0.513333333333333,1.58379217472076,0.488631323432922,-0.611588913059235
0.513939393939394,-4.5091375127792395,0.6634677492141721,1.01702436819076
0.514545454545455,-0.0376360479354858,-0.610682641410828,-1.02592729196549
0.515151515151515,4.61109686222076,-2.15307521953583,0.545205520534515
0.515757575757576,-3.6996209112167397,2.44775729999542,0.775127395534515
0.516363636363636,-1.4890178838729902,1.34604831562042,-1.54804154977799
0.516969696969697,2.31906317081451,-3.22364895000458,1.20383589162826
0.517575757575758,0.9826422723770141,0.9820053468704221,-1.44505570993424
0.518181818181818,2.15380682315826,0.285054663276672,-0.309816452121735
0.518787878787879,-3.9654680791854897,0.383250464057922,0.700881790065765
0.519393939393939,-2.67694757137299,0.452706030464172,0.0135111845970149
0.52,4.73084783878326,-1.69802150859833,0.7511772002220151
0.520606060606061,-1.59439874324799,1.83463229999542,-0.0655244599342351
0.521212121212121,-1.69259454402924,1.05146091327667,-0.494232956027985
0.521818181818182,3.0495441278457602,-2.02613918437958,-0.518183151340485
0.522424242424242,-0.492689758872986,-0.0143227781295776,0.391924270534515
0.523030303030303,2.29990301456451,1.32449313983917,-1.38997026071549
0.523636363636364,-1.80755548152924,-0.864554711723328,1.60380415334701
0.524242424242424,-5.08873223934174,0.893389624214172,-0.937311569309235
0.524848484848485,4.16083319034576,-1.18309230937958,1.03618452444076
0.525454545454546,0.870076354408264,0.591617163276672,1.01223432912826
0.526060606060606,-2.26021417293549,2.47410251483917,-2.10608110055923
0.526666666666667,1.38261053409576,-2.32551662578583,0.7703373564720151
0.527272727272727,-0.126251770591736,-0.387945825004578,-0.6666743622779849
0.527878787878788,2.66634100284576,0.6610727296829221,0.423059524440765
0.528484848484848,-0.26755792293548597,0.388040503120422,0.42784956350326503
0.529090909090909,-5.37134454402924,0.970030249214172,-0.544528366184235
0.52969696969697,2.73579656925201,-2.25366603984833,0.0590165556907649
0.53030303030303,2.18015203800201,-1.14956203594208,0.528440383815765
0.530909090909091,-3.0936809698104897,3.99733493671417,-0.106239791965485
0.531515151515151,0.776670592689514,-1.16393215312958,-0.18288041696548502
0.532121212121212,0.527588561439514,-2.26324611797333,-0.728944870090485
0.532727272727273,1.16466375675201,0.768848608589172,-0.300236373996735
0.533333333333333,0.855706237220764,-0.5555971921920779,0.188347610378265
0.533939393939394,-3.8792473760604897,2.18909519062042,0.363184036159515
0.534545454545455,-0.37772882137298597,-0.8980849851608279,-0.252335983371735
0.535151515151515,3.94288641300201,-2.76141018047333,0.08536177053451491
0.535757575757576,-2.62665216121674,3.04172214374542,0.17158247365951498
0.536363636363636,-1.30699639949799,0.9197348390579221,-0.618773971652985
0.536969696969697,2.20649725284576,-2.62728908672333,0.0638065947532649
0.537575757575758,0.0581647333145142,0.553296850776672,-1.02113725290299
0.538181818181818,1.7562335809707599,-0.172394067192078,0.348813918972015
0.538787878787879,-2.25781915340424,0.7401083742141721,0.15242231740951498
0.539393939393939,-2.61707208309174,-0.0478530515670776,1.02899946584701
0.54,3.81355535831451,-1.25733791484833,-0.0631294404029851
0.540606060606061,-1.3093914190292402,1.4538241945266699,0.329653762722015
0.541212121212121,-1.98478692684174,1.23108737812042,-0.19725053415298502
0.541818181818182,2.5849103387832604,-1.94470852031708,-1.46182084665299
0.542424242424242,-0.396888977622986,-0.7160635007858279,0.559575637722015
0.543030303030303,1.66522283878326,1.48256442890167,-1.28937944040299
0.543636363636364,-0.454369446372986,-0.146048852348328,1.01462934865951
0.544242424242424,-5.28033380184174,0.328165014839172,-0.223595748996735
0.544848484848485,2.88907781925201,-0.900480004692078,0.178767532253265
0.545454545454545,2.01968572940826,-0.15562893047332801,1.39304243459701
0.546060606060606,-2.16441339168549,2.29208103046417,-1.38278520212174
0.546666666666667,1.3418952020645099,-1.19506740703583,-0.106239791965485
0.547272727272727,-0.30108819637298595,-1.43935939922333,-0.0152290497779851
0.547878787878788,1.97657537784576,0.706578100776672,-0.245150924777985
0.548484848484848,0.371912291908264,0.6969980226516721,0.439824661159515
0.549090909090909,-5.80484307918549,1.38436862812042,-0.328976608371735
0.54969696969697,1.46883123722076,-1.88962307109833,-0.00804399118423514
0.55030303030303,4.23747381534576,-1.98542385234833,1.18467573537826
0.550909090909091,-3.3068377080917397,3.84884372577667,-0.360111862277985
0.551515151515152,-0.550170227622986,-0.387945825004578,0.698486770534515
0.552121212121212,1.48559637393951,-2.48598293437958,-0.08947465524673509
0.552727272727273,0.719190123939514,0.670652807807922,-0.635539108371735
0.553333333333333,1.4664362176895098,-0.320885278129578,0.109311965847015
0.553939393939394,-3.81697686824799,1.73404147968292,-0.046364303684235095
0.554545454545455,-1.26149102840424,-0.102938500785828,-0.166115280246735
0.555151515151515,4.93202947940826,-3.40327541484833,0.15242231740951498
0.555757575757576,-2.67215753231049,2.10766452655792,0.229062942409515
0.556363636363636,-2.2554241338729897,2.14119479999542,-0.24275590524673502
0.556969696969697,2.35019842472076,-3.14221828594208,0.698486770534515
0.557575757575758,0.529983580970764,1.03948581562042,-1.45224076852799
0.558181818181818,2.29990301456451,-0.5579922117233279,0.561970657253265
0.558787878787879,-2.20752374324799,0.627542456245422,-0.920546432590485
0.559393939393939,-4.07803399715424,0.807168921089172,0.43742964162826503
0.56,4.45302557315826,-2.03092922344208,1.02660444631576
0.560606060606061,-0.296298157310486,1.58315524921417,-0.252335983371735
0.561212121212121,-3.31402276668549,2.16993503437042,-0.273891159152985
0.561818181818182,3.10223455753326,-2.22253078594208,-1.20794877634049
0.562424242424242,0.45094793643951403,-0.922035180473328,0.779917434597015
0.563030303030303,1.72749334659576,1.80589206562042,-1.51930131540299
0.563636363636364,-0.7130315557479859,-0.670558129692078,0.8110526885032651
0.564242424242424,-5.68509210262299,0.7616635499954221,1.05534468069076
0.564848484848485,4.02910711612701,-0.301725121879578,-0.872646041965485
0.565454545454545,2.06279608097076,-0.6777431882858279,1.19425581350326
0.566060606060606,-3.1272112432479897,3.07285739765167,-1.49535112009049
0.566666666666667,1.68917303409576,-1.78424221172333,0.389529251003265
0.567272727272727,-0.116671692466736,-1.01544094219208,-0.168510299777985
0.567878787878788,1.45206610050201,0.8838095460891721,0.106916946315765
0.568484848484848,0.6257843622207641,-0.24903469219207802,0.866138137722015
0.569090909090909,-5.7401775518417395,2.24178562030792,-1.57917680368424
0.56969696969697,1.46883123722076,-2.18900051250458,1.34753706350326
0.57030303030303,4.80748846378326,-1.41780422344208,-0.223595748996735
0.570909090909091,-3.78344659481049,3.80573337421417,-0.554108444309235
0.571515151515152,-0.998038879966736,-0.5388320554733279,0.506885208034515
0.572121212121212,1.68917303409576,-2.51951320781708,-1.09538285837174
0.572727272727273,0.443762877845764,0.356905249214172,-0.245150924777985
0.573333333333333,1.42572088565826,0.404805639839172,-0.597218795871735
0.573939393939394,-3.30923272762299,1.57118015155792,0.657771438503265
0.574545454545455,-1.06030938777924,0.15572360858917197,-0.21641069040298502
0.575151515151515,4.24705389347076,-4.04274562969208,-0.218805709934235
0.575757575757576,-2.84699395809174,2.00228366718292,0.042251418972014905
0.576363636363636,-2.21710382137299,2.48847263202667,0.25780317678451503
0.576969696969697,2.85794256534576,-2.97935695781708,0.382344192409515
0.577575757575758,0.285691588783264,0.668257788276672,-1.42829057321549
0.578181818181818,2.17057195987701,-1.27889309062958,0.748782180690765
0.578787878787879,-1.90096124324799,0.869439428901672,-1.12651811227799
0.579393939393939,-4.6360735479354895,1.86337253437042,0.736807083034515
0.58,4.18238836612701,-2.67039943828583,1.63733442678451
0.580606060606061,0.364727233314514,0.9436850343704221,-0.173300338840485
0.581212121212121,-3.03141046199799,2.40464694843292,0.492515090847015
0.581818181818182,2.8435724481582603,-2.50514309062958,-0.40082719430923497
0.582424242424242,0.592254088783264,-0.323280297660828,0.353603958034515
0.583030303030303,1.14310858097076,1.52088474140167,-0.630749069309235
0.583636363636364,-0.337013489341736,-0.6945083250045779,0.0733866728782649
0.584242424242424,-5.81442315731049,0.483841284370422,0.31767866506576503
0.584848484848485,3.2291705926895102,-1.73155178203583,0.264988235378265
0.585454545454545,2.88189276065826,0.395225561714172,-0.24275590524673502
0.586060606060606,-3.87685235652924,3.30517429218292,-0.225990768527985
0.586666666666667,1.8208991083145099,-1.82974758281708,-0.259521041965485
0.587272727272727,0.7623004755020141,-1.20225246562958,-1.12891313180924
0.587878787878788,0.592254088783264,0.41199069843292196,0.8493730010032651
0.588484848484848,1.7442584833145098,0.9005746828079221,-0.0200190888404851
0.589090909090909,-6.22636651668549,1.36999851093292,0.245828079128265
0.58969696969697,0.628179381752014,-1.72436672344208,-0.33137162790298497
0.59030303030303,5.32241766300201,-2.23450588359833,-0.695414596652985
0.590909090909091,-3.8720623174667397,3.34109958515167,0.250618118190765
0.591515151515152,-1.16569024715424,0.8622543703079221,-0.0104390107154851
0.592121212121212,2.08674627628326,-3.07515773906708,-0.800795456027985
0.592727272727273,0.47968817081451404,0.529346655464172,0.0302763213157649
0.593333333333333,1.1838239130020098,-0.13407375469207802,-0.19725053415298502
0.593939393939394,-3.1439763799667397,1.23348239765167,0.10452192678451501
0.594545454545455,-1.87701104793549,0.8814145265579221,0.461379836940765
0.595151515151515,5.01825018253326,-3.56374172344208,-0.367296920871735
0.595757575757576,-2.2889544073104897,1.49453952655792,0.243433059597015
0.596363636363636,-3.50801934871674,2.83096042499542,0.526045364284515
0.596969696969697,3.43753729190826,-2.88595119609833,0.039856399440764904
0.597575757575758,0.836546080970764,0.13895847187042198,-0.484652877902985
0.598181818181818,0.8628912958145141,0.0192074953079224,-0.714574752902985
0.598787878787879,-0.602860657310486,-0.21550441875457801,-0.446332565402985
0.599393939393939,-4.70073907527924,1.48256442890167,0.952358840847015
0.6,3.60039862003326,-1.80100734844208,0.655376418972015
0.600606060606061,0.714400084877014,0.285054663276672,-0.28347123727798496
0.601212121212121,-3.60382012996674,3.05609226093292,-0.41280229196548496
0.601818181818182,2.68310613956451,-2.33509670391083,0.116497024440765
0.602424242424242,0.599439147377014,-1.02502102031708,-0.41040727243423497
0.603030303030303,1.4353009637832599,0.9245248781204221,0.39671430959701504
0.603636363636364,-0.123856751060486,-0.12928371562957802,0.23145796194076498
0.604242424242424,-6.0395549932479895,1.5136996828079199,-0.7049946747779849
0.604848484848485,1.93346502628326,-2.00218898906708,1.00265425100326
0.605454545454545,3.94288641300201,-0.23466457500457802,-1.05945756540299
0.606060606060606,-3.96307305965424,2.58187839374542,0.353603958034515
0.606666666666667,1.27483465518951,-0.723248559379578,-0.494232956027985
0.607272727272727,1.25806951847076,-1.95189357891083,-0.233175827121735
0.607878787878788,0.405442565345764,0.479051245307922,0.7511772002220151
0.608484848484849,1.85203436222076,0.785613745307922,-0.45112260446548497
0.609090909090909,-6.28624200496674,0.6443075929641721,0.499700149440765
0.60969696969697,0.484478209877014,-0.969935571098328,-0.427172409152985
0.61030303030303,5.93075262393951,-2.41892238750458,0.09015180959701491
0.610909090909091,-3.80739679012299,3.36504978046417,0.516465286159515
0.611515151515152,-1.39321710262299,0.5652719484329221,0.49730512990951503
0.612121212121212,2.27595281925201,-3.05360256328583,-0.932521530246735
0.612727272727273,-0.138226868247986,0.649097632026672,0.547600540065765
0.613333333333333,1.42093084659576,0.498211401557922,-0.570873581027985
0.613939393939394,-2.7943035284042397,1.06583103046417,0.413479446315765
0.614545454545455,-2.23147393856049,0.771243628120422,0.173977493190765
0.615151515151515,4.92963445987701,-3.89425441875458,-0.27149613962173497
0.615757575757576,-1.4171672979354901,1.67416599140167,0.188347610378265
0.616363636363636,-4.22413018856049,3.07285739765167,0.18116255178451499
0.616969696969697,2.93458319034576,-2.49556301250458,-0.501418014621735
0.617575757575758,1.29399481143951,-0.0813833250045776,-0.34334672555923496
0.618181818181818,0.951507018470764,-0.30651516094207804,-0.384062057590485
0.618787878787879,-1.01480401668549,0.00483737812042238,-0.772055221652985
0.619393939393939,-4.70313409481049,1.83223728046417,1.21820600881576
0.62,3.7153595575332603,-1.53755520000458,0.40629438772201504
0.620606060606061,1.22932928409576,0.00483737812042238,-0.23796586618423501
0.621212121212121,-3.84811212215424,2.64414890155792,-0.285866256809235
0.621818181818182,2.41725897159576,-1.91117824687958,-0.8271406708717349
0.622424242424242,1.2005890497207599,-0.8525796140670779,0.353603958034515
0.623030303030303,1.38740057315826,1.08738620624542,0.518860305690765
0.623636363636364,0.486873229408264,-0.0933584226608276,-0.496627975559235
0.624242424242424,-5.75933770809174,0.890994604682922,-0.29065629587173497
0.624848484848485,1.5047565301895098,-0.9340102781295779,0.473354934597015
0.625454545454545,4.04108221378326,-0.5196718992233279,-0.14695512399673502
0.626060606060606,-3.8121868291854897,2.72078952655792,-0.30263139352798496
0.626666666666667,0.640154479408264,-0.37597072734832804,-0.851090866184235
0.627272727272727,1.51194158878326,-2.42610744609833,-0.602008834934235
0.627878787878788,0.141990416908264,0.325769995307922,0.458984817409515
0.628484848484849,1.9023297723770098,1.12810153827667,-0.317001510715485
0.629090909090909,-5.8335833135604895,1.05625095233917,0.6721415556907651
0.62969696969697,-0.928583313560486,-1.08010646953583,-0.46309770212173496
0.63030303030303,6.04810858097076,-2.98893703594208,-0.0200190888404851
0.630909090909091,-3.35473809871674,2.84772556171417,0.298518508815765
0.631515151515151,-2.2721892705917397,1.32449313983917,-0.5253682099342349
0.632121212121212,2.3046930536270103,-3.07276271953583,-0.348136764621735
0.632727272727273,-0.121461731529236,0.323374975776672,0.128472122097015
0.633333333333333,1.76341863956451,0.313794897651672,-0.453517623996735
0.633939393939394,-2.6649724737167397,0.7185531984329221,0.269778274440765
0.634545454545455,-2.49013604793549,1.18797702655792,0.509280227565765
0.635151515151515,4.64941717472076,-3.76013332500458,-0.43196244821548496
0.635757575757576,-1.13695001277924,1.36760349140167,-0.22120072946548502
0.636363636363636,-4.25526544246674,2.86209567890167,1.40741255178451
0.636969696969697,3.0471491083145104,-2.67997951641083,-0.772055221652985
0.637575757575758,1.26285955753326,-0.431056176567078,-0.0679194794654851
0.638181818181818,0.254556334877014,0.790403784370422,-1.16483842477799
0.638787878787879,0.254556334877014,0.110218237495422,-0.0248091279029851
0.639393939393939,-4.894735657310489,0.809563940620422,1.31879682912826
0.64,3.2195905145645103,-1.58066555156708,-0.779240280246735
0.640606060606061,1.96699529972076,-0.48614162578582804,1.38106733694076
0.641212121212121,-4.13072442684174,3.43211032733917,0.284148391628265
0.641818181818182,2.32385320987701,-1.85609279766083,-0.154140182590485
0.642424242424242,1.0473077997207598,-1.37229885234833,-0.419987350559235
0.643030303030303,1.2436994012832598,0.596407202339172,0.0638065947532649
0.643636363636364,0.939531920814514,-0.107728539848328,-0.0607344208717351
0.644242424242424,-6.42036309871674,1.35323337421417,-0.494232956027985
0.644848484848485,1.36105535831451,-0.941195336723328,0.6913017119407651
0.645454545454546,4.75479803409576,-0.7400136960983279,0.145237258815765
0.646060606060606,-3.53436456356049,2.62977878437042,-0.669069381809235
0.646666666666667,1.13352850284576,-0.40710598125457803,-0.769660202121735
0.647272727272727,1.35626531925201,-2.57459865703583,0.382344192409515
0.647878787878788,0.43897283878326404,1.28617282733917,-0.503813034152985
0.648484848484848,1.7346784051895099,0.574852026557922,-0.139770065402985
0.649090909090909,-5.02406671199799,0.435940893745422,1.03378950490951
0.64969696969697,-0.806437317466736,-0.6346328367233279,-0.609193893527985
0.65030303030303,5.71520086612701,-2.54346340312958,-0.111029831027985
0.650909090909091,-2.8637590948104896,2.24897067890167,0.779917434597015
0.651515151515151,-1.55607843074799,1.69572116718292,-0.978026901340485
0.652121212121212,2.13464666690826,-3.14461330547333,-0.257126022434235
0.652727272727273,-0.521429993247986,0.258709448432922,0.133262161159515
0.653333333333333,1.6963580926895099,0.162908667182922,-0.673859420871735
0.653939393939394,-2.2386589971542397,0.828724096870422,0.43742964162826503
0.654545454545455,-2.9044744268417397,1.45142917499542,0.190742629909515
0.655151515151515,4.565591491127011,-3.78168850078583,-0.36250688180923496
0.655757575757576,-0.26037286434173595,0.646702612495422,0.329653762722015
0.656363636363636,-4.56661798152924,3.63329196796417,0.0302763213157649
0.656969696969697,2.6208356317520103,-2.04050930156708,-0.613983932590485
0.657575757575758,1.3371051630020099,-0.9986758054733279,0.569155715847015
0.658181818181818,0.886841491127014,1.05385593280792,-1.13849320993424
0.658787878787879,-0.416049133872986,-1.08968654766083,0.573945754909515
0.659393939393939,-4.5426677862167395,1.97593845233917,-0.0128340302467351
0.66,2.6376007684707603,-1.47767971172333,1.10803511037826
0.660606060606061,2.14422674503326,-0.196344262504578,-0.408012252902985
0.661212121212121,-4.0037883916854895,2.97226657733917,-0.539738327121735
0.661818181818182,1.9190949090957599,-1.74831691875458,0.0111161650657649
0.662424242424242,1.84724432315826,-0.9723305906295779,-0.700204635715485
0.663030303030303,0.5635138544082641,0.594012182807922,0.966728958034515
0.663636363636364,1.6843829950332598,1.01074558124542,-1.05706254587174
0.664242424242424,-6.30300714168549,0.34253513202667196,0.621846145534515
0.664848484848485,0.0964850458145142,-0.6178677000045779,-0.125399948215485
0.665454545454545,4.94160955753326,-0.9388003171920779,0.25780317678451503
0.666060606060606,-3.52478448543549,2.24657565937042,0.516465286159515
0.666666666666667,0.42939276065826404,0.929314917182922,-1.44026567087174
0.667272727272727,1.3203400262832599,-3.02007228984833,0.339233840847015
0.667878787878788,0.0773248895645142,0.591617163276672,-0.520578170871735
0.668484848484848,2.32385320987701,1.13768161640167,-0.376876998996735
0.669090909090909,-4.75103448543549,0.835909155464172,0.9715189970970151
0.66969696969697,-1.8698259893417402,-0.16041896953582802,-0.779240280246735
0.67030303030303,6.01457830753326,-3.12784816875458,0.39671430959701504
0.670909090909091,-2.29374444637299,2.10287448749542,1.21341596975326
0.671515151515152,-2.4350505987167397,2.61061862812042,-0.379272018527985
0.672121212121212,2.13704168643951,-3.50386623516083,0.758362258815765
0.672727272727273,-0.217262512779236,0.651492651557922,-0.455912643527985
0.673333333333333,1.57900213565826,0.167698706245422,-0.510998092746735
0.673939393939394,-1.8530608526229901,0.35211521015167196,0.38713423147201503
0.674545454545455,-3.23498712215424,1.64063571796417,-0.13258500680923502
0.675151515151515,4.55122137393951,-3.39130031719208,0.15242231740951498
0.675757575757576,-0.147806946372986,0.809563940620422,0.463774856472015
0.676363636363636,-4.59775323543549,2.94592136249542,-0.254731002902985
0.676969696969697,2.67592108097076,-2.37581203594208,-0.621168991184235
0.677575757575758,1.26285955753326,-0.728038598442078,0.279358352565765
0.678181818181818,1.18621893253326,1.22869235858917,-1.03311235055924
0.678787878787879,-0.0927214971542358,-0.802284203910828,0.593105911159515
0.679393939393939,-4.97856134090424,1.89211276874542,-0.295446334934235
0.68,2.8076471551895104,-1.53516018047333,0.478144973659515
0.680606060606061,2.12985662784576,-0.14365383281707803,-0.34334672555923496
0.681212121212121,-3.9822332159042397,3.00819187030792,-0.0559443818092351
0.681818181818182,1.87119451847076,-1.65730617656708,-0.0032539521217351403
0.682424242424242,1.2868097528457598,-1.28368312969208,-0.930126510715485
0.683030303030303,1.00180242862701,0.464681128120422,-0.00564897165298514
0.683636363636364,1.75144354190826,0.126983374214172,-0.249940963840485
0.684242424242424,-6.1856511846542395,0.967635229682922,-0.09426469430923509
0.684848484848485,0.165940612220764,-0.340045434379578,0.30570356740951504
0.685454545454545,5.21224676456451,-0.831024438285828,0.5523905791282651
0.686060606060606,-2.73921807918549,1.97833347187042,-0.269101120090485
0.686666666666667,0.0797199090957642,0.12458835468292201,-0.9852119599342349
0.687272727272727,1.31794500675201,-2.24408596172333,-0.273891159152985
0.687878787878788,0.383887389564514,0.419175757026672,0.641006301784515
0.688484848484848,2.0915363153457602,1.52806979999542,-0.681044479465485
0.689090909090909,-4.75342950496674,0.34253513202667196,1.14156538381576
0.68969696969697,-1.88898614559174,-0.9579604734420779,-0.602008834934235
0.69030303030303,5.90440740909576,-2.42610744609833,-0.173300338840485
0.690909090909091,-2.25302911434174,2.31842624530792,1.07929487600326
0.691515151515152,-2.20991876277924,2.02383884296417,-1.27261430368424
0.692121212121212,2.27355779972076,-3.63798732891083,0.449404739284515
0.692727272727273,-0.126251770591736,0.5173715578079221,-0.379272018527985
0.693333333333333,2.16338690128326,0.304214819526672,-0.199645553684235
0.693939393939394,-2.0135271612167402,0.232364233589172,0.681721633815765
0.694545454545455,-3.42179864559174,2.13879978046417,-0.5277632294654849
0.695151515151515,4.9511896356582605,-3.70504787578583,0.18116255178451499
0.695757575757576,0.0821149286270142,0.0311825929641724,0.36557905569076504
0.696363636363636,-4.79893487606049,3.59976169452667,0.48772505178451503
0.696969696969697,2.4244440301895103,-1.93752346172333,-0.19246049509048502
0.697575757575758,1.73228338565826,-0.8190493406295779,0.123682083034515
0.698181818181818,1.4065607294082598,0.512581518745422,-0.453517623996735
0.698787878787879,-0.21965753231048601,-0.9723305906295779,0.23145796194076498
0.699393939393939,-4.98335137996674,1.59992038593292,-0.118214889621735
0.7,2.75495672550201,-1.34595363750458,0.5715507353782651
0.700606060606061,2.1657819208145104,-0.11491359844207799,0.9691239775657651
0.701212121212121,-4.37262139949799,3.21176853046417,-0.0559443818092351
0.701818181818182,2.04363592472076,-1.96865871562958,0.324863723659515
0.702424242424242,2.19452215518951,-1.21901760234833,-0.9852119599342349
0.703030303030303,0.304851745033264,0.8766244874954221,-0.0703144989967351
0.703636363636364,1.70354315128326,0.459891089057922,-0.0032539521217351403
0.704242424242424,-5.69706720027924,0.752083471870422,0.593105911159515
0.704848484848485,-0.212472473716736,-0.39752590312957803,0.34641889944076504
0.705454545454545,4.77635320987701,-1.19027736797333,0.7296220244407651
0.706060606060606,-2.9212395635604897,2.49565769062042,-0.309816452121735
0.706666666666667,0.304851745033264,0.828724096870422,-1.03550737009049
0.707272727272727,1.2556744989395099,-2.98414699687958,0.25780317678451503
0.707878787878788,0.07492987003326419,1.10175632343292,-0.8247456513404849
0.708484848484848,1.57421209659576,0.486236303901672,0.8709281767845151
0.709090909090909,-4.60733331356049,0.993980444526672,0.135657180690765
0.70969696969697,-2.42307550106049,-0.24424465312957802,-0.539738327121735
0.71030303030303,5.95949285831451,-3.26196926250458,0.133262161159515
0.710909090909091,-1.48183282527924,2.33040134296417,0.250618118190765
0.711515151515152,-2.97632501277924,2.17233005390167,-0.549318405246735
0.712121212121212,2.43881414737701,-3.24280910625458,0.22187788381576498
0.712727272727273,0.182705748939514,0.201228979682922,0.18116255178451499
0.713333333333333,1.16945379581451,0.450311010932922,-0.784030319309235
0.713939393939394,-1.0962346807479901,0.452706030464172,0.43503462209701504
0.714545454545455,-3.6924358526229897,1.89929782733917,0.293728469753265
0.715151515151515,4.21352362003326,-3.23801906719208,-0.398432174777985
0.715757575757576,1.02814764347076,-0.840604516410828,0.332048782253265
0.716363636363636,-5.14621270809174,4.57932468280792,-0.640329147434235
0.716969696969697,1.84005926456451,-2.05966945781708,0.573945754909515
0.717575757575758,2.17296697940826,-1.45133449687958,-0.44154252634048496
0.718181818181818,1.2987848505020099,0.953265112495422,-0.417592331027985
0.718787878787879,0.376702330970764,-1.11124172344208,0.818237747097015
0.719393939393939,-4.64804864559174,2.32800632343292,-1.52169633493424
0.72,1.19340399112701,-1.53755520000458,1.33316694631576
0.720606060606061,3.44472235050201,-0.5148818601608279,-0.18767045602798502
0.721212121212121,-4.21455011043549,2.84293552265167,-0.633144088840485
0.721818181818182,1.33471014347076,-1.09208156719208,-0.590033737277985
0.722424242424242,2.29271795597076,-1.72436672344208,-0.214015670871735
0.723030303030303,0.307246764564514,0.7975888429641721,0.0254862822532649
0.723636363636364,2.25918768253326,0.316189917182922,-0.305026413059235
0.724242424242424,-5.8599285284042395,0.486236303901672,0.743992141628265
0.724848484848485,-0.602860657310486,-0.0358779539108276,-0.276286178684235
0.725454545454545,5.29367742862701,-2.06924953594208,0.868533157253265
0.726060606060606,-2.71287286434174,2.67288913593292,-1.01634721384049
0.726666666666667,-0.346593567466736,0.807168921089172,-0.592428756809235
0.727272727272727,1.84963934268951,-3.20927883281708,0.293728469753265
0.727878787878788,0.161150573158264,1.14007663593292,-0.9852119599342349
0.728484848484849,1.98136541690826,0.38085544452667197,1.18228071584701
0.729090909090909,-3.83374200496674,0.895784643745422,0.205112747097015
0.72969696969697,-3.10565606746674,-0.304120141410828,-0.530158248996735
0.73030303030303,5.84453192081451,-3.43680568828583,0.803867629909515
0.730909090909091,-0.844757629966736,2.29208103046417,-0.09186967477798509
0.731515151515152,-3.1008660284042397,2.83335544452667,-0.903781295871735
0.732121212121212,1.99094549503326,-3.44159572734833,0.5523905791282651
0.732727272727273,0.307246764564514,-0.0813833250045776,-0.17809037790298501
0.733333333333333,1.34908026065826,0.507791479682922,-0.618773971652985
0.733939393939394,-1.12497491512299,0.141353491401672,0.516465286159515
0.734545454545455,-3.66130059871674,2.23460056171417,0.499700149440765
0.735151515151515,3.5093878778457603,-3.11587307109833,-0.46070268259048497
0.735757575757576,1.21016912784576,-1.27649807109833,0.351208938503265
0.736363636363636,-4.79174981746674,4.35419284687042,-0.649909225559235
0.736969696969697,1.34908026065826,-1.71478664531708,0.23145796194076498
0.737575757575758,2.32624822940826,-1.46091457500458,-0.0751045380592351
0.738181818181818,1.0257526239395098,0.9245248781204221,-0.879831100559235
0.738787878787879,0.894026549720764,-0.706483422660828,0.432639602565765
0.739393939393939,-4.85162530574799,1.84900241718292,-0.807980514621735
0.74,0.6832648309707641,-1.16632717266083,0.825422805690765
0.740606060606061,3.7920001825332603,-0.869344750785828,0.36797407522201503
0.741212121212121,-4.64565362606049,2.73036960468292,0.0566215361595149
0.741818181818182,0.738350280189514,-0.361600610160828,-0.8247456513404849
0.742424242424242,2.4579743036270103,-1.94949855937958,-0.168510299777985
0.743030303030303,0.034214538002014204,0.747293432807922,0.23145796194076498
0.743636363636364,1.97657537784576,0.19404392108917198,-0.41280229196548496
0.744242424242424,-5.04083184871674,0.9772153078079221,0.250618118190765
0.744848484848485,-2.03747735652924,-0.201134301567078,0.6122660674095151
0.745454545454545,4.98950994815826,-2.50993312969208,0.772732376003265
0.746060606060606,-2.2123137823104897,2.96268649921417,-1.1744185029029899
0.746666666666667,-0.859127747154236,1.06343601093292,0.22666792287826498
0.747272727272727,2.32385320987701,-2.78296535625458,-0.0583394013404851
0.747878787878788,-0.578910461997986,0.455101049995422,-0.551713424777985
0.748484848484849,1.87119451847076,0.258709448432922,0.808657668972015
0.749090909090909,-3.6229802862167397,1.09217624530792,-0.173300338840485
0.74969696969697,-3.45532891902924,0.594012182807922,-0.396037155246735
0.75030303030303,6.25168524112701,-3.34339992656708,0.657771438503265
0.750909090909091,-0.665131165122986,1.49214450702667,-0.475072799777985
0.751515151515151,-3.3930584112167397,2.65372897968292,-0.269101120090485
0.752121212121212,1.9023297723770098,-3.31705471172333,0.842187942409515
0.752727272727273,0.640154479408264,0.503001440620422,-0.9852119599342349
0.753333333333333,1.25806951847076,0.337745092964172,0.42545454397201504
0.753939393939394,-0.677106262779236,0.268289526557922,-0.127794967746735
0.754545454545455,-3.8984075323104896,2.01425876483917,-0.158930221652985
0.755151515151515,3.45430242862701,-2.99851711406708,0.799077590847015
0.755757575757576,1.77299871768951,-1.14237697734833,-0.17809037790298501
0.756363636363636,-4.70792413387299,3.95661960468292,0.0685966338157649
0.756969696969697,1.15508367862701,-1.30763332500458,0.262593215847015
0.757575757575758,2.16099188175201,-1.47528469219208,-0.714574752902985
0.758181818181818,1.5813971551895099,0.526951635932922,-0.0607344208717351
0.758787878787879,0.915581725502014,-0.12209865703582799,-0.0319941864967351
0.759393939393939,-5.21806329402924,1.66698093280792,0.037461379909514904
0.76,0.7623004755020141,-0.6130776609420779,0.9499638213157651
0.760606060606061,3.7249396356582603,-0.7735439695358279,0.6913017119407651
0.761212121212121,-3.82655694637299,2.75431979999542,0.145237258815765
0.761818181818182,0.556328795814514,-0.807074242973328,-0.218805709934235
0.762424242424242,2.37654363956451,-2.23211086406708,-0.0176240693092351
0.763030303030303,0.9443219598770141,1.05625095233917,-0.199645553684235
0.763636363636364,1.42572088565826,-0.0358779539108276,0.533230422878265
0.764242424242424,-5.82879327449799,0.728133276557922,-0.7073896943092349
0.764848484848485,-0.827992493247986,-0.471771508598328,0.755967239284515
0.765454545454545,5.06854559268951,-1.2405727781295801,1.30682173147201
0.766060606060606,-2.99548516902924,2.39506687030792,-1.7731733857154899
0.766666666666667,-0.226842590904236,0.42157077655792197,0.183557571315765
0.767272727272727,0.956297057533264,-2.28959133281708,-0.324186569309235
0.767878787878788,-0.188522278404236,0.48144626483917197,-0.532553268527985
0.768484848484848,2.6974762567520103,0.0239975343704224,0.885298293972015
0.769090909090909,-3.2637273565292397,1.59273532733917,-0.0774995575904851
0.76969696969697,-3.54154962215424,-0.241849633598328,-0.0224141083717351
0.77030303030303,4.92005438175201,-3.14940334453583,0.458984817409515
0.770909090909091,-0.602860657310486,2.16274997577667,0.255408157253265
0.771515151515151,-3.21822198543549,1.88013767108917,-0.37208695993423496
0.772121212121212,1.6795929559707599,-2.29438137187958,0.0542265166282649
0.772727272727273,0.5826740106582641,-0.0789883054733276,-0.259521041965485
0.773333333333333,1.30596990909576,0.15572360858917197,-0.539738327121735
0.773939393939394,-1.14413507137299,0.459891089057922,0.32725874319076503
0.774545454545455,-3.70441095027924,1.76996677265167,-0.0032539521217351403
0.775151515151515,3.4159821161270103,-2.39018215312958,0.379949172878265
0.775757575757576,1.50236151065826,-1.04418117656708,0.332048782253265
0.776363636363636,-4.295980774497989,3.91350925312042,-0.9444966279029849
0.776969696969697,1.00180242862701,-1.55192531719208,0.722436965847015
0.777575757575758,1.78736883487701,-1.24296779766083,-0.5469233857154849
0.778181818181818,1.6628278192520098,0.608382299995422,-0.08947465524673509
0.778787878787879,0.927556823158264,-0.423871117973328,0.43742964162826503
0.779393939393939,-5.45517022762299,1.73883151874542,-0.798400436496735
0.78,0.889236510658264,-1.19027736797333,0.806262649440765
0.780606060606061,3.4926227411270103,-0.6729531492233279,0.561970657253265
0.781212121212121,-4.20257501277924,2.87886081562042,-0.5469233857154849
0.781818181818182,0.9036066278457641,-0.8597646726608279,-0.561293502902985
0.782424242424242,2.23044744815826,-2.06445949687958,-0.810375534152985
0.783030303030303,0.26892645206451404,0.9173398195266721,-0.0200190888404851
0.783636363636364,1.5550519403457599,0.306609839057922,0.22187788381576498
0.784242424242424,-4.16185968074799,0.993980444526672,-0.384062057590485
0.784848484848485,-1.81234552059174,-0.742408715629578,0.490120071315765
0.785454545454545,4.7380328973770105,-1.12561184062958,-0.27149613962173497
0.786060606060606,-1.6183489385604901,1.94240817890167,-0.103844772434235
0.786666666666667,-0.875892883872986,1.00116550312042,-0.230780807590485
0.787272727272727,1.39937567081451,-2.25127102031708,-0.48225785837173496
0.787878787878788,-0.26037286434173595,-0.0286928953170776,0.037461379909514904
0.788484848484848,2.4507892450332602,0.6778378664016721,0.190742629909515
0.789090909090909,-3.26612237606049,0.6826279054641721,0.15721235647201498
0.78969696969697,-3.2206170049667397,0.294634741401672,-0.225990768527985
0.79030303030303,5.0637555536270105,-2.77817531719208,0.370369094753265
0.790909090909091,-0.293903137779236,1.56160007343292,-0.496627975559235
0.791515151515152,-3.39545343074799,2.41422702655792,0.16200239553451498
0.792121212121212,1.5861871942520098,-2.75901516094208,0.617056106472015
0.792727272727273,0.616204284095764,-0.19394924297332802,-0.48225785837173496
0.793333333333333,1.03533270206451,0.392830542182922,-0.467887741184235
0.793939393939394,-0.44718438777923597,0.354510229682922,0.0518314970970149
0.794545454545455,-3.7355462041854897,1.36760349140167,0.478144973659515
0.795151515151515,3.2291705926895102,-2.53388332500458,-0.0152290497779851
0.795757575757576,1.6963580926895099,-0.8334194578170779,0.0709916533470149
0.796363636363636,-4.32711602840424,3.61173679218292,-0.123004928684235
0.796969696969697,1.1023932489395099,-1.32200344219208,0.674536575222015
0.797575757575758,1.9023297723770098,-1.51120998516083,-1.1744185029029899
0.798181818181818,1.5047565301895098,0.5173715578079221,0.363184036159515
0.798787878787879,1.1023932489395099,-0.19394924297332802,0.253013137722015
0.799393939393939,-5.36894952449799,1.35323337421417,-0.743314987277985
0.8,0.6018341669082641,-0.862159692192078,1.74990034475326
0.800606060606061,3.6291388544082603,-1.19985744609833,0.0781767119407649
0.801212121212121,-3.27091241512299,2.58187839374542,-0.623564010715485
0.801818181818182,0.829361022377014,-0.0574331296920776,-0.396037155246735
0.802424242424242,1.87119451847076,-2.24648098125458,-0.551713424777985
0.803030303030303,0.795830748939514,0.826329077339172,0.26738325490951503
0.803636363636364,1.09520819034576,-0.141258813285828,0.27696333303451504
0.804242424242424,-4.26724054012299,0.708973120307922,-0.158930221652985
0.804848484848485,-2.25302911434174,-0.581942407035828,0.135657180690765
0.805454545454545,4.80748846378326,-1.00586086406708,-0.111029831027985
0.806060606060606,-1.38124200496674,2.13161472187042,-0.134980026340485
0.806666666666667,-1.24233087215424,0.5652719484329221,-0.266706100559235
0.807272727272727,1.7059381708145098,-2.39736721172333,-0.108634811496735
0.807878787878788,-0.708241516685486,0.273079565620422,-0.28107621774673497
0.808484848484848,2.5513800653457603,0.732923315620422,0.782312454128265
0.809090909090909,-2.51408624324799,1.24545749530792,-0.13258500680923502
0.80969696969697,-3.9151726690292397,-0.167604028129578,-0.570873581027985
0.81030303030303,5.33199774112701,-3.39369533672333,0.348813918972015
0.810909090909091,0.175520690345764,1.88971774921417,-0.130189987277985
0.811515151515152,-3.49843927059174,2.67767917499542,0.645796340847015
0.812121212121212,1.91669988956451,-2.81410061016083,-0.051154342746735096
0.812727272727273,0.606624205970764,-0.507696801567078,-0.628354049777985
0.813333333333333,1.1790338739395099,0.11979831562042201,0.0135111845970149
0.813939393939394,-0.305878235435486,0.20362399921417199,-0.307421432590485
0.814545454545455,-3.87685235652924,1.82026218280792,0.564365676784515
0.815151515151515,3.0399640497207603,-2.28959133281708,-0.154140182590485
0.815757575757576,1.90472479190826,-1.72436672344208,0.43503462209701504
0.816363636363636,-3.8960125127792398,4.12666599140167,-0.676254440402985
0.816969696969697,0.6856598505020141,-1.35553371562958,0.473354934597015
0.817575757575758,1.77539373722076,-1.54474025859833,-0.724154831027985
0.818181818181818,1.27243963565826,0.507791479682922,-0.7672651825904849
0.818787878787879,0.977852233314514,-1.01065090312958,0.300913528347015
0.819393939393939,-4.3366961065292395,1.94480319843292,-0.731339889621735
0.82,-0.588490540122986,-0.8118642820358279,0.928408645534515
0.820606060606061,4.2925592645645105,-0.771148950004578,0.332048782253265
0.821212121212121,-3.30923272762299,2.31363620624542,0.5116752470970151
0.821818181818182,0.240186217689514,-0.0909634031295776,-0.963656784152985
0.822424242424242,2.56575018253326,-2.44047756328583,0.23145796194076498
0.823030303030303,0.0390045770645142,0.946080053901672,-0.15174516305923502
0.823636363636364,2.0987213739395103,0.6251474367141721,0.583525833034515
0.824242424242424,-4.82767511043549,0.7640585695266721,-0.051154342746735096
0.824848484848485,-2.9212395635604897,-0.18915920391082802,-0.285866256809235
0.825454545454545,5.53557440128326,-1.95189357891083,1.26131636037826
0.826060606060606,-1.49141290340424,2.29926608905792,-1.02113725290299
0.826666666666667,-1.28304620418549,1.05146091327667,-0.273891159152985
0.827272727272727,2.0651911005020103,-2.84044582500458,-0.0583394013404851
0.827878787878788,-0.586095520591736,0.38085544452667197,-0.487047897434235
0.828484848484848,2.27355779972076,0.725738257026672,0.44700971975326503
0.829090909090909,-3.27091241512299,0.514976538276672,0.581130813503265
0.82969696969697,-4.18580987606049,0.953265112495422,-0.49183793649673496
0.83030303030303,5.76789129581451,-3.36256008281708,0.348813918972015
0.830909090909091,0.07492987003326419,1.41550388202667,-0.233175827121735
0.831515151515152,-3.78105157527924,2.83096042499542,0.28654341115951504
0.832121212121212,1.68917303409576,-3.13503322734833,-0.305026413059235
0.832727272727273,0.786250670814514,0.0718979249954224,-0.534948288059235
0.833333333333333,1.25088445987701,0.0551327882766724,0.5715507353782651
0.833939393939394,-0.605255676841736,0.632332495307922,-1.38757524118424
0.834545454545455,-4.32232598934174,1.71009128437042,0.8900883330345151
0.835151515151515,3.44711737003326,-2.59854885234833,-0.273891159152985
0.835757575757576,1.9143048700332599,-1.18788234844208,-0.453517623996735
0.836363636363636,-5.22524835262299,3.85123874530792,0.413479446315765
0.836969696969697,1.39219061222076,-1.03220607891083,0.130867141628265
0.837575757575758,2.06758612003326,-1.85609279766083,-0.364901901340485
0.838181818181818,1.15508367862701,0.934104956245422,-0.740919967746735
0.838787878787879,1.3754254755020099,-0.881319848442078,0.0662016142845149
0.839393939393939,-5.14381768856049,1.56399509296417,-0.08707963571548509
0.84,0.141990416908264,-0.270589867973328,1.22539106740951
0.840606060606061,3.97881170597076,-1.75071193828583,0.7511772002220151
0.841212121212121,-3.41461358699799,2.74234470233917,-1.01395219430924
0.841818181818182,0.29766668643951405,0.0838730226516724,-0.716969772434235
0.842424242424242,1.9574152215957599,-2.46682277812958,0.288938430690765
0.843030303030303,0.41023260440826403,1.05625095233917,-0.800795456027985
0.843636363636364,2.00771063175201,0.313794897651672,0.344023879909515
0.844242424242424,-4.595358215904239,0.42157077655792197,0.322468704128265
0.844848484848485,-2.66018243465424,-0.18436916484832802,-0.0679194794654851
0.845454545454545,5.34636785831451,-1.50402492656708,1.00744429006576
0.846060606060606,-1.70217462215424,2.13161472187042,-0.760080123996735
0.846666666666667,-1.42195733699799,0.8383041749954221,-0.0990547333717351
0.847272727272727,2.45557928409576,-2.29917141094208,-0.592428756809235
0.847878787878788,-0.624415833091736,0.25152438983917197,0.047041458034514906
0.848484848484849,2.71184637393951,0.589222143745422,0.626636184597015
0.849090909090909,-2.50690118465424,0.811958960151672,-0.738524948215485
0.84969696969697,-4.89713067684174,0.445520971870422,0.109311965847015
0.85030303030303,5.6696954950332605,-3.01767727031708,0.379949172878265
0.850909090909091,0.867681334877014,1.37239353046417,-0.556503463840485
0.851515151515152,-4.04929376277924,3.15189304218292,1.25173628225326
0.852121212121212,1.4832013544082598,-2.51711818828583,-0.125399948215485
0.852727272727273,0.652129577064514,-0.440636254692078,-0.47267778024673496
0.853333333333333,1.28441473331451,0.809563940620422,0.720041946315765
0.853939393939394,-0.684291321372986,-0.208319360160828,-0.429567428684235
0.854545454545454,-4.3031658330917395,1.33167819843292,0.10452192678451501
0.855151515151515,3.1261847528457603,-2.40934230937958,0.31767866506576503
0.855757575757576,2.32624822940826,-0.965145532035828,-0.0990547333717351
0.856363636363636,-4.82288507137299,3.86800388202667,-0.08707963571548509
0.856969696969697,0.31922186222076404,-1.54234523906708,0.626636184597015
0.857575757575758,2.34061834659576,-1.49444484844208,-1.39236528024674
0.858181818181818,0.580278991127014,0.474261206245422,0.08296675100326491
0.858787878787879,1.48080633487701,0.0503427492141724,-0.513393112277985
0.859393939393939,-4.36064630184174,0.835909155464172,0.545205520534515
0.86,-0.31066827449798595,-0.488536645317078,0.490120071315765
0.860606060606061,3.9213312372207603,-0.8118642820358279,0.154817336940765
0.861212121212121,-3.55831475887299,2.05497409687042,0.135657180690765
0.861818181818182,0.47729315128326405,0.356905249214172,-1.31811967477799
0.862424242424242,2.47234442081451,-2.85481594219208,0.391924270534515
0.863030303030303,-0.123856751060486,1.13768161640167,-1.56001664743424
0.863636363636364,2.2687677606582604,-0.17478908672332802,1.07450483694076
0.864242424242424,-3.75710137996674,0.253919409370422,0.188347610378265
0.864848484848485,-3.54873468074799,0.280264624214172,-0.45112260446548497
0.865454545454545,5.0038800653457605,-1.91117824687958,1.73074018850326
0.866060606060606,-0.7753020635604859,2.40704196796417,-0.733734909152985
0.866666666666667,-1.80516046199799,0.9796103273391721,0.08296675100326491
0.867272727272727,2.25679266300201,-2.49795803203583,-0.798400436496735
0.867878787878788,-0.617230774497986,4.73390579223755e-05,0.039856399440764904
0.868484848484849,1.9741803583145099,1.21192722187042,-0.0343892060279851
0.869090909090909,-1.92730645809174,0.9772153078079221,0.106916946315765
0.86969696969697,-4.90431573543549,0.0144174562454224,0.169187454128265
0.87030303030303,5.0709406122207605,-3.02007228984833,-0.448727584934235
0.870909090909091,1.10478826847076,1.32928317890167,0.5116752470970151
0.871515151515151,-3.8217669073104896,3.69077243671417,-0.106239791965485
0.872121212121212,1.48799139347076,-2.82607570781708,-0.46309770212173496
0.872727272727273,0.5227985223770141,-1.12321682109833,-0.254731002902985
0.873333333333333,1.4616461786270099,0.390435522651672,0.743992141628265
0.873939393939394,-0.111881653404236,0.6419125734329221,-0.36250688180923496
0.874545454545455,-4.31514093074799,2.28250095233917,0.557180618190765
0.875151515151515,2.63281072940826,-3.04402248516083,0.312888626003265
0.875757575757576,3.14055487003326,-1.63096096172333,-1.22471391305924
0.876363636363636,-5.10070733699799,4.08595065937042,0.655376418972015
0.876969696969697,0.06534979190826419,-0.433451196098328,0.303308547878265
0.877575757575758,2.9465582880020103,-1.99979396953583,-0.652304245090485
0.878181818181818,0.6257843622207641,0.287449682807922,-0.0822895966529851
0.878787878787879,1.90711981143951,-0.883714867973328,-0.31221147165298496
0.879393939393939,-4.48997735652924,1.59752536640167,0.837397903347015
0.88,-1.4985979619979901,0.136563452339172,0.564365676784515
0.880606060606061,4.77395819034576,-1.74352687969208,0.185952590847015
0.881212121212121,-3.02183038387299,2.77108493671417,0.916433547878265
0.881818181818182,-0.401679016685486,0.7209482179641721,-0.810375534152985
0.882424242424242,3.13815985050201,-2.87637111797333,-0.166115280246735
0.883030303030303,-0.703451477622986,0.766453589057922,-0.434357467746735
0.883636363636364,2.7501666864395102,0.634727514839172,0.243433059597015
0.884242424242424,-3.9487029424667397,0.36169528827667197,0.966728958034515
0.884848484848485,-3.98462823543549,0.344930151557922,-0.9468916474342349
0.885454545454545,6.24929022159576,-2.15547023906708,1.42657270803451
0.886060606060606,-1.0483342901229902,1.97593845233917,-0.41040727243423497
0.886666666666667,-2.12848809871674,1.95198825702667,-0.788820358371735
0.887272727272727,2.27355779972076,-2.60573391094208,-0.18288041696548502
0.887878787878788,-0.559750305747986,-0.742408715629578,0.08296675100326491
0.888484848484848,2.32385320987701,0.809563940620422,0.150027297878265
0.889090909090909,-2.1428582159042397,0.785613745307922,0.183557571315765
0.88969696969697,-5.11268243465424,0.668257788276672,0.566760696315765
0.89030303030303,5.0637555536270105,-2.96498684062958,-0.573268600559235
0.890909090909091,1.48559637393951,0.103033178901672,-0.125399948215485
0.891515151515151,-4.35346124324799,3.63089694843292,0.169187454128265
0.892121212121212,1.2221442255020099,-2.15068020000458,-0.503813034152985
0.892727272727273,1.11436834659576,-1.32200344219208,-0.103844772434235
0.893333333333333,1.49278143253326,0.5389267335891721,0.0518314970970149
0.893939393939394,0.10606512393951399,-0.148443871879578,-0.245150924777985
0.894545454545455,-3.98462823543549,2.46691745624542,0.329653762722015
0.895151515151515,1.7945538934707599,-2.39018215312958,0.255408157253265
0.895757575757576,3.4590924676895103,-1.8393276609420801,-0.697809616184235
0.896363636363636,-5.02406671199799,3.78417819843292,0.784707473659515
0.896969696969697,-0.5334050909042359,-0.172394067192078,0.238643020534515
0.897575757575758,3.4231671747207604,-1.86327785625458,-0.733734909152985
0.898181818181818,0.24497625675201398,0.158118628120422,0.593105911159515
0.898787878787879,2.07477117862701,-0.275379907035828,-0.398432174777985
0.899393939393939,-4.14748956356049,1.10415134296417,0.274568313503265
0.9,-1.32136651668549,0.0647128664016724,0.200322708034515
0.900606060606061,4.63983709659576,-1.96626369609833,0.521255325222015
0.901212121212121,-2.8637590948104896,2.61780368671417,-0.712179733371735
0.901818181818182,-0.6555510869979859,0.531741674995422,-0.24754594430923502
0.902424242424242,2.90105291690826,-2.73745998516083,-0.269101120090485
0.903030303030303,-0.25797784481048597,0.809563940620422,-1.32530473337174
0.903636363636364,2.4483942255020104,0.0168124757766724,0.667351516628265
0.904242424242424,-3.3236028448104897,0.634727514839172,-0.38166703805923496
0.904848484848485,-3.86487725887299,0.428755835151672,0.45658979787826504
0.905454545454545,5.19787664737701,-1.8992031492233301,1.18467573537826
0.906060606060606,-0.44957940731048596,1.34844333515167,-0.688229538059235
0.906666666666667,-2.17159845027924,1.68853610858917,0.121287063503265
0.907272727272727,2.4052838739395104,-1.83693264141083,-0.688229538059235
0.907878787878788,-0.341803528404236,-0.380760766410828,0.233852981472015
0.908484848484848,2.16338690128326,1.61668552265167,-0.424777389621735
0.909090909090909,-1.6135588994979901,0.0766879640579224,0.48533003225326504
0.90969696969697,-5.16537286434174,0.433545874214172,0.360789016628265
0.91030303030303,4.63504705753326,-2.09559475078583,-0.829535690402985
0.910909090909091,1.81371404972076,-0.318490258598328,1.03139448537826
0.911515151515152,-3.98462823543549,3.55425632343292,0.578735793972015
0.912121212121212,1.01617254581451,-1.67886135234833,-0.592428756809235
0.912727272727273,0.8628912958145141,-2.41173732891083,0.238643020534515
0.913333333333333,1.67240789737701,1.10654636249542,-0.654699264621735
0.913939393939394,0.122830260658264,0.177278784370422,0.41587446584701504
0.914545454545455,-4.42770684871674,2.45015231952667,0.253013137722015
0.915151515151515,1.28441473331451,-1.59503566875458,-0.652304245090485
0.915757575757576,3.7488898309707603,-2.80691555156708,0.0326713408470149
0.916363636363636,-4.49955743465424,3.59497165546417,0.389529251003265
0.916969696969697,-0.9908538213729859,0.613172339057922,-0.204435592746735
0.917575757575758,3.38005682315826,-2.28240627422333,-0.328976608371735
0.918181818181818,0.34077703800201403,0.534136694526672,-0.537343307590485
0.918787878787879,2.31427313175201,-0.747198754692078,-0.5660835419654849
0.919393939393939,-4.22173516902924,0.926919897651672,0.38713423147201503
0.92,-2.42068048152924,0.8622543703079221,0.777522415065765
0.920606060606061,4.37398992862701,-2.30635646953583,0.5116752470970151
0.921212121212121,-2.0662175909042397,2.40704196796417,-0.774450241184235
0.921818181818182,-1.31178643856049,1.12570651874542,0.0111161650657649
0.922424242424242,2.6878961786270104,-2.90271633281708,-0.951681686496735
0.923030303030303,-0.145411926841736,0.265894507026672,-0.35292680368423496
0.923636363636364,2.38372869815826,0.306609839057922,0.763152297878265
0.924242424242424,-3.23259210262299,0.7999838624954221,-0.807980514621735
0.924848484848485,-5.2611736455917395,0.103033178901672,0.643401321315765
0.925454545454545,6.11037908878326,-2.43568752422333,1.42657270803451
0.926060606060606,0.285691588783264,1.30293796405792,-0.254731002902985
0.926666666666667,-3.10565606746674,2.63217380390167,-0.994792038059235
0.927272727272727,2.06040106143951,-2.44526760234833,-0.233175827121735
0.927878787878788,-0.356173645591736,-1.00586086406708,0.09494184865951491
0.928484848484848,2.06040106143951,1.45621921405792,-0.635539108371735
0.929090909090909,-1.04114923152924,-0.105333520317078,1.01223432912826
0.92969696969697,-5.30188897762299,1.54243991718292,-0.47028276071548497
0.93030303030303,4.08898260440826,-2.30635646953583,-0.355321823215485
0.930909090909091,2.63999578800201,-0.900480004692078,0.842187942409515
0.931515151515152,-4.0900090948104895,3.93745944843292,-0.455912643527985
0.932121212121212,0.5419586786270141,-1.63575100078583,-0.791215377902985
0.932727272727273,1.00419744815826,-2.50753811016083,0.825422805690765
0.933333333333333,1.67001287784576,1.54722995624542,-0.8271406708717349
0.933939393939394,0.649734557533264,-0.541227075004578,0.48533003225326504
0.934545454545455,-4.25047540340424,2.22502048358917,-0.123004928684235
0.935151515151515,0.561118834877014,-1.68125637187958,-0.419987350559235
0.935757575757576,4.54882635440826,-3.14700832500458,0.763152297878265
0.936363636363636,-4.0971941534042395,3.53030612812042,0.19792768850326498
0.936969696969697,-1.08186456356049,0.8838095460891721,-0.987606979465485
0.937575757575758,3.4087970575332602,-2.77338527812958,0.190742629909515
0.938181818181818,0.321616881752014,0.186858862495422,-0.249940963840485
0.938787878787879,1.7346784051895099,0.38085544452667197,-1.39476029977799
0.939393939393939,-3.5894500127792397,0.5221615968704221,1.22299604787826
0.94,-1.88419610652924,0.9364999757766721,0.0302763213157649
0.940606060606061,4.45542059268951,-1.79142727031708,0.9092484892845151
0.941212121212121,-2.2458440557479897,2.05497409687042,1.02181440725326
0.941818181818182,-1.83869073543549,1.09217624530792,0.312888626003265
0.942424242424242,3.23875067081451,-2.42850246562958,-0.784030319309235
0.943030303030303,-0.43999932918548595,-0.237059594535828,0.480539993190765
0.943636363636364,2.5609601434707603,0.605987280464172,-0.230780807590485
0.944242424242424,-2.2721892705917397,0.450311010932922,0.332048782253265
0.944848484848485,-5.58210626277924,0.531741674995422,0.940383743190765
0.945454545454545,5.3631329950332605,-1.22141262187958,0.0973368681907649
0.946060606060606,0.168335631752014,0.433545874214172,0.298518508815765
0.946666666666667,-2.76316827449799,2.96268649921417,-1.17920854196549
0.947272727272727,1.99813055362701,-2.28480129375458,0.039856399440764904
0.947878787878788,-0.49747979793548597,-1.25254787578583,-0.101449752902985
0.948484848484848,2.24721258487701,1.67895603046417,-0.750500045871735
0.949090909090909,-1.32615655574799,-0.383155785942078,0.918828567409515
0.94969696969697,-5.26596368465424,1.19995212421417,0.09015180959701491
0.95030303030303,4.10095770206451,-2.05727443828583,-0.743314987277985
0.950909090909091,2.59688543643951,-1.66688625469208,0.882903274440765
0.951515151515152,-3.80979180965424,4.50507907733917,-0.755290084934235
0.952121212121212,0.637759459877014,-1.75071193828583,0.133262161159515
0.952727272727273,1.0760480340957599,-2.35425686016083,0.21708784475326498
0.953333333333333,0.870076354408264,1.37239353046417,-1.1145430146217399
0.953939393939394,0.8628912958145141,-0.706483422660828,0.6505863799095151
0.954545454545455,-3.8624822393417397,2.43817722187042,-0.333766647434235
0.955151515151515,0.41981268253326404,-1.40822414531708,0.08536177053451491
0.955757575757576,4.55122137393951,-3.18532863750458,0.22666792287826498
0.956363636363636,-4.35106622371674,3.09201755390167,0.35599897756576504
0.956969696969697,-1.5369182744979901,1.45142917499542,-0.712179733371735
0.957575757575758,3.26030584659576,-2.66081936016083,0.08296675100326491
0.958181818181818,0.616204284095764,0.847884253120422,-0.5469233857154849
0.958787878787879,1.43290594425201,-0.167604028129578,-0.796005416965485
0.959393939393939,-2.9739299932479897,0.294634741401672,0.624241165065765
0.96,-2.20033868465424,0.8646493898391721,0.5499955595970151
0.960606060606061,3.71056951847076,-2.09080471172333,0.588315872097015
0.961212121212121,-1.7764202276229901,2.02144382343292,-0.487047897434235
0.961818181818182,-1.58960870418549,1.14007663593292,0.042251418972014905
0.962424242424242,3.06870428409576,-2.61770900859833,-0.520578170871735
0.963030303030303,-0.461554504966736,0.253919409370422,0.21229780569076498
0.963636363636364,2.01729070987701,1.01793063983917,-0.532553268527985
0.964242424242424,-1.85545587215424,-0.0909634031295776,0.7511772002220151
0.964848484848485,-5.42163995418549,0.946080053901672,0.0805717314720149
0.965454545454545,4.87454901065826,-1.73873684062958,-0.0607344208717351
0.966060606060606,0.951507018470764,-0.265799828910828,0.645796340847015
0.966666666666667,-2.77274835262299,3.30277927265167,-2.34079301462173
0.967272727272727,2.15380682315826,-2.55064846172333,0.499700149440765
0.967878787878788,-0.466344544029236,-0.9579604734420779,-0.0200190888404851
0.968484848484849,1.76820867862701,1.56878513202667,-0.41040727243423497
0.969090909090909,-0.5142449346542359,-0.455006371879578,1.02899946584701
0.96969696969697,-5.10310235652924,2.19867526874542,-0.8846211396217349
0.97030303030303,3.24833074893951,-2.38778713359833,0.674536575222015
0.970909090909091,3.36089666690826,-1.34116359844208,0.799077590847015
0.971515151515152,-4.06605889949799,4.44041354999542,-0.0295991669654851
0.972121212121212,0.0916950067520142,-1.43456936016083,0.408689407253265
0.972727272727273,1.59576727237701,-2.35186184062958,0.0542265166282649
0.973333333333333,0.403047545814514,1.02032565937042,-0.6067988739967349
0.973939393939394,1.1790338739395099,-0.581942407035828,0.394319290065765
0.974545454545454,-3.9750481573104897,2.13640476093292,-0.41040727243423497
0.975151515151515,-0.44957940731048596,-0.728038598442078,0.10212690725326501
0.975757575757576,5.02783026065826,-3.07994777812958,0.542810501003265
0.976363636363636,-3.9582830205917396,2.96508151874542,0.0638065947532649
0.976969696969697,-1.97520684871674,1.70769626483917,-0.7265498505592349
0.977575757575758,3.27467596378326,-3.47991603984833,0.6913017119407651
0.978181818181818,0.7215851434707641,0.5437167726516721,-0.8247456513404849
0.978787878787879,1.73707342472076,0.206019018745422,-0.5852436982154849
0.979393939393939,-3.4529338994979897,-0.28735500469207803,0.954753860378265
0.98,-2.42068048152924,1.18079196796417,-0.5876387177467349
0.980606060606061,4.53445623722076,-2.46682277812958,1.3403520049095101
0.981212121212121,-2.00394708309174,2.00467868671417,-0.194855514621735
0.981818181818182,-2.14046319637299,1.29814792499542,-0.257126022434235
0.982424242424242,3.6027936395645104,-2.52190822734833,-0.496627975559235
0.983030303030303,-0.23402764949798602,0.210809057807922,0.353603958034515
0.983636363636364,1.82808416690826,0.6969980226516721,-0.901386276340485
0.984242424242424,-1.30460137996674,-0.0765932859420776,0.626636184597015
0.984848484848485,-5.51025567684174,0.6395175539016721,0.7511772002220151
0.985454545454545,4.59433172550201,-1.19267238750458,-0.29065629587173497
0.986060606060606,1.27004461612701,0.13416843280792198,0.914038528347015
0.986666666666667,-2.73682305965424,3.30517429218292,-1.67497758493424
0.987272727272727,2.1849420770645103,-2.34707180156708,0.681721633815765
0.987878787878788,-0.475924622154236,-0.790309106254578,-0.582848678684235
0.988484848484849,2.29032293643951,1.44424411640167,-0.570873581027985
0.989090909090909,-0.6148357549667359,0.107823217964172,0.741597122097015
0.98969696969697,-6.05871514949799,1.54722995624542,-0.103844772434235
0.99030303030303,3.89738104190826,-2.41892238750458,0.401504348659515
0.990909090909091,2.8172272333145103,-1.55671535625458,0.37515913381576504
0.991515151515151,-4.32232598934174,4.54339938983917,-0.7457100068092349
0.992121212121212,0.8030158075332641,-1.23099270000458,0.116497024440765
0.992727272727273,1.1239484247207598,-2.87397609844208,0.399109329128265
0.993333333333333,1.07844305362701,1.19516208515167,-1.72287797555924
0.993939393939394,0.973062194252014,-1.04897121562958,1.20862593069076
0.994545454545455,-3.8217669073104896,2.62738376483917,-0.534948288059235
0.995151515151515,0.587464049720764,-1.11603176250458,-0.297841354465485
0.995757575757576,4.36919988956451,-2.94103664531708,0.882903274440765
0.996363636363636,-4.2169451299667395,3.14231296405792,-0.38166703805923496
