Time (s),Accel X (m/s^2),Accel Y (m/s^2),Accel Z (m/s^2)
0.0,-0.146853522777557,-0.122888732814789,-0.421345027256012
0.000606060606060606,-0.0534477610588074,-0.204319396877289,-0.201003230381012
0.00121212121212121,-0.0582378001213074,0.032787536716461195,-0.38541973428726195
0.00181818181818182,0.0351679615974426,-0.197134338283539,-0.5650461991310121
0.00242424242424242,-0.0271025462150574,-0.34802056875228904,-0.440505183506012
0.00303030303030303,-0.0630278391838074,-0.187554260158539,-0.615341609287262
0.00363636363636364,-0.154038581371307,-0.0486431273460388,-0.5075657303810119
0.00424242424242424,-0.13966846418380702,-0.26898492422103903,-0.490800593662262
0.00484848484848485,-0.012732429027557399,-0.230664611721039,-0.32314922647476196
0.00545454545454545,-0.314504889965057,-0.0965435179710388,-0.40218487100601197
0.00606060606060606,-0.18996387434005702,-0.154023986721039,-0.29201397256851197
0.00666666666666667,-0.30971485090255696,0.10942816171646101,-0.356679499912262
0.00727272727272727,-0.13487842512130702,0.0423676148414612,-0.459665339756012
0.00787878787878788,-0.228284186840057,-0.0797783812522888,-0.186633113193512
0.00848484848484848,-0.00554737043380738,-0.199529357814789,-0.191423152256012
0.00909090909090909,-0.0103374094963074,-0.199529357814789,0.117534367275238
0.0096969696969697,-0.235469245433807,0.150143493747711,-0.35188946084976197
0.0103030303030303,0.00882274675369262,-0.0749883421897888,-0.550676081943512
0.0109090909090909,-0.146853522777557,-0.23784967031478899,0.0600538985252376
0.0115151515151515,-0.142063483715057,0.0208124390602112,-0.593786433506012
0.0121212121212121,-0.017522468090057402,-0.0294829710960388,-0.387814753818512
0.0127272727272727,-0.0462627024650574,0.0256024781227112,-0.289618953037262
0.0133333333333333,-0.36001026105880696,-0.058223205471038805,-0.378234675693512
0.0139393939393939,-0.237864264965057,0.0232074585914612,-0.28482891397476195
0.0145454545454545,0.0806733326911926,-0.180369201564789,-0.450085261631012
0.0151515151515152,-0.24983936262130702,-0.156419006252289,-0.31596416788101195
0.0157575757575758,-0.415095710277557,0.133378357028961,-0.31596416788101195
0.0163636363636364,-0.120508307933807,-0.051038146877288804,-0.246508601474762
0.016969696969697,-0.204333991527557,-0.127678771877289,-0.47403545694351196
0.0175757575757576,-0.12529834699630701,-0.25700982656478905,-0.387814753818512
0.0181818181818182,0.0351679615974426,-0.113308654689789,-0.41415996866226196
0.0187878787878788,-0.163618659496307,0.0950580445289612,-0.18423809366226201
0.0193939393939394,-0.221099128246307,0.0998480835914612,-0.39499981241226195
0.02,-0.0366826243400574,0.0399725953102112,-0.486010554599762
0.0206060606060606,-0.252234382152557,0.037577575778961196,-0.32314922647476196
0.0212121212121212,-0.333665046215057,-0.0175078734397888,-0.502775691318512
0.0218181818181818,-0.10613819074630701,0.0303925171852112,-0.268063777256012
0.0224242424242424,0.0686982350349426,-0.015112853908538799,-0.268063777256012
0.023030303030303,-0.0965581126213074,-0.290540100002289,-0.258483699131012
0.0236363636363636,-0.336060065746307,-0.283355041408539,-0.25608867959976195
0.0242424242424242,-0.32168994855880695,-0.151628967189789,-0.33512432413101195
0.0248484848484848,-0.218704108715057,0.00883734140396119,-0.428530085849762
0.0254545454545455,-0.230679206371307,-0.101333557033539,-0.308779109287262
0.0260606060606061,-0.30013477277755696,-0.142048889064789,-0.390209773349762
0.0266666666666667,-0.13008838605880702,-0.0917534789085388,-0.277643855381012
0.0272727272727273,0.231559563159943,0.0447626343727112,-0.28482891397476195
0.0278787878787879,-0.0702128977775574,0.202833923435211,-0.6057615311622621
0.0284848484848485,-0.115718268871307,0.0399725953102112,-0.378234675693512
0.0290909090909091,0.0758832936286926,-0.247429748439789,-0.174658015537262
0.0296969696969697,0.0830683522224426,-0.23305963125228898,-0.481220515537262
0.0303030303030303,0.0207978444099426,-0.0821734007835388,-0.553071101474762
0.0309090909090909,-0.10853321027755701,0.061527771091461195,-0.356679499912262
0.0315151515151515,-0.304924811840057,0.13098333749771102,-0.32314922647476196
0.0321212121212121,-0.228284186840057,-0.154023986721039,-0.26566875772476195
0.0327272727272727,-0.08937305402755741,-0.185159240627289,-0.31596416788101195
0.0333333333333333,-0.30971485090255696,-0.0941484984397888,-0.553071101474762
0.0339393939393939,-0.192358893871307,-0.00792779531478881,-0.447690242099762
0.0345454545454545,-0.0558427805900574,-0.122888732814789,-0.169867976474762
0.0351515151515151,-0.206729011058807,-0.216294494533539,-0.529120906162262
0.0357575757575758,-0.19475391340255702,-0.108518615627289,-0.7039573319435121
0.0363636363636364,-0.213914069652557,-0.0103228148460388,-0.593786433506012
0.036969696969697,-0.247444343090057,0.07110784921646121,-0.5650461991310121
0.0375757575757576,-0.26899951887130696,0.07110784921646121,-0.416554988193512
0.0381818181818182,-0.266604499340057,-0.144443908596039,-0.47403545694351196
0.0387878787878788,-0.0750029368400574,-0.16839410390853898,-0.208188288974762
0.0393939393939394,-0.295344733715057,-0.027087951564788798,-0.34230938272476197
0.04,-0.371985358715057,-0.122888732814789,-0.105202449131012
0.0406060606060606,-0.216309089183807,-0.0007427367210388131,0.26363055868148805
0.0412121212121212,-0.35761524152755697,0.018417419528961202,0.28279071493148805
0.0418181818181818,-0.39833057355880697,-0.175579162502289,-0.215373347568512
0.0424242424242424,-0.142063483715057,-0.189949279689789,-0.519540828037262
0.043030303030303,-0.201938971996307,-0.0127178343772888,-0.41415996866226196
0.0436363636363636,-0.30971485090255696,0.12619329843521102,-0.497985652256012
0.0442424242424242,-0.237864264965057,-0.149233947658539,-0.37344463663101196
0.0448484848484848,0.0782783131599426,-0.0414580687522888,-0.514750788974762
0.0454545454545455,-0.043867682933807405,-0.058223205471038805,-0.349494441318512
0.0460606060606061,-0.177988776683807,-0.170789123439789,-0.371049617099762
0.0466666666666667,-0.144458503246307,0.0998480835914612,-0.481220515537262
0.0472727272727273,-0.166013679027557,0.0974530640602112,-0.38302471475601196
0.0478787878787879,-0.230679206371307,-0.206714416408539,-0.30398907022476196
0.0484848484848485,-0.209124030590057,-0.180369201564789,-0.572231257724762
0.0490909090909091,-0.0534477610588074,0.162118591403961,-0.466850398349762
0.0496969696969697,-0.137273444652557,-0.0366680296897888,-0.25608867959976195
0.0503030303030303,-0.307319831371307,-0.137258850002289,-0.24411358194351201
0.0509090909090909,-0.295344733715057,-0.115703674221039,-0.34230938272476197
0.0515151515151515,-0.304924811840057,-0.0749883421897888,-0.466850398349762
0.0521212121212121,-0.29773975324630697,0.0782929078102112,-0.30398907022476196
0.0527272727272727,-0.0630278391838074,0.00883734140396119,-0.32314922647476196
0.0533333333333333,-0.211519050121307,-0.0917534789085388,-0.26327373819351196
0.0539393939393939,-0.18996387434005702,-0.22826959218978898,-0.30398907022476196
0.0545454545454545,-0.158828620433807,-0.134863830471039,-0.560256160068512
0.0551515151515152,-0.08937305402755741,0.176488708591461,-0.26327373819351196
0.0557575757575758,-0.158828620433807,0.0902680054664612,-0.193818171787262
0.0563636363636364,-0.08697803449630741,-0.15881402578353898,-0.320754206943512
0.056969696969697,-0.285764655590057,-0.113308654689789,-0.538700984287262
0.0575757575757576,-0.403120612621307,-0.211504455471039,-0.34470440225601195
0.0581818181818182,-0.118113288402557,-0.247429748439789,-0.36386455850601196
0.0587878787878788,-0.28815967512130697,-0.120493713283539,-0.586601374912262
0.0593939393939394,-0.228284186840057,-0.127678771877289,-0.378234675693512
0.06,-0.0989531321525574,-0.16839410390853898,-0.239323542881012
0.0606060606060606,-0.10613819074630701,-0.118098693752289,-0.32314922647476196
0.0612121212121212,-0.27139453840255695,0.00644232187271119,-0.514750788974762
0.0618181818181818,-0.19475391340255702,0.0806879273414612,-0.406974910068512
0.0624242424242424,-0.35043018293380696,-0.015112853908538799,-0.220163386631012
0.063030303030303,-0.29055469465255696,-0.154023986721039,-0.41415996866226196
0.0636363636363636,-0.285764655590057,0.018417419528961202,-0.428530085849762
0.0642424242424242,-0.209124030590057,-0.120493713283539,-0.45248028116226197
0.0648484848484848,0.195634270191193,-0.0821734007835388,-0.426135066318512
0.0654545454545455,-0.137273444652557,0.116613220310211,-0.512355769443512
0.0660606060606061,-0.0917680735588074,-0.290540100002289,-0.486010554599762
0.0666666666666667,-0.158828620433807,-0.249824767971039,-0.40218487100601197
0.0672727272727273,-0.443835944652557,-0.106123596096039,-0.675217097568512
0.0678787878787879,-0.27139453840255695,-0.0007427367210388131,-0.466850398349762
0.0684848484848485,-0.13966846418380702,0.0279974976539612,-0.371049617099762
0.0690909090909091,-0.5587968821525571,-0.206714416408539,-0.0764622147560124
0.0696969696969697,-0.376775397777557,-0.0007427367210388131,-0.466850398349762
0.0703030303030303,-0.10134815168380701,-0.0845684203147888,0.0480788008689876
0.0709090909090909,-0.18517383527755701,-0.0175078734397888,0.191779972743988
0.0715151515151515,-0.218704108715057,-0.0630132445335388,-0.133942683506012
0.0721212121212121,-0.137273444652557,-0.32646539297103905,-0.157892878818512
0.0727272727272727,-0.10374317121505701,-0.247429748439789,-0.749462703037262
0.0733333333333333,-0.228284186840057,-0.051038146877288804,-0.608156550693512
0.0739393939393939,-0.292949714183807,0.233969177341461,-0.5243308670997621
0.0745454545454545,-0.283369636058807,0.14056341562271102,-0.457270320224762
0.0751515151515151,-0.209124030590057,-0.0893584593772888,-0.569836238193512
0.0757575757575758,-0.27139453840255695,-0.340835510158539,-0.33512432413101195
0.0763636363636364,-0.19475391340255702,-0.295330139064789,-0.349494441318512
0.076969696969697,-0.554006843090057,0.037577575778961196,-0.6440818436622621
0.0775757575757576,-0.32168994855880695,-0.0630132445335388,-0.339914363193512
0.0781818181818182,-0.0702128977775574,-0.0869634398460388,-0.00461162881851244
0.0787878787878788,-0.0366826243400574,-0.139653869533539,-0.368654597568512
0.0793939393939394,-0.0582378001213074,-0.194739318752289,-0.49319561319351196
0.08,-0.374380378246307,0.12619329843521102,-0.260878718662262
0.0806060606060606,-0.446230964183807,0.293844665622711,-0.327939265537262
0.0812121212121212,-0.25941944074630696,-0.0007427367210388131,-0.29440899209976196
0.0818181818181818,-0.292949714183807,-0.23305963125228898,-0.44290020303726196
0.0824242424242424,-0.146853522777557,-0.0869634398460388,-0.37583965616226195
0.083030303030303,-0.0989531321525574,-0.0486431273460388,-0.378234675693512
0.0836363636363636,-0.187568854808807,0.10703314218521101,-0.490800593662262
0.0842424242424242,-0.273789557933807,0.0232074585914612,-0.42374004678726196
0.0848484848484849,-0.24983936262130702,-0.101333557033539,-0.378234675693512
0.0854545454545454,-0.142063483715057,-0.130073791408539,-0.330334285068512
0.0860606060606061,-0.316899909496307,-0.0654082640647888,-0.227348445224762
0.0866666666666667,-0.233074225902557,-0.187554260158539,-0.555466121006012
0.0872727272727273,-0.187568854808807,-0.285750060939789,-0.670427058506012
0.0878787878787879,-0.19475391340255702,-0.151628967189789,-0.378234675693512
0.0884848484848485,-0.235469245433807,-0.242639709377289,-0.306384089756012
0.0890909090909091,-0.10613819074630701,-0.0678032835960388,-0.289618953037262
0.0896969696969697,-0.113323249340057,0.119008239841461,-0.459665339756012
0.0903030303030303,-0.187568854808807,0.07110784921646121,-0.399789851474762
0.0909090909090909,-0.0797929759025574,-0.235454650783539,-0.181843074131012
0.0915151515151515,-0.08458301496505741,-0.185159240627289,-0.5075657303810119
0.0921212121212121,0.0207978444099426,-0.0055327757835388095,-0.37583965616226195
0.0927272727272727,-0.29055469465255696,0.27947454843521097,-0.196213191318512
0.0933333333333333,-0.48934131574630696,0.018417419528961202,-0.296804011631012
0.0939393939393939,-0.10374317121505701,-0.312095275783539,-0.440505183506012
0.0945454545454545,-0.127693366527557,-0.189949279689789,-0.7039573319435121
0.0951515151515152,-0.0534477610588074,-0.137258850002289,-0.514750788974762
0.0957575757575758,-0.19475391340255702,-0.00313775625228881,-0.157892878818512
0.0963636363636364,-0.235469245433807,-0.0175078734397888,-0.198608210849762
0.096969696969697,-0.276184577465057,-0.302515197658539,-0.24890362100601202
0.0975757575757576,-0.170803718090057,-0.0725933226585388,-0.778202937412262
0.0981818181818182,0.0423530201911926,-0.058223205471038805,-0.6440818436622621
0.0987878787878788,-0.225889167308807,-0.0893584593772888,-0.114782527256012
0.0993939393939394,-0.204333991527557,0.0232074585914612,-0.497985652256012
0.1,-0.18517383527755701,-0.0869634398460388,-0.46445537881851195
0.100606060606061,-0.163618659496307,-0.127678771877289,-0.27285381631851197
0.101212121212121,0.0399580006599426,-0.144443908596039,0.160644718837738
0.101818181818182,-0.132483405590057,-0.0989385375022888,-0.133942683506012
0.102424242424242,-0.35761524152755697,-0.0390630492210388,-0.49559063272476195
0.103030303030303,-0.0342876048088074,0.06631781015396121,-0.35188946084976197
0.103636363636364,-0.24504932355880701,-0.0869634398460388,-0.155497859287262
0.104242424242424,-0.443835944652557,-0.221084533596039,-0.43571514444351195
0.104848484848485,-0.26181446027755695,-0.0941484984397888,-0.447690242099762
0.105454545454545,-0.0989531321525574,0.12619329843521102,-0.203398249912262
0.106060606060606,-0.10613819074630701,0.0447626343727112,-0.270458796787262
0.106666666666667,-0.182778815746307,0.0567377320289612,-0.224953425693512
0.107272727272727,-0.144458503246307,-0.180369201564789,-0.311174128818512
0.107878787878788,-0.13487842512130702,0.150143493747711,-0.5434910233497621
0.108484848484848,-0.209124030590057,0.188463806247711,-0.306384089756012
0.109090909090909,-0.316899909496307,-0.156419006252289,-0.241718562412262
0.10969696969697,-0.175593757152557,-0.194739318752289,-0.44529522256851195
0.11030303030303,-0.0558427805900574,-0.110913635158539,-0.5219358475685121
0.110909090909091,-0.0797929759025574,0.0471576539039612,-0.311174128818512
0.111515151515152,-0.233074225902557,-0.0845684203147888,-0.36386455850601196
0.112121212121212,-0.230679206371307,-0.230664611721039,-0.306384089756012
0.112727272727273,-0.333665046215057,-0.27856500234603904,-0.481220515537262
0.113333333333333,-0.230679206371307,0.013627380466461201,-0.586601374912262
0.113939393939394,-0.0271025462150574,0.224389099216461,-0.34470440225601195
0.114545454545455,-0.223494147777557,-0.0654082640647888,-0.5219358475685121
0.115151515151515,-0.12529834699630701,-0.230664611721039,-0.165077937412262
0.115757575757576,-0.132483405590057,-0.0414580687522888,-0.28243389444351197
0.116363636363636,-0.18517383527755701,-0.103728576564789,-0.689587214756012
0.116969696969697,-0.127693366527557,-0.0941484984397888,-0.299199031162262
0.117575757575758,-0.154038581371307,0.035182556247711196,-0.236928523349762
0.118181818181818,-0.10374317121505701,-0.211504455471039,-0.447690242099762
0.118787878787879,-0.0917680735588074,-0.247429748439789,-0.428530085849762
0.119393939393939,-0.0318925852775574,-0.120493713283539,-0.497985652256012
0.12,-0.5180815501213071,0.0878729859352112,-0.371049617099762
0.120606060606061,-0.530056647777557,0.035182556247711196,-0.40218487100601197
0.121212121212121,-0.0773979563713074,-0.187554260158539,-0.301594050693512
0.121818181818182,-0.144458503246307,-0.137258850002289,-0.40457989053726195
0.122424242424242,-0.225889167308807,-0.273774963283539,-0.459665339756012
0.123030303030303,0.047143059253692596,-0.101333557033539,-0.490800593662262
0.123636363636364,-0.161223639965057,0.0758978882789612,-0.220163386631012
0.124242424242424,-0.374380378246307,-0.0797783812522888,-0.177053035068512
0.124848484848485,-0.170803718090057,-0.0869634398460388,-0.318359187412262
0.125454545454545,-0.18517383527755701,-0.139653869533539,-0.222558406162262
0.126060606060606,-0.0965581126213074,-0.0127178343772888,-0.277643855381012
0.126666666666667,-0.28097461652755695,0.037577575778961196,-0.205793269443512
0.127272727272727,-0.211519050121307,0.00404730234146119,-0.347099421787262
0.127878787878788,-0.223494147777557,-0.0175078734397888,-0.36386455850601196
0.128484848484848,-0.10134815168380701,-0.127678771877289,-0.46445537881851195
0.129090909090909,-0.266604499340057,-0.0318779906272888,-0.327939265537262
0.12969696969697,-0.496526374340057,0.0399725953102112,-0.46445537881851195
0.13030303030303,-0.362405280590057,-0.0869634398460388,-0.6225266678810121
0.130909090909091,-0.201938971996307,-0.206714416408539,-0.0764622147560124
0.131515151515152,-0.0582378001213074,-0.115703674221039,0.141484562587738
0.132121212121212,-0.177988776683807,0.0830829468727112,-0.12915264444351202
0.132727272727273,0.0734882740974426,0.0974530640602112,-0.44290020303726196
0.133333333333333,-0.0630278391838074,0.0758978882789612,-0.320754206943512
0.133939393939394,-0.175593757152557,-0.024692932033538798,-0.49319561319351196
0.134545454545455,-0.110928229808807,-0.115703674221039,-0.44529522256851195
0.135151515151515,-0.08697803449630741,0.152538513278961,-0.172262996006012
0.135757575757576,0.0327729420661926,-0.0175078734397888,-0.253693660068512
0.136363636363636,-0.161223639965057,-0.130073791408539,-0.268063777256012
0.136969696969697,-0.247444343090057,-0.0318779906272888,-0.699167292881012
0.137575757575758,-0.235469245433807,-0.110913635158539,-0.6656370194435121
0.138181818181818,-0.197148932933807,-0.0438530882835388,-0.416554988193512
0.138787878787879,-0.18996387434005702,-0.0893584593772888,-0.538700984287262
0.139393939393939,-0.173198737621307,-0.024692932033538798,-0.33272930459976197
0.14,-0.285764655590057,-0.216294494533539,-0.361469538974762
0.140606060606061,-0.242654304027557,-0.0414580687522888,-0.555466121006012
0.141212121212121,-0.307319831371307,0.13577337656021102,-0.43571514444351195
0.141818181818182,-0.34085010480880695,-0.0175078734397888,-0.416554988193512
0.142424242424242,-0.204333991527557,0.152538513278961,-0.29440899209976196
0.143030303030303,-0.127693366527557,-0.120493713283539,-0.399789851474762
0.143636363636364,-0.28097461652755695,-0.060618225002288806,-0.450085261631012
0.144242424242424,-0.314504889965057,-0.0438530882835388,-0.32554424600601195
0.144848484848485,-0.27857959699630697,-0.144443908596039,-0.378234675693512
0.145454545454545,-0.177988776683807,-0.0318779906272888,-0.35428448038101196
0.146060606060606,-0.0654228587150574,-0.0965435179710388,-0.109992488193512
0.146666666666667,-0.154038581371307,-0.187554260158539,-0.208188288974762
0.147272727272727,-0.10374317121505701,-0.0701983031272888,-0.6608469803810121
0.147878787878788,-0.30971485090255696,0.27947454843521097,-0.241718562412262
0.148484848484848,-0.113323249340057,0.10942816171646101,-0.253693660068512
0.149090909090909,-0.0510527415275574,-0.22826959218978898,-0.43571514444351195
0.14969696969697,-0.0941630930900574,0.00165228281021119,-0.517145808506012
0.15030303030303,-0.0773979563713074,-0.0294829710960388,-0.361469538974762
0.150909090909091,-0.144458503246307,-0.120493713283539,-0.387814753818512
0.151515151515152,-0.223494147777557,-0.149233947658539,-0.48361553506851196
0.152121212121212,-0.043867682933807405,-0.23305963125228898,-0.5650461991310121
0.152727272727273,-0.144458503246307,-0.142048889064789,-0.610551570224762
0.153333333333333,-0.156433600902557,-0.0103228148460388,-0.196213191318512
0.153939393939394,-0.0582378001213074,-0.213899475002289,-0.241718562412262
0.154545454545455,-0.19475391340255702,-0.0318779906272888,-0.34470440225601195
0.155151515151515,-0.307319831371307,-0.154023986721039,-0.44290020303726196
0.155757575757576,-0.41030567121505696,-0.46777154531478904,-0.512355769443512
0.156363636363636,-0.225889167308807,-0.120493713283539,-0.656056941318512
0.156969696969697,-0.10134815168380701,-0.151628967189789,-0.41176494913101197
0.157575757575758,-0.254629401683807,-0.060618225002288806,-0.36386455850601196
0.158181818181818,-0.252234382152557,0.06871282968521121,-0.5099607499122619
0.158787878787879,-0.0486577219963074,-0.17797418203353899,-0.421345027256012
0.159393939393939,-0.0941630930900574,-0.0773833617210388,0.139089543056488
0.16,-0.19954395246505702,-0.0318779906272888,-0.579416316318512
0.160606060606061,-0.345640143871307,-0.245034728908539,-0.47403545694351196
0.161212121212121,-0.326479987621307,-0.271379943752289,-0.320754206943512
0.161818181818182,-0.374380378246307,-0.16360406484603898,-0.5818113358497621
0.162424242424242,-0.228284186840057,-0.0773833617210388,-0.236928523349762
0.163030303030303,-0.247444343090057,-0.0318779906272888,-0.438110163974762
0.163636363636364,-0.154038581371307,0.0160223999977112,-0.33512432413101195
0.164242424242424,-0.285764655590057,-0.060618225002288806,-0.258483699131012
0.164848484848485,-0.0821879954338074,0.037577575778961196,-0.44529522256851195
0.165454545454545,0.0974384694099426,-0.120493713283539,-0.44290020303726196
0.166060606060606,-0.197148932933807,-0.0366680296897888,-0.117177546787262
0.166666666666667,-0.0654228587150574,0.166908630466461,-0.215373347568512
0.167272727272727,-0.0726079173088074,-0.0725933226585388,-0.24890362100601202
0.167878787878788,-0.158828620433807,-0.295330139064789,-0.47403545694351196
0.168484848484848,-0.34085010480880695,0.0495526734352112,-0.5243308670997621
0.169090909090909,-0.237864264965057,-0.051038146877288804,-0.241718562412262
0.16969696969697,-0.115718268871307,-0.154023986721039,-0.232138484287262
0.17030303030303,-0.08697803449630741,0.018417419528961202,-0.24890362100601202
0.170909090909091,-0.434255866527557,-0.0989385375022888,-0.31596416788101195
0.171515151515152,-0.30013477277755696,-0.211504455471039,-0.438110163974762
0.172121212121212,-0.13966846418380702,0.0232074585914612,-0.490800593662262
0.172727272727273,-0.41988574934005696,0.169303649997711,-0.636896785068512
0.173333333333333,-0.39114551496505695,-0.0414580687522888,-0.593786433506012
0.173939393939394,-0.33127002668380695,-0.146838928127289,-0.636896785068512
0.174545454545455,-0.0989531321525574,-0.108518615627289,-0.40457989053726195
0.175151515151515,-0.257024421215057,0.10224310312271101,-0.40218487100601197
0.175757575757576,-0.182778815746307,0.159723571872711,-0.33512432413101195
0.176363636363636,-0.24504932355880701,0.236364196872711,-0.133942683506012
0.176969696969697,-0.156433600902557,-0.0965435179710388,-0.46206035928726197
0.177575757575758,-0.146853522777557,-0.23305963125228898,-0.430925105381012
0.178181818181818,-0.302529792308807,-0.254614807033539,-0.418950007724762
0.178787878787879,-0.13966846418380702,-0.161209045314789,-0.550676081943512
0.179393939393939,-0.352825202465057,0.059132751560211194,-0.39260479288101197
0.18,-0.28815967512130697,-0.0701983031272888,-0.6009714920997621
0.180606060606061,-0.127693366527557,-0.185159240627289,-0.550676081943512
0.181212121212121,0.0016376881599426201,-0.0725933226585388,-0.596181453037262
0.181818181818182,-0.393540534496307,0.06631781015396121,-0.397394831943512
0.182424242424242,-0.273789557933807,-0.106123596096039,-0.38541973428726195
0.183030303030303,-0.137273444652557,-0.182764221096039,-0.337519343662262
0.183636363636364,-0.0941630930900574,-0.0294829710960388,-0.459665339756012
0.184242424242424,-0.0678178782463074,-0.144443908596039,-0.567441218662262
0.184848484848485,0.00882274675369262,-0.132468810939789,-0.371049617099762
0.185454545454545,-0.156433600902557,0.0974530640602112,-0.390209773349762
0.186060606060606,-0.343245124340057,0.0878729859352112,-0.311174128818512
0.186666666666667,-0.113323249340057,-0.0749883421897888,-0.557861140537262
0.187272727272727,-0.19954395246505702,-0.0678032835960388,-0.320754206943512
0.187878787878788,-0.10613819074630701,-0.027087951564788798,-0.198608210849762
0.188484848484848,-0.192358893871307,-0.0989385375022888,-0.191423152256012
0.189090909090909,-0.113323249340057,0.0854779664039612,-0.198608210849762
0.18969696969697,-0.110928229808807,-0.0294829710960388,-0.38541973428726195
0.19030303030303,-0.25941944074630696,0.013627380466461201,-0.6632419999122621
0.190909090909091,-0.283369636058807,0.10942816171646101,-0.5075657303810119
0.191515151515152,-0.175593757152557,-0.182764221096039,-0.12915264444351202
0.192121212121212,-0.122903327465057,-0.312095275783539,-0.320754206943512
0.192727272727273,-0.32887500715255696,-0.144443908596039,-0.48361553506851196
0.193333333333333,-0.28097461652755695,-0.146838928127289,-0.47403545694351196
0.193939393939394,-0.132483405590057,0.0926630249977112,-0.378234675693512
0.194545454545455,-0.34803516340255697,0.032787536716461195,-0.430925105381012
0.195151515151515,-0.177988776683807,-0.324070373439789,-0.35188946084976197
0.195757575757576,0.186054192066193,-0.0678032835960388,-0.270458796787262
0.196363636363636,-0.0965581126213074,-0.015112853908538799,-0.47164043741226197
0.196969696969697,-0.24504932355880701,-0.120493713283539,-0.514750788974762
0.197575757575758,-0.474971198558807,0.0639227906227112,-0.29201397256851197
0.198181818181818,-0.376775397777557,-0.060618225002288806,-0.28482891397476195
0.198787878787879,-0.237864264965057,-0.201924377346039,-0.572231257724762
0.199393939393939,-0.115718268871307,-0.0486431273460388,-0.7039573319435121
0.2,-0.154038581371307,-0.108518615627289,-0.35428448038101196
0.200606060606061,-0.28815967512130697,-0.15881402578353898,-0.277643855381012
0.201212121212121,-0.0366826243400574,-0.271379943752289,-0.648871882724762
0.201818181818182,-0.252234382152557,-0.024692932033538798,-0.608156550693512
0.202424242424242,-0.230679206371307,0.0232074585914612,-0.37583965616226195
0.203030303030303,-0.211519050121307,-0.0438530882835388,-0.35428448038101196
0.203636363636364,-0.201938971996307,0.0567377320289612,-0.356679499912262
0.204242424242424,-0.10374317121505701,0.0782929078102112,-0.287223933506012
0.204848484848485,-0.386355475902557,0.00883734140396119,-0.380629695224762
0.205454545454545,-0.10374317121505701,-0.304910217189789,-0.418950007724762
0.206060606060606,-0.206729011058807,-0.0486431273460388,-0.447690242099762
0.206666666666667,-0.240259284496307,0.128588317966461,-0.30398907022476196
0.207272727272727,-0.26181446027755695,-0.024692932033538798,-0.359074519443512
0.207878787878788,-0.326479987621307,-0.170789123439789,-0.287223933506012
0.208484848484848,-0.122903327465057,-0.0821734007835388,-0.43571514444351195
0.209090909090909,-0.24983936262130702,-0.0294829710960388,-0.517145808506012
0.20969696969697,-0.0390776438713074,-0.0989385375022888,-0.191423152256012
0.21030303030303,-0.0462627024650574,0.0279974976539612,-0.253693660068512
0.210909090909091,-0.0294975657463074,0.00883734140396119,-0.289618953037262
0.211515151515152,-0.302529792308807,-0.182764221096039,-0.208188288974762
0.212121212121212,-0.0941630930900574,0.0399725953102112,-0.387814753818512
0.212727272727273,-0.247444343090057,0.284264587497711,-0.24411358194351201
0.213333333333333,-0.26899951887130696,0.07110784921646121,-0.27524883584976195
0.213939393939394,-0.0271025462150574,0.00165228281021119,-0.490800593662262
0.214545454545455,-0.019917487621307402,-0.0414580687522888,-0.366259578037262
0.215151515151515,-0.10374317121505701,0.0112323609352112,-0.157892878818512
0.215757575757576,-0.240259284496307,-0.0462481078147888,0.00496844930648756
0.216363636363636,-0.180383796215057,-0.0749883421897888,-0.320754206943512
0.216969696969697,-0.221099128246307,-0.0438530882835388,-0.371049617099762
0.217575757575758,0.0543281178474426,-0.0989385375022888,-0.450085261631012
0.218181818181818,-0.177988776683807,-0.0390630492210388,-0.29440899209976196
0.218787878787879,-0.144458503246307,-0.149233947658539,-0.141127742099762
0.219393939393939,-0.0773979563713074,0.0160223999977112,-0.459665339756012
0.22,-0.27139453840255695,-0.0965435179710388,-0.229743464756012
0.220606060606061,-0.0702128977775574,-0.132468810939789,-0.418950007724762
0.221212121212121,-0.173198737621307,-0.051038146877288804,-0.6416868241310121
0.221818181818182,-0.240259284496307,-0.130073791408539,-0.390209773349762
0.222424242424242,-0.0462627024650574,0.013627380466461201,-0.41415996866226196
0.223030303030303,-0.10853321027755701,-0.185159240627289,-0.46445537881851195
0.223636363636364,-0.35043018293380696,-0.00313775625228881,-0.430925105381012
0.224242424242424,-0.266604499340057,0.0208124390602112,-0.29440899209976196
0.224848484848485,-0.221099128246307,-0.0989385375022888,-0.37344463663101196
0.225454545454545,-0.173198737621307,0.0830829468727112,-0.43332012491226196
0.226060606060606,-0.0797929759025574,-0.154023986721039,-0.280038874912262
0.226666666666667,-0.211519050121307,-0.0941484984397888,-0.339914363193512
0.227272727272727,-0.326479987621307,0.229179138278961,-0.289618953037262
0.227878787878788,-0.168408698558807,0.00883734140396119,-0.301594050693512
0.228484848484848,-0.28815967512130697,-0.0222979125022888,-0.224953425693512
0.229090909090909,-0.230679206371307,-0.0222979125022888,-0.153102839756012
0.22969696969697,-0.0630278391838074,-0.125283752346039,-0.438110163974762
0.23030303030303,-0.36959033918380696,-0.170789123439789,-0.368654597568512
0.230909090909091,-0.29773975324630697,-0.139653869533539,-0.46206035928726197
0.231515151515152,-0.257024421215057,0.20043890390396102,-0.45487530069351195
0.232121212121212,-0.29773975324630697,0.0926630249977112,-0.311174128818512
0.232727272727273,-0.27857959699630697,-0.125283752346039,-0.29440899209976196
0.233333333333333,0.00642772722244262,-0.0103228148460388,-0.239323542881012
0.233939393939394,-0.00794238996505738,-0.25940484609603903,-0.49319561319351196
0.234545454545455,-0.12529834699630701,-0.304910217189789,-0.6249216874122621
0.235151515151515,-0.26181446027755695,-0.31928033437728903,-0.490800593662262
0.235757575757576,-0.247444343090057,-0.118098693752289,-0.502775691318512
0.236363636363636,-0.13008838605880702,0.188463806247711,-0.41415996866226196
0.236969696969697,-0.10613819074630701,0.00165228281021119,-0.327939265537262
0.237575757575758,-0.156433600902557,0.128588317966461,-0.208188288974762
0.238181818181818,-0.216309089183807,-0.0701983031272888,-0.301594050693512
0.238787878787879,-0.00554737043380738,-0.206714416408539,-0.497985652256012
0.239393939393939,-0.12529834699630701,-0.0917534789085388,-0.46445537881851195
0.24,-0.213914069652557,-0.216294494533539,-0.418950007724762
0.240606060606061,-0.118113288402557,-0.118098693752289,-0.32554424600601195
0.241212121212121,-0.285764655590057,-0.139653869533539,-0.311174128818512
0.241818181818182,-0.18517383527755701,-0.216294494533539,-0.26327373819351196
0.242424242424242,-0.163618659496307,-0.106123596096039,-0.430925105381012
0.243030303030303,-0.144458503246307,-0.103728576564789,-0.193818171787262
0.243636363636364,-0.0294975657463074,-0.015112853908538799,-0.253693660068512
0.244242424242424,-0.175593757152557,-0.120493713283539,-0.49559063272476195
0.244848484848485,0.0016376881599426201,-0.17318414297103898,-0.35188946084976197
0.245454545454545,-0.10853321027755701,0.147748474216461,-0.40218487100601197
0.246060606060606,-0.225889167308807,-0.0821734007835388,-0.481220515537262
0.246666666666667,-0.316899909496307,-0.0175078734397888,-0.236928523349762
0.247272727272727,-0.0366826243400574,0.20043890390396102,-0.143522761631012
0.247878787878788,-0.00075733137130738,-0.0725933226585388,-0.579416316318512
0.248484848484848,-0.175593757152557,-0.0797783812522888,-0.45248028116226197
0.249090909090909,-0.35043018293380696,0.0256024781227112,-0.268063777256012
0.24969696969697,-0.266604499340057,0.0232074585914612,-0.49319561319351196
0.25030303030303,0.0854633717536926,0.0806879273414612,-0.668032038974762
0.250909090909091,-0.0510527415275574,-0.0965435179710388,0.139089543056488
0.251515151515152,-0.118113288402557,-0.122888732814789,0.143879582118988
0.252121212121212,-0.0366826243400574,-0.024692932033538798,-0.639291804599762
0.252727272727273,-0.00075733137130738,0.0902680054664612,-0.43571514444351195
0.253333333333333,-0.209124030590057,0.123798278903961,-0.39499981241226195
0.253939393939394,-0.168408698558807,-0.225874572658539,-0.421345027256012
0.254545454545455,-0.0702128977775574,-0.0989385375022888,-0.447690242099762
0.255151515151515,-0.149248542308807,0.018417419528961202,-0.45248028116226197
0.255757575757576,-0.29055469465255696,-0.0294829710960388,-0.31356914834976196
0.256363636363636,-0.19475391340255702,0.0806879273414612,-0.160287898349762
0.256969696969697,-0.192358893871307,-0.106123596096039,-0.27524883584976195
0.257575757575758,-0.240259284496307,-0.331255432033539,-0.399789851474762
0.258181818181818,-0.0462627024650574,0.00165228281021119,-0.428530085849762
0.258787878787879,-0.28097461652755695,0.037577575778961196,-0.36386455850601196
0.259393939393939,-0.292949714183807,-0.154023986721039,-0.430925105381012
0.26,-0.304924811840057,0.0447626343727112,-0.430925105381012
0.260606060606061,-0.30971485090255696,-0.17318414297103898,-0.46206035928726197
0.261212121212121,-0.0797929759025574,-0.230664611721039,-0.632106746006012
0.261818181818182,-0.154038581371307,-0.0989385375022888,-0.438110163974762
0.262424242424242,-0.161223639965057,0.018417419528961202,-0.32314922647476196
0.263030303030303,-0.168408698558807,0.0279974976539612,-0.33512432413101195
0.263636363636364,-0.0031523509025573803,0.0974530640602112,-0.46206035928726197
0.264242424242424,-0.137273444652557,-0.106123596096039,-0.229743464756012
0.264848484848485,-0.170803718090057,-0.125283752346039,-0.18423809366226201
0.265454545454545,-0.0582378001213074,0.013627380466461201,-0.191423152256012
0.266060606060606,-0.237864264965057,0.0423676148414612,-0.287223933506012
0.266666666666667,-0.218704108715057,0.0232074585914612,-0.5626511795997621
0.267272727272727,-0.18517383527755701,-0.0869634398460388,-0.497985652256012
0.267878787878788,-0.494131354808807,0.169303649997711,-0.450085261631012
0.268484848484848,-0.192358893871307,0.0399725953102112,-0.224953425693512
0.269090909090909,-0.08937305402755741,-0.213899475002289,-0.241718562412262
0.26969696969697,-0.12529834699630701,-0.053433166408538804,-0.567441218662262
0.27030303030303,-0.019917487621307402,0.0423676148414612,-0.459665339756012
0.270909090909091,-0.173198737621307,-0.0438530882835388,-0.512355769443512
0.271515151515151,-0.0797929759025574,-0.0438530882835388,-0.260878718662262
0.272121212121212,-0.324084968090057,-0.180369201564789,-0.239323542881012
0.272727272727273,-0.386355475902557,-0.0654082640647888,-0.49319561319351196
0.273333333333333,-0.0031523509025573803,-0.0869634398460388,-0.466850398349762
0.273939393939394,-0.10374317121505701,-0.149233947658539,-0.179448054599762
0.274545454545455,-0.182778815746307,-0.0821734007835388,-0.126757624912262
0.275151515151515,-0.13008838605880702,-0.0725933226585388,-0.36386455850601196
0.275757575757576,-0.36001026105880696,-0.125283752346039,-0.30398907022476196
0.276363636363636,-0.362405280590057,-0.146838928127289,-0.368654597568512
0.276969696969697,-0.223494147777557,-0.051038146877288804,-0.359074519443512
0.277575757575758,-0.41988574934005696,-0.0725933226585388,-0.33272930459976197
0.278181818181818,-0.367195319652557,-0.139653869533539,-0.37344463663101196
0.278787878787879,-0.0271025462150574,-0.185159240627289,-0.356679499912262
0.279393939393939,-0.235469245433807,-0.209109435939789,-0.548281062412262
0.28,-0.197148932933807,0.12619329843521102,-0.8237083085060121
0.280606060606061,-0.144458503246307,0.0902680054664612,-0.43332012491226196
0.281212121212121,-0.0558427805900574,-0.055828185939788805,0.203755070400238
0.281818181818182,-0.00075733137130738,-0.0366680296897888,-0.406974910068512
0.282424242424242,-0.28815967512130697,-0.221084533596039,-0.43332012491226196
0.283030303030303,-0.228284186840057,-0.0486431273460388,-0.270458796787262
0.283636363636364,-0.0750029368400574,0.119008239841461,-0.596181453037262
0.284242424242424,-0.25941944074630696,0.0279974976539612,-0.476430476474762
0.284848484848485,-0.374380378246307,-0.273774963283539,-0.42374004678726196
0.285454545454545,-0.146853522777557,-0.0917534789085388,-0.41415996866226196
0.286060606060606,-0.08458301496505741,0.00165228281021119,-0.634501765537262
0.286666666666667,-0.32168994855880695,-0.0630132445335388,-0.371049617099762
0.287272727272727,-0.173198737621307,0.0926630249977112,-0.49319561319351196
0.287878787878788,-0.206729011058807,0.00883734140396119,-0.612946589756012
0.288484848484849,-0.216309089183807,-0.240244689846039,-0.440505183506012
0.289090909090909,-0.13008838605880702,-0.103728576564789,-0.33272930459976197
0.28969696969697,-0.405515632152557,0.0998480835914612,-0.49559063272476195
0.29030303030303,-0.264209479808807,-0.027087951564788798,-0.38541973428726195
0.290909090909091,-0.302529792308807,0.00165228281021119,-0.155497859287262
0.291515151515152,-0.422280768871307,-0.0989385375022888,-0.368654597568512
0.292121212121212,-0.204333991527557,-0.0175078734397888,-0.39260479288101197
0.292727272727273,-0.46778613996505697,0.0303925171852112,-0.430925105381012
0.293333333333333,-0.30013477277755696,-0.127678771877289,-0.29201397256851197
0.293939393939394,-0.197148932933807,-0.16839410390853898,-0.253693660068512
0.294545454545455,-0.27857959699630697,-0.027087951564788798,-0.6632419999122621
0.295151515151515,-0.166013679027557,0.0806879273414612,-0.5650461991310121
0.295757575757576,-0.254629401683807,0.0854779664039612,-0.236928523349762
0.296363636363636,-0.161223639965057,-0.0294829710960388,-0.40457989053726195
0.296969696969697,-0.304924811840057,-0.142048889064789,-0.459665339756012
0.297575757575758,-0.13966846418380702,-0.101333557033539,-0.35428448038101196
0.298181818181818,0.111808586597443,-0.175579162502289,-0.33512432413101195
0.298787878787879,-0.216309089183807,-0.0127178343772888,-0.30398907022476196
0.299393939393939,-0.233074225902557,0.114218200778961,-0.289618953037262
0.3,0.0854633717536926,-0.0845684203147888,-0.196213191318512
0.300606060606061,-0.151643561840057,-0.209109435939789,-0.440505183506012
0.301212121212121,-0.206729011058807,-0.292935119533539,-0.6033665116310121
0.301818181818182,-0.158828620433807,0.0471576539039612,-0.49319561319351196
0.302424242424242,-0.237864264965057,0.00644232187271119,-0.172262996006012
0.303030303030303,-0.285764655590057,-0.180369201564789,-0.368654597568512
0.303636363636364,-0.161223639965057,-0.0749883421897888,-0.49559063272476195
0.304242424242424,-0.292949714183807,-0.125283752346039,-0.339914363193512
0.304848484848485,0.0016376881599426201,-0.113308654689789,-0.366259578037262
0.305454545454545,-0.0271025462150574,-0.199529357814789,-0.136337703037262
0.306060606060606,-0.18996387434005702,0.119008239841461,-0.517145808506012
0.306666666666667,0.0016376881599426201,-0.110913635158539,-0.210583308506012
0.307272727272727,-0.163618659496307,-0.295330139064789,-0.239323542881012
0.307878787878788,-0.120508307933807,-0.0318779906272888,-0.43571514444351195
0.308484848484848,-0.273789557933807,-0.0055327757835388095,-0.18902813272476202
0.309090909090909,-0.180383796215057,-0.113308654689789,-0.457270320224762
0.30969696969697,-0.132483405590057,-0.245034728908539,-0.670427058506012
0.31030303030303,-0.34803516340255697,-0.213899475002289,-0.639291804599762
0.310909090909091,-0.223494147777557,-0.165999084377289,0.0289186446189876
0.311515151515152,-0.206729011058807,0.0279974976539612,-0.347099421787262
0.312121212121212,-0.273789557933807,-0.024692932033538798,-0.46445537881851195
0.312727272727273,-0.316899909496307,-0.182764221096039,-0.418950007724762
0.313333333333333,-0.436650886058807,-0.245034728908539,-0.6057615311622621
0.313939393939394,-0.0486577219963074,0.00404730234146119,-0.366259578037262
0.314545454545455,0.0423530201911926,0.128588317966461,-0.32554424600601195
0.315151515151515,-0.144458503246307,-0.0725933226585388,-0.45487530069351195
0.315757575757576,-0.235469245433807,-0.0917534789085388,-0.490800593662262
0.316363636363636,-0.127693366527557,-0.0989385375022888,-0.366259578037262
0.316969696969697,-0.120508307933807,-0.0294829710960388,-0.38541973428726195
0.317575757575758,-0.204333991527557,0.27228948984146095,-0.337519343662262
0.318181818181818,-0.146853522777557,0.0926630249977112,-0.426135066318512
0.318787878787879,-0.0965581126213074,-0.146838928127289,-0.007006648349762439
0.319393939393939,-0.24504932355880701,-0.0869634398460388,-0.0764622147560124
0.32,-0.302529792308807,-0.103728576564789,-0.241718562412262
0.320606060606061,-0.230679206371307,0.0447626343727112,-0.186633113193512
0.321212121212121,-0.154038581371307,-0.137258850002289,-0.31356914834976196
0.321818181818182,-0.31929492902755696,-0.285750060939789,-0.35188946084976197
0.322424242424242,-0.242654304027557,-0.38873590078353903,-0.517145808506012
0.323030303030303,0.126178703784943,-0.127678771877289,-0.447690242099762
0.323636363636364,-0.225889167308807,0.0447626343727112,-0.46206035928726197
0.324242424242424,-0.247444343090057,-0.321675353908539,-0.5099607499122619
0.324848484848485,-0.166013679027557,-0.264194885158539,-0.500380671787262
0.325454545454545,-0.27857959699630697,-0.17797418203353899,-0.653661921787262
0.326060606060606,-0.120508307933807,-0.0654082640647888,-0.447690242099762
0.326666666666667,-0.24983936262130702,0.0950580445289612,-0.124362605381012
0.327272727272727,-0.30013477277755696,0.00644232187271119,-0.277643855381012
0.327878787878788,-0.28815967512130697,-0.22826959218978898,-0.43332012491226196
0.328484848484848,-0.31929492902755696,-0.189949279689789,-0.224953425693512
0.329090909090909,-0.161223639965057,-0.0342730101585388,-0.478825496006012
0.32969696969697,-0.223494147777557,0.0399725953102112,-0.38541973428726195
0.33030303030303,-0.216309089183807,-0.235454650783539,-0.131547663974762
0.330909090909091,-0.187568854808807,-0.16360406484603898,-0.6440818436622621
0.331515151515152,-0.30013477277755696,-0.0989385375022888,-0.7805979569435121
0.332121212121212,-0.154038581371307,-0.221084533596039,-0.38302471475601196
0.332727272727273,-0.295344733715057,0.0878729859352112,-0.191423152256012
0.333333333333333,-0.08458301496505741,0.0806879273414612,-0.390209773349762
0.333939393939394,-0.0702128977775574,-0.106123596096039,-0.447690242099762
0.334545454545455,-0.240259284496307,-0.204319396877289,-0.318359187412262
0.335151515151515,-0.0678178782463074,-0.149233947658539,-0.47164043741226197
0.335757575757576,-0.0486577219963074,0.0735028687477112,-0.378234675693512
0.336363636363636,-0.175593757152557,-0.0318779906272888,-0.296804011631012
0.336969696969697,-0.32887500715255696,-0.209109435939789,-0.318359187412262
0.337575757575758,-0.110928229808807,-0.0797783812522888,-0.39260479288101197
0.338181818181818,-0.247444343090057,0.12619329843521102,-0.34230938272476197
0.338787878787879,-0.233074225902557,-0.0701983031272888,-0.33272930459976197
0.339393939393939,-0.187568854808807,-0.16360406484603898,-0.428530085849762
0.34,-0.149248542308807,-0.108518615627289,0.0552638594627376
0.340606060606061,-0.0247075266838074,-0.0893584593772888,0.0408937422752376
0.341212121212121,-0.362405280590057,-0.0797783812522888,-0.457270320224762
0.341818181818182,0.0160078053474426,-0.0749883421897888,-0.26566875772476195
0.342424242424242,-0.0582378001213074,-0.0678032835960388,-0.227348445224762
0.343030303030303,-0.28097461652755695,-0.0725933226585388,-0.366259578037262
0.343636363636364,-0.24504932355880701,-0.261799865627289,-0.224953425693512
0.344242424242424,-0.486946296215057,-0.201924377346039,-0.512355769443512
0.344848484848485,-0.18517383527755701,0.00883734140396119,-0.5434910233497621
0.345454545454545,-0.0151274485588074,-0.055828185939788805,-0.409369929599762
0.346060606060606,-0.266604499340057,-0.39831597890853904,-0.330334285068512
0.346666666666667,-0.10853321027755701,-0.245034728908539,-0.349494441318512
0.347272727272727,-0.0103374094963074,0.138168396091461,-0.47403545694351196
0.347878787878788,-0.201938971996307,0.253129333591461,-0.25608867959976195
0.348484848484849,-0.35761524152755697,0.14056341562271102,-0.33512432413101195
0.349090909090909,-0.149248542308807,-0.110913635158539,-0.347099421787262
0.34969696969697,-0.0941630930900574,0.00404730234146119,-0.224953425693512
0.35030303030303,-0.166013679027557,-0.26898492422103903,-0.579416316318512
0.350909090909091,-0.266604499340057,-0.060618225002288806,-0.677612117099762
0.351515151515152,-0.36959033918380696,0.193253845310211,-0.397394831943512
0.352121212121212,-0.0941630930900574,-0.0701983031272888,-0.5434910233497621
0.352727272727273,-0.235469245433807,-0.30012017812728903,-0.28482891397476195
0.353333333333333,-0.209124030590057,-0.0965435179710388,-0.40457989053726195
0.353939393939394,-0.31929492902755696,0.0926630249977112,-0.40218487100601197
0.354545454545455,-0.254629401683807,-0.0917534789085388,-0.25608867959976195
0.355151515151515,-0.0582378001213074,0.013627380466461201,-0.49319561319351196
0.355757575757576,-0.192358893871307,-0.115703674221039,-0.490800593662262
0.356363636363636,0.116598625659943,-0.221084533596039,-0.390209773349762
0.356969696969697,-0.218704108715057,0.123798278903961,-0.457270320224762
0.357575757575758,-0.127693366527557,0.138168396091461,-0.33272930459976197
0.358181818181818,-0.0750029368400574,0.138168396091461,-0.203398249912262
0.358787878787879,-0.465391120433807,-0.0773833617210388,-0.481220515537262
0.359393939393939,-0.00794238996505738,-0.0318779906272888,-0.416554988193512
0.36,-0.237864264965057,0.142958435153961,-0.39499981241226195
0.360606060606061,-0.31929492902755696,0.18127874765396101,-0.409369929599762
0.361212121212121,-0.012732429027557399,0.0303925171852112,-0.318359187412262
0.361818181818182,-0.154038581371307,-0.0797783812522888,-0.347099421787262
0.362424242424242,-0.276184577465057,0.0495526734352112,-0.236928523349762
0.363030303030303,-0.146853522777557,-0.051038146877288804,-0.222558406162262
0.363636363636364,-0.233074225902557,0.0735028687477112,-0.41415996866226196
0.364242424242424,-0.221099128246307,0.032787536716461195,-0.306384089756012
0.364848484848485,-0.149248542308807,-0.27856500234603904,-0.33512432413101195
0.365454545454545,0.0207978444099426,-0.247429748439789,-0.5410960038185121
0.366060606060606,-0.163618659496307,-0.108518615627289,-0.457270320224762
0.366666666666667,-0.34803516340255697,-0.0222979125022888,-0.287223933506012
0.367272727272727,-0.221099128246307,-0.161209045314789,-0.459665339756012
0.367878787878788,-0.216309089183807,-0.156419006252289,-0.591391413974762
0.368484848484848,0.0639081959724426,0.0447626343727112,-0.299199031162262
0.369090909090909,-0.0797929759025574,-0.0797783812522888,-0.114782527256012
0.36969696969697,-0.120508307933807,0.0735028687477112,-0.339914363193512
0.37030303030303,-0.32168994855880695,0.0806879273414612,0.0504738204002376
0.370909090909091,-0.264209479808807,-0.28814508047103904,0.32590106649398803
0.371515151515152,0.027982903003692598,-0.115703674221039,-0.222558406162262
0.372121212121212,-0.307319831371307,0.119008239841461,-0.459665339756012
0.372727272727273,-0.376775397777557,-0.0414580687522888,-0.308779109287262
0.373333333333333,-0.182778815746307,-0.134863830471039,-0.35428448038101196
0.373939393939394,-0.177988776683807,-0.252219787502289,-0.33512432413101195
0.374545454545455,-0.0103374094963074,-0.27616998281478905,-0.529120906162262
0.375151515151515,0.0375629811286926,-0.146838928127289,-0.421345027256012
0.375757575757576,-0.142063483715057,-0.154023986721039,-0.371049617099762
0.376363636363636,-0.201938971996307,0.0543427124977112,-0.596181453037262
0.376969696969697,-0.0702128977775574,-0.0869634398460388,-0.476430476474762
0.377575757575758,0.0782783131599426,-0.182764221096039,-0.466850398349762
0.378181818181818,-0.240259284496307,0.0160223999977112,-0.596181453037262
0.378787878787879,-0.137273444652557,-0.130073791408539,-0.112387507724762
0.379393939393939,-0.19475391340255702,-0.142048889064789,-0.36386455850601196
0.38,-0.211519050121307,-0.213899475002289,-0.430925105381012
0.380606060606061,-0.29055469465255696,-0.0654082640647888,-0.327939265537262
0.381212121212121,-0.292949714183807,0.059132751560211194,-0.406974910068512
0.381818181818182,-0.132483405590057,0.0543427124977112,-0.220163386631012
0.382424242424242,-0.233074225902557,-0.00792779531478881,-0.49559063272476195
0.383030303030303,-0.36959033918380696,-0.146838928127289,-0.5099607499122619
0.383636363636364,-0.276184577465057,-0.120493713283539,-0.421345027256012
0.384242424242424,-0.27139453840255695,-0.0127178343772888,-0.232138484287262
0.384848484848485,-0.276184577465057,0.0830829468727112,-0.46206035928726197
0.385454545454545,-0.10134815168380701,0.13098333749771102,-0.306384089756012
0.386060606060606,-0.276184577465057,-0.060618225002288806,-0.526725886631012
0.386666666666667,-0.192358893871307,-0.134863830471039,-0.490800593662262
0.387272727272727,-0.216309089183807,-0.0390630492210388,-0.0956223710060124
0.387878787878788,-0.302529792308807,0.145353454685211,-0.239323542881012
0.388484848484848,-0.5037114329338069,0.0639227906227112,-0.49319561319351196
0.389090909090909,-0.182778815746307,-0.118098693752289,-0.512355769443512
0.38969696969697,-0.0606328196525574,-0.0390630492210388,-0.260878718662262
0.39030303030303,-0.35043018293380696,0.00883734140396119,-0.28482891397476195
0.390909090909091,-0.34803516340255697,-0.0462481078147888,-0.155497859287262
0.391515151515152,-0.304924811840057,0.0495526734352112,-0.311174128818512
0.392121212121212,-0.343245124340057,-0.0055327757835388095,-0.44290020303726196
0.392727272727273,-0.201938971996307,-0.185159240627289,-0.478825496006012
0.393333333333333,-0.118113288402557,-0.0965435179710388,-0.46445537881851195
0.393939393939394,-0.242654304027557,0.0471576539039612,-0.361469538974762
0.394545454545455,0.0136127858161926,-0.060618225002288806,-0.466850398349762
0.395151515151515,-0.127693366527557,0.037577575778961196,-0.191423152256012
0.395757575757576,-0.156433600902557,-0.00792779531478881,-0.26566875772476195
0.396363636363636,-0.0558427805900574,-0.182764221096039,-0.632106746006012
0.396969696969697,-0.237864264965057,-0.187554260158539,-0.46206035928726197
0.397575757575758,-0.228284186840057,-0.0701983031272888,-0.421345027256012
0.398181818181818,-0.326479987621307,0.0782929078102112,-0.529120906162262
0.398787878787879,-0.204333991527557,-0.285750060939789,-0.409369929599762
0.399393939393939,-0.115718268871307,-0.175579162502289,0.25644550008773803
0.4,-0.18517383527755701,0.032787536716461195,-0.421345027256012
0.400606060606061,-0.173198737621307,-0.0055327757835388095,-0.0764622147560124
0.401212121212121,-0.12529834699630701,-0.161209045314789,0.242075382900238
0.401818181818182,-0.00794238996505738,-0.0893584593772888,-0.5818113358497621
0.402424242424242,-0.235469245433807,-0.0678032835960388,-0.48361553506851196
0.403030303030303,-0.230679206371307,0.0423676148414612,-0.31356914834976196
0.403636363636364,-0.132483405590057,0.10224310312271101,-0.31596416788101195
0.404242424242424,-0.0750029368400574,-0.142048889064789,-0.416554988193512
0.404848484848485,-0.122903327465057,-0.16839410390853898,-0.28243389444351197
0.405454545454545,-0.192358893871307,0.0423676148414612,-0.5650461991310121
0.406060606060606,-0.453416022777557,-0.0678032835960388,-0.438110163974762
0.406666666666667,-0.412700690746307,-0.0845684203147888,-0.390209773349762
0.407272727272727,-0.0989531321525574,-0.015112853908538799,-0.378234675693512
0.407878787878788,-0.28815967512130697,-0.118098693752289,-0.38541973428726195
0.408484848484849,-0.158828620433807,-0.242639709377289,-0.538700984287262
0.409090909090909,0.049538078784942596,0.0567377320289612,-0.447690242099762
0.40969696969697,-0.10374317121505701,0.00165228281021119,-0.418950007724762
0.41030303030303,-0.158828620433807,-0.187554260158539,-0.145917781162262
0.410909090909091,-0.110928229808807,-0.0127178343772888,-0.41176494913101197
0.411515151515152,-0.10853321027755701,-0.16360406484603898,-0.36386455850601196
0.412121212121212,-0.13487842512130702,-0.0965435179710388,-0.430925105381012
0.412727272727273,-0.39114551496505695,0.061527771091461195,-0.5434910233497621
0.413333333333333,-0.24983936262130702,0.11182318124771101,-0.296804011631012
0.413939393939394,-0.166013679027557,-0.185159240627289,-0.08125225381851241
0.414545454545455,-0.163618659496307,-0.35760064687728904,-0.260878718662262
0.415151515151515,-0.142063483715057,-0.058223205471038805,-0.43332012491226196
0.415757575757576,-0.168408698558807,0.0543427124977112,-0.24890362100601202
0.416363636363636,-0.173198737621307,0.037577575778961196,-0.327939265537262
0.416969696969697,-0.295344733715057,-0.187554260158539,-0.308779109287262
0.417575757575758,-0.223494147777557,-0.29772515859603904,-0.536305964756012
0.418181818181818,-0.34085010480880695,-0.0773833617210388,-0.481220515537262
0.418787878787879,-0.10134815168380701,0.0782929078102112,-0.29440899209976196
0.419393939393939,-0.118113288402557,0.0423676148414612,-0.287223933506012
0.42,-0.324084968090057,-0.134863830471039,-0.32554424600601195
0.420606060606061,-0.158828620433807,0.00644232187271119,-0.33272930459976197
0.421212121212121,-0.304924811840057,-0.146838928127289,-0.39499981241226195
0.421818181818182,-0.367195319652557,-0.120493713283539,-0.327939265537262
0.422424242424242,-0.312109870433807,-0.0127178343772888,-0.239323542881012
0.423030303030303,-0.257024421215057,-0.22347955312728898,-0.368654597568512
0.423636363636364,-0.170803718090057,-0.31928033437728903,-0.46206035928726197
0.424242424242424,-0.0702128977775574,-0.015112853908538799,-0.45487530069351195
0.424848484848485,-0.012732429027557399,0.0160223999977112,-0.31356914834976196
0.425454545454545,-0.24504932355880701,-0.106123596096039,-0.205793269443512
0.426060606060606,-0.235469245433807,0.327374939060211,-0.40218487100601197
0.426666666666667,-0.10374317121505701,-0.39831597890853904,-0.459665339756012
0.427272727272727,-0.431860846996307,-0.460586486721039,-0.476430476474762
0.427878787878788,-0.19954395246505702,0.703393005466461,0.110349308681488
0.428484848484848,-0.0510527415275574,0.308214782810211,-0.809338191318512
0.429090909090909,-0.551611823558807,-1.38027398672104,-0.6033665116310121
0.42969696969697,0.35849559831619304,1.0458807984352099,0.182199894618988
0.43030303030303,0.31059520769119303,0.37048529062271096,0.0768190352439876
0.430909090909091,-1.0473808665275601,-1.28686822500229,-0.0980173905372624
0.431515151515152,-0.0342876048088074,0.780033630466461,0.122324406337738
0.432121212121212,0.26748485612869305,0.540531677341461,-0.308779109287262
0.432727272727273,-0.951580085277557,-0.927615295314789,-1.23325664834976
0.433333333333333,-0.565981940746307,-0.280960021877289,-0.548281062412262
0.433939393939394,1.56798046159744,0.751293396091461,-0.0668821366310124
0.434545454545455,0.150128899097443,-0.23305963125228898,-0.486010554599762
0.435151515151515,-1.7012211985588102,-0.44861138906478903,-0.246508601474762
0.435757575757576,-0.953975104808807,1.03390570077896,-0.430925105381012
0.436363636363636,0.954855461597443,-0.9228252562522891,-0.519540828037262
0.436969696969697,-0.0247075266838074,0.542926696872711,-0.799758113193512
0.437575757575758,-1.3419682688713102,0.621962341403961,0.0217335860252376
0.438181818181818,0.212399406909943,-2.68076959218979,-0.43332012491226196
0.438787878787879,1.5368452076911898,2.5858783570289603,-0.878793757724762
0.439393939393939,-1.2868828196525601,-0.314490295314789,-0.418950007724762
0.44,-2.24968067121506,-2.20176568593979,-0.854843562412262
0.440606060606061,2.4828779225349398,1.54883489999771,0.0624489180564876
0.441212121212121,0.49740673112869305,1.66858587656021,-0.31356914834976196
0.441818181818182,-3.37054981184006,-2.4532427367210397,-1.13027080850601
0.442424242424242,-0.127693366527557,-1.1096367796897901,-0.610551570224762
0.443030303030303,3.70433788347244,4.98329290781021,-1.1111106522560101
0.443636363636364,-2.2377055735588103,-3.0424175414085397,-0.34230938272476197
0.444242424242424,-2.4939726634025603,-1.16472222890854,-0.40218487100601197
0.444848484848485,2.79662548112869,1.63266058359146,-0.18902813272476202
0.445454545454545,0.830314445972443,0.830329040622711,-0.35428448038101196
0.446060606060606,-2.8029301829338102,-1.5886406859397901,-0.806943171787262
0.446666666666667,-0.982715339183807,-0.7240386351585391,-0.670427058506012
0.447272727272727,2.9882270436286897,2.5355829468727102,-0.593786433506012
0.447878787878788,-1.08809619855881,-2.11554498281479,-0.38541973428726195
0.448484848484848,-1.82815723371506,0.808773864841461,-0.459665339756012
0.449090909090909,0.906955070972443,-0.453401428127289,-0.668032038974762
0.44969696969697,2.28409130144119,1.78354681406021,-0.141127742099762
0.45030303030303,-2.47960254621506,-0.539622131252289,0.26602557821273803
0.450909090909091,-3.69627246809006,-2.2640361937522897,-1.2979221756935102
0.451515151515152,3.67080761003494,2.67688909921646,-0.222558406162262
0.452121212121212,0.530937004566193,0.346535095310211,0.0169435469627376
0.452727272727273,-4.07947559309006,-2.06524957265854,-2.1888694413185097
0.453333333333333,1.0961616139411898,-1.21741265859604,0.460022160243988
0.453939393939394,3.99174022722244,4.33903265390396,0.00257342977523756
0.454545454545455,-2.64725391340256,-1.8712529906272901,-1.1997263749122602
0.455151515151515,-3.4783256907463103,-1.75629205312729,-0.10041241006851201
0.455757575757576,3.39777538347244,2.5355829468727102,-0.699167292881012
0.456363636363636,0.842289543628693,-0.472561584377289,-0.124362605381012
0.456969696969697,-3.43761035871506,-0.647398010158539,-0.550676081943512
0.457575757575758,-1.1886870188713101,-1.45691461172104,-0.711142390537262
0.458181818181818,4.66474071550369,4.00372991952896,-0.9841746170997621
0.458787878787879,-1.56949512434006,-1.9478936156272901,0.0696339766502376
0.459393939393939,-4.56566455793381,-1.90717828359604,0.450442082118988
0.46,4.27195751237869,0.871044372653961,0.179804875087738
0.460606060606061,1.6949164967536898,1.36920843515396,-0.869213679599762
0.461212121212121,-3.8208134837150602,-0.49651177968978905,-0.0764622147560124
0.461818181818182,-2.85083057355881,-3.61961724843979,-0.929089167881012
0.462424242424242,5.83111522722244,4.262392028903959,-0.349494441318512
0.463030303030303,-0.37917041730880696,-0.460586486721039,0.0911891524314876
0.463636363636364,-4.90815235090256,-2.56820367422104,-2.0595383866310097
0.464242424242424,2.34157177019119,0.176488708591461,0.0672389571189876
0.464848484848485,3.08881786394119,3.50556585702896,0.189384953212738
0.465454545454545,-2.99213672590256,-1.89041314687729,-1.4488084061622601
0.466060606060606,-3.54299121809006,-2.2975664671897897,-0.40218487100601197
0.466666666666667,5.02159862565994,3.73788275156021,-0.6632419999122621
0.467272727272727,0.272274895191193,-0.645002990627289,-0.160287898349762
0.467878787878788,-4.72373584699631,-1.55750543203354,-0.737487605381012
0.468484848484849,-0.0965581126213074,-1.31321343984604,-1.15661602334976
0.469090909090909,6.02032177019119,4.57374456796646,0.198965031337738
0.46969696969697,-3.51425098371506,-2.3239116820335397,-0.5075657303810119
0.47030303030303,-5.28177539777756,-2.03650933828354,-0.718327449131012
0.470909090909091,5.18206493425369,1.85300238046646,-0.653661921787262
0.471515151515151,1.17040721940994,0.475866149997711,0.388171574306488
0.472121212121212,-4.19204151105881,0.224389099216461,-0.816523249912262
0.472727272727273,-2.0077836985588102,-3.41604058828354,-0.754252742099762
0.473333333333333,4.99525341081619,3.92469427499771,-0.5818113358497621
0.473939393939394,-0.994690436840057,-0.31928033437728903,-0.699167292881012
0.474545454545455,-5.20752979230881,-1.83532769765854,-0.48361553506851196
0.475151515151515,3.01217723894119,0.00883734140396119,0.160644718837738
0.475757575757576,3.96539501237869,3.85523870859146,-0.277643855381012
0.476363636363636,-5.03508838605881,-2.17542047109604,-1.77453106241226
0.476969696969697,-4.72852588605881,-3.8567241820335396,-0.45248028116226197
0.477575757575758,7.93873241472244,6.15685247812271,0.419306828212738
0.478181818181818,-0.886914557933807,-0.8437896117210391,-0.986569636631012
0.478787878787879,-6.87446338605881,-4.0052153929710395,-1.28355205850601
0.479393939393939,3.26604930925369,-0.0893584593772888,-0.143522761631012
0.48,4.88508251237869,5.04316839609146,-0.816523249912262
0.480606060606061,-4.33813770246506,-4.29501275625229,-0.191423152256012
0.481212121212121,-4.12977100324631,-0.8222344359397891,-0.478825496006012
0.481818181818182,6.0634321217536895,2.79424505624771,-0.406974910068512
0.482424242424242,0.114203606128693,-1.39464410390854,-0.028561824131012402
0.483030303030303,-4.60398487043381,0.6147772828102109,-0.7805979569435121
0.483636363636364,-0.9396049876213071,-2.5825737914085396,-1.19493633584976
0.484242424242424,6.04906200456619,3.75464788827896,0.450442082118988
0.484848484848485,-1.92635303449631,0.0447626343727112,-0.25129864053726203
0.485454545454545,-6.85051319074631,-3.3082647093772897,-1.00333477334976
0.486060606060606,4.83718212175369,1.45063909921646,-0.153102839756012
0.486666666666667,3.9797651295661898,3.26366888437271,-0.0644871170997624
0.487272727272727,-5.72724903059006,-2.8819512328147896,-1.2524168045997601
0.487878787878788,-3.38012988996506,-3.42322564687729,0.0169435469627376
0.488484848484848,7.81898143815994,5.000058044528959,0.249260441493988
0.489090909090909,-1.1359965891838102,0.114218200778961,-1.77213604288101
0.48969696969697,-7.03492969465256,-3.36335015859604,-0.715932429599762
0.49030303030303,3.5007612233161898,-0.5036968382835391,0.46481219930648804
0.490909090909091,4.69108593034744,5.100648864841459,-0.708747371006012
0.491515151515152,-4.8003764719963105,-3.06636773672104,-1.1877512772560102
0.492121212121212,-4.36448291730881,-2.4268975218772897,-0.874003718662262
0.492727272727273,7.55313427019119,4.74379095468521,-0.239323542881012
0.493333333333333,0.29862011003494304,-1.15993218984604,-0.153102839756012
0.493939393939394,-7.08762012434006,-2.1275200804710397,-1.0584202225685102
0.494545454545455,1.25662792253494,-0.812654357814789,-0.938669246006012
0.495151515151515,6.88971386003494,4.57374456796646,-0.579416316318512
0.495757575757576,-4.37645801496506,-2.8220757445335396,-0.224953425693512
0.496363636363636,-6.01704639387131,-2.32151666250229,-0.117177546787262
0.496969696969697,6.67416210222244,2.18112005624771,-1.33145244913101
0.497575757575758,1.43146434831619,0.5932221070289609,0.17022479696273798
0.498181818181818,-5.4326616282463105,0.202833923435211,-0.612946589756012
0.498787878787879,-2.26884082746506,-3.8878594359397898,-0.972199519443512
0.499393939393939,6.89450389909744,4.255206970310209,0.8743605391502379
0.5,-1.6365556712150602,0.8925995484352109,-1.0680003006935102
0.500606060606061,-7.10438526105881,-3.8375640257835397,-1.5637693436622602
0.501212121212121,5.09823925065994,0.45191595468521095,0.29476581258773804
0.501818181818182,4.53780468034744,5.08388372812271,-0.48361553506851196
0.502424242424242,-6.07452686262131,-3.4280156859397897,-1.02728496866226
0.503030303030303,-4.76445117902756,-3.95491998281479,-0.126757624912262
0.503636363636364,9.179352531909942,7.26574652109146,-1.1781711991310102
0.504242424242424,-1.07133106184006,-1.86885797109604,-1.59250957803726
0.504848484848485,-8.25399463605881,-3.2651543578147897,0.38338153524398805
0.505454545454545,3.00738719987869,-0.37915582265853903,0.517502628993988
0.506060606060606,6.23347850847244,5.19644964609146,-1.00812481241226
0.506666666666667,-5.24345508527756,-3.14061334218979,-0.636896785068512
0.507272727272727,-5.14525928449631,-3.06397271718979,-0.751857722568512
0.507878787878788,7.89083202409744,4.19293646249771,-0.526725886631012
0.508484848484849,0.30820018815994304,-1.1910674437522901,-0.0141917069435124
0.509090909090909,-6.04578662824631,-0.225874572658539,-0.790178035068512
0.50969696969697,-0.383960456371307,-2.03650933828354,-0.996149714756012
0.51030303030303,7.46930858659744,3.9797797242164603,0.292370793056488
0.510909090909091,-3.03045703840256,-0.494116760158539,-0.0764622147560124
0.511515151515151,-8.301895026683809,-3.16695855703354,-0.919509089756012
0.512121212121212,6.09456737565994,0.969240173435211,-0.31356914834976196
0.512727272727273,4.8323920826911895,4.3031073609352095,-0.339914363193512
0.513333333333333,-7.24090137434006,-2.7166948851585397,-1.01051983194351
0.513939393939394,-3.36575977277756,-4.61115533437729,-0.497985652256012
0.514545454545455,9.74697216081619,6.95199896249771,0.17022479696273798
0.515151515151515,-1.88803272199631,-0.510881896877289,-0.850053523349762
0.515757575757576,-8.16537891340256,-4.11778131093979,-0.766227839756012
0.516363636363636,4.54498973894119,0.586037048435211,-0.28243389444351197
0.516969696969697,5.31618602800369,4.68631048593521,-0.418950007724762
0.517575757575758,-5.96435596418381,-3.04481256093979,-0.38302471475601196
0.518181818181818,-4.96084278059006,-1.9862139281272901,-1.18535625772476
0.518787878787879,8.84883983659744,4.15222113046646,-0.548281062412262
0.519393939393939,0.624342766284943,-0.508486877346039,0.0241286055564876
0.52,-8.42643604230881,-2.13949517812729,-0.0381419022560124
0.520606060606061,1.61109081315994,-1.87843804922104,0.182199894618988
0.521212121212121,7.44775341081619,5.53654241952896,-0.835683406162262
0.521818181818182,-4.72373584699631,-1.8113775023460401,0.0840040938377376
0.522424242424242,-7.36544238996506,-3.76331842031479,-0.711142390537262
0.523030303030303,7.98902782487869,2.42780706796646,-0.555466121006012
0.523636363636364,2.7583051686286897,2.4062518921852103,0.299555851650238
0.524242424242424,-7.50674854230881,-1.86885797109604,-1.66915020303726
0.524848484848485,-1.36112842512131,-3.7944536742210397,-0.6608469803810121
0.525454545454546,8.635683098316191,5.45750677499771,0.369011418056488
0.526060606060606,-2.39577686262131,-0.853369689846039,0.0648439375877376
0.526666666666667,-8.34261035871506,-3.54537164297104,-1.2739719803810101
0.527272727272727,5.94128612565994,1.00037542734146,-0.0716721756935124
0.527878787878788,5.10781932878494,4.21209661874771,-0.629711726474762
0.528484848484848,-6.77866260480881,-3.24359918203354,-0.9242991288185121
0.529090909090909,-4.63512012434006,-4.18244683828354,-0.711142390537262
0.52969696969697,10.233161125659901,6.98792425546646,-0.826103328037262
0.53030303030303,-0.8198540110588071,-0.728828674221039,-0.172262996006012
0.530909090909091,-9.987988776683808,-3.13103326406479,-0.289618953037262
0.531515151515151,3.71870800065994,-0.321675353908539,-0.629711726474762
0.532121212121212,7.01664989519119,4.93060247812271,-0.37583965616226195
0.532727272727273,-5.52367237043381,-2.6328692015647897,-0.0501169999122624
0.533333333333333,-5.93322071027756,-3.1382183226585396,-1.1278757889747602
0.533939393939394,8.18781444597244,3.7905731812477104,-0.519540828037262
0.534545454545455,1.50810497331619,0.29144964609146096,-0.0309568436622624
0.535151515151515,-7.47561328840256,-1.09766168203354,-0.555466121006012
0.535757575757576,-0.28815967512130697,-3.0256524046897897,-0.356679499912262
0.536363636363636,8.53269725847244,5.83112982187271,0.105559269618988
0.536969696969697,-3.80883838605881,-1.21741265859604,-0.320754206943512
0.537575757575758,-9.16170703840256,-4.180051818752291,-1.13745586709976
0.538181818181818,8.12314891862869,1.7811517945289599,-0.42374004678726196
0.538787878787879,4.79646678972244,4.35100775156021,-0.208188288974762
0.539393939393939,-9.154521979808809,-3.3010796507835396,-1.05363018350601
0.54,-2.78377002668381,-3.8375640257835397,-1.25720684366226
0.540606060606061,10.6379194264412,7.02624456796646,-0.18423809366226201
0.541212121212121,-2.24249561262131,-1.97423883047104,0.00975848836898756
0.541818181818182,-9.10662158918381,-2.82686578359604,-0.459665339756012
0.542424242424242,4.72940624284744,0.717763122653961,-0.308779109287262
0.543030303030303,5.68022899675369,3.96540960702896,-0.567441218662262
0.543636363636364,-5.91645557355881,-2.74543511953354,-0.31356914834976196
0.544242424242424,-4.6542802805900605,-2.75501519765854,-0.45487530069351195
0.544848484848485,9.016491203784941,4.03965521249771,-0.988964656162262
0.545454545454545,0.966830559253693,0.677047790622711,0.107954289150238
0.546060606060606,-9.432344245433809,-2.4005523070335397,-0.153102839756012
0.546666666666667,1.70449657487869,-2.36941705312729,-0.7422776444435121
0.547272727272727,8.35307079362869,5.50780218515396,-0.512355769443512
0.547878787878788,-5.45182178449631,-1.29405328359604,0.33548114461898804
0.548484848484848,-8.30668506574631,-4.02677056875229,-2.02121807413101
0.549090909090909,8.77459423112869,2.25536566171646,0.198965031337738
0.54969696969697,3.77379344987869,3.42892523202896,0.39296161336898805
0.55030303030303,-9.13057178449631,-3.66991265859604,-1.89188701944351
0.550909090909091,-1.1575517649650602,-3.38251031484604,-0.169867976474762
0.551515151515152,9.749367180347441,6.896913513278959,-0.596181453037262
0.552121212121212,-3.3849199290275602,-1.84251275625229,-0.6440818436622621
0.552727272727273,-8.414460944652559,-3.5717168578147898,-0.35188946084976197
0.553333333333333,6.47777050065994,1.46021917734146,-0.732697566318512
0.553939393939394,5.42635692644119,3.6971674195289603,-0.8811887772560121
0.554545454545455,-7.41573780012131,-2.8699761351585398,0.110349308681488
0.555151515151515,-4.41956836652756,-3.5884819945335398,-1.4655735428810102
0.555757575757576,11.339660149097401,5.373681091403959,-0.009401667881012439
0.556363636363636,-1.4018437571525602,-0.898875060939789,0.400146671962738
0.556969696969697,-10.9699467844963,-2.2903814085960397,-0.6440818436622621
0.557575757575758,4.13783641862869,-1.0282061156272901,-0.7805979569435121
0.558181818181818,7.01664989519119,4.27915716562271,-0.553071101474762
0.558787878787879,-5.74161914777756,-1.47607476797104,0.242075382900238
0.559393939393939,-6.44814990949631,-3.9932402953147896,-1.70747051553726
0.56,8.604547844409941,3.0121918335914604,-0.497985652256012
0.560606060606061,2.24816600847244,2.34877142343521,-0.36386455850601196
0.561212121212121,-8.790479011058808,-2.6328692015647897,-1.1877512772560102
0.561818181818182,-0.12529834699630701,-3.55974176015854,-0.0836472733497624
0.562424242424242,9.75415721940994,6.55442572031021,-0.157892878818512
0.563030303030303,-4.44591358137131,-1.41619927968979,-0.41415996866226196
0.563636363636364,-10.426277350902598,-4.19202691640854,-1.6715452225685101
0.564242424242424,9.31347362565994,2.41104193124771,-0.37583965616226195
0.564848484848485,4.82999706315994,3.9103241578102104,-0.150707820224762
0.565454545454545,-10.019124030590099,-4.08904107656479,-0.550676081943512
0.566060606060606,-2.07963428449631,-3.5741118773460396,-0.5842063553810121
0.566666666666667,11.0259125905037,6.530475524997709,-0.9242991288185121
0.567272727272727,-2.7598198313713103,-2.1610503539085397,0.34506122274398804
0.567878787878788,-9.27187793684006,-2.2376909789085397,-0.517145808506012
0.568484848484848,5.2515205006599395,0.123798278903961,-0.878793757724762
0.569090909090909,5.66825389909744,3.17984320077896,-0.260878718662262
0.56969696969697,-6.15835254621506,-1.08089654531479,-0.0596970780372624
0.57030303030303,-5.2530351634025605,-3.34658502187729,-0.9410642655372621
0.570909090909091,9.58171581315994,3.60136663827896,-0.874003718662262
0.571515151515152,1.45780956315994,1.78833685312271,0.524687687587738
0.572121212121212,-10.6226689524651,-2.8627910765647897,-0.7638328202247621
0.572727272727273,1.4290693287849399,-2.16584039297104,-0.890768855381012
0.573333333333333,10.031979485034901,5.811969665622709,0.706709171962738
0.573939393939394,-6.02423145246506,-1.72755181875229,-0.177053035068512
0.574545454545455,-8.86232959699631,-4.56804498281479,-2.19365948038101
0.575151515151515,9.64159130144119,2.44217718515396,-0.0453269608497624
0.575757575757576,3.59416698503494,3.88876898202896,-1.27876201944351
0.576363636363636,-9.62394580793381,-4.17765679922104,-0.608156550693512
0.576969696969697,-0.9372099680900571,-2.78136041250229,0.222915226650238
0.577575757575758,10.0774848561287,6.45383489999771,-1.05363018350601
0.578181818181818,-3.7777031321525603,-1.9263384398460401,-0.34470440225601195
0.578787878787879,-9.022795905590058,-2.5107232054710398,-0.399789851474762
0.579393939393939,6.34604442644119,1.33807318124771,-0.790178035068512
0.58,5.94847118425369,3.1678681031227103,-0.43332012491226196
0.580606060606061,-8.39769580793381,-2.3766021117210396,-0.102807429599762
0.581212121212121,-4.48183887434006,-3.56213677968979,-1.69070537881851
0.581818181818182,11.7563935475349,4.94976263437271,0.0337086836814876
0.582424242424242,-1.56949512434006,0.00165228281021119,0.946211125087738
0.583030303030303,-11.0609575266838,-2.6304741820335398,-1.0512351639747601
0.583636363636364,4.09472606706619,-1.65570123281479,-0.854843562412262
0.584242424242424,7.83095653581619,4.60487982187271,0.151064640712738
0.584848484848485,-6.44335987043381,-0.908455139064789,-0.8811887772560121
0.585454545454545,-7.15468067121506,-4.42434381093979,-2.0858836014747597
0.586060606060606,9.41645946550369,2.8780707398414602,0.42409686727523804
0.586666666666667,2.47090282487869,2.9954266968727103,-0.356679499912262
0.587272727272727,-9.86344776105881,-3.03762750234604,-0.907533992099762
0.587878787878788,0.09264843034744259,-3.11426812734604,0.143879582118988
0.588484848484848,10.5181684498787,6.86098822031021,-0.569836238193512
0.589090909090909,-5.18118457746506,-1.47846978750229,0.0504738204002376
0.58969696969697,-10.0526543040276,-4.64708062734604,-0.993754695224762
0.59030303030303,9.11708202409744,2.5762982789039603,-1.09674053506851
0.590909090909091,4.54498973894119,3.42653021249771,-0.28243389444351197
0.591515151515152,-10.1652202219963,-3.5573467406272896,-0.169867976474762
0.592121212121212,-1.9455131907463101,-3.2124639281272898,-0.201003230381012
0.592727272727273,11.4474360280037,5.39044622812271,-1.02728496866226
0.593333333333333,-3.19331836652756,-1.20304254140854,0.0648439375877376
0.593939393939394,-9.329358405590058,-2.09638482656479,-0.49559063272476195
0.594545454545455,5.42396190690994,-0.415081115627289,-1.0727903397560101
0.595151515151515,6.06103710222244,3.2516937867164604,0.198965031337738
0.595757575757576,-6.52718555402756,-0.32646539297103905,-0.260878718662262
0.596363636363636,-5.51409229230881,-3.75613336172104,-2.1026487381935097
0.596969696969697,10.2834565358162,3.14631292734146,-0.45487530069351195
0.597575757575758,1.4602045826911898,2.82298529062271,0.34266620321273805
0.598181818181818,-11.1375981516838,-2.9561968382835397,-1.29313213663101
0.598787878787879,1.2662080006599399,-2.9993071898460397,-0.29440899209976196
0.599393939393939,10.621154289722401,6.76279241952896,0.0432887618064876
0.6,-6.84572315168381,-1.58145562734604,-0.919509089756012
0.600606060606061,-8.87430469465256,-5.14284967031479,-0.8644236405372621
0.601212121212121,10.2547163014412,2.95710638437271,-0.236928523349762
0.601818181818182,3.1678535084724397,3.88876898202896,-1.55418926553726
0.602424242424242,-10.1652202219963,-4.2327422484397905,0.378591496181488
0.603030303030303,-0.431860846996307,-2.66160943593979,-0.49319561319351196
0.603636363636364,10.532538567066199,5.83112982187271,-0.5099607499122619
0.604242424242424,-4.08666065168381,-1.59343072500229,0.210940128993988
0.604848484848485,-9.09943653059006,-2.2736162718772897,-1.11350567178726
0.605454545454545,6.51130077409744,0.689022888278961,-1.09195049600601
0.606060606060606,6.20234325456619,2.96429144296646,-0.00221660928726244
0.606666666666667,-8.752158698558809,-1.60301080312729,-0.553071101474762
0.607272727272727,-4.48902393293381,-3.71541802968979,-1.39611797647476
0.607878787878788,11.251044426441199,4.18096136484146,-0.0333518631935124
0.608484848484849,-1.2389824290275602,1.32609808359146,-0.406974910068512
0.609090909090909,-10.8070854563713,-3.3513750609397897,-0.548281062412262
0.60969696969697,3.8432490162849398,-1.90238824453354,-0.416554988193512
0.61030303030303,8.582992668628691,5.46229681406021,0.689944035243988
0.610909090909091,-6.42898975324631,-0.597102600002289,-1.7649509842872602
0.611515151515152,-7.21934619855881,-5.178774963283541,-1.87751690225601
0.612121212121212,9.996054192066191,2.8349603882789602,0.857595402431488
0.612727272727273,2.17871044206619,3.34030950937271,-0.909929011631012
0.613333333333333,-10.6777544016838,-3.54297662343979,-0.586601374912262
0.613939393939394,0.5117768483161931,-2.54185845937729,-0.356679499912262
0.614545454545455,10.7480903248787,5.78322943124771,-0.7039573319435121
0.615151515151515,-5.10933399152756,-1.04257623281479,-0.24411358194351201
0.615757575757576,-10.0789995188713,-4.27824761953354,-0.850053523349762
0.616363636363636,8.12314891862869,2.2673407593727104,-1.22846660928726
0.616969696969697,4.94735302019119,3.84805364999771,-0.44290020303726196
0.617575757575758,-9.882607917308809,-3.0855278929710397,0.0384987227439876
0.618181818181818,-2.45804737043381,-3.4974712523460396,-0.028561824131012402
0.618787878787879,11.579162102222401,5.08627874765396,-1.00812481241226
0.619393939393939,-2.96339649152756,0.169303649997711,-0.387814753818512
0.62,-9.84907764387131,-2.1347051390647898,-0.459665339756012
0.620606060606061,5.47186229753494,-1.10245172109604,-0.919509089756012
0.621212121212121,6.59991649675369,3.6277118531227104,0.160644718837738
0.621818181818182,-7.16665576887131,0.018417419528961202,-0.426135066318512
0.622424242424242,-5.7056938548088105,-4.25190240468979,-1.71944561319351
0.623030303030303,10.515773430347402,3.0744623414039602,-0.141127742099762
0.623636363636364,1.35961376237869,2.97387152109146,-0.24411358194351201
0.624242424242424,-11.4681108469963,-3.5214214476585397,-0.953039363193512
0.624848484848485,1.53445018815994,-2.8532109984397898,-0.450085261631012
0.625454545454545,11.018727531909901,6.96876409921646,0.0648439375877376
0.626060606060606,-7.45645313215256,-1.67486138906479,-1.1182957108497602
0.626666666666667,-8.56055713605881,-5.1236895140647905,-0.988964656162262
0.627272727272727,10.3696772389412,2.6720990601539603,-0.615341609287262
0.627878787878788,3.26844432878494,3.6301068726539603,-1.16380108194351
0.628484848484849,-10.1987504954338,-3.17653863515854,0.328296086025238
0.629090909090909,-0.690522956371307,-2.36223199453354,-0.818918269443512
0.62969696969697,10.6762397389412,4.588114685153959,-0.33272930459976197
0.63030303030303,-3.83039356184006,-0.927615295314789,0.237285343837738
0.630909090909091,-9.72693164777756,-1.73952691640854,-1.1877512772560102
0.631515151515151,6.28856395769119,-0.23784967031478899,-1.07758037881851
0.632121212121212,7.11245067644119,3.5965765992164602,0.131904484462738
0.632727272727273,-9.12099170637131,-0.886899963283539,-0.270458796787262
0.633333333333333,-4.68302051496506,-4.94885308828354,-0.9434592850685121
0.633939393939394,11.4953364186287,3.78578314218521,-0.759042781162262
0.634545454545455,-0.39833057355880697,3.38341986093521,-0.378234675693512
0.635151515151515,-11.1256230540276,-4.23034722890854,-0.320754206943512
0.635757575757576,3.45765087175369,-2.50593316640854,-1.13745586709976
0.636363636363636,9.622431145191191,6.37000921640396,0.728264347743988
0.636969696969697,-6.97744922590256,-1.2126226195335401,-1.10392559366226
0.637575757575758,-7.54267383527756,-5.12129449453354,-1.51826397256851
0.638181818181818,10.5133784108162,3.03374700937271,0.5103175704002381
0.638787878787879,2.3631269459724398,3.2948041382789603,-0.38302471475601196
0.639393939393939,-10.7927153391838,-3.62680230703354,-0.28243389444351197
0.64,0.794389153003693,-2.19218560781479,-0.711142390537262
0.640606060606061,10.7576704030037,5.126994079685209,0.246865421962738
0.641212121212121,-4.70936572980881,-0.630632873439789,0.960581242275238
0.641818181818182,-9.58802051496506,-3.87827935781479,-0.121967585849762
0.642424242424242,7.58426952409744,1.4434540406227099,-1.2596018631935102
0.643030303030303,5.35929637956619,3.74267279062271,-0.859633601474762
0.643636363636364,-9.48982471418381,-1.64612115468979,0.244470402431488
0.644242424242424,-3.73938281965256,-3.9573150023460397,-0.49319561319351196
0.644848484848485,11.4929413990974,3.5438861695289603,-1.1542210038185101
0.645454545454546,-1.5718901438713102,2.28171087656021,-0.481220515537262
0.646060606060606,-10.349636725902599,-3.58369195547104,-0.938669246006012
0.646666666666667,4.60726024675369,-1.80419244375229,-0.34230938272476197
0.647272727272727,7.87167186784744,4.95215765390396,0.639648625087738
0.647878787878788,-7.41573780012131,-0.894085021877289,-0.909929011631012
0.648484848484848,-6.36671924543381,-4.75006646718979,-1.42485821084976
0.649090909090909,10.532538567066199,3.23253363046646,0.052868839931487596
0.64969696969697,1.4506245045661899,3.4073700562477103,-0.735092585849762
0.65030303030303,-11.5519365305901,-3.88306939687729,-0.0980173905372624
0.650909090909091,1.00994091081619,-2.5705986937522898,-0.926694148349762
0.651515151515151,11.6486176686287,6.16643255624771,-0.972199519443512
0.652121212121212,-7.06606494855881,-1.55990045156479,0.0624489180564876
0.652727272727273,-8.962920417308808,-3.96929010000229,-0.639291804599762
0.653333333333333,9.711046867847442,1.96796331796646,-0.818918269443512
0.653939393939394,3.85522411394119,3.28282904062271,-0.31596416788101195
0.654545454545455,-9.64071094465256,-2.32870172109604,-0.114782527256012
0.655151515151515,-1.68685108137131,-2.6999297484397897,-0.950644343662262
0.655757575757576,10.2571113209724,3.65166204843521,-0.529120906162262
0.656363636363636,-2.38619678449631,1.03151068124771,0.143879582118988
0.656969696969697,-9.777227057933809,-2.13231011953354,-0.9003489335060121
0.657575757575758,5.34253124284744,-1.85927789297104,-1.06081524209976
0.658181818181818,8.10159374284744,4.84438177499771,0.0073634688377375605
0.658787878787879,-8.347400397777559,-0.707273498439789,-0.028561824131012402
0.659393939393939,-5.48535205793381,-5.384746642971041,-1.0416550858497602
0.66,11.368400383472402,3.5079608765602104,-0.670427058506012
0.660606060606061,0.243534660816193,3.9701996460914604,-0.933879206943512
0.661212121212121,-11.9399296946526,-4.98956842031479,-0.708747371006012
0.661818181818182,3.28041942644119,-2.08201470937729,-1.07518535928726
0.662424242424242,10.151730461597401,6.350849060153959,-0.126757624912262
0.663030303030303,-7.31275196027756,-1.74431695547104,-0.387814753818512
0.663636363636364,-7.49716846418381,-4.091436096096039,-1.04405010538101
0.664242424242424,9.727812004566191,2.36793157968521,-0.406974910068512
0.664848484848485,2.49724803972244,3.0217719117164603,-0.0860422928810124
0.665454545454545,-9.949668464183809,-2.5131182250022897,-0.30398907022476196
0.666060606060606,0.243534660816193,-2.54185845937729,-0.730302546787262
0.666666666666667,9.845167961597442,3.84805364999771,-0.634501765537262
0.667272727272727,-3.5645463938713102,0.669862732028961,-0.371049617099762
0.667878787878788,-10.081394538402598,-3.9477349242210398,-0.0405369217872624
0.668484848484848,6.87055370378494,0.176488708591461,-1.21170147256851
0.669090909090909,6.49214061784744,3.92469427499771,-0.157892878818512
0.66969696969697,-9.873027839183809,-0.570757385158539,-0.198608210849762
0.67030303030303,-4.09384571027756,-4.91532281484604,-1.45599346475601
0.670909090909091,12.0174506764412,2.80143011484146,-0.308779109287262
0.671515151515152,-0.870149421215057,3.87200384531021,0.141484562587738
0.672121212121212,-11.1711284251213,-4.819522033596041,-1.05602520303726
0.672727272727273,4.6264204030036895,-1.35632379140854,-0.7614378006935121
0.673333333333333,9.02128124284744,5.35212591562271,-0.36386455850601196
0.673939393939394,-7.29598682355881,-1.51679010000229,-0.296804011631012
0.674545454545455,-6.74513233137131,-3.77289849843979,-0.555466121006012
0.675151515151515,10.367282219409901,2.6361737671852103,-0.6249216874122621
0.675757575757576,2.43737255144119,3.3043842164039603,-0.25129864053726203
0.676363636363636,-11.2333989329338,-3.54297662343979,-0.155497859287262
0.676969696969697,0.930905266284943,-3.1214531859397896,-0.998544734287262
0.677575757575758,11.6126923756599,5.53175238046646,-0.653661921787262
0.678181818181818,-6.56311084699631,-0.6426079710960391,0.476787296962738
0.678787878787879,-9.044351081371309,-3.4711260375022897,-1.09195049600601
0.679393939393939,8.63807811784744,0.657887634372711,-0.749462703037262
0.68,4.88029247331619,3.57502142343521,0.39296161336898805
0.680606060606061,-9.688611335277558,-1.05694635000229,-0.629711726474762
0.681212121212121,-2.94184131574631,-3.68907281484604,-1.77213604288101
0.681818181818182,10.9851972584724,3.0553021851539603,-0.150707820224762
0.682424242424242,-1.32999317121506,2.45415228281021,-0.27285381631851197
0.683030303030303,-10.4358574290276,-3.4280156859397897,-1.46317852334976
0.683636363636364,5.06231395769119,-1.95507867422104,-0.280038874912262
0.684242424242424,8.88476512956619,5.57486273202896,-0.588996394443512
0.684848484848485,-8.855144538402559,-1.36350885000229,0.129509464931488
0.685454545454545,-6.00267627668381,-5.15482476797104,-0.629711726474762
0.686060606060606,10.9013715748787,3.0121918335914604,-1.00812481241226
0.686666666666667,1.03868114519119,4.262392028903959,-0.739882624912262
0.687272727272727,-12.1722465891838,-4.28303765859604,0.151064640712738
0.687878787878788,3.1774335865974397,-2.02932427968979,-1.26678692178726
0.688484848484848,10.9157416920662,5.186869567966459,-0.833288386631012
0.689090909090909,-7.21934619855881,-1.53834527578354,0.9150758711814879
0.68969696969697,-7.93785205793381,-2.92027154531479,-1.62603985147476
0.69030303030303,8.468031731128692,1.0626459351539599,-0.869213679599762
0.690909090909091,3.75463329362869,3.2876190796852103,1.1090724532127398
0.691515151515152,-9.913743171215058,-1.60780084218979,-0.6632419999122621
0.692121212121212,-1.2054521555900601,-3.43999078359604,-1.4775486405372602
0.692727272727273,10.2044208912849,3.5079608765602104,0.0337086836814876
0.693333333333333,-2.52989795637131,2.2601557007789603,-0.37344463663101196
0.693939393939394,-10.3951420969963,-4.146521545314791,-0.560256160068512
0.694545454545455,5.91254589128494,-0.9228252562522891,-0.850053523349762
0.695151515151515,7.90759716081619,4.887492126560209,-0.18902813272476202
0.695757575757576,-9.853867682933808,-0.46777154531478904,-0.5842063553810121
0.696363636363636,-5.05185352277756,-5.358401428127291,-0.519540828037262
0.696969696969697,11.780343742847402,2.85412054452896,-0.450085261631012
0.697575757575758,-0.33127002668380695,3.9270892945289604,-1.55658428506851
0.698181818181818,-11.307644538402599,-4.958433166408541,-0.035746882724762404
0.698787878787879,4.09472606706619,-1.01383599843979,-0.866818660068512
0.699393939393939,9.15540233659744,4.64320013437271,-0.38302471475601196
0.7,-7.38699756574631,-1.39703912343979,0.31392596883773805
0.700606060606061,-6.55832080793381,-2.90350640859604,-0.857238581943512
0.701212121212121,9.660751457691191,1.71648626718521,-0.0956223710060124
0.701818181818182,2.7487250905036897,2.68407415781021,0.503132511806488
0.702424242424242,-11.1902885813713,-1.7515020140647901,-0.34230938272476197
0.703030303030303,-0.08697803449630741,-3.43280572500229,-0.974594538974762
0.703636363636364,11.5168915944099,3.99175482187271,-1.00572979288101
0.704242424242424,-5.3129106516838105,1.23029730234146,-0.0716721756935124
0.704848484848485,-9.358098639965059,-3.68188775625229,-0.8428684647560121
0.705454545454545,7.67767528581619,-0.750383850002289,-0.5099607499122619
0.706060606060606,6.00116161394119,4.49949896249771,0.7522145430564879
0.706666666666667,-9.64071094465256,-1.01623101797104,-1.0296799881935101
0.707272727272727,-3.54299121809006,-4.759646545314791,-1.5901145585060101
0.707878787878788,11.3037348561287,3.0576972046852102,0.268420597743988
0.708484848484848,-1.2940678782463102,2.94992132577896,-0.9051389725685121
0.709090909090909,-10.6059038157463,-3.44717584218979,-0.9650144608497621
0.70969696969697,4.64318553972244,-1.66767633047104,-0.653661921787262
0.71030303030303,9.50028514909744,4.82522161874771,-0.754252742099762
0.710909090909091,-8.716233405590058,-0.956355529689789,0.44325702352523805
0.711515151515152,-6.19188281965256,-4.63031549062729,-0.538700984287262
0.712121212121212,10.1301752858162,2.1571698609352103,-1.27157696084976
0.712727272727273,1.47457469987869,4.434833435153959,-0.502775691318512
0.713333333333333,-11.599836921215099,-3.9836602171897897,0.5534279219627379
0.713939393939394,1.9128632740974398,-2.27840631093979,-1.2907371170997601
0.714545454545455,10.807965813159901,4.09953070077896,-0.5099607499122619
0.715151515151515,-6.17511768293381,-0.26898492422103903,0.390566593837738
0.715757575757576,-7.93066699934006,-2.6735845335960398,-1.8463816483497602
0.716363636363636,7.67528026628494,-0.846184631252289,-0.912324031162262
0.716969696969697,4.74856639909744,4.415673278903959,1.29588397665024
0.717575757575758,-10.067024421215098,-0.846184631252289,-0.7015623124122621
0.718181818181818,-1.95509326887131,-4.39799859609604,-2.0403782303810103
0.718787878787879,10.7816205983162,3.08404241952896,0.110349308681488
0.719393939393939,-1.7275664134025601,2.8517255249977103,-0.787783015537262
0.72,-10.7256547923088,-4.7644365843772905,-0.9219041092872621
0.720606060606061,5.23475536394119,-1.04497125234604,-0.830893367099762
0.721212121212121,8.80093944597244,5.91016546640396,-0.191423152256012
0.721818181818182,-9.36767871809006,-0.855764709377289,-0.466850398349762
0.722424242424242,-5.54283252668381,-5.39911676015854,-0.10041241006851201
0.723030303030303,11.1217133717537,2.8493305054664604,-0.687192195224762
0.723636363636364,0.341730461597443,3.8839789429664604,-1.3937229569435101
0.724242424242424,-11.1399931712151,-4.160891662502291,0.134299503993988
0.724848484848485,3.8432490162849398,-1.29644830312729,-0.871608699131012
0.725454545454545,9.404484367847441,3.0576972046852102,-0.818918269443512
0.726060606060606,-6.48647022199631,0.0423676148414612,0.26363055868148805
0.726666666666667,-7.21455615949631,-2.46761285390854,-0.766227839756012
0.727272727272727,8.468031731128692,-0.106123596096039,-1.0727903397560101
0.727878787878788,4.11867626237869,3.85523870859146,0.725869328212738
0.728484848484849,-11.1088579173088,-1.12161187734604,-0.371049617099762
0.729090909090909,-0.9970854563713071,-4.69737603750229,-1.44162334756851
0.72969696969697,11.3947455983162,3.9558295289039602,-0.488405574131012
0.73030303030303,-4.00043994855881,3.19900335702896,0.34266620321273805
0.730909090909091,-9.77243701887131,-4.63510552968979,-1.5637693436622602
0.731515151515152,6.78672802019119,-1.27968316640854,0.182199894618988
0.732121212121212,7.1076606373786895,5.5341473999977095,0.903100773525238
0.732727272727273,-9.52814502668381,-1.14556207265854,-1.56137432413101
0.733333333333333,-4.12258594465256,-4.69498101797104,-0.39499981241226195
0.733939393939394,11.0450727467537,2.99303167734146,-0.25129864053726203
0.734545454545455,-0.594722175121307,2.8158002320289603,-0.632106746006012
0.735151515151515,-10.7520000071526,-3.38969537343979,-0.486010554599762
0.735757575757576,4.30788280534744,-1.53834527578354,-1.0799753983497602
0.736363636363636,9.67033153581619,4.36537786874771,-0.339914363193512
0.736969696969697,-7.94264209699631,-0.0893584593772888,0.704314152431488
0.737575757575758,-6.29486865949631,-4.359678283596041,-0.34230938272476197
0.738181818181818,9.196117668628691,1.05785589609146,-1.53981914834976
0.738787878787879,2.39186718034744,4.88988714609146,-0.658451960849762
0.739393939393939,-10.9962919993401,-2.9322466429710397,0.6731788985252379
0.74,0.985990715503693,-3.1956987914085397,-1.87751690225601
0.740606060606061,10.6618696217537,3.6372919312477103,-0.234533503818512
0.741212121212121,-5.06382862043381,1.68535101327896,0.158249699306488
0.741818181818182,-8.41206592512131,-3.2124639281272898,-1.7098655350685101
0.742424242424242,6.67176708269119,-1.56948052968979,-0.133942683506012
0.743030303030303,5.75207958269119,5.40481634531021,0.824065128993988
0.743636363636364,-9.710166511058809,-1.20304254140854,-1.0584202225685102
0.744242424242424,-2.47241748762131,-5.01591363515854,-1.3577976639747602
0.744848484848485,10.5516987233162,3.3570746460914602,0.582168156337738
0.745454545454545,-1.56949512434006,3.4480853882789604,-1.03926006631851
0.746060606060606,-10.7064946360588,-4.838682189846041,-0.239323542881012
0.746666666666667,4.94974803972244,-0.8821099242210391,-1.2476267655372602
0.747272727272727,9.10989696550369,4.84677679452896,-0.811733210849762
0.747878787878788,-9.05393115949631,-0.405501037502289,0.42649188680648803
0.748484848484849,-6.25894336652756,-4.4051836546897905,-0.121967585849762
0.749090909090909,10.4008124928474,1.36920843515396,-1.4535984452247601
0.74969696969697,0.823129387378693,4.07558050546646,-0.6824021561622621
0.75030303030303,-10.680149421215098,-3.4878911742210397,0.194174992275238
0.750909090909091,2.40144725847244,-1.91196832265854,-1.58771953897476
0.751515151515151,9.22246288347244,2.64096380624771,-0.308779109287262
0.752121212121212,-5.30333057355881,1.39076361093521,0.32350604696273805
0.752727272727273,-7.89713672590256,-3.11426812734604,-1.23565166788101
0.753333333333333,7.96028759050369,-1.30842340078354,-0.967409480381012
0.753939393939394,4.47553417253494,5.06951361093521,0.431281925868988
0.754545454545455,-10.6106938548088,-0.884504943752289,-0.10041241006851201
0.755151515151515,-2.13232471418381,-5.2434404906272905,-1.4991038163185102
0.755757575757576,11.5983222584724,3.69477239999771,-0.696772273349762
0.756363636363636,-3.2388237376213103,3.24211370859146,-0.339914363193512
0.756969696969697,-10.5412382884026,-5.197935119533541,-1.09913555459976
0.757575757575758,6.30532909440994,-1.1910674437522901,-0.280038874912262
0.758181818181818,7.51481395769119,5.5006171265602095,-0.227348445224762
0.758787878787879,-9.372468757152559,-1.03060113515854,-0.713537410068512
0.759393939393939,-4.37885303449631,-4.580020080471041,-0.136337703037262
0.76,10.5948090748787,2.74394964609146,-0.7446726639747621
0.760606060606061,-0.424675788402557,2.7918500367164603,-0.737487605381012
0.761212121212121,-10.1963554759026,-3.05678765859604,0.34266620321273805
0.761818181818182,3.5438715748786898,-1.9694487914085401,-0.751857722568512
0.762424242424242,9.174562492847441,3.23253363046646,-0.888373835849762
0.763030303030303,-6.87925342512131,1.10096624765396,0.601328312587738
0.763636363636364,-6.85769824934006,-4.29501275625229,-0.34230938272476197
0.764242424242424,8.408156242847442,-0.187554260158539,-1.41288311319351
0.764848484848485,3.43130565690994,4.90665228281021,0.17022479696273798
0.765454545454545,-11.142388190746301,-1.75868707265854,0.33548114461898804
0.766060606060606,0.0734882740974426,-3.7106279906272897,-2.22479473428726
0.766666666666667,11.0211225514412,2.7894550171852104,0.541452824306488
0.767272727272727,-4.06510547590256,3.2349286499977103,-0.6057615311622621
0.767878787878788,-9.05632617902756,-4.49140435781479,-1.67633526163101
0.768484848484848,6.44663524675369,-1.63654107656479,-0.124362605381012
0.769090909090909,6.59752147722244,5.99638616952896,0.220520207118988
0.76969696969697,-9.75088184309006,-1.76108209218979,-0.680007136631012
0.77030303030303,-2.9131010813713103,-4.479429260158541,-1.1182957108497602
0.770909090909091,10.053534660816199,2.74394964609146,-0.32314922647476196
0.771515151515151,-1.2437724680900601,3.4935907593727102,-1.0680003006935102
0.772121212121212,-10.426277350902598,-4.62073541250229,0.0911891524314876
0.772727272727273,4.38452343034744,-1.11921685781479,-1.76734600381851
0.773333333333333,9.09313182878494,4.29831732187271,-0.39260479288101197
0.773939393939394,-8.555767096996309,-0.0175078734397888,0.8743605391502379
0.774545454545455,-6.15356250715256,-3.54537164297104,-0.751857722568512
0.775151515151515,9.87390819597244,0.255524353122711,-1.55418926553726
0.775757575757576,1.6254609303474399,4.07558050546646,-0.0740671952247624
0.776363636363636,-10.3616118235588,-2.1778154906272897,0.139089543056488
0.776969696969697,1.0793964772224398,-2.6903496703147898,-2.08109356241226
0.777575757575758,9.26796825456619,2.1499848023414603,-0.26566875772476195
0.778181818181818,-4.30939746809006,2.95710638437271,0.28279071493148805
0.778787878787879,-8.15100879621506,-4.08425103750229,-1.39851299600601
0.779393939393939,7.4142231373786895,-1.41619927968979,-0.47164043741226197
0.78,5.72333934831619,5.879030212497709,0.160644718837738
0.780606060606061,-10.364006843090099,-1.87604302968979,-0.177053035068512
0.781212121212121,-2.43888721418381,-5.138059631252291,-1.43443828897476
0.781818181818182,11.7468134694099,3.4504804078102103,-0.7614378006935121
0.782424242424242,-2.9059160227775602,3.4409003296852103,-0.397394831943512
0.783030303030303,-10.7543950266838,-4.539304748439791,-0.6440818436622621
0.783636363636364,6.51848583269119,-1.1862774046897901,-0.38541973428726195
0.784242424242424,7.8261664967536895,4.57853460702896,-0.7422776444435121
0.784848484848485,-9.207212409496309,-0.788704162502289,0.43607196493148803
0.785454545454545,-4.59200977277756,-3.1358233031272897,-0.7015623124122621
0.786060606060606,9.67991161394119,1.5033295289039599,-1.14703594522476
0.786666666666667,0.29862011003494304,2.8421454468727103,-0.212978328037262
0.787272727272727,-9.731721686840059,-1.44014947500229,-0.6009714920997621
0.787878787878788,2.7583051686286897,-2.59215386953354,-1.2739719803810101
0.788484848484848,8.865604973316191,3.0457221070289604,-0.917114070224762
0.789090909090909,-5.55001758527756,2.17872503671646,1.1857130782127399
0.78969696969697,-7.48758838605881,-4.80036187734604,-0.591391413974762
0.79030303030303,7.38787792253494,-1.35871881093979,-1.09674053506851
0.790909090909091,4.52343456315994,6.31492376718521,0.620488468837738
0.791515151515152,-11.4968510813713,-1.33476861562729,0.34506122274398804
0.792121212121212,-1.0641460032463101,-5.164404846096041,-1.59969463663101
0.792727272727273,11.1432685475349,3.2445087281227103,0.0241286055564876
0.793333333333333,-3.52383106184006,3.54867620859146,-0.25608867959976195
0.793939393939394,-9.71974658918381,-5.13326959218979,-1.42964824991226
0.794545454545455,6.58075634050369,-0.884504943752289,-0.29201397256851197
0.795151515151515,7.16993114519119,5.72095892343521,-0.117177546787262
0.795757575757576,-9.57844043684006,-1.76587213125229,-0.169867976474762
0.796363636363636,-2.94902637434006,-3.3082647093772897,-0.756647761631012
0.796969696969697,9.358978996753692,1.73325140390396,-0.730302546787262
0.797575757575758,-0.120508307933807,3.3882098999977104,-0.124362605381012
0.798181818181818,-10.3328715891838,-3.3154497679710397,-0.0381419022560124
0.798787878787879,3.94383983659744,-1.86167291250229,-1.6883103592872601
0.799393939393939,9.083551750659941,3.28282904062271,-0.308779109287262
0.8,-7.78457080793381,1.35004827890396,0.761794621181488
0.800606060606061,-6.12721729230881,-3.53579156484604,-0.778202937412262
0.801212121212121,8.85602489519119,-1.4257793578147901,-1.07518535928726
0.801818181818182,2.7151948170661897,5.03837835702896,0.390566593837738
0.802424242424242,-10.2107255930901,-1.3706939085960401,-0.366259578037262
0.803030303030303,0.42076610612869303,-3.96210504140854,-2.34454571084976
0.803636363636364,9.79247753190994,2.3367963257789603,0.318716007900238
0.804242424242424,-3.81362842512131,3.88158392343521,-0.0261668045997624
0.804848484848485,-8.670728034496308,-4.84107720937729,-1.38174785928726
0.805454545454545,7.00706981706619,-1.17430230703354,-0.40457989053726195
0.806060606060606,6.23108348894119,5.273090271091459,0.0361037032127376
0.806666666666667,-10.5484233469963,-1.38506402578354,-0.102807429599762
0.807272727272727,-2.84843555402756,-4.76922662343979,-1.2045164139747602
0.807878787878788,10.5804389576912,3.05290716562271,-1.20212139444351
0.808484848484848,-2.43170215559006,4.00612493906021,-0.32314922647476196
0.809090909090909,-10.244255866527599,-4.991963439846041,-0.41176494913101197
0.80969696969697,5.68501903581619,-1.19585748281479,-0.950644343662262
0.81030303030303,7.74473583269119,3.60136663827896,-0.428530085849762
0.810909090909091,-8.752158698558809,-0.113308654689789,0.5725880782127379
0.811515151515152,-4.72852588605881,-2.53467340078354,-0.8620286210060121
0.812121212121212,8.784174309253691,-0.118098693752289,-1.19733135538101
0.812727272727273,1.2374677662849398,3.59178656015396,0.213335148525238
0.813333333333333,-9.674241218090058,-0.752778869533539,-0.5075657303810119
0.813939393939394,2.0397993092536897,-3.68188775625229,-2.03558819131851
0.814545454545455,9.13863719987869,3.00740179452896,-0.41176494913101197
0.815151515151515,-5.22429492902756,3.36186468515396,1.05638202352524
0.815757575757576,-7.35825733137131,-5.051838928127291,-1.02249492959976
0.816363636363636,7.0477851490974395,-1.82335260000229,-1.23325664834976
0.816969696969697,5.59640331315994,7.14120550546646,0.962976261806488
0.817575757575758,-11.144783210277598,-1.35153375234604,-0.6416868241310121
0.818181818181818,-1.82815723371506,-5.43504205312729,-1.7170505936622602
0.818787878787879,11.2534394459724,3.50556585702896,0.0384987227439876
0.819393939393939,-3.72022266340256,3.0984125367164603,-1.12069073038101
0.82,-9.164102057933809,-5.018308654689791,-0.0501169999122624
0.820606060606061,6.25982372331619,-0.654583068752289,-0.768622859287262
0.821212121212121,6.95198436784744,4.2767621460914595,0.838435246181488
0.821818181818182,-8.900649909496309,-1.1479570921897901,1.32462421102524
0.822424242424242,-3.84476367902756,-2.9729619750022898,-1.37456280069351
0.823030303030303,9.25120311784744,0.612382263278961,-0.610551570224762
0.823636363636364,0.26029979753494303,3.8001532593727103,0.5725880782127379
0.824242424242424,-10.6154838938713,-2.0915947875022898,-0.648871882724762
0.824848484848485,3.42891063737869,-2.39815728750229,-1.81524639444351
0.825454545454545,8.95422069597244,2.7894550171852104,-0.0860422928810124
0.826060606060606,-6.88883350324631,2.9882416382789603,0.644438664150238
0.826666666666667,-6.53197559309006,-4.11778131093979,-0.866818660068512
0.827272727272727,7.9794477467536895,-1.98142388906479,-1.07039532022476
0.827878787878788,3.77858348894119,5.84310491952896,0.6923390547752379
0.828484848484848,-10.4334624094963,-1.55750543203354,-1.0464451249122602
0.829090909090909,-0.352825202465057,-4.15131158437729,-1.7697410233497601
0.82969696969697,9.749367180347441,2.4302020874977104,-0.0261668045997624
0.83030303030303,-3.36096973371506,3.7833881226539603,-0.44529522256851195
0.830909090909091,-8.795269050121309,-5.08057916250229,-0.45248028116226197
0.831515151515152,6.49693065690994,-1.1264019164085401,-0.7638328202247621
0.832121212121212,6.53046093034744,5.2946454468727095,-0.193818171787262
0.832727272727273,-10.6154838938713,-0.870134826564789,-0.0501169999122624
0.833333333333333,-2.65443897199631,-4.2255571898460405,-0.9817795975685121
0.833939393939394,9.99365917253494,2.4469672242164604,-1.4535984452247601
0.834545454545455,-2.1011894602775603,3.7738080445289603,0.0624489180564876
0.835151515151515,-9.523354987621309,-3.6004570921897896,-0.009401667881012439
0.835757575757576,4.55456981706619,-1.67725640859604,-1.07758037881851
0.836363636363636,7.91717723894119,2.50205267343521,-0.0141917069435124
0.836969696969697,-7.73188037824631,1.6877460328102099,-0.0381419022560124
0.837575757575758,-5.2865654368400605,-3.49268121328354,-1.36498272256851
0.838181818181818,8.20457958269119,-1.10484674062729,-0.7207224686622621
0.838787878787879,2.19068553972244,4.48991888437271,0.431281925868988
0.839393939393939,-9.72932666730881,-0.805469299221039,-0.8811887772560121
0.84,0.9596455006599429,-4.27824761953354,-2.06432842569351
0.840606060606061,9.531420403003692,2.9355512085914603,-0.416554988193512
0.841212121212121,-4.84109180402756,3.95103948984146,0.31392596883773805
0.841818181818182,-7.7414604563713105,-5.62185357656479,-0.675217097568512
0.842424242424242,6.86576366472244,-1.7515020140647901,-1.6284348710060101
0.843030303030303,6.23347850847244,7.01187445077896,-0.011796687412262401
0.843636363636364,-10.7448149485588,-1.36829888906479,-0.18423809366226201
0.844242424242424,-2.1442998118400602,-5.36798150625229,-1.36498272256851
0.844848484848485,10.568463860034901,2.65772894296646,-0.529120906162262
0.845454545454545,-3.16457813215256,3.6301068726539603,-0.318359187412262
0.846060606060606,-9.32456836652756,-4.42913385000229,0.0145485274314876
0.846666666666667,5.48144237565994,-1.0665264281272901,-1.35300762491226
0.847272727272727,7.16514110612869,3.9893598023414603,0.0384987227439876
0.847878787878788,-8.301895026683809,-0.240244689846039,0.155854679775238
0.848484848484849,-3.73938281965256,-2.8532109984397898,-1.24523174600601
0.849090909090909,7.96028759050369,-0.6809282835960391,-0.859633601474762
0.84969696969697,1.11532177019119,4.588114685153959,0.524687687587738
0.85030303030303,-9.86344776105881,-1.64133111562729,-0.751857722568512
0.850909090909091,2.15476024675369,-3.5310015257835397,-2.08348858194351
0.851515151515152,9.047626457691191,2.74394964609146,0.26363055868148805
0.852121212121212,-5.88053028059006,4.116295837497709,0.663598820400238
0.852727272727273,-6.85530322980881,-5.03028375234604,-1.0632102616310102
0.853333333333333,7.58187450456619,-2.4364776000022896,-0.936274226474762
0.853939393939394,4.6862958912849395,6.650226501560209,-0.177053035068512
0.854545454545454,-9.978408698558809,-1.5072100218772901,-1.05602520303726
0.855151515151515,-1.1288115305900601,-4.70935113515854,-0.919509089756012
0.855757575757576,9.60327098894119,2.2002802124977103,-0.739882624912262
0.856363636363636,-2.80532520246506,4.09953070077896,-0.287223933506012
0.856969696969697,-8.85274951887131,-4.400393615627291,-0.234533503818512
0.857575757575758,6.20713329362869,-1.14556207265854,-1.07039532022476
0.858181818181818,6.24784862565994,4.31268743906021,-0.24411358194351201
0.858787878787879,-9.35330860090256,0.207623962497711,0.163039738368988
0.859393939393939,-3.2723540110588103,-4.299802795314791,-0.991359675693512
0.86,9.136242180347441,1.1057562867164599,-1.32187237100601
0.860606060606061,-1.05217090559006,4.707865661716459,0.0408937422752376
0.861212121212121,-9.394023932933809,-3.0017022093772896,0.0959791914939876
0.861818181818182,3.6133271412849397,-2.17542047109604,-1.73381573038101
0.862424242424242,7.82856151628494,2.12842962656021,0.658808781337738
0.863030303030303,-6.60143115949631,3.08643743906021,-0.155497859287262
0.863636363636364,-5.5787578196525605,-3.96929010000229,-1.39611797647476
0.864242424242424,7.1148456959724395,-1.6868364867210401,-0.28243389444351197
0.864848484848485,3.14869335222244,5.56528265390396,-0.260878718662262
0.865454545454545,-9.274272956371309,-1.34434869375229,-0.950644343662262
0.866060606060606,-0.0558427805900574,-4.95364312734604,-1.3937229569435101
0.866666666666667,9.27515331315994,3.29240911874771,-0.0333518631935124
0.867272727272727,-4.32376758527756,4.6024848023414595,-0.0237717850685124
0.867878787878788,-7.8540263743400605,-5.85896051015854,-0.25608867959976195
0.868484848484849,5.93889110612869,-1.6700713500022901,-1.5517942460060101
0.869090909090909,6.28377391862869,6.13050726327896,0.0720289961814876
0.86969696969697,-9.992778815746309,-0.812654357814789,0.491157414150238
0.87030303030303,-2.8029301829338102,-4.546489807033541,-0.967409480381012
0.870909090909091,10.0846699147224,1.48895941171646,-1.11350567178726
0.871515151515151,-2.17543506574631,3.7905731812477104,-0.0644871170997624
0.872121212121212,-8.64438281965256,-3.53339654531479,0.122324406337738
0.872727272727273,4.54977977800369,-1.46409967031479,-2.08109356241226
0.873333333333333,6.78433300065994,3.13912786874771,0.23010028524398798
0.873939393939394,-6.75471240949631,1.15365667734146,0.519897648525238
0.874545454545455,-4.26389209699631,-3.24599420156479,-1.41527813272476
0.875151515151515,7.25854686784744,-1.5670855101585401,-0.517145808506012
0.875757575757576,2.04458934831619,5.68742864999771,0.194174992275238
0.876363636363636,-9.633525886058809,-1.83532769765854,-0.32314922647476196
0.876969696969697,1.56319042253494,-4.25669244375229,-2.0595383866310097
0.877575757575758,8.78896434831619,2.4589423218727102,-0.157892878818512
0.878181818181818,-5.25782520246506,4.57134954843521,0.682758976650238
0.878787878787879,-7.30077686262131,-5.08057916250229,-0.993754695224762
0.879393939393939,6.89450389909744,-2.24487603750229,-0.936274226474762
0.88,5.08626415300369,6.690941833591459,-0.514750788974762
0.880606060606061,-9.671846198558809,-1.50002496328354,0.0432887618064876
0.881212121212121,-1.46411426496506,-4.44110894765854,0.400146671962738
0.881818181818182,9.16019237565994,1.97275335702896,-0.608156550693512
0.882424242424242,-2.48199756574631,4.2097015992164595,-0.138732722568512
0.883030303030303,-8.67312305402756,-4.01000543203354,-0.359074519443512
0.883636363636364,5.84548534440994,-1.29884332265854,-1.20212139444351
0.884242424242424,6.26461376237869,3.72830267343521,-0.0189817460060124
0.884848484848485,-8.340215339183809,1.03630072031021,0.249260441493988
0.885454545454545,-3.7345927805900603,-4.25429742422104,-0.9027439530372621
0.886060606060606,8.537487297534941,0.133378357028961,-1.27157696084976
0.886666666666667,-0.168408698558807,5.05274847421646,0.6133034102439879
0.887272727272727,-9.140151862621309,-2.5226983031272896,-0.0692771561622624
0.887878787878788,3.00978221940994,-3.19330377187729,-2.73972393350601
0.888484848484848,7.87646190690994,2.32242620859146,0.857595402431488
0.889090909090909,-5.4590068430900605,3.90553411874771,-0.0980173905372624
0.88969696969697,-6.27331348371506,-4.82191705312729,-1.44641338663101
0.89030303030303,7.05257518815994,-1.35632379140854,0.100769230556488
0.890909090909091,4.05640575456619,5.9532758179664595,-0.850053523349762
0.891515151515151,-9.379653815746309,-1.43775445547104,-0.406974910068512
0.892121212121212,0.0375629811286926,-4.5848101195335405,-1.01051983194351
0.892727272727273,8.812914543628692,2.68167913827896,-0.397394831943512
0.893333333333333,-3.61244678449631,4.475548767185209,0.177409855556488
0.893939393939394,-7.55225391340256,-5.33205621328354,-0.447690242099762
0.894545454545455,5.26589061784744,-1.97184381093979,-1.35300762491226
0.895151515151515,6.30772411394119,5.313805603122709,0.388171574306488
0.895757575757576,-9.312593268871309,0.43036077890396096,0.910285832118988
0.896363636363636,-2.7861650462150602,-4.453084045314791,-1.2140964920997601
0.896969696969697,9.524235344409941,0.746503357028961,-1.5901145585060101
0.897575757575758,-1.45453418684006,4.70307562265396,0.17501483602523799
0.898181818181818,-8.33782031965256,-3.1118731078147897,0.479182316493988
0.898787878787879,3.32831981706619,-2.12273004140854,-2.4451365311622597
0.899393939393939,7.07892040300369,2.89723089609146,0.330691105556488
0.9,-6.2373881907463105,2.5188178101539602,0.30434589071273804
0.900606060606061,-4.92491748762131,-4.09383111562729,-1.9781077225685102
0.901212121212121,7.3208173756599395,-1.63654107656479,-0.31356914834976196
0.901818181818182,2.37031200456619,6.14008734140396,0.41451678915023804
0.902424242424242,-9.554490241527558,-2.24487603750229,-0.418950007724762
0.903030303030303,1.13687694597244,-4.13694146718979,-1.8368015702247602
0.903636363636364,8.33870067644119,2.5331879273414604,-0.26327373819351196
0.904242424242424,-4.79319141340256,4.801271423435209,0.0337086836814876
0.904848484848485,-7.21695117902756,-4.932087951564791,-0.620131648349762
0.905454545454545,6.48495555925369,-2.59454888906479,-1.1230857499122602
0.906060606060606,5.2850507740974395,5.58204779062271,-0.895558894443512
0.906666666666667,-9.245532721996309,-0.9827007445335391,0.627673527431488
0.907272727272727,-1.6245805735588101,-3.4016704710960397,-0.699167292881012
0.907878787878788,8.51832714128494,1.11773138437271,-1.3075022538185102
0.908484848484848,-1.82815723371506,4.29352728281021,0.460022160243988
0.909090909090909,-7.99054248762131,-3.59327203359604,-0.109992488193512
0.90969696969697,4.50427440690994,-2.2041607054710397,-1.6404099686622602
0.91030303030303,6.04906200456619,3.6540570679664603,-0.28482891397476195
0.910909090909091,-7.31754199934006,2.08292425546646,0.237285343837738
0.911515151515152,-4.07468555402756,-4.96322320547104,-0.8620286210060121
0.912121212121212,8.14470409440994,-0.5013018187522891,-0.926694148349762
0.912727272727273,0.566862297534943,6.16164251718521,0.347456242275238
0.913333333333333,-9.343728522777559,-2.6328692015647897,-0.529120906162262
0.913939393939394,2.01824413347244,-3.8639092406272897,-2.61997295694351
0.914545454545455,8.19499950456619,2.3367963257789603,0.5941432539939879
0.915151515151515,-4.67583545637131,4.40369818124771,-0.428530085849762
0.915757575757576,-6.70441699934006,-5.6362236937522905,-0.579416316318512
0.916363636363636,6.6286567311286895,-0.994675842189789,-0.160287898349762
0.916969696969697,3.99174022722244,5.50301214609146,-1.05363018350601
0.917575757575758,-9.382048835277558,-1.5072100218772901,0.0289186446189876
0.918181818181818,-0.34803516340255697,-3.9142046507835397,-1.2140964920997601
0.918787878787879,8.424921379566191,1.7859418335914599,-0.766227839756012
0.919393939393939,-2.98495166730881,4.50668402109146,0.8336452071189879
0.92,-7.63847461652756,-4.20160699453354,-0.828498347568512
0.920606060606061,4.4803242115974395,-2.7190899046897896,-1.8296165116310101
0.921212121212121,6.35083446550369,4.51147406015396,0.699524113368988
0.921818181818182,-8.26117969465256,1.61110540781021,0.661203800868988
0.922424242424242,-3.5813115305900602,-4.879397521877291,-1.7481858475685101
0.923030303030303,8.56143749284744,-0.592312560939789,-1.27157696084976
0.923636363636364,-0.0558427805900574,5.10304388437271,0.886335636806488
0.924242424242424,-8.34979541730881,-2.36462701406479,-0.0381419022560124
0.924848484848485,2.3463618092536898,-3.1956987914085397,-2.84989483194351
0.925454545454545,7.6537250905036895,2.7750848999977102,0.764189640712738
0.926060606060606,-5.59312793684006,3.1654730835914604,0.201360050868988
0.926666666666667,-5.40871143293381,-4.62313043203354,-1.8296165116310101
0.927272727272727,6.73643261003494,-1.61738092031479,-0.41415996866226196
0.927878787878788,3.3474799733161897,5.97004095468521,-0.169867976474762
0.928484848484848,-9.568860358715058,-1.98142388906479,-0.167472956943512
0.929090909090909,0.36089061784744303,-3.6148272093772897,-1.83919658975601
0.92969696969697,8.17344432878494,1.72846136484146,-0.318359187412262
0.93030303030303,-4.2351518626213105,4.681520446872709,0.644438664150238
0.930909090909091,-7.42531787824631,-4.2854326781272905,-0.696772273349762
0.931515151515152,6.13528270769119,-2.5035381468772897,-0.675217097568512
0.932121212121212,5.4982075123786895,4.57853460702896,-0.8045481522560121
0.932727272727273,-8.70904834699631,-0.32646539297103905,0.8743605391502379
0.933333333333333,-1.9910185618400602,-2.7166948851585397,-0.852448542881012
0.933939393939394,7.73036571550369,-0.027087951564788798,-1.93499737100601
0.934545454545455,-0.6785478587150571,4.71744573984146,0.8312501875877379
0.935151515151515,-7.96419727277756,-2.4101323851585397,-0.339914363193512
0.935757575757576,3.79055858659744,-3.0184673460960396,-2.1289939530372597
0.936363636363636,6.59273143815994,3.39299993906021,-0.0668821366310124
0.936969696969697,-6.64693653059006,2.94992132577896,0.371406437587738
0.937575757575758,-4.56566455793381,-5.33924127187729,-1.4823386795997602
0.938181818181818,7.59863964128494,-0.9036651000022891,-0.6608469803810121
0.938787878787879,1.97513378190994,6.8777533570289595,0.39296161336898805
0.939393939393939,-8.97968555402756,-2.74543511953354,-1.1829612381935102
0.94,1.0746064381599398,-3.94533990468979,-1.1494309647560101
0.940606060606061,8.32433055925369,2.0972943726539603,1.4467702071189898
0.941212121212121,-4.61356494855881,4.14503607187271,-1.06081524209976
0.941818181818182,-6.66609668684006,-4.759646545314791,0.0552638594627376
0.942424242424242,6.41789501237869,-1.3108184203147901,-0.229743464756012
0.943030303030303,4.6000751881599395,4.41327825937271,-1.23325664834976
0.943636363636364,-8.735393561840059,-0.8222344359397891,0.7354494063377379
0.944242424242424,-1.11683643293381,-3.3849053343772897,-1.74100078897476
0.944848484848485,8.13033397722244,0.643517517185211,-0.9051389725685121
0.945454545454545,-2.22333545637131,5.04316839609146,1.09949237508774
0.946060606060606,-7.26485156965256,-3.0519976195335397,-1.43443828897476
0.946666666666667,3.63488231706619,-3.80642877187729,-1.7433958085060102
0.947272727272727,6.41070995378494,4.27915716562271,0.31632098836898803
0.947878787878788,-7.15228565168381,3.2971991578102102,0.00017841024398755802
0.948484848484848,-4.18725147199631,-6.3547295531272905,-1.7481858475685101
0.949090909090909,7.77587108659744,-0.6641631468772891,-1.21649151163101
0.94969696969697,1.17040721940994,6.63346136484146,0.7354494063377379
0.95030303030303,-8.910229987621308,-2.56820367422104,-1.1877512772560102
0.950909090909091,1.88412303972244,-4.07467095937729,-1.8679368241310101
0.951515151515152,7.72797069597244,2.99063665781021,0.725869328212738
0.952121212121212,-4.86983203840256,3.72111761484146,-0.5410960038185121
0.952727272727273,-5.6386333079338105,-5.43264703359604,-0.976989558506012
0.953333333333333,6.16402294206619,-1.0665264281272901,-0.972199519443512
0.953939393939394,4.27195751237869,5.46229681406021,0.43367694540023805
0.954545454545455,-9.28624805402756,-1.54313531484604,0.34506122274398804
0.955151515151515,0.212399406909943,-3.20048883047104,-1.99726787881851
0.955757575757576,7.49565380144119,0.7536884156227109,-0.854843562412262
0.956363636363636,-3.2986992259025603,5.40960638437271,0.43367694540023805
0.956969696969697,-6.91038867902756,-3.63877740468979,-0.0573020585060124
0.957575757575758,4.56893993425369,-3.50944635000229,-1.9014670975685102
0.958181818181818,5.74489452409744,4.37974798593521,-0.390209773349762
0.958787878787879,-7.42771289777756,1.2039520874977099,0.9533961836814879
0.959393939393939,-3.04482715559006,-3.79924371328354,-1.9326023514747601
0.96,7.24896678972244,-1.41619927968979,-1.1230857499122602
0.960606060606061,0.22916454362869298,5.70898382577896,1.12344257040024
0.961212121212121,-8.18214405012131,-2.7789653929710396,-0.991359675693512
0.961818181818182,2.6289741139411897,-3.8902544554710397,-1.9781077225685102
0.962424242424242,6.88013378190994,3.31635931406021,0.622883488368988
0.963030303030303,-5.72724903059006,3.91750921640396,-0.41176494913101197
0.963636363636364,-5.56678272199631,-6.24455865468979,-0.7015623124122621
0.964242424242424,7.1411909108161895,-0.7623589476585391,-1.02249492959976
0.964848484848485,2.4924580006599397,6.89451849374771,-0.45487530069351195
0.965454545454545,-8.77131885480881,-3.00649224843979,0.0265236250877376
0.966060606060606,0.547702141284943,-3.92617974843979,-0.931484187412262
0.966666666666667,7.63456493425369,2.2673407593727104,-0.598576472568512
0.967272727272727,-3.72261768293381,4.84438177499771,-1.00572979288101
0.967878787878788,-6.4840752024650605,-5.13326959218979,-0.32314922647476196
0.968484848484849,5.62274852800369,-1.1910674437522901,-1.2140964920997601
0.969090909090909,4.75575145769119,3.80254827890396,-0.39260479288101197
0.96969696969697,-7.67679492902756,0.40880560312271097,0.0959791914939876
0.97030303030303,-1.72517139387131,-3.40646051015854,-1.4320432694435101
0.970909090909091,7.69683544206619,-0.518066955471039,-0.718327449131012
0.971515151515152,-1.4066337962150601,5.48385198984146,0.737844425868988
