Time (s),Accel X (m/s^2),Accel Y (m/s^2),Accel Z (m/s^2)
0.0,0.591515936279297,0.100418210506439,-4.07352350177765
0.000606060606060606,0.632231268310547,0.045332761287689205,-3.7765410799026498
0.00121212121212121,0.651391424560547,0.150713620662689,-3.88671197834015
0.00181818181818182,0.627441229248047,0.205799069881439,-3.92503229084015
0.00242424242424242,0.529245428466797,-0.0576530785560608,-3.9896978181839
0.00303030303030303,0.596305975341797,-0.172614016056061,-4.135794009590151
0.00363636363636364,0.41428449096679704,0.040542722225189204,-4.22680475177765
0.00424242424242424,0.469369940185547,0.109998288631439,-3.87234186115265
0.00484848484848485,0.637021307373047,0.12915844488143902,-3.7430108064651497
0.00545454545454545,0.534035467529297,0.0477277808189392,-3.8986870759964
0.00606060606060606,0.6633665222167969,0.117183347225189,-3.89150201740265
0.00666666666666667,0.7232420104980469,0.172268796443939,-3.8843169588089
0.00727272727272727,0.555590643310547,0.17945385503768901,-4.0040679353714
0.00787878787878788,0.555590643310547,0.210589108943939,-4.08310357990265
0.00848484848484848,0.419074530029297,0.0189875464439392,-3.6543950838089
0.00909090909090909,0.5220603698730469,-0.0217277855873108,-3.8196514314651497
0.0096969696969697,0.519665350341797,-0.016937746524810803,-4.1142388338089
0.0103030303030303,0.361594061279297,0.21777416753768902,-3.4771636384963998
0.0109090909090909,0.6058860534667969,0.23932934331893901,-3.71906061115265
0.0115151515151515,0.46218488159179705,0.112393308162689,-3.82444147052765
0.0121212121212121,0.311298651123047,0.165083737850189,-3.8555767244339
0.0127272727272727,0.495715155029297,0.0501228003501892,-4.05915338459015
0.0133333333333333,0.517270330810547,0.09323315191268919,-3.7501958650589
0.0139393939393939,0.43344464721679704,0.09802319097518919,-4.00646295490265
0.0145454545454545,0.672946600341797,0.107603269100189,-3.8555767244339
0.0151515151515152,0.589120916748047,0.201009030818939,-3.6975054353714
0.0157575757575758,0.45260480346679705,0.263279538631439,-3.99688287677765
0.0163636363636364,0.7615623229980469,0.12915844488143902,-3.8507866853714
0.016969696969697,0.608281072998047,-0.131898684024811,-3.8938970369339
0.0175757575757576,0.507690252685547,0.0812580542564392,-4.0663384431839
0.0181818181818182,0.529245428466797,0.026172605037689197,-4.1525591463089
0.0187878787878788,0.481345037841797,0.0860480933189392,-3.9465874666214
0.0193939393939394,0.6633665222167969,0.0788630347251892,-3.87234186115265
0.02,0.48374005737304704,0.107603269100189,-3.9226372713088997
0.0206060606060606,0.378359197998047,0.270464597225189,-4.03520318927765
0.0212121212121212,0.359199041748047,0.100418210506439,-4.08310357990265
0.0218181818181818,0.610676092529297,0.227354245662689,-3.91545221271515
0.0224242424242424,0.756772283935547,0.09562817144393919,-3.9729326814651498
0.023030303030303,0.589120916748047,0.344710202693939,-4.06873346271515
0.0236363636363636,0.488530096435547,0.0501228003501892,-3.99209283771515
0.0242424242424242,0.476554998779297,-0.124713625431061,-3.9657476228714
0.0248484848484848,0.507690252685547,0.256094480037689,-4.14058404865265
0.0254545454545455,0.47415997924804704,-0.00256762933731079,-3.95377252521515
0.0260606060606061,0.713661932373047,0.0381477026939392,-3.86755182209015
0.0266666666666667,0.6657615417480469,0.282439694881439,-3.7358257478714
0.0272727272727273,0.378359197998047,0.29680981206893897,-3.9825127595901497
0.0278787878787879,0.48374005737304704,0.196218991756439,-4.1190288728714
0.0284848484848485,0.593910955810547,0.186638913631439,-3.96814264240265
0.0290909090909091,0.608281072998047,0.0812580542564392,-3.86755182209015
0.0296969696969697,0.48374005737304704,0.0620978980064392,-4.2411748689651505
0.0303030303030303,0.45499982299804703,0.0189875464439392,-3.9561675447463998
0.0309090909090909,0.476554998779297,0.160293698787689,-3.80049127521515
0.0315151515151515,0.574750799560547,0.186638913631439,-3.90587213459015
0.0321212121212121,0.5412205261230469,-0.045677980899810795,-3.6639751619339
0.0327272727272727,0.48374005737304704,-0.0576530785560608,-3.9753277009964
0.0333333333333333,0.6250462097167969,0.131553464412689,-3.8651568025589
0.0339393939393939,0.529245428466797,0.105208249568939,-3.7454058259964
0.0345454545454545,0.787907537841797,-0.06962817621231081,-3.70469049396515
0.0351515151515151,0.692106756591797,0.0141975073814392,-4.0280181306839
0.0357575757575758,0.46218488159179705,0.0141975073814392,-4.0328081697464
0.0363636363636364,0.620256170654297,0.0022224097251892097,-3.8124663728714
0.036969696969697,0.490925115966797,0.100418210506439,-3.87234186115265
0.0375757575757576,0.428654608154297,-0.00017260980606079098,-3.8220464509964
0.0381818181818182,0.390334295654297,-0.07920825433731081,-4.00167291584015
0.0387878787878788,0.46218488159179705,-0.0600480980873108,-3.32627740802765
0.0393939393939394,0.550800604248047,0.0189875464439392,-4.0807085603713995
0.04,0.34243390502929705,-0.112738527774811,-3.81486139240265
0.0406060606060606,0.5627757019042969,-0.148663820743561,-3.8364165681838998
0.0412121212121212,0.6418113464355469,0.102813230037689,-4.296260318183901
0.0418181818181818,0.407099432373047,0.112393308162689,-3.6112847322464
0.0424242424242424,0.577145819091797,-0.043282961368560795,-4.348950747871401
0.043030303030303,0.790302557373047,0.109998288631439,-4.0854985994339
0.0436363636363636,0.567565740966797,0.210589108943939,-3.6208648103714
0.0442424242424242,0.33285382690429705,0.186638913631439,-3.7334307283401498
0.0448484848484848,0.548405584716797,0.124368405818939,-3.9034771150589
0.0454545454545455,0.5819358581542969,0.0644929175376892,-3.86755182209015
0.0460606060606061,0.409494451904297,0.0836530737876892,-3.91545221271515
0.0466666666666667,0.47176495971679705,0.0597028784751892,-3.8938970369339
0.0472727272727273,0.44302472534179704,0.0525178198814392,-3.92024225177765
0.0478787878787879,0.428654608154297,-0.00017260980606079098,-4.0136480134964
0.0484848484848485,0.689711737060547,0.0022224097251892097,-3.9370073884964
0.0490909090909091,0.498110174560547,0.0788630347251892,-3.94419244709015
0.0496969696969697,0.6609715026855469,0.09562817144393919,-3.98730279865265
0.0503030303030303,0.574750799560547,0.165083737850189,-3.99209283771515
0.0509090909090909,0.31369367065429704,0.13873852300643902,-3.72864068927765
0.0515151515151515,0.526850408935547,0.0333576636314392,-4.0328081697464
0.0521212121212121,0.371174139404297,0.0597028784751892,-4.09747369709015
0.0527272727272727,0.579540838623047,-0.10555346918106101,-3.73822076740265
0.0533333333333333,0.538825506591797,0.210589108943939,-4.183694400215151
0.0539393939393939,0.486135076904297,0.028567624568939198,-4.128608950996401
0.0545454545454545,0.466974920654297,-0.186984133243561,-3.8962920564651498
0.0551515151515152,0.740007147216797,-0.00496264886856079,-3.9753277009964
0.0557575757575758,0.6442063659667969,0.165083737850189,-3.8986870759964
0.0563636363636364,0.426259588623047,0.205799069881439,-3.87234186115265
0.056969696969697,0.586725897216797,0.14352856206893902,-3.7885161775589
0.0575757575757576,0.46457990112304703,0.165083737850189,-3.90108209552765
0.0581818181818182,0.457394842529297,-0.08639331293106081,-4.0280181306839
0.0587878787878788,0.553195623779297,0.0501228003501892,-4.08789361896515
0.0593939393939394,0.579540838623047,0.102813230037689,-3.7765410799026498
0.06,0.49332013549804704,0.00940746831893921,-3.8196514314651497
0.0606060606060606,0.359199041748047,0.0165925269126892,-4.01604303302765
0.0612121212121212,0.519665350341797,0.0908381323814392,-3.7454058259964
0.0618181818181818,0.5460105651855469,0.00701244878768921,-3.87234186115265
0.0624242424242424,0.526850408935547,0.030962644100189198,-3.91066217365265
0.063030303030303,0.5843308776855469,0.00461742925643921,-3.76217096271515
0.0636363636363636,0.5460105651855469,-0.158243898868561,-3.72864068927765
0.0642424242424242,0.617861151123047,0.0884431128501892,-4.07831354084015
0.0648484848484848,0.5819358581542969,0.0333576636314392,-3.9417974275589
0.0654545454545455,0.5843308776855469,0.105208249568939,-4.03520318927765
0.0660606060606061,0.41188947143554705,0.042937741756439204,-4.2076445955276505
0.0666666666666667,0.368779119873047,0.0501228003501892,-3.8412066072464
0.0672727272727273,0.637021307373047,0.31836498785018896,-3.8747368806839
0.0678787878787879,0.557985662841797,-0.06723315668106081,-3.79570123615265
0.0684848484848485,0.498110174560547,0.160293698787689,-3.38854791584015
0.0690909090909091,0.5627757019042969,-0.00735766839981079,-3.83402154865265
0.0696969696969697,0.653786444091797,0.0165925269126892,-4.29865533771515
0.0703030303030303,0.613071112060547,0.172268796443939,-3.6448150056839
0.0709090909090909,0.859758123779297,-0.0337028832435608,-3.8076763338089
0.0715151515151515,0.807067694091797,0.18424389410018902,-4.116633853340151
0.0721212121212121,0.375964178466797,0.126763425350189,-3.91545221271515
0.0727272727272727,0.634626287841797,-0.00256762933731079,-4.0615484041214
0.0733333333333333,0.548405584716797,0.0836530737876892,-3.77175104084015
0.0739393939393939,0.651391424560547,0.150713620662689,-3.8891069978714
0.0745454545454545,0.593910955810547,-0.009752687931060789,-4.00167291584015
0.0751515151515151,0.349618963623047,0.0644929175376892,-3.8795269197463997
0.0757575757575758,0.639416326904297,0.150713620662689,-3.9729326814651498
0.0763636363636364,0.510085272216797,0.21777416753768902,-4.0807085603713995
0.076969696969697,0.610676092529297,0.0812580542564392,-4.0423882478714
0.0775757575757576,0.610676092529297,0.0022224097251892097,-4.0902886384964
0.0781818181818182,0.529245428466797,-0.14626880121231098,-4.06873346271515
0.0787878787878788,0.41428449096679704,0.045332761287689205,-4.0040679353714
0.0793939393939394,0.368779119873047,0.09562817144393919,-3.9465874666214
0.08,0.44302472534179704,-0.0384929223060608,-4.0423882478714
0.0806060606060606,0.380754217529297,0.040542722225189204,-4.169324283027651
0.0812121212121212,0.457394842529297,-0.0600480980873108,-3.9130571931838998
0.0818181818181818,0.40470441284179703,0.0213825659751892,-4.08789361896515
0.0824242424242424,0.555590643310547,0.0357526831626892,-3.8891069978714
0.083030303030303,0.5436155456542969,0.102813230037689,-3.94419244709015
0.0836363636363636,0.620256170654297,0.20340405035018902,-4.04478326740265
0.0842424242424242,0.534035467529297,-0.0576530785560608,-3.7837261384964
0.0848484848484849,0.478950018310547,0.09802319097518919,-4.17411432209015
0.0854545454545454,0.526850408935547,0.263279538631439,-4.11184381427765
0.0860606060606061,0.426259588623047,0.30878490972518896,-3.8172564119339
0.0866666666666667,0.529245428466797,0.0860480933189392,-3.8268364900589
0.0872727272727273,0.5843308776855469,-0.06723315668106081,-4.0567583650589
0.0878787878787879,0.457394842529297,0.0381477026939392,-4.19327447834015
0.0884848484848485,0.531640447998047,-0.00256762933731079,-3.7837261384964
0.0890909090909091,0.435839666748047,-0.0217277855873108,-3.82444147052765
0.0896969696969697,0.421469549560547,0.0620978980064392,-4.0232280916214
0.0903030303030303,0.7040818542480469,0.141133542537689,-3.8891069978714
0.0909090909090909,0.5220603698730469,0.222564206600189,-3.9801177400589
0.0915151515151515,0.598700994873047,0.21298412847518902,-4.0519683259964
0.0921212121212121,0.560380682373047,-0.0528630394935608,-3.9561675447463998
0.0927272727272727,0.47415997924804704,0.028567624568939198,-4.1477691072464005
0.0933333333333333,0.6010960144042969,0.155503659725189,-3.9849077791214
0.0939393939393939,0.548405584716797,0.270464597225189,-3.95856256427765
0.0945454545454545,0.593910955810547,0.303994870662689,-4.03520318927765
0.0951515151515152,0.359199041748047,0.045332761287689205,-3.8938970369339
0.0957575757575758,0.46218488159179705,0.09562817144393919,-4.1573491853714
0.0963636363636364,0.529245428466797,0.0381477026939392,-3.8747368806839
0.096969696969697,0.46218488159179705,-0.0337028832435608,-3.7741460603714
0.0975757575757576,0.620256170654297,0.12915844488143902,-4.1717193025589
0.0981818181818182,0.637021307373047,0.09562817144393919,-4.0567583650589
0.0987878787878788,0.5005051940917971,-0.019332766056060803,-4.0998687166214
0.0993939393939394,0.639416326904297,-0.0408879418373108,-3.9801177400589
0.1,0.488530096435547,0.0644929175376892,-3.44123834552765
0.100606060606061,0.476554998779297,0.105208249568939,-4.03520318927765
0.101212121212121,0.677736639404297,0.13394848394393902,-4.14058404865265
0.101818181818182,0.519665350341797,0.0022224097251892097,-4.0232280916214
0.102424242424242,0.5244553894042969,0.126763425350189,-3.87713190021515
0.103030303030303,0.39272931518554705,0.232144284725189,-3.8076763338089
0.103636363636364,0.653786444091797,0.150713620662689,-3.94419244709015
0.104242424242424,0.6034910339355469,0.105208249568939,-3.9849077791214
0.104848484848485,0.36398908081054704,-0.0121477074623108,-3.9370073884964
0.105454545454545,0.5843308776855469,-0.10315844964981101,-3.88192193927765
0.106060606060606,0.557985662841797,0.241724362850189,-4.0663384431839
0.106666666666667,0.359199041748047,0.256094480037689,-3.82444147052765
0.107272727272727,0.347223944091797,-0.242069582462311,-3.8507866853714
0.107878787878788,0.41188947143554705,0.00701244878768921,-3.94898248615265
0.108484848484848,0.5843308776855469,-0.00256762933731079,-3.9513775056839
0.109090909090909,0.387939276123047,0.09323315191268919,-3.9034771150589
0.10969696969697,0.340038885498047,0.141133542537689,-3.85797174396515
0.11030303030303,0.361594061279297,0.109998288631439,-3.91066217365265
0.110909090909091,0.299323553466797,0.234539304256439,-3.7933062166213998
0.111515151515152,0.181967596435547,0.126763425350189,-3.8076763338089
0.112121212121212,0.251423162841797,0.24411938238143902,-3.6639751619339
0.112727272727273,0.488530096435547,0.026172605037689197,-3.92982232990265
0.113333333333333,0.28255841674804705,0.0525178198814392,-4.0208330720901495
0.113939393939394,0.23944806518554698,0.0573078589439392,-3.8220464509964
0.114545454545455,0.31369367065429704,0.0764680151939392,-3.87713190021515
0.115151515151515,0.251423162841797,-0.17500903558731098,-4.01125299396515
0.115757575757576,0.270583319091797,-0.163033937931061,-4.0663384431839
0.116363636363636,0.110117010498047,-0.00017260980606079098,-3.9034771150589
0.116969696969697,0.10532697143554699,0.126763425350189,-3.8795269197463997
0.117575757575758,0.165202459716797,0.19861401128768902,-3.76217096271515
0.118181818181818,0.217892889404297,0.0237775855064392,-3.7980962556839
0.118787878787879,0.27297833862304705,0.34710522222518897,-3.79570123615265
0.119393939393939,0.0167112487792969,-0.0408879418373108,-3.8747368806839
0.12,0.13406720581054699,-0.07202319574356081,-4.0902886384964
0.120606060606061,0.24902814331054698,0.09562817144393919,-4.11184381427765
0.121212121212121,-0.033584161376953095,0.0501228003501892,-4.0759185213089
0.121818181818182,0.191547674560547,0.205799069881439,-3.98730279865265
0.122424242424242,0.368779119873047,0.236934323787689,-3.7885161775589
0.123030303030303,0.340038885498047,0.169873776912689,-3.90108209552765
0.123636363636364,0.18915265502929698,0.0908381323814392,-3.8459966463089
0.124242424242424,0.07419171752929689,0.0788630347251892,-4.1190288728714
0.124848484848485,0.232263006591797,0.00701244878768921,-4.135794009590151
0.125454545454545,0.112512030029297,0.0644929175376892,-3.7980962556839
0.126060606060606,0.10293195190429699,0.09323315191268919,-3.91545221271515
0.126666666666667,0.270583319091797,0.09802319097518919,-3.8364165681838998
0.127272727272727,0.38554425659179703,0.0501228003501892,-3.89150201740265
0.127878787878788,0.555590643310547,0.09323315191268919,-3.95377252521515
0.128484848484848,0.47415997924804704,0.165083737850189,-3.68553033771515
0.129090909090909,0.268188299560547,-0.0528630394935608,-3.7549859041214
0.12969696969697,0.35201398315429705,-0.016937746524810803,-4.28428522052765
0.13030303030303,0.35201398315429705,0.0836530737876892,-3.3622027009964
0.130909090909091,0.39512433471679703,0.0477277808189392,-3.63762994709015
0.131515151515152,0.366384100341797,0.21777416753768902,-4.02562311115265
0.132121212121212,0.43344464721679704,0.181848874568939,-3.66158014240265
0.132727272727273,0.318483709716797,0.0692829566001892,-3.9992778963088997
0.133333333333333,0.44302472534179704,0.112393308162689,-3.9394024080276497
0.133939393939394,0.5412205261230469,0.20819408941268902,-4.00167291584015
0.134545454545455,0.407099432373047,0.155503659725189,-3.95856256427765
0.135151515151515,0.44302472534179704,0.294414792537689,-4.01125299396515
0.135757575757576,0.416679510498047,-0.0600480980873108,-3.8172564119339
0.136363636363636,0.330458807373047,0.112393308162689,-3.9034771150589
0.136969696969697,0.44541974487304703,0.332735105037689,-3.90108209552765
0.137575757575758,0.548405584716797,0.215379148006439,-4.0711284822464
0.138181818181818,0.43344464721679704,-0.0337028832435608,-4.0232280916214
0.138787878787879,0.375964178466797,-0.191774172306061,-4.00167291584015
0.139393939393939,0.371174139404297,0.109998288631439,-4.07352350177765
0.14,0.534035467529297,0.0189875464439392,-3.7741460603714
0.140606060606061,0.730427069091797,0.29680981206893897,-3.84360162677765
0.141212121212121,0.5627757019042969,0.232144284725189,-3.84360162677765
0.141818181818182,0.49332013549804704,-0.009752687931060789,-3.7741460603714
0.142424242424242,0.5627757019042969,0.210589108943939,-3.7645659822464
0.143030303030303,0.39272931518554705,-0.0384929223060608,-3.7837261384964
0.143636363636364,0.316088690185547,-0.00256762933731079,-4.03041315021515
0.144242424242424,0.560380682373047,0.119578366756439,-4.109448794746401
0.144848484848485,0.46218488159179705,-0.009752687931060789,-3.9417974275589
0.145454545454545,0.40470441284179703,0.112393308162689,-3.9992778963088997
0.146060606060606,0.375964178466797,0.19861401128768902,-3.8364165681838998
0.146666666666667,0.48374005737304704,0.172268796443939,-3.8124663728714
0.147272727272727,0.648996405029297,0.13394848394393902,-3.9417974275589
0.147878787878788,0.35440900268554704,0.136343503475189,-3.9226372713088997
0.148484848484848,0.5436155456542969,-0.048073000431060796,-3.99209283771515
0.149090909090909,0.47415997924804704,0.0788630347251892,-4.01125299396515
0.14969696969697,0.519665350341797,0.0740729956626892,-3.9753277009964
0.15030303030303,0.407099432373047,-0.0241228051185608,-3.94419244709015
0.150909090909091,0.428654608154297,0.042937741756439204,-4.0998687166214
0.151515151515152,0.41428449096679704,0.0764680151939392,-4.03999322834015
0.152121212121212,0.42386456909179704,0.18903393316268902,-3.86755182209015
0.152727272727273,0.31369367065429704,0.0333576636314392,-4.0519683259964
0.153333333333333,0.6034910339355469,-0.110343508243561,-3.99209283771515
0.153939393939394,0.613071112060547,0.0525178198814392,-3.9082671541214
0.154545454545455,0.517270330810547,0.224959226131439,-3.94419244709015
0.155151515151515,0.706476873779297,0.0165925269126892,-3.7837261384964
0.155757575757576,0.45260480346679705,-0.00017260980606079098,-3.84839166584015
0.156363636363636,0.591515936279297,0.284834714412689,-3.6232598299026497
0.156969696969697,0.40470441284179703,0.0692829566001892,-3.8555767244339
0.157575757575758,0.531640447998047,0.0333576636314392,-3.86755182209015
0.158181818181818,0.675341619873047,0.19382397222518902,-3.88192193927765
0.158787878787879,0.6010960144042969,-0.0408879418373108,-3.74780084552765
0.159393939393939,0.6849216979980469,0.028567624568939198,-3.99688287677765
0.16,0.6034910339355469,0.24411938238143902,-3.81486139240265
0.160606060606061,0.6250462097167969,0.0860480933189392,-3.91545221271515
0.161212121212121,0.7256370300292969,0.0357526831626892,-3.8268364900589
0.161818181818182,0.656181463623047,0.23932934331893901,-3.5035088533401497
0.162424242424242,0.5460105651855469,0.167478757381439,-4.150164126777651
0.163030303030303,0.48374005737304704,0.0812580542564392,-3.91545221271515
0.163636363636364,0.7639573425292969,0.241724362850189,-3.99688287677765
0.164242424242424,0.596305975341797,-0.0384929223060608,-3.99688287677765
0.164848484848485,0.426259588623047,0.29920483160018896,-4.0088579744339
0.165454545454545,0.6442063659667969,0.284834714412689,-4.00167291584015
0.166060606060606,0.5412205261230469,-0.00017260980606079098,-3.92503229084015
0.166666666666667,0.45260480346679705,0.0692829566001892,-4.0663384431839
0.167272727272727,0.6034910339355469,-0.045677980899810795,-4.0615484041214
0.167878787878788,0.510085272216797,-0.0121477074623108,-4.08789361896515
0.168484848484848,0.49332013549804704,0.045332761287689205,-4.0136480134964
0.169090909090909,0.550800604248047,0.09802319097518919,-3.81486139240265
0.16969696969697,0.478950018310547,0.13873852300643902,-3.9705376619339
0.17030303030303,0.608281072998047,-0.07202319574356081,-3.8076763338089
0.170909090909091,0.450209783935547,0.0165925269126892,-3.95377252521515
0.171515151515152,0.579540838623047,0.181848874568939,-4.08310357990265
0.172121212121212,0.593910955810547,0.0477277808189392,-3.71427057209015
0.172727272727273,0.5627757019042969,0.253699460506439,-4.07831354084015
0.173333333333333,0.9842991394042969,0.136343503475189,-3.98730279865265
0.173939393939394,0.6058860534667969,-0.0552580590248108,-3.81007135334015
0.174545454545455,0.5436155456542969,0.107603269100189,-4.0208330720901495
0.175151515151515,0.447814764404297,0.21298412847518902,-3.87713190021515
0.175757575757576,0.5005051940917971,0.107603269100189,-4.1333989900589
0.176363636363636,0.567565740966797,-0.0360979027748108,-4.2411748689651505
0.176969696969697,0.215497869873047,0.0740729956626892,-4.269915103340151
0.177575757575758,0.478950018310547,0.0884431128501892,-3.9896978181839
0.178181818181818,0.6657615417480469,0.030962644100189198,-3.7070855134964
0.178787878787879,0.49332013549804704,0.0022224097251892097,-3.96814264240265
0.179393939393939,0.40470441284179703,-0.00017260980606079098,-4.01604303302765
0.18,0.658576483154297,-0.009752687931060789,-3.9034771150589
0.180606060606061,0.577145819091797,0.165083737850189,-3.90108209552765
0.181212121212121,0.5412205261230469,0.102813230037689,-3.85797174396515
0.181818181818182,0.5651707214355469,-0.10315844964981101,-3.8747368806839
0.182424242424242,0.596305975341797,-0.0552580590248108,-3.9896978181839
0.183030303030303,0.596305975341797,0.0477277808189392,-4.25075494709015
0.183636363636364,0.459789862060547,0.421350827693939,-3.9465874666214
0.184242424242424,0.31369367065429704,-0.00256762933731079,-3.6687652009964
0.184848484848485,0.28495343627929703,-0.0648381371498108,-4.03999322834015
0.185454545454545,0.431049627685547,-0.0552580590248108,-3.93461236896515
0.186060606060606,0.775932440185547,-0.07202319574356081,-3.85797174396515
0.186666666666667,0.713661932373047,0.107603269100189,-3.9322173494339
0.187272727272727,0.41428449096679704,-0.0145427269935608,-4.06394342365265
0.187878787878788,0.5819358581542969,-0.0217277855873108,-4.0543633455276495
0.188484848484848,0.548405584716797,-0.0528630394935608,-4.296260318183901
0.189090909090909,0.675341619873047,0.0501228003501892,-3.6448150056839
0.18969696969697,0.46457990112304703,0.114788327693939,-3.95377252521515
0.19030303030303,0.6849216979980469,0.251304440975189,-3.6783452791214
0.190909090909091,0.637021307373047,0.29680981206893897,-3.8986870759964
0.191515151515152,0.387939276123047,-0.0528630394935608,-4.423196353340151
0.192121212121212,0.6825266784667969,-0.122318605899811,-4.0902886384964
0.192727272727273,0.469369940185547,0.162688718318939,-3.8891069978714
0.193333333333333,0.421469549560547,-0.043282961368560795,-3.65200006427765
0.193939393939394,0.488530096435547,0.0860480933189392,-4.183694400215151
0.194545454545455,0.498110174560547,0.124368405818939,-3.8220464509964
0.195151515151515,0.615466131591797,0.121973386287689,-3.70948053302765
0.195757575757576,0.548405584716797,0.24890942144393902,-4.00167291584015
0.196363636363636,0.550800604248047,0.0022224097251892097,-4.03999322834015
0.196969696969697,0.378359197998047,-0.0337028832435608,-3.9561675447463998
0.197575757575758,0.517270330810547,-0.009752687931060789,-3.97772272052765
0.198181818181818,0.6849216979980469,0.109998288631439,-3.7933062166213998
0.198787878787879,0.593910955810547,0.040542722225189204,-4.0423882478714
0.199393939393939,0.438234686279297,0.21298412847518902,-3.9082671541214
0.2,0.431049627685547,-0.00735766839981079,-4.0328081697464
0.200606060606061,0.5843308776855469,-0.117528566837311,-3.9825127595901497
0.201212121212121,0.490925115966797,0.150713620662689,-4.06394342365265
0.201818181818182,0.589120916748047,-0.122318605899811,-4.0208330720901495
0.202424242424242,0.613071112060547,0.107603269100189,-3.75738092365265
0.203030303030303,0.596305975341797,0.119578366756439,-3.8555767244339
0.203636363636364,0.6418113464355469,0.0549128394126892,-4.06873346271515
0.204242424242424,0.6442063659667969,0.0788630347251892,-4.150164126777651
0.204848484848485,0.40470441284179703,0.09562817144393919,-3.92503229084015
0.205454545454545,0.5005051940917971,0.342315183162689,-4.1573491853714
0.206060606060606,0.308903631591797,0.107603269100189,-4.1812993806839005
0.206666666666667,0.356804022216797,-0.0360979027748108,-3.7022954744339
0.207272727272727,0.301718572998047,0.040542722225189204,-3.82444147052765
0.207878787878788,0.613071112060547,0.00940746831893921,-3.8891069978714
0.208484848484848,0.708871893310547,0.155503659725189,-3.93461236896515
0.209090909090909,0.38314923706054704,0.112393308162689,-3.9705376619339
0.20969696969697,0.639416326904297,-0.08639331293106081,-3.93461236896515
0.21030303030303,0.498110174560547,0.0022224097251892097,-4.0950786775589
0.210909090909091,0.560380682373047,0.136343503475189,-3.92982232990265
0.211515151515152,0.47176495971679705,0.169873776912689,-3.96335260334015
0.212121212121212,0.440629705810547,0.102813230037689,-3.99688287677765
0.212727272727273,0.440629705810547,-0.134293703556061,-3.91545221271515
0.213333333333333,0.450209783935547,-0.0887883324623108,-3.9825127595901497
0.213939393939394,0.375964178466797,0.0501228003501892,-4.0615484041214
0.214545454545455,0.529245428466797,0.114788327693939,-3.8627617830276497
0.215151515151515,0.696896795654297,0.196218991756439,-3.8172564119339
0.215757575757576,0.608281072998047,0.196218991756439,-3.85797174396515
0.216363636363636,0.579540838623047,0.0501228003501892,-3.8986870759964
0.216969696969697,0.450209783935547,0.162688718318939,-3.8028862947463997
0.217575757575758,0.366384100341797,0.265674558162689,-3.7430108064651497
0.218181818181818,0.6609715026855469,0.14831860113143902,-4.1669292634964
0.218787878787879,0.47176495971679705,0.0357526831626892,-4.2076445955276505
0.219393939393939,0.6010960144042969,-0.10315844964981101,-4.2148296541214005
0.22,0.819042791748047,0.026172605037689197,-3.6687652009964
0.220606060606061,0.409494451904297,0.040542722225189204,-3.4532134431839
0.221212121212121,0.450209783935547,0.0644929175376892,-4.0711284822464
0.221818181818182,0.615466131591797,0.0716779761314392,-3.90108209552765
0.222424242424242,0.799882635498047,-0.07202319574356081,-3.84839166584015
0.223030303030303,0.696896795654297,0.12915844488143902,-4.109448794746401
0.223636363636364,0.8022776550292969,0.174663815975189,-3.8531817049026498
0.224242424242424,0.6609715026855469,-0.00256762933731079,-3.8364165681838998
0.224848484848485,0.438234686279297,0.0525178198814392,-4.0950786775589
0.225454545454545,0.36398908081054704,0.0357526831626892,-4.09747369709015
0.226060606060606,0.6058860534667969,0.215379148006439,-3.71427057209015
0.226666666666667,0.519665350341797,0.229749265193939,-3.8172564119339
0.227272727272727,0.45260480346679705,0.0381477026939392,-4.14058404865265
0.227878787878788,0.613071112060547,-0.045677980899810795,-3.9322173494339
0.228484848484848,0.620256170654297,-0.124713625431061,-3.9729326814651498
0.229090909090909,0.6034910339355469,0.155503659725189,-3.9896978181839
0.22969696969697,0.146042303466797,0.270464597225189,-4.03520318927765
0.23030303030303,0.490925115966797,0.0908381323814392,-3.8459966463089
0.230909090909091,0.598700994873047,0.0884431128501892,-3.99688287677765
0.231515151515152,0.651391424560547,0.0573078589439392,-3.9849077791214
0.232121212121212,0.708871893310547,0.0333576636314392,-3.80049127521515
0.232727272727273,0.486135076904297,0.205799069881439,-3.75738092365265
0.233333333333333,0.466974920654297,0.155503659725189,-3.75259088459015
0.233939393939394,0.34243390502929705,-0.0911833519935608,-3.8795269197463997
0.234545454545455,0.632231268310547,-0.23009448480606098,-4.1190288728714
0.235151515151515,0.675341619873047,0.0908381323814392,-3.9561675447463998
0.235757575757576,0.519665350341797,0.246514401912689,-3.7741460603714
0.236363636363636,0.419074530029297,0.186638913631439,-3.88671197834015
0.236969696969697,0.613071112060547,-0.06723315668106081,-4.0950786775589
0.237575757575758,0.677736639404297,-0.167823976993561,-4.0328081697464
0.238181818181818,0.6010960144042969,0.0141975073814392,-4.16453424396515
0.238787878787879,0.5843308776855469,0.150713620662689,-3.9729326814651498
0.239393939393939,0.42386456909179704,0.284834714412689,-3.75259088459015
0.24,0.692106756591797,0.114788327693939,-4.14058404865265
0.240606060606061,0.5651707214355469,-0.08639331293106081,-3.9992778963088997
0.241212121212121,0.366384100341797,0.00461742925643921,-3.91545221271515
0.241818181818182,0.548405584716797,0.17945385503768901,-4.06394342365265
0.242424242424242,0.593910955810547,0.141133542537689,-3.8938970369339
0.243030303030303,0.608281072998047,0.0644929175376892,-3.79570123615265
0.243636363636364,0.440629705810547,0.196218991756439,-3.67116022052765
0.244242424242424,0.337643865966797,0.28722973394393897,-3.8124663728714
0.244848484848485,0.510085272216797,0.100418210506439,-4.07831354084015
0.245454545454545,0.5412205261230469,-0.043282961368560795,-3.9082671541214
0.246060606060606,0.428654608154297,-0.045677980899810795,-4.01125299396515
0.246666666666667,0.481345037841797,0.0812580542564392,-4.109448794746401
0.247272727272727,0.5819358581542969,0.105208249568939,-4.08789361896515
0.247878787878788,0.5819358581542969,-0.048073000431060796,-4.0136480134964
0.248484848484848,0.421469549560547,0.112393308162689,-4.2004595369339
0.249090909090909,0.47415997924804704,0.107603269100189,-4.23159479084015
0.24969696969697,0.634626287841797,-0.00256762933731079,-4.289075259590151
0.25030303030303,0.457394842529297,0.0597028784751892,-3.68553033771515
0.250909090909091,0.6226511901855469,0.174663815975189,-3.89150201740265
0.251515151515152,0.579540838623047,0.09562817144393919,-4.04478326740265
0.252121212121212,0.574750799560547,0.141133542537689,-3.7262456697464
0.252727272727273,0.531640447998047,0.167478757381439,-3.9417974275589
0.253333333333333,0.550800604248047,0.0692829566001892,-3.8507866853714
0.253939393939394,0.5843308776855469,0.160293698787689,-4.0280181306839
0.254545454545455,0.241843084716797,0.0884431128501892,-3.95377252521515
0.255151515151515,0.517270330810547,-0.21572436761856098,-3.81007135334015
0.255757575757576,0.637021307373047,-0.191774172306061,-4.06394342365265
0.256363636363636,0.637021307373047,-0.0145427269935608,-4.116633853340151
0.256969696969697,0.512480291748047,-0.0217277855873108,-4.0040679353714
0.257575757575758,0.186757635498047,0.09562817144393919,-4.150164126777651
0.258181818181818,0.431049627685547,0.00461742925643921,-3.9849077791214
0.258787878787879,0.390334295654297,-0.115133547306061,-3.90587213459015
0.259393939393939,0.33524884643554703,0.0118024878501892,-4.19327447834015
0.26,0.361594061279297,0.19861401128768902,-3.8507866853714
0.260606060606061,0.529245428466797,0.114788327693939,-3.85797174396515
0.261212121212121,0.629836248779297,0.23932934331893901,-4.03520318927765
0.261818181818182,0.40230939331054705,0.21298412847518902,-3.72385065021515
0.262424242424242,0.648996405029297,0.09562817144393919,-4.15974420490265
0.263030303030303,0.526850408935547,-0.0959733910560608,-3.96335260334015
0.263636363636364,0.347223944091797,0.0668879370689392,-3.8938970369339
0.264242424242424,0.478950018310547,0.102813230037689,-3.96335260334015
0.264848484848485,0.502900213623047,-0.00017260980606079098,-3.9825127595901497
0.265454545454545,0.6034910339355469,-0.07681323480606081,-4.116633853340151
0.266060606060606,0.44541974487304703,-0.0600480980873108,-3.9825127595901497
0.266666666666667,0.48374005737304704,0.28004467535018895,-4.1860894197464
0.267272727272727,0.569960760498047,0.174663815975189,-3.96814264240265
0.267878787878788,0.6825266784667969,0.030962644100189198,-3.9370073884964
0.268484848484848,0.526850408935547,0.174663815975189,-3.9465874666214
0.269090909090909,0.359199041748047,0.0549128394126892,-3.8843169588089
0.26969696969697,0.6657615417480469,0.15789867925643902,-3.8699468416214
0.27030303030303,0.569960760498047,0.246514401912689,-3.9130571931838998
0.270909090909091,0.567565740966797,0.00461742925643921,-4.0543633455276495
0.271515151515151,0.478950018310547,-0.0360979027748108,-3.7885161775589
0.272121212121212,0.620256170654297,0.0501228003501892,-4.0711284822464
0.272727272727273,0.591515936279297,0.0381477026939392,-4.25075494709015
0.273333333333333,0.632231268310547,0.0668879370689392,-3.8220464509964
0.273939393939394,0.593910955810547,0.0118024878501892,-3.87713190021515
0.274545454545455,0.689711737060547,-0.050468019962310796,-3.8962920564651498
0.275151515151515,0.658576483154297,0.0620978980064392,-3.9394024080276497
0.275757575757576,0.416679510498047,0.256094480037689,-3.8555767244339
0.276363636363636,0.639416326904297,0.270464597225189,-3.8220464509964
0.276969696969697,0.567565740966797,0.191428952693939,-4.1381890291214
0.277575757575758,0.41188947143554705,0.107603269100189,-3.8891069978714
0.278181818181818,0.311298651123047,0.131553464412689,-3.83402154865265
0.278787878787879,0.653786444091797,0.0597028784751892,-4.142979068183901
0.279393939393939,0.672946600341797,0.121973386287689,-3.72864068927765
0.28,0.613071112060547,0.251304440975189,-3.6831353181838997
0.280606060606061,0.617861151123047,0.126763425350189,-3.48913873615265
0.281212121212121,0.375964178466797,0.09562817144393919,-3.89150201740265
0.281818181818182,0.39272931518554705,0.0620978980064392,-4.1142388338089
0.282424242424242,0.529245428466797,0.201009030818939,-3.8507866853714
0.283030303030303,0.538825506591797,-0.043282961368560795,-4.0184380525589
0.283636363636364,0.486135076904297,0.09802319097518919,-3.94898248615265
0.284242424242424,0.579540838623047,0.160293698787689,-3.8603667634964
0.284848484848485,0.7208469909667969,-0.050468019962310796,-3.8172564119339
0.285454545454545,0.6825266784667969,0.0477277808189392,-4.1717193025589
0.286060606060606,0.550800604248047,0.162688718318939,-4.123818911933901
0.286666666666667,0.617861151123047,0.0740729956626892,-3.95377252521515
0.287272727272727,0.718451971435547,0.00940746831893921,-3.8891069978714
0.287878787878788,0.648996405029297,0.28004467535018895,-3.9801177400589
0.288484848484849,0.469369940185547,0.12915844488143902,-3.90587213459015
0.289090909090909,0.44302472534179704,-0.07441821527481081,-3.9561675447463998
0.28969696969697,0.550800604248047,-0.048073000431060796,-4.1812993806839005
0.29030303030303,0.591515936279297,0.0692829566001892,-4.128608950996401
0.290909090909091,0.531640447998047,0.0237775855064392,-4.09747369709015
0.291515151515152,0.754377264404297,-0.127108644962311,-3.88192193927765
0.292121212121212,0.6250462097167969,0.234539304256439,-3.8028862947463997
0.292727272727273,0.507690252685547,0.0237775855064392,-3.89150201740265
0.293333333333333,0.656181463623047,0.0764680151939392,-3.94419244709015
0.293939393939394,0.634626287841797,0.24411938238143902,-4.0328081697464
0.294545454545455,0.5005051940917971,0.28962475347518896,-3.89150201740265
0.295151515151515,0.34243390502929705,0.25848949956893896,-3.9322173494339
0.295757575757576,0.505295233154297,0.19861401128768902,-4.0519683259964
0.296363636363636,0.589120916748047,0.13873852300643902,-3.86755182209015
0.296969696969697,0.476554998779297,0.0333576636314392,-3.9130571931838998
0.297575757575758,0.438234686279297,0.126763425350189,-3.9394024080276497
0.298181818181818,0.45260480346679705,0.0740729956626892,-3.9226372713088997
0.298787878787879,0.613071112060547,-0.0360979027748108,-3.9322173494339
0.299393939393939,0.675341619873047,-0.050468019962310796,-4.0950786775589
0.3,0.6226511901855469,0.162688718318939,-4.243569888496401
0.300606060606061,0.613071112060547,0.0525178198814392,-3.8603667634964
0.301212121212121,0.629836248779297,0.114788327693939,-3.8531817049026498
0.301818181818182,0.41428449096679704,0.0141975073814392,-3.99209283771515
0.302424242424242,0.42386456909179704,0.162688718318939,-4.14537408771515
0.303030303030303,0.589120916748047,0.232144284725189,-4.0543633455276495
0.303636363636364,0.579540838623047,0.117183347225189,-3.96814264240265
0.304242424242424,0.47176495971679705,0.14831860113143902,-3.9825127595901497
0.304848484848485,0.5220603698730469,0.09323315191268919,-4.0280181306839
0.305454545454545,0.7040818542480469,-0.0384929223060608,-4.0543633455276495
0.306060606060606,0.330458807373047,0.028567624568939198,-3.99209283771515
0.306666666666667,0.481345037841797,0.141133542537689,-4.04478326740265
0.307272727272727,0.536430487060547,0.09802319097518919,-3.8843169588089
0.307878787878788,0.692106756591797,-0.0313078637123108,-3.95856256427765
0.308484848484848,0.646601385498047,-0.045677980899810795,-3.9896978181839
0.309090909090909,0.699291815185547,0.0549128394126892,-4.00167291584015
0.30969696969697,0.730427069091797,0.100418210506439,-3.96814264240265
0.31030303030303,0.40230939331054705,0.0908381323814392,-3.45081842365265
0.310909090909091,0.6609715026855469,0.14352856206893902,-3.4532134431839
0.311515151515152,0.792697576904297,0.0525178198814392,-3.95856256427765
0.312121212121212,0.6226511901855469,0.0788630347251892,-4.01125299396515
0.312727272727273,0.531640447998047,0.241724362850189,-3.76217096271515
0.313333333333333,0.490925115966797,0.0620978980064392,-3.8507866853714
0.313939393939394,0.7016868347167969,0.0381477026939392,-3.88192193927765
0.314545454545455,0.648996405029297,-0.0360979027748108,-3.8603667634964
0.315151515151515,0.514875311279297,0.0836530737876892,-3.7837261384964
0.315757575757576,0.617861151123047,0.117183347225189,-3.6112847322464
0.316363636363636,0.536430487060547,0.126763425350189,-3.7501958650589
0.316969696969697,0.397519354248047,0.0165925269126892,-3.8795269197463997
0.317575757575758,0.6633665222167969,0.0118024878501892,-3.8028862947463997
0.318181818181818,0.49332013549804704,0.107603269100189,-3.7765410799026498
0.318787878787879,0.586725897216797,0.0213825659751892,-4.03041315021515
0.319393939393939,0.557985662841797,-0.0241228051185608,-3.7693560213089
0.32,0.337643865966797,0.09802319097518919,-3.9034771150589
0.320606060606061,0.819042791748047,0.0716779761314392,-3.94898248615265
0.321212121212121,0.399914373779297,0.145923581600189,-4.0423882478714
0.321818181818182,0.26339826049804704,0.186638913631439,-4.07831354084015
0.322424242424242,0.33285382690429705,-0.0576530785560608,-3.7837261384964
0.323030303030303,0.615466131591797,-0.050468019962310796,-4.1190288728714
0.323636363636364,0.6058860534667969,-0.0552580590248108,-4.09268365802765
0.324242424242424,0.47415997924804704,0.141133542537689,-3.98730279865265
0.324848484848485,0.5627757019042969,0.256094480037689,-3.9465874666214
0.325454545454545,0.502900213623047,0.325550046443939,-3.9513775056839
0.326060606060606,0.5436155456542969,0.109998288631439,-3.9609575838089
0.326666666666667,0.517270330810547,-0.0384929223060608,-3.97772272052765
0.327272727272727,0.627441229248047,-0.17500903558731098,-3.9417974275589
0.327878787878788,0.653786444091797,0.222564206600189,-4.0328081697464
0.328484848484848,0.5220603698730469,0.483621335506439,-3.9705376619339
0.329090909090909,0.486135076904297,-0.06723315668106081,-3.80049127521515
0.32969696969697,0.634626287841797,-0.10076343011856101,-3.99688287677765
0.33030303030303,0.751982244873047,-0.019332766056060803,-4.0663384431839
0.330909090909091,0.502900213623047,0.186638913631439,-3.91545221271515
0.331515151515152,0.5244553894042969,0.227354245662689,-4.0950786775589
0.332121212121212,0.510085272216797,0.0620978980064392,-3.7837261384964
0.332727272727273,0.46218488159179705,0.0165925269126892,-3.6687652009964
0.333333333333333,0.41428449096679704,0.0477277808189392,-4.0950786775589
0.333939393939394,0.5843308776855469,0.263279538631439,-3.9178472322464
0.334545454545455,0.457394842529297,0.117183347225189,-3.86755182209015
0.335151515151515,0.46218488159179705,0.0692829566001892,-3.99209283771515
0.335757575757576,0.708871893310547,-0.0241228051185608,-3.8627617830276497
0.336363636363636,0.553195623779297,0.141133542537689,-4.03041315021515
0.336969696969697,0.773537420654297,0.201009030818939,-4.0519683259964
0.337575757575758,0.728032049560547,-0.0887883324623108,-3.9465874666214
0.338181818181818,0.634626287841797,0.0740729956626892,-3.99688287677765
0.338787878787879,0.457394842529297,0.0764680151939392,-3.52266900959015
0.339393939393939,0.428654608154297,0.0860480933189392,-3.45081842365265
0.34,0.620256170654297,-0.0241228051185608,-3.73822076740265
0.340606060606061,0.569960760498047,0.165083737850189,-3.99209283771515
0.341212121212121,0.716056951904297,0.117183347225189,-4.0663384431839
0.341818181818182,0.639416326904297,0.0022224097251892097,-3.9944878572464
0.342424242424242,0.45260480346679705,0.0477277808189392,-3.92982232990265
0.343030303030303,0.397519354248047,0.09562817144393919,-3.7933062166213998
0.343636363636364,0.49332013549804704,0.0836530737876892,-3.9322173494339
0.344242424242424,0.529245428466797,0.0788630347251892,-3.78133111896515
0.344848484848485,0.6633665222167969,0.0716779761314392,-3.83881158771515
0.345454545454545,0.768747381591797,-0.00256762933731079,-4.150164126777651
0.346060606060606,0.526850408935547,0.026172605037689197,-3.9370073884964
0.346666666666667,0.371174139404297,-0.0265178246498108,-3.8220464509964
0.347272727272727,0.498110174560547,0.21298412847518902,-3.8555767244339
0.347878787878788,0.514875311279297,0.026172605037689197,-4.0232280916214
0.348484848484849,0.366384100341797,0.0189875464439392,-4.1573491853714
0.349090909090909,0.38554425659179703,0.172268796443939,-3.9992778963088997
0.34969696969697,0.577145819091797,-0.0121477074623108,-4.16453424396515
0.35030303030303,0.677736639404297,-0.0121477074623108,-3.77175104084015
0.350909090909091,0.438234686279297,-0.00256762933731079,-3.70948053302765
0.351515151515152,0.507690252685547,0.00461742925643921,-4.14537408771515
0.352121212121212,0.438234686279297,0.102813230037689,-3.8962920564651498
0.352727272727273,0.476554998779297,0.0692829566001892,-3.7597759431838997
0.353333333333333,0.46218488159179705,0.205799069881439,-3.9417974275589
0.353939393939394,0.505295233154297,0.0788630347251892,-4.07831354084015
0.354545454545455,0.531640447998047,-0.07441821527481081,-4.03041315021515
0.355151515151515,0.6058860534667969,0.18903393316268902,-4.188484439277651
0.355757575757576,0.989089178466797,0.100418210506439,-4.183694400215151
0.356363636363636,0.5220603698730469,0.09323315191268919,-4.1525591463089
0.356969696969697,0.316088690185547,0.26806957769393897,-4.0375982088089
0.357575757575758,0.696896795654297,0.24890942144393902,-3.96814264240265
0.358181818181818,0.5843308776855469,0.21777416753768902,-4.0040679353714
0.358787878787879,0.706476873779297,0.026172605037689197,-3.90108209552765
0.359393939393939,0.46457990112304703,0.0189875464439392,-3.89150201740265
0.36,0.596305975341797,-0.0121477074623108,-4.08789361896515
0.360606060606061,0.529245428466797,-0.115133547306061,-4.0567583650589
0.361212121212121,0.390334295654297,-0.0911833519935608,-4.0232280916214
0.361818181818182,0.553195623779297,0.0644929175376892,-4.0232280916214
0.362424242424242,0.421469549560547,0.265674558162689,-3.94419244709015
0.363030303030303,0.579540838623047,0.13873852300643902,-4.08789361896515
0.363636363636364,0.687316717529297,-0.0911833519935608,-4.0136480134964
0.364242424242424,0.6825266784667969,-0.08160327386856081,-4.0088579744339
0.364848484848485,0.387939276123047,0.306389890193939,-4.1573491853714
0.365454545454545,0.634626287841797,0.0189875464439392,-3.8747368806839
0.366060606060606,0.787907537841797,0.045332761287689205,-3.9322173494339
0.366666666666667,0.5005051940917971,0.040542722225189204,-4.03999322834015
0.367272727272727,0.466974920654297,0.030962644100189198,-4.0807085603713995
0.367878787878788,0.548405584716797,0.21777416753768902,-3.91545221271515
0.368484848484848,0.390334295654297,0.150713620662689,-3.9370073884964
0.369090909090909,0.598700994873047,0.162688718318939,-4.442356509590151
0.36969696969697,0.687316717529297,-0.016937746524810803,-4.2244097322464
0.37030303030303,0.318483709716797,-0.019332766056060803,-3.5154839509964
0.370909090909091,0.613071112060547,0.0836530737876892,-3.4101030916214
0.371515151515152,0.560380682373047,0.263279538631439,-3.6975054353714
0.372121212121212,0.505295233154297,0.028567624568939198,-3.8076763338089
0.372727272727273,0.39512433471679703,-0.08399829339981081,-3.8891069978714
0.373333333333333,0.49332013549804704,0.0237775855064392,-4.0471782869339
0.373939393939394,0.574750799560547,0.232144284725189,-3.9849077791214
0.374545454545455,0.440629705810547,0.19382397222518902,-3.7789360994339
0.375151515151515,0.486135076904297,0.0740729956626892,-3.8938970369339
0.375757575757576,0.476554998779297,-0.115133547306061,-3.9849077791214
0.376363636363636,0.7232420104980469,0.0141975073814392,-4.08310357990265
0.376969696969697,0.488530096435547,-0.019332766056060803,-3.9825127595901497
0.377575757575758,0.349618963623047,0.0022224097251892097,-4.07352350177765
0.378181818181818,0.387939276123047,0.20340405035018902,-4.04478326740265
0.378787878787879,0.579540838623047,-0.0337028832435608,-4.1669292634964
0.379393939393939,0.811857733154297,0.0501228003501892,-4.322605533027651
0.38,0.653786444091797,0.09323315191268919,-3.71906061115265
0.380606060606061,0.38554425659179703,0.0860480933189392,-3.7885161775589
0.381212121212121,0.6010960144042969,-0.0337028832435608,-4.12621393146515
0.381818181818182,0.5460105651855469,0.0357526831626892,-4.14537408771515
0.382424242424242,0.572355780029297,-0.0217277855873108,-4.0088579744339
0.383030303030303,0.680131658935547,-0.0265178246498108,-3.88671197834015
0.383636363636364,0.675341619873047,-0.0360979027748108,-4.12621393146515
0.384242424242424,0.668156561279297,0.13873852300643902,-3.92982232990265
0.384848484848485,0.478950018310547,-0.127108644962311,-3.81486139240265
0.385454545454545,0.617861151123047,-0.218119387149811,-3.9178472322464
0.386060606060606,0.615466131591797,0.229749265193939,-3.9825127595901497
0.386666666666667,0.387939276123047,-0.019332766056060803,-3.9825127595901497
0.387272727272727,0.46457990112304703,0.0501228003501892,-4.0950786775589
0.387878787878788,0.459789862060547,0.117183347225189,-4.0184380525589
0.388484848484848,0.586725897216797,-0.06723315668106081,-3.95856256427765
0.389090909090909,0.534035467529297,0.136343503475189,-4.07831354084015
0.38969696969697,0.5819358581542969,0.282439694881439,-4.0519683259964
0.39030303030303,0.572355780029297,0.21777416753768902,-4.02562311115265
0.390909090909091,0.519665350341797,-0.10076343011856101,-3.7741460603714
0.391515151515152,0.692106756591797,-0.08639331293106081,-3.9226372713088997
0.392121212121212,0.33524884643554703,0.301599851131439,-4.21722467365265
0.392727272727273,0.328063787841797,0.21777416753768902,-3.82444147052765
0.393333333333333,0.481345037841797,0.13873852300643902,-3.7070855134964
0.393939393939394,0.5819358581542969,0.224959226131439,-4.102263736152651
0.394545454545455,0.809462713623047,0.030962644100189198,-3.9370073884964
0.395151515151515,0.519665350341797,-0.110343508243561,-3.92503229084015
0.395757575757576,0.512480291748047,0.177058835506439,-4.102263736152651
0.396363636363636,0.675341619873047,0.15310864019393902,-4.0950786775589
0.396969696969697,0.677736639404297,-0.08160327386856081,-4.1333989900589
0.397575757575758,0.6418113464355469,0.045332761287689205,-4.128608950996401
0.398181818181818,0.48374005737304704,0.0836530737876892,-3.8603667634964
0.398787878787879,0.740007147216797,0.20340405035018902,-3.76217096271515
0.399393939393939,0.7040818542480469,0.17945385503768901,-3.99688287677765
0.4,0.340038885498047,0.0022224097251892097,-3.81486139240265
0.400606060606061,0.347223944091797,-0.0241228051185608,-4.27949518146515
0.401212121212121,0.6034910339355469,-0.0384929223060608,-4.3585308259964
0.401818181818182,0.44302472534179704,0.19861401128768902,-3.9322173494339
0.402424242424242,0.529245428466797,0.19382397222518902,-3.90587213459015
0.403030303030303,0.6633665222167969,0.220169187068939,-3.9801177400589
0.403636363636364,0.572355780029297,-0.045677980899810795,-3.9178472322464
0.404242424242424,0.613071112060547,0.045332761287689205,-3.9370073884964
0.404848484848485,0.47176495971679705,0.15310864019393902,-4.17411432209015
0.405454545454545,0.589120916748047,0.23932934331893901,-3.93461236896515
0.406060606060606,0.534035467529297,0.17945385503768901,-4.0854985994339
0.406666666666667,0.536430487060547,-0.28996997308731104,-4.0615484041214
0.407272727272727,0.591515936279297,0.177058835506439,-3.8747368806839
0.407878787878788,0.337643865966797,0.19861401128768902,-4.03520318927765
0.408484848484849,0.39512433471679703,0.150713620662689,-3.9825127595901497
0.409090909090909,0.481345037841797,0.263279538631439,-3.9178472322464
0.40969696969697,0.5244553894042969,0.117183347225189,-4.06394342365265
0.41030303030303,0.586725897216797,0.0908381323814392,-3.9394024080276497
0.410909090909091,0.5460105651855469,0.155503659725189,-3.91066217365265
0.411515151515152,0.529245428466797,0.13394848394393902,-3.9992778963088997
0.412121212121212,0.790302557373047,-0.019332766056060803,-3.94898248615265
0.412727272727273,0.7256370300292969,0.0740729956626892,-4.00646295490265
0.413333333333333,0.450209783935547,0.109998288631439,-3.84360162677765
0.413939393939394,0.5460105651855469,0.0860480933189392,-3.7741460603714
0.414545454545455,0.7208469909667969,0.124368405818939,-3.96814264240265
0.415151515151515,0.692106756591797,0.220169187068939,-4.0040679353714
0.415757575757576,0.586725897216797,-0.115133547306061,-3.9226372713088997
0.416363636363636,0.6825266784667969,-0.124713625431061,-4.1573491853714
0.416969696969697,0.526850408935547,0.00461742925643921,-4.07831354084015
0.417575757575758,0.438234686279297,0.0764680151939392,-3.8843169588089
0.418181818181818,0.7256370300292969,0.09802319097518919,-3.75738092365265
0.418787878787879,0.5651707214355469,-0.00735766839981079,-3.9130571931838998
0.419393939393939,0.572355780029297,0.09802319097518919,-3.9753277009964
0.42,0.6250462097167969,0.162688718318939,-3.9322173494339
0.420606060606061,0.280163397216797,0.162688718318939,-4.0280181306839
0.421212121212121,0.6058860534667969,0.105208249568939,-3.9513775056839
0.421818181818182,0.397519354248047,0.112393308162689,-3.9370073884964
0.422424242424242,0.5843308776855469,0.107603269100189,-3.79091119709015
0.423030303030303,0.637021307373047,0.18903393316268902,-3.90108209552765
0.423636363636364,0.47415997924804704,0.0668879370689392,-3.94898248615265
0.424242424242424,0.687316717529297,0.18424389410018902,-3.94898248615265
0.424848484848485,0.47415997924804704,0.0692829566001892,-3.7789360994339
0.425454545454545,0.653786444091797,-0.0241228051185608,-3.8507866853714
0.426060606060606,0.613071112060547,0.0836530737876892,-4.1525591463089
0.426666666666667,0.459789862060547,0.0022224097251892097,-3.99209283771515
0.427272727272727,0.337643865966797,0.0812580542564392,-3.8627617830276497
0.427878787878788,0.488530096435547,0.0716779761314392,-3.91545221271515
0.428484848484848,0.634626287841797,0.0788630347251892,-3.9274273103714
0.429090909090909,0.591515936279297,0.09802319097518919,-3.8747368806839
0.42969696969697,0.735217108154297,0.107603269100189,-3.87713190021515
0.43030303030303,0.672946600341797,0.0189875464439392,-3.4580034822464
0.430909090909091,0.488530096435547,0.124368405818939,-3.3813628572464
0.431515151515152,0.7040818542480469,0.109998288631439,-3.92982232990265
0.432121212121212,0.5460105651855469,-0.0145427269935608,-3.9513775056839
0.432727272727273,0.608281072998047,0.251304440975189,-3.8795269197463997
0.433333333333333,0.531640447998047,0.181848874568939,-3.7933062166213998
0.433939393939394,0.687316717529297,-0.0648381371498108,-3.82923150959015
0.434545454545455,0.637021307373047,0.0573078589439392,-3.9417974275589
0.435151515151515,0.419074530029297,0.112393308162689,-4.12621393146515
0.435757575757576,0.534035467529297,0.232144284725189,-4.0902886384964
0.436363636363636,0.512480291748047,0.0237775855064392,-3.8555767244339
0.436969696969697,0.469369940185547,0.121973386287689,-3.8795269197463997
0.437575757575758,0.328063787841797,0.145923581600189,-4.109448794746401
0.438181818181818,0.481345037841797,0.028567624568939198,-3.9513775056839
0.438787878787879,0.6633665222167969,0.040542722225189204,-4.0040679353714
0.439393939393939,0.459789862060547,0.030962644100189198,-4.01604303302765
0.44,0.32327374877929704,-0.08639331293106081,-3.7022954744339
0.440606060606061,0.5412205261230469,-0.08399829339981081,-4.17411432209015
0.441212121212121,0.5436155456542969,0.172268796443939,-4.19327447834015
0.441818181818182,0.632231268310547,-0.0241228051185608,-3.92982232990265
0.442424242424242,0.7424021667480469,0.201009030818939,-4.1525591463089
0.443030303030303,0.668156561279297,0.19382397222518902,-4.12621393146515
0.443636363636364,0.488530096435547,0.0860480933189392,-3.94419244709015
0.444242424242424,0.47415997924804704,0.315969968318939,-3.9322173494339
0.444848484848485,0.7831174987792969,0.14831860113143902,-3.9394024080276497
0.445454545454545,0.632231268310547,0.09323315191268919,-3.8220464509964
0.446060606060606,0.426259588623047,0.18903393316268902,-3.83402154865265
0.446666666666667,0.46218488159179705,0.102813230037689,-3.88192193927765
0.447272727272727,0.6442063659667969,0.0692829566001892,-3.9394024080276497
0.447878787878788,0.359199041748047,0.294414792537689,-3.8891069978714
0.448484848484848,0.47176495971679705,0.20819408941268902,-3.84360162677765
0.449090909090909,0.716056951904297,0.0740729956626892,-4.06394342365265
0.44969696969697,0.378359197998047,0.19861401128768902,-3.84839166584015
0.45030303030303,0.538825506591797,0.251304440975189,-3.68074029865265
0.450909090909091,0.486135076904297,0.181848874568939,-3.7933062166213998
0.451515151515152,0.670551580810547,-0.0217277855873108,-3.82923150959015
0.452121212121212,0.44302472534179704,0.141133542537689,-3.84839166584015
0.452727272727273,0.368779119873047,0.315969968318939,-3.9944878572464
0.453333333333333,0.6010960144042969,0.117183347225189,-3.9753277009964
0.453939393939394,0.5005051940917971,-0.043282961368560795,-3.7501958650589
0.454545454545455,0.375964178466797,0.030962644100189198,-4.0040679353714
0.455151515151515,0.5412205261230469,0.0716779761314392,-3.94419244709015
0.455757575757576,0.553195623779297,0.042937741756439204,-4.06394342365265
0.456363636363636,0.431049627685547,-0.07441821527481081,-4.0184380525589
0.456969696969697,0.447814764404297,0.121973386287689,-4.116633853340151
0.457575757575758,0.6633665222167969,0.124368405818939,-4.04957330646515
0.458181818181818,0.596305975341797,0.131553464412689,-3.84839166584015
0.458787878787879,0.41428449096679704,0.0477277808189392,-4.41361627521515
0.459393939393939,0.696896795654297,-0.019332766056060803,-4.1190288728714
0.46,0.754377264404297,0.253699460506439,-3.60888971271515
0.460606060606061,0.579540838623047,0.169873776912689,-3.5825444978714
0.461212121212121,0.732822088623047,-0.0121477074623108,-4.06394342365265
0.461818181818182,0.651391424560547,0.292019773006439,-4.06394342365265
0.462424242424242,0.490925115966797,0.29920483160018896,-3.9849077791214
0.463030303030303,0.589120916748047,-0.009752687931060789,-4.10705377521515
0.463636363636364,0.510085272216797,-0.0600480980873108,-3.87713190021515
0.464242424242424,0.653786444091797,-0.16063891839981098,-4.1214238924026505
0.464848484848485,0.488530096435547,0.0118024878501892,-4.102263736152651
0.465454545454545,0.407099432373047,0.09802319097518919,-3.9801177400589
0.466060606060606,0.48374005737304704,0.0477277808189392,-4.06394342365265
0.466666666666667,0.557985662841797,0.172268796443939,-3.92982232990265
0.467272727272727,0.589120916748047,0.00940746831893921,-3.9513775056839
0.467878787878788,0.6250462097167969,-0.129503664493561,-3.76696100177765
0.468484848484849,0.577145819091797,0.0908381323814392,-3.81486139240265
0.469090909090909,0.46218488159179705,0.270464597225189,-4.0208330720901495
0.46969696969697,0.33524884643554703,0.191428952693939,-4.01604303302765
0.47030303030303,0.627441229248047,0.15310864019393902,-3.8603667634964
0.470909090909091,0.5651707214355469,-0.0241228051185608,-3.72864068927765
0.471515151515151,0.435839666748047,-0.00256762933731079,-4.0088579744339
0.472121212121212,0.36398908081054704,0.150713620662689,-3.9082671541214
0.472727272727273,0.6058860534667969,0.112393308162689,-3.95377252521515
0.473333333333333,0.807067694091797,0.241724362850189,-3.99209283771515
0.473939393939394,0.340038885498047,-0.0384929223060608,-3.75259088459015
0.474545454545455,0.495715155029297,0.232144284725189,-4.128608950996401
0.475151515151515,0.572355780029297,0.251304440975189,-3.9609575838089
0.475757575757576,0.567565740966797,-0.0217277855873108,-3.8843169588089
0.476363636363636,0.287348455810547,0.09562817144393919,-4.14058404865265
0.476969696969697,0.488530096435547,0.15310864019393902,-4.04478326740265
0.477575757575758,0.577145819091797,0.19382397222518902,-3.80528131427765
0.478181818181818,0.596305975341797,0.0501228003501892,-3.84360162677765
0.478787878787879,0.538825506591797,0.272859616756439,-4.0998687166214
0.479393939393939,0.507690252685547,-0.124713625431061,-3.9705376619339
0.48,0.6657615417480469,-0.06962817621231081,-3.83402154865265
0.480606060606061,0.387939276123047,0.0620978980064392,-4.08310357990265
0.481212121212121,0.567565740966797,-0.0624431176185608,-4.0950786775589
0.481818181818182,0.6849216979980469,0.215379148006439,-4.03041315021515
0.482424242424242,0.536430487060547,0.186638913631439,-4.109448794746401
0.483030303030303,0.36398908081054704,0.181848874568939,-4.102263736152651
0.483636363636364,0.639416326904297,0.0597028784751892,-3.92503229084015
0.484242424242424,0.416679510498047,0.0764680151939392,-3.94419244709015
0.484848484848485,0.45499982299804703,0.109998288631439,-4.0998687166214
0.485454545454545,0.737612127685547,0.131553464412689,-3.8699468416214
0.486060606060606,0.5005051940917971,0.0141975073814392,-3.83402154865265
0.486666666666667,0.502900213623047,0.18424389410018902,-3.92503229084015
0.487272727272727,0.476554998779297,0.114788327693939,-4.0328081697464
0.487878787878788,0.550800604248047,-0.177404055118561,-3.8938970369339
0.488484848484848,0.387939276123047,0.042937741756439204,-3.9992778963088997
0.489090909090909,0.531640447998047,-0.0959733910560608,-4.45672662677765
0.48969696969697,0.730427069091797,0.0788630347251892,-3.95377252521515
0.49030303030303,0.6418113464355469,0.186638913631439,-3.7334307283401498
0.490909090909091,0.5436155456542969,0.100418210506439,-3.6687652009964
0.491515151515152,0.440629705810547,0.0118024878501892,-3.8938970369339
0.492121212121212,0.689711737060547,-0.0528630394935608,-4.0807085603713995
0.492727272727273,0.7016868347167969,0.12915844488143902,-3.9849077791214
0.493333333333333,0.5819358581542969,0.332735105037689,-4.150164126777651
0.493939393939394,0.447814764404297,0.20340405035018902,-4.04957330646515
0.494545454545455,0.378359197998047,0.15789867925643902,-3.9705376619339
0.495151515151515,0.356804022216797,0.131553464412689,-3.7980962556839
0.495757575757576,0.5412205261230469,0.160293698787689,-3.9729326814651498
0.496363636363636,0.656181463623047,-0.016937746524810803,-3.8986870759964
0.496969696969697,0.36398908081054704,-0.0313078637123108,-3.81486139240265
0.497575757575758,0.505295233154297,0.0118024878501892,-3.87234186115265
0.498181818181818,0.5005051940917971,-0.16542895746231098,-4.03520318927765
0.498787878787879,0.44541974487304703,0.0237775855064392,-4.0040679353714
0.499393939393939,0.481345037841797,0.0644929175376892,-3.85797174396515
0.5,0.502900213623047,0.09323315191268919,-3.7549859041214
0.500606060606061,0.6034910339355469,0.040542722225189204,-3.8795269197463997
0.501212121212121,0.41188947143554705,0.191428952693939,-3.9729326814651498
0.501818181818182,0.620256170654297,0.294414792537689,-4.00167291584015
0.502424242424242,0.6010960144042969,0.0644929175376892,-3.84839166584015
0.503030303030303,0.5244553894042969,0.12915844488143902,-3.77175104084015
0.503636363636364,0.440629705810547,0.0620978980064392,-4.150164126777651
0.504242424242424,0.553195623779297,0.220169187068939,-3.9370073884964
0.504848484848485,0.5220603698730469,0.169873776912689,-3.8316265291214
0.505454545454545,0.431049627685547,-0.0217277855873108,-4.0854985994339
0.506060606060606,0.596305975341797,-0.07441821527481081,-4.02562311115265
0.506666666666667,0.505295233154297,-0.117528566837311,-3.9657476228714
0.507272727272727,0.637021307373047,-0.043282961368560795,-4.0854985994339
0.507878787878788,0.627441229248047,0.0525178198814392,-4.1717193025589
0.508484848484849,0.574750799560547,0.20340405035018902,-3.88671197834015
0.509090909090909,0.7232420104980469,-0.0337028832435608,-3.7645659822464
0.50969696969697,0.668156561279297,0.272859616756439,-3.92982232990265
0.51030303030303,0.512480291748047,0.040542722225189204,-3.8531817049026498
0.510909090909091,0.5627757019042969,0.109998288631439,-3.80049127521515
0.511515151515151,0.5843308776855469,0.210589108943939,-3.69032037677765
0.512121212121212,0.37356915893554704,-0.0265178246498108,-4.0040679353714
0.512727272727273,0.598700994873047,0.224959226131439,-4.21722467365265
0.513333333333333,0.6849216979980469,0.234539304256439,-4.0711284822464
0.513939393939394,0.613071112060547,0.045332761287689205,-3.96814264240265
0.514545454545455,0.457394842529297,-0.00735766839981079,-3.76696100177765
0.515151515151515,0.347223944091797,0.00701244878768921,-3.8699468416214
0.515757575757576,0.627441229248047,0.167478757381439,-4.08310357990265
0.516363636363636,0.5627757019042969,0.172268796443939,-3.9729326814651498
0.516969696969697,0.5843308776855469,0.00940746831893921,-3.99209283771515
0.517575757575758,0.44541974487304703,0.210589108943939,-3.9992778963088997
0.518181818181818,0.517270330810547,0.186638913631439,-3.8364165681838998
0.518787878787879,0.5819358581542969,0.102813230037689,-3.4292632478714
0.519393939393939,0.651391424560547,0.0692829566001892,-4.0423882478714
0.52,0.627441229248047,0.0692829566001892,-4.1908794588089
0.520606060606061,0.507690252685547,0.0573078589439392,-3.69511041584015
0.521212121212121,0.713661932373047,0.030962644100189198,-3.9417974275589
0.521818181818182,0.8022776550292969,0.0620978980064392,-4.03520318927765
0.522424242424242,0.8453880065917969,-0.08399829339981081,-3.86755182209015
0.523030303030303,0.610676092529297,-0.019332766056060803,-3.99209283771515
0.523636363636364,0.620256170654297,0.09562817144393919,-4.2914702791214
0.524242424242424,0.716056951904297,0.12915844488143902,-3.88671197834015
0.524848484848485,0.42386456909179704,0.0836530737876892,-3.92503229084015
0.525454545454546,0.713661932373047,-0.0313078637123108,-4.0902886384964
0.526060606060606,0.835807928466797,0.0237775855064392,-3.84360162677765
0.526666666666667,0.536430487060547,0.167478757381439,-3.73822076740265
0.527272727272727,0.431049627685547,-0.0648381371498108,-3.93461236896515
0.527878787878788,0.5819358581542969,-0.0552580590248108,-4.19806451740265
0.528484848484848,0.514875311279297,-0.0408879418373108,-4.243569888496401
0.529090909090909,0.457394842529297,-0.0408879418373108,-4.0328081697464
0.52969696969697,0.598700994873047,0.0381477026939392,-4.10705377521515
0.53030303030303,0.799882635498047,-0.00256762933731079,-3.7837261384964
0.530909090909091,0.43344464721679704,0.107603269100189,-3.80049127521515
0.531515151515151,0.318483709716797,0.0189875464439392,-3.85797174396515
0.532121212121212,0.488530096435547,-0.127108644962311,-3.7980962556839
0.532727272727273,0.407099432373047,0.14352856206893902,-3.87234186115265
0.533333333333333,0.531640447998047,0.177058835506439,-3.7885161775589
0.533939393939394,0.514875311279297,0.028567624568939198,-4.14058404865265
0.534545454545455,0.44541974487304703,0.0501228003501892,-4.0902886384964
0.535151515151515,0.426259588623047,0.18424389410018902,-3.98730279865265
0.535757575757576,0.699291815185547,0.0716779761314392,-3.86755182209015
0.536363636363636,0.5819358581542969,0.0908381323814392,-3.88192193927765
0.536969696969697,0.6058860534667969,0.18903393316268902,-3.91545221271515
0.537575757575758,0.577145819091797,-0.148663820743561,-3.8364165681838998
0.538181818181818,0.495715155029297,0.19382397222518902,-4.0040679353714
0.538787878787879,0.608281072998047,0.232144284725189,-3.8795269197463997
0.539393939393939,0.177177557373047,0.19382397222518902,-4.08789361896515
0.54,0.378359197998047,-0.07441821527481081,-4.0136480134964
0.540606060606061,0.629836248779297,-0.10555346918106101,-3.9513775056839
0.541212121212121,0.560380682373047,0.107603269100189,-4.116633853340151
0.541818181818182,0.517270330810547,-0.0360979027748108,-3.8124663728714
0.542424242424242,0.557985662841797,0.0860480933189392,-3.8843169588089
0.543030303030303,0.689711737060547,0.160293698787689,-3.91545221271515
0.543636363636364,0.498110174560547,-0.016937746524810803,-3.96335260334015
0.544242424242424,0.457394842529297,0.0357526831626892,-3.8962920564651498
0.544848484848485,0.486135076904297,0.181848874568939,-3.6591851228714
0.545454545454545,0.375964178466797,-0.0887883324623108,-3.90108209552765
0.546060606060606,0.246633123779297,0.0620978980064392,-4.0519683259964
0.546666666666667,0.608281072998047,0.0716779761314392,-3.89150201740265
0.547272727272727,0.45260480346679705,0.21298412847518902,-3.8531817049026498
0.547878787878788,0.6250462097167969,0.19861401128768902,-3.8795269197463997
0.548484848484848,0.498110174560547,-0.0408879418373108,-3.8268364900589
0.549090909090909,0.320878729248047,0.0884431128501892,-4.1908794588089
0.54969696969697,0.5436155456542969,-0.17021899652481098,-4.12621393146515
0.55030303030303,0.495715155029297,0.0501228003501892,-3.5490142244339
0.550909090909091,0.447814764404297,0.0812580542564392,-3.71427057209015
0.551515151515152,0.572355780029297,-0.0528630394935608,-3.9274273103714
0.552121212121212,0.431049627685547,0.0165925269126892,-3.95377252521515
0.552727272727273,0.208312811279297,0.0381477026939392,-4.02562311115265
0.553333333333333,0.495715155029297,0.215379148006439,-4.2244097322464
0.553939393939394,0.608281072998047,-0.16542895746231098,-3.8531817049026498
0.554545454545455,0.6010960144042969,-0.110343508243561,-3.8795269197463997
0.555151515151515,0.490925115966797,0.17945385503768901,-4.14537408771515
0.555757575757576,0.586725897216797,0.026172605037689197,-3.92982232990265
0.556363636363636,0.692106756591797,0.174663815975189,-4.0423882478714
0.556969696969697,0.33524884643554703,0.028567624568939198,-3.71906061115265
0.557575757575758,0.24902814331054698,0.18424389410018902,-3.80049127521515
0.558181818181818,0.43344464721679704,0.136343503475189,-3.86755182209015
0.558787878787879,0.615466131591797,0.169873776912689,-3.9944878572464
0.559393939393939,0.569960760498047,0.169873776912689,-4.2244097322464
0.56,0.613071112060547,-0.136688723087311,-3.92024225177765
0.560606060606061,0.766352362060547,0.0620978980064392,-3.9801177400589
0.561212121212121,0.512480291748047,0.177058835506439,-4.0519683259964
0.561818181818182,0.675341619873047,0.0644929175376892,-4.1717193025589
0.562424242424242,0.46218488159179705,0.15310864019393902,-3.9657476228714
0.563030303030303,0.459789862060547,0.30878490972518896,-3.8028862947463997
0.563636363636364,0.371174139404297,0.0213825659751892,-3.8795269197463997
0.564242424242424,0.6250462097167969,0.224959226131439,-3.81486139240265
0.564848484848485,0.7256370300292969,0.00461742925643921,-3.8699468416214
0.565454545454545,0.531640447998047,0.0549128394126892,-3.83402154865265
0.566060606060606,0.560380682373047,0.0884431128501892,-3.9705376619339
0.566666666666667,0.5412205261230469,-0.23009448480606098,-3.9465874666214
0.567272727272727,0.680131658935547,0.0213825659751892,-4.109448794746401
0.567878787878788,0.287348455810547,0.13394848394393902,-3.9753277009964
0.568484848484848,0.486135076904297,0.169873776912689,-4.27949518146515
0.569090909090909,0.740007147216797,-0.0576530785560608,-3.9705376619339
0.56969696969697,0.555590643310547,0.040542722225189204,-3.96814264240265
0.57030303030303,0.692106756591797,0.09802319097518919,-3.9944878572464
0.570909090909091,0.45260480346679705,0.117183347225189,-3.8076763338089
0.571515151515152,0.5460105651855469,0.229749265193939,-3.99209283771515
0.572121212121212,0.629836248779297,0.040542722225189204,-3.91066217365265
0.572727272727273,0.505295233154297,0.0189875464439392,-4.1573491853714
0.573333333333333,0.555590643310547,0.0668879370689392,-3.8076763338089
0.573939393939394,0.5436155456542969,-0.17979907464981099,-3.9322173494339
0.574545454545455,0.632231268310547,-0.0576530785560608,-3.96335260334015
0.575151515151515,0.560380682373047,0.28962475347518896,-4.0543633455276495
0.575757575757576,0.5627757019042969,0.0884431128501892,-4.150164126777651
0.576363636363636,0.447814764404297,0.145923581600189,-4.0280181306839
0.576969696969697,0.457394842529297,0.117183347225189,-3.83881158771515
0.577575757575758,0.589120916748047,-0.07920825433731081,-3.8316265291214
0.578181818181818,0.431049627685547,0.17945385503768901,-4.1525591463089
0.578787878787879,0.536430487060547,0.241724362850189,-3.81007135334015
0.579393939393939,0.6609715026855469,0.26806957769393897,-3.38854791584015
0.58,0.39512433471679703,0.0692829566001892,-4.0807085603713995
0.580606060606061,0.49332013549804704,0.045332761287689205,-3.5777544588089
0.581212121212121,0.7208469909667969,0.186638913631439,-3.76217096271515
0.581818181818182,0.6226511901855469,0.100418210506439,-4.17890436115265
0.582424242424242,0.589120916748047,-0.06723315668106081,-3.80528131427765
0.583030303030303,0.637021307373047,-0.0313078637123108,-4.06873346271515
0.583636363636364,0.5005051940917971,0.181848874568939,-3.9465874666214
0.584242424242424,0.6034910339355469,0.09323315191268919,-4.09747369709015
0.584848484848485,0.670551580810547,0.09802319097518919,-3.9609575838089
0.585454545454545,0.512480291748047,0.12915844488143902,-3.7262456697464
0.586060606060606,0.495715155029297,0.0477277808189392,-4.0902886384964
0.586666666666667,0.677736639404297,0.0477277808189392,-3.97772272052765
0.587272727272727,0.711266912841797,0.00461742925643921,-3.71427057209015
0.587878787878788,0.596305975341797,0.0333576636314392,-3.8268364900589
0.588484848484848,0.6058860534667969,-0.0552580590248108,-3.97772272052765
0.589090909090909,0.7016868347167969,0.0836530737876892,-3.92024225177765
0.58969696969697,0.387939276123047,0.136343503475189,-3.6879253572464
0.59030303030303,0.567565740966797,-0.0121477074623108,-3.7789360994339
0.590909090909091,0.44541974487304703,0.145923581600189,-3.8507866853714
0.591515151515152,0.505295233154297,0.253699460506439,-3.9944878572464
0.592121212121212,0.46457990112304703,0.124368405818939,-3.8627617830276497
0.592727272727273,0.26579328002929703,0.042937741756439204,-4.0759185213089
0.593333333333333,0.7639573425292969,0.167478757381439,-3.9992778963088997
0.593939393939394,0.26339826049804704,0.0692829566001892,-4.08310357990265
0.594545454545455,0.366384100341797,0.124368405818939,-4.162139224433901
0.595151515151515,0.639416326904297,-0.117528566837311,-4.0423882478714
0.595757575757576,0.737612127685547,0.136343503475189,-3.9657476228714
0.596363636363636,0.46457990112304703,0.169873776912689,-3.72385065021515
0.596969696969697,0.490925115966797,-0.0337028832435608,-3.96814264240265
0.597575757575758,0.416679510498047,0.23932934331893901,-4.00646295490265
0.598181818181818,0.330458807373047,0.34950024175643896,-4.0136480134964
0.598787878787879,0.6849216979980469,0.0597028784751892,-3.87234186115265
0.599393939393939,0.5460105651855469,0.0860480933189392,-3.7765410799026498
0.6,0.481345037841797,0.373450437068939,-3.8412066072464
0.600606060606061,0.560380682373047,0.00940746831893921,-4.00167291584015
0.601212121212121,0.7232420104980469,-0.0384929223060608,-3.88192193927765
0.601818181818182,0.397519354248047,0.24411938238143902,-4.0854985994339
0.602424242424242,0.380754217529297,0.0165925269126892,-4.1717193025589
0.603030303030303,0.426259588623047,0.0333576636314392,-4.0136480134964
0.603636363636364,0.361594061279297,0.229749265193939,-4.0208330720901495
0.604242424242424,0.46218488159179705,0.0860480933189392,-3.96814264240265
0.604848484848485,0.653786444091797,0.0237775855064392,-3.9226372713088997
0.605454545454545,0.5005051940917971,0.0764680151939392,-3.95377252521515
0.606060606060606,0.490925115966797,0.131553464412689,-4.09268365802765
0.606666666666667,0.5651707214355469,0.026172605037689197,-4.0543633455276495
0.607272727272727,0.6849216979980469,-0.028912844181060802,-3.8076763338089
0.607878787878788,0.740007147216797,0.24890942144393902,-3.8076763338089
0.608484848484849,0.428654608154297,0.105208249568939,-4.0567583650589
0.609090909090909,0.572355780029297,0.0644929175376892,-3.4244732088089
0.60969696969697,0.7256370300292969,0.105208249568939,-3.0652202791214
0.61030303030303,0.598700994873047,-0.08160327386856081,-3.36459772052765
0.610909090909091,0.469369940185547,0.315969968318939,-3.84839166584015
0.611515151515152,0.6034910339355469,0.0357526831626892,-4.14058404865265
0.612121212121212,0.421469549560547,0.0573078589439392,-3.8986870759964
0.612727272727273,0.431049627685547,0.0764680151939392,-4.07352350177765
0.613333333333333,0.696896795654297,0.0525178198814392,-4.1573491853714
0.613939393939394,0.526850408935547,0.227354245662689,-4.1573491853714
0.614545454545455,0.390334295654297,0.141133542537689,-4.0663384431839
0.615151515151515,0.507690252685547,0.107603269100189,-3.88192193927765
0.615757575757576,0.680131658935547,0.040542722225189204,-3.9394024080276497
0.616363636363636,0.629836248779297,0.0525178198814392,-4.0471782869339
0.616969696969697,0.608281072998047,-0.0121477074623108,-3.9849077791214
0.617575757575758,0.613071112060547,0.270464597225189,-3.9130571931838998
0.618181818181818,0.653786444091797,0.169873776912689,-3.8028862947463997
0.618787878787879,0.431049627685547,-0.112738527774811,-3.8555767244339
0.619393939393939,0.6058860534667969,0.0118024878501892,-4.09268365802765
0.62,0.6010960144042969,0.0525178198814392,-3.88671197834015
0.620606060606061,0.569960760498047,0.0118024878501892,-3.99209283771515
0.621212121212121,0.716056951904297,0.220169187068939,-3.7501958650589
0.621818181818182,0.481345037841797,-0.10315844964981101,-3.99209283771515
0.622424242424242,0.768747381591797,-0.0648381371498108,-4.1669292634964
0.623030303030303,0.778327459716797,0.373450437068939,-3.9370073884964
0.623636363636364,0.416679510498047,0.0549128394126892,-4.195669497871401
0.624242424242424,0.44541974487304703,0.102813230037689,-4.1214238924026505
0.624848484848485,0.47176495971679705,0.169873776912689,-3.8220464509964
0.625454545454545,0.419074530029297,-0.048073000431060796,-3.9561675447463998
0.626060606060606,0.44302472534179704,0.0788630347251892,-4.0902886384964
0.626666666666667,0.6442063659667969,0.265674558162689,-3.79570123615265
0.627272727272727,0.47415997924804704,0.0477277808189392,-3.8843169588089
0.627878787878788,0.39512433471679703,-0.167823976993561,-4.2076445955276505
0.628484848484849,0.572355780029297,0.0022224097251892097,-3.9753277009964
0.629090909090909,0.361594061279297,0.0118024878501892,-3.7837261384964
0.62969696969697,0.435839666748047,0.0165925269126892,-3.9394024080276497
0.63030303030303,0.555590643310547,0.0357526831626892,-3.8459966463089
0.630909090909091,0.555590643310547,-0.045677980899810795,-4.0208330720901495
0.631515151515151,0.555590643310547,-0.0576530785560608,-4.262730044746401
0.632121212121212,0.486135076904297,-0.0265178246498108,-3.9849077791214
0.632727272727273,0.534035467529297,-0.0121477074623108,-3.9609575838089
0.633333333333333,0.557985662841797,0.236934323787689,-4.07831354084015
0.633939393939394,0.589120916748047,0.124368405818939,-3.8507866853714
0.634545454545455,0.46457990112304703,0.0333576636314392,-3.9609575838089
0.635151515151515,0.296928533935547,0.18424389410018902,-4.0328081697464
0.635757575757576,0.572355780029297,0.181848874568939,-3.9729326814651498
0.636363636363636,0.45260480346679705,0.160293698787689,-3.87713190021515
0.636969696969697,0.591515936279297,-0.10555346918106101,-3.82923150959015
0.637575757575758,0.680131658935547,-0.0959733910560608,-3.9753277009964
0.638181818181818,0.33285382690429705,0.17945385503768901,-4.04478326740265
0.638787878787879,0.28495343627929703,0.253699460506439,-4.08789361896515
0.639393939393939,0.45499982299804703,0.0764680151939392,-4.183694400215151
0.64,0.476554998779297,0.0620978980064392,-3.69032037677765
0.640606060606061,0.529245428466797,0.162688718318939,-3.4939287752151498
0.641212121212121,0.696896795654297,0.026172605037689197,-4.04478326740265
0.641818181818182,0.505295233154297,0.0860480933189392,-4.01125299396515
0.642424242424242,0.5460105651855469,0.14831860113143902,-3.7501958650589
0.643030303030303,0.380754217529297,-0.0528630394935608,-3.94898248615265
0.643636363636364,0.399914373779297,0.0381477026939392,-4.10705377521515
0.644242424242424,0.5460105651855469,0.0213825659751892,-3.9082671541214
0.644848484848485,0.49332013549804704,0.0668879370689392,-3.7070855134964
0.645454545454546,0.33524884643554703,0.14831860113143902,-3.93461236896515
0.646060606060606,0.46457990112304703,0.160293698787689,-3.82444147052765
0.646666666666667,0.651391424560547,0.00461742925643921,-3.8651568025589
0.647272727272727,0.481345037841797,0.0213825659751892,-3.8699468416214
0.647878787878788,0.572355780029297,0.124368405818939,-4.0136480134964
0.648484848484848,0.428654608154297,0.145923581600189,-3.9394024080276497
0.649090909090909,0.481345037841797,0.174663815975189,-3.7070855134964
0.64969696969697,0.43344464721679704,-0.00496264886856079,-3.93461236896515
0.65030303030303,0.6034910339355469,0.0501228003501892,-3.9274273103714
0.650909090909091,0.740007147216797,0.13873852300643902,-3.9082671541214
0.651515151515151,0.7040818542480469,0.112393308162689,-3.8316265291214
0.652121212121212,0.716056951904297,-0.129503664493561,-3.7501958650589
0.652727272727273,0.44541974487304703,-0.009752687931060789,-3.90587213459015
0.653333333333333,0.435839666748047,0.236934323787689,-4.15974420490265
0.653939393939394,0.45260480346679705,0.124368405818939,-3.9178472322464
0.654545454545455,0.5220603698730469,0.155503659725189,-3.86755182209015
0.655151515151515,0.5436155456542969,-0.0576530785560608,-3.7789360994339
0.655757575757576,0.495715155029297,-0.139083742618561,-3.96335260334015
0.656363636363636,0.653786444091797,0.028567624568939198,-4.176509341621401
0.656969696969697,0.751982244873047,0.165083737850189,-3.8172564119339
0.657575757575758,0.5843308776855469,0.196218991756439,-3.9274273103714
0.658181818181818,0.457394842529297,-0.019332766056060803,-4.0663384431839
0.658787878787879,0.586725897216797,0.0620978980064392,-4.04957330646515
0.659393939393939,0.567565740966797,0.15310864019393902,-3.84839166584015
0.66,0.6609715026855469,0.33752514410018897,-3.8603667634964
0.660606060606061,0.426259588623047,0.234539304256439,-4.0088579744339
0.661212121212121,0.347223944091797,0.045332761287689205,-3.8651568025589
0.661818181818182,0.490925115966797,0.0501228003501892,-3.9274273103714
0.662424242424242,0.440629705810547,0.160293698787689,-3.9849077791214
0.663030303030303,0.577145819091797,0.165083737850189,-4.01604303302765
0.663636363636364,0.517270330810547,0.0357526831626892,-3.9849077791214
0.664242424242424,0.5244553894042969,-0.07920825433731081,-3.91545221271515
0.664848484848485,0.598700994873047,0.0788630347251892,-3.9394024080276497
0.665454545454545,0.526850408935547,0.141133542537689,-3.91066217365265
0.666060606060606,0.598700994873047,0.121973386287689,-3.58972955646515
0.666666666666667,0.617861151123047,0.00940746831893921,-3.7765410799026498
0.667272727272727,0.43344464721679704,-0.14147876214981098,-4.01125299396515
0.667878787878788,0.5460105651855469,0.0525178198814392,-4.202854556465151
0.668484848484848,0.711266912841797,0.102813230037689,-4.162139224433901
0.669090909090909,0.598700994873047,0.19382397222518902,-3.8843169588089
0.66969696969697,0.375964178466797,0.0740729956626892,-4.2076445955276505
0.67030303030303,0.426259588623047,0.177058835506439,-3.9992778963088997
0.670909090909091,0.677736639404297,0.107603269100189,-3.9178472322464
0.671515151515152,0.608281072998047,0.09802319097518919,-3.9825127595901497
0.672121212121212,0.5651707214355469,0.12915844488143902,-3.6879253572464
0.672727272727273,0.41188947143554705,0.0860480933189392,-3.7885161775589
0.673333333333333,0.368779119873047,0.181848874568939,-3.83402154865265
0.673939393939394,0.466974920654297,0.0022224097251892097,-3.7549859041214
0.674545454545455,0.466974920654297,-0.0576530785560608,-3.7765410799026498
0.675151515151515,0.648996405029297,0.040542722225189204,-3.8747368806839
0.675757575757576,0.6849216979980469,0.392610593318939,-3.7837261384964
0.676363636363636,0.399914373779297,0.311179929256439,-4.0375982088089
0.676969696969697,0.42386456909179704,-0.00496264886856079,-3.93461236896515
0.677575757575758,0.5436155456542969,-0.0624431176185608,-3.72385065021515
0.678181818181818,0.5412205261230469,0.145923581600189,-4.15974420490265
0.678787878787879,0.610676092529297,0.00461742925643921,-3.9417974275589
0.679393939393939,0.653786444091797,-0.0360979027748108,-3.76217096271515
0.68,0.613071112060547,-0.0648381371498108,-4.09747369709015
0.680606060606061,0.538825506591797,-0.00017260980606079098,-4.1190288728714
0.681212121212121,0.658576483154297,0.0357526831626892,-3.9370073884964
0.681818181818182,0.47415997924804704,-0.17979907464981099,-4.02562311115265
0.682424242424242,0.5436155456542969,0.045332761287689205,-4.0663384431839
0.683030303030303,0.553195623779297,0.09562817144393919,-3.9705376619339
0.683636363636364,0.409494451904297,0.232144284725189,-3.95856256427765
0.684242424242424,0.40470441284179703,-0.0337028832435608,-4.00167291584015
0.684848484848485,0.555590643310547,0.045332761287689205,-4.04957330646515
0.685454545454545,0.6010960144042969,0.232144284725189,-3.7693560213089
0.686060606060606,0.718451971435547,0.205799069881439,-3.84839166584015
0.686666666666667,0.548405584716797,0.0860480933189392,-3.99688287677765
0.687272727272727,0.49332013549804704,0.0908381323814392,-3.80528131427765
0.687878787878788,0.632231268310547,0.0884431128501892,-3.9370073884964
0.688484848484848,0.490925115966797,-0.0576530785560608,-3.9609575838089
0.689090909090909,0.598700994873047,0.0189875464439392,-4.123818911933901
0.68969696969697,0.277768377685547,0.126763425350189,-4.3058403963089
0.69030303030303,0.368779119873047,0.0764680151939392,-3.88671197834015
0.690909090909091,0.510085272216797,0.155503659725189,-3.9465874666214
0.691515151515152,0.450209783935547,0.191428952693939,-4.0208330720901495
0.692121212121212,0.35440900268554704,-0.0600480980873108,-3.6999004549026497
0.692727272727273,0.419074530029297,0.15789867925643902,-3.96335260334015
0.693333333333333,0.876523260498047,0.00940746831893921,-3.8962920564651498
0.693939393939394,0.692106756591797,0.00701244878768921,-3.9417974275589
0.694545454545455,0.646601385498047,0.315969968318939,-3.9657476228714
0.695151515151515,0.39272931518554705,0.09323315191268919,-3.8795269197463997
0.695757575757576,0.371174139404297,0.12915844488143902,-4.0854985994339
0.696363636363636,0.510085272216797,0.263279538631439,-3.8124663728714
0.696969696969697,0.438234686279297,-0.0528630394935608,-3.8172564119339
0.697575757575758,0.749587225341797,0.0836530737876892,-3.9130571931838998
0.698181818181818,0.5843308776855469,0.102813230037689,-3.9609575838089
0.698787878787879,0.26339826049804704,0.124368405818939,-3.45560846271515
0.699393939393939,0.35440900268554704,0.131553464412689,-3.83402154865265
0.7,0.598700994873047,-0.10076343011856101,-4.2531499666214
0.700606060606061,0.536430487060547,0.160293698787689,-3.7645659822464
0.701212121212121,0.44302472534179704,0.0860480933189392,-4.0184380525589
0.701818181818182,0.495715155029297,-0.045677980899810795,-3.95856256427765
0.702424242424242,0.517270330810547,0.030962644100189198,-3.8076763338089
0.703030303030303,0.512480291748047,0.14831860113143902,-3.75259088459015
0.703636363636364,0.481345037841797,0.0692829566001892,-3.82444147052765
0.704242424242424,0.320878729248047,-0.0337028832435608,-3.9801177400589
0.704848484848485,0.637021307373047,0.09323315191268919,-4.2004595369339
0.705454545454545,0.718451971435547,0.0740729956626892,-3.9944878572464
0.706060606060606,0.5005051940917971,0.121973386287689,-3.70469049396515
0.706666666666667,0.490925115966797,0.191428952693939,-3.8459966463089
0.707272727272727,0.440629705810547,0.256094480037689,-3.72864068927765
0.707878787878788,0.5651707214355469,-0.0265178246498108,-3.67116022052765
0.708484848484848,0.399914373779297,0.0189875464439392,-4.0136480134964
0.709090909090909,0.567565740966797,0.136343503475189,-4.109448794746401
0.70969696969697,0.694501776123047,0.102813230037689,-3.8316265291214
0.71030303030303,0.586725897216797,0.272859616756439,-4.0543633455276495
0.710909090909091,0.7855125183105469,0.395005612850189,-3.8795269197463997
0.711515151515152,0.637021307373047,0.131553464412689,-3.74780084552765
0.712121212121212,0.45260480346679705,0.12915844488143902,-4.1190288728714
0.712727272727273,0.749587225341797,0.344710202693939,-3.8795269197463997
0.713333333333333,0.706476873779297,0.0381477026939392,-3.8962920564651498
0.713939393939394,0.47415997924804704,0.00940746831893921,-3.80528131427765
0.714545454545455,0.577145819091797,-0.08399829339981081,-3.81007135334015
0.715151515151515,0.519665350341797,-0.0887883324623108,-3.98730279865265
0.715757575757576,0.648996405029297,0.028567624568939198,-4.09268365802765
0.716363636363636,0.706476873779297,0.028567624568939198,-3.95377252521515
0.716969696969697,0.337643865966797,0.117183347225189,-3.70948053302765
0.717575757575758,0.476554998779297,-0.043282961368560795,-4.102263736152651
0.718181818181818,0.620256170654297,-0.0576530785560608,-4.1046587556839
0.718787878787879,0.45499982299804703,0.09802319097518919,-4.0902886384964
0.719393939393939,0.476554998779297,0.0836530737876892,-4.0328081697464
0.72,0.517270330810547,-0.0313078637123108,-3.82444147052765
0.720606060606061,0.478950018310547,0.0788630347251892,-3.9896978181839
0.721212121212121,0.550800604248047,0.186638913631439,-3.81007135334015
0.721818181818182,0.5244553894042969,0.251304440975189,-4.0998687166214
0.722424242424242,0.47415997924804704,0.205799069881439,-3.9274273103714
0.723030303030303,0.6226511901855469,0.030962644100189198,-4.01125299396515
0.723636363636364,0.5436155456542969,0.105208249568939,-4.0663384431839
0.724242424242424,0.6442063659667969,0.17945385503768901,-3.75738092365265
0.724848484848485,0.371174139404297,0.311179929256439,-3.8986870759964
0.725454545454545,0.419074530029297,0.00701244878768921,-4.01604303302765
0.726060606060606,0.716056951904297,0.00701244878768921,-4.04957330646515
0.726666666666667,0.481345037841797,0.14352856206893902,-3.8459966463089
0.727272727272727,0.6058860534667969,0.131553464412689,-3.9274273103714
0.727878787878788,0.507690252685547,0.28722973394393897,-3.8627617830276497
0.728484848484849,0.574750799560547,0.124368405818939,-4.142979068183901
0.729090909090909,0.610676092529297,0.0668879370689392,-4.109448794746401
0.72969696969697,0.5651707214355469,-0.043282961368560795,-4.17890436115265
0.73030303030303,0.6058860534667969,-0.0145427269935608,-3.7501958650589
0.730909090909091,0.39512433471679703,-0.0337028832435608,-3.43165826740265
0.731515151515152,0.529245428466797,0.0118024878501892,-3.99688287677765
0.732121212121212,0.553195623779297,-0.08639331293106081,-3.90587213459015
0.732727272727273,0.569960760498047,0.09562817144393919,-4.0471782869339
0.733333333333333,0.6609715026855469,0.0860480933189392,-4.2579400056839
0.733939393939394,0.48374005737304704,-0.009752687931060789,-3.8651568025589
0.734545454545455,0.318483709716797,0.201009030818939,-3.9274273103714
0.735151515151515,0.36398908081054704,0.0573078589439392,-4.0208330720901495
0.735757575757576,0.5843308776855469,0.167478757381439,-3.96814264240265
0.736363636363636,0.6609715026855469,-0.009752687931060789,-4.0615484041214
0.736969696969697,0.426259588623047,0.030962644100189198,-3.7933062166213998
0.737575757575758,0.517270330810547,-0.043282961368560795,-3.6927153963089
0.738181818181818,0.548405584716797,-0.0265178246498108,-3.9082671541214
0.738787878787879,0.572355780029297,0.18903393316268902,-3.9753277009964
0.739393939393939,0.419074530029297,-0.06962817621231081,-3.8531817049026498
0.74,0.6034910339355469,0.00461742925643921,-4.0040679353714
0.740606060606061,0.7615623229980469,0.0908381323814392,-3.76696100177765
0.741212121212121,0.517270330810547,-0.06962817621231081,-3.8603667634964
0.741818181818182,0.627441229248047,-0.07681323480606081,-4.0208330720901495
0.742424242424242,0.7232420104980469,0.0860480933189392,-4.1477691072464005
0.743030303030303,0.534035467529297,0.181848874568939,-3.88192193927765
0.743636363636364,0.399914373779297,-0.019332766056060803,-3.81486139240265
0.744242424242424,0.36398908081054704,-0.131898684024811,-4.0543633455276495
0.744848484848485,0.5244553894042969,0.09323315191268919,-4.0711284822464
0.745454545454545,0.48374005737304704,0.0165925269126892,-4.0807085603713995
0.746060606060606,0.639416326904297,-0.0911833519935608,-3.74780084552765
0.746666666666667,0.749587225341797,0.28004467535018895,-4.03999322834015
0.747272727272727,0.42386456909179704,0.0836530737876892,-3.7166655916213998
0.747878787878788,0.32566876831054703,-0.112738527774811,-3.6567901033401498
0.748484848484849,0.41428449096679704,0.169873776912689,-3.9226372713088997
0.749090909090909,0.387939276123047,0.045332761287689205,-3.9896978181839
0.74969696969697,0.519665350341797,0.174663815975189,-3.86755182209015
0.75030303030303,0.591515936279297,0.210589108943939,-3.7022954744339
0.750909090909091,0.495715155029297,0.117183347225189,-3.76696100177765
0.751515151515151,0.481345037841797,0.181848874568939,-3.79091119709015
0.752121212121212,0.42386456909179704,0.18424389410018902,-3.87713190021515
0.752727272727273,0.6442063659667969,0.181848874568939,-3.8412066072464
0.753333333333333,0.48374005737304704,0.0597028784751892,-3.9561675447463998
0.753939393939394,0.5819358581542969,0.0525178198814392,-4.22680475177765
0.754545454545455,0.593910955810547,0.215379148006439,-3.92982232990265
0.755151515151515,0.598700994873047,0.0022224097251892097,-3.8172564119339
0.755757575757576,0.572355780029297,0.0668879370689392,-3.88192193927765
0.756363636363636,0.531640447998047,-0.00017260980606079098,-3.7597759431838997
0.756969696969697,0.538825506591797,0.0357526831626892,-4.0471782869339
0.757575757575758,0.5460105651855469,0.172268796443939,-3.9513775056839
0.758181818181818,0.596305975341797,-0.06723315668106081,-3.8555767244339
0.758787878787879,0.47176495971679705,0.150713620662689,-3.9896978181839
0.759393939393939,0.28255841674804705,0.0477277808189392,-4.4974419588089
0.76,0.375964178466797,0.186638913631439,-4.10705377521515
0.760606060606061,0.7016868347167969,0.102813230037689,-3.4484234041214
0.761212121212121,0.5244553894042969,-0.0121477074623108,-4.0208330720901495
0.761818181818182,0.347223944091797,0.270464597225189,-4.0040679353714
0.762424242424242,0.6633665222167969,0.32794506597518897,-3.64241998615265
0.763030303030303,0.617861151123047,0.186638913631439,-3.6496050447464
0.763636363636364,0.567565740966797,0.102813230037689,-3.85797174396515
0.764242424242424,0.637021307373047,0.136343503475189,-3.75259088459015
0.764848484848485,0.46457990112304703,-0.0217277855873108,-3.76696100177765
0.765454545454545,0.308903631591797,0.0644929175376892,-4.10705377521515
0.766060606060606,0.517270330810547,0.12915844488143902,-3.91066217365265
0.766666666666667,0.593910955810547,0.174663815975189,-3.7933062166213998
0.767272727272727,0.47415997924804704,0.18903393316268902,-3.82923150959015
0.767878787878788,0.45260480346679705,0.042937741756439204,-3.98730279865265
0.768484848484848,0.5005051940917971,0.028567624568939198,-3.7765410799026498
0.769090909090909,0.6034910339355469,0.0165925269126892,-3.92024225177765
0.76969696969697,0.440629705810547,0.0477277808189392,-4.195669497871401
0.77030303030303,0.428654608154297,0.0836530737876892,-3.87234186115265
0.770909090909091,0.347223944091797,0.227354245662689,-3.8651568025589
0.771515151515151,0.469369940185547,0.0501228003501892,-3.8795269197463997
0.772121212121212,0.5220603698730469,-0.0408879418373108,-3.8699468416214
0.772727272727273,0.440629705810547,-0.0145427269935608,-3.9226372713088997
0.773333333333333,0.680131658935547,0.15789867925643902,-4.0807085603713995
0.773939393939394,0.6418113464355469,0.201009030818939,-3.8962920564651498
0.774545454545455,0.46218488159179705,0.0118024878501892,-3.8172564119339
0.775151515151515,0.5412205261230469,0.0022224097251892097,-3.78133111896515
0.775757575757576,0.531640447998047,0.112393308162689,-3.7933062166213998
0.776363636363636,0.34243390502929705,0.0836530737876892,-3.98730279865265
0.776969696969697,0.550800604248047,-0.0217277855873108,-3.7430108064651497
0.777575757575758,0.466974920654297,0.09562817144393919,-3.94419244709015
0.778181818181818,0.512480291748047,0.141133542537689,-4.0232280916214
0.778787878787879,0.560380682373047,0.030962644100189198,-3.7980962556839
0.779393939393939,0.529245428466797,0.253699460506439,-3.63283990802765
0.78,0.574750799560547,0.0788630347251892,-3.7358257478714
0.780606060606061,0.589120916748047,-0.019332766056060803,-3.9944878572464
0.781212121212121,0.670551580810547,0.14831860113143902,-3.92982232990265
0.781818181818182,0.694501776123047,-0.0648381371498108,-3.9394024080276497
0.782424242424242,0.677736639404297,-0.122318605899811,-3.97772272052765
0.783030303030303,0.620256170654297,0.0525178198814392,-4.176509341621401
0.783636363636364,0.773537420654297,0.227354245662689,-4.0208330720901495
0.784242424242424,0.47415997924804704,0.165083737850189,-4.05915338459015
0.784848484848485,0.550800604248047,0.0812580542564392,-4.0998687166214
0.785454545454545,0.397519354248047,-0.009752687931060789,-4.01604303302765
0.786060606060606,0.390334295654297,-0.10555346918106101,-4.08310357990265
0.786666666666667,0.5651707214355469,0.028567624568939198,-3.9609575838089
0.787272727272727,0.593910955810547,-0.07441821527481081,-4.04478326740265
0.787878787878788,0.5651707214355469,0.0525178198814392,-3.87234186115265
0.788484848484848,0.526850408935547,0.0357526831626892,-3.94419244709015
0.789090909090909,0.699291815185547,-0.0313078637123108,-3.5801494783401497
0.78969696969697,0.593910955810547,0.21777416753768902,-3.9274273103714
0.79030303030303,0.711266912841797,0.0812580542564392,-3.77175104084015
0.790909090909091,0.505295233154297,-0.019332766056060803,-3.7789360994339
0.791515151515152,0.45260480346679705,-0.0408879418373108,-4.0328081697464
0.792121212121212,0.637021307373047,0.00701244878768921,-3.8938970369339
0.792727272727273,0.5005051940917971,0.26806957769393897,-4.236384829902651
0.793333333333333,0.706476873779297,0.160293698787689,-3.90108209552765
0.793939393939394,0.6010960144042969,-0.17500903558731098,-3.9034771150589
0.794545454545455,0.375964178466797,0.210589108943939,-3.92503229084015
0.795151515151515,0.529245428466797,0.12915844488143902,-4.00167291584015
0.795757575757576,0.49332013549804704,-0.019332766056060803,-3.94898248615265
0.796363636363636,0.7232420104980469,0.12915844488143902,-4.0184380525589
0.796969696969697,0.658576483154297,0.177058835506439,-3.9130571931838998
0.797575757575758,0.37356915893554704,0.201009030818939,-3.9849077791214
0.798181818181818,0.589120916748047,-0.10076343011856101,-3.8795269197463997
0.798787878787879,0.5436155456542969,-0.0313078637123108,-3.9729326814651498
0.799393939393939,0.47176495971679705,0.181848874568939,-4.202854556465151
0.8,0.749587225341797,0.026172605037689197,-4.03520318927765
0.800606060606061,0.596305975341797,-0.0145427269935608,-3.82444147052765
0.801212121212121,0.481345037841797,0.0118024878501892,-4.0136480134964
0.801818181818182,0.5244553894042969,0.040542722225189204,-4.08789361896515
0.802424242424242,0.5412205261230469,-0.06962817621231081,-3.9130571931838998
0.803030303030303,0.517270330810547,-0.028912844181060802,-3.8507866853714
0.803636363636364,0.45499982299804703,0.13394848394393902,-3.9729326814651498
0.804242424242424,0.646601385498047,0.227354245662689,-4.0711284822464
0.804848484848485,0.550800604248047,0.119578366756439,-3.7334307283401498
0.805454545454545,0.5244553894042969,0.15789867925643902,-3.91545221271515
0.806060606060606,0.507690252685547,0.24411938238143902,-3.91545221271515
0.806666666666667,0.529245428466797,0.0860480933189392,-3.8938970369339
0.807272727272727,0.548405584716797,0.227354245662689,-4.0759185213089
0.807878787878788,0.536430487060547,0.253699460506439,-3.98730279865265
0.808484848484848,0.466974920654297,0.0884431128501892,-3.7789360994339
0.809090909090909,0.44541974487304703,-0.08160327386856081,-3.66158014240265
0.80969696969697,0.5843308776855469,-0.0552580590248108,-4.03520318927765
0.81030303030303,0.421469549560547,0.107603269100189,-3.9705376619339
0.810909090909091,0.476554998779297,0.040542722225189204,-3.9226372713088997
0.811515151515152,0.5412205261230469,0.131553464412689,-3.87713190021515
0.812121212121212,0.40470441284179703,0.241724362850189,-3.8412066072464
0.812727272727273,0.37356915893554704,0.28962475347518896,-3.81007135334015
0.813333333333333,0.555590643310547,0.177058835506439,-3.82923150959015
0.813939393939394,0.6250462097167969,-0.117528566837311,-4.176509341621401
0.814545454545455,0.495715155029297,0.0716779761314392,-4.08789361896515
0.815151515151515,0.5819358581542969,0.100418210506439,-3.91066217365265
0.815757575757576,0.421469549560547,0.263279538631439,-4.1214238924026505
0.816363636363636,0.407099432373047,0.19861401128768902,-3.97772272052765
0.816969696969697,0.692106756591797,-0.119923586368561,-3.87234186115265
0.817575757575758,0.828622869873047,0.0836530737876892,-4.21722467365265
0.818181818181818,0.359199041748047,0.0692829566001892,-3.9130571931838998
0.818787878787879,0.620256170654297,0.126763425350189,-3.53224908771515
0.819393939393939,0.567565740966797,0.167478757381439,-3.44123834552765
0.82,0.296928533935547,0.0836530737876892,-4.11184381427765
0.820606060606061,0.7447971862792969,0.150713620662689,-3.64721002521515
0.821212121212121,0.598700994873047,0.14831860113143902,-3.4915337556839
0.821818181818182,0.481345037841797,0.205799069881439,-4.0375982088089
0.822424242424242,0.550800604248047,0.21298412847518902,-3.8220464509964
0.823030303030303,0.694501776123047,-0.119923586368561,-4.0136480134964
0.823636363636364,0.538825506591797,0.00461742925643921,-3.9513775056839
0.824242424242424,0.519665350341797,0.145923581600189,-4.0280181306839
0.824848484848485,0.534035467529297,0.105208249568939,-3.88671197834015
0.825454545454545,0.6058860534667969,0.0213825659751892,-3.70948053302765
0.826060606060606,0.567565740966797,-0.115133547306061,-3.63762994709015
0.826666666666667,0.35440900268554704,0.0118024878501892,-3.95856256427765
0.827272727272727,0.24902814331054698,0.028567624568939198,-4.1908794588089
0.827878787878788,0.457394842529297,0.253699460506439,-3.9322173494339
0.828484848484848,0.428654608154297,0.121973386287689,-3.9609575838089
0.829090909090909,0.517270330810547,-0.10555346918106101,-3.9753277009964
0.82969696969697,0.560380682373047,-0.00735766839981079,-4.01125299396515
0.83030303030303,0.5412205261230469,0.0860480933189392,-4.06394342365265
0.830909090909091,0.553195623779297,-0.0217277855873108,-4.03999322834015
0.831515151515152,0.534035467529297,0.0501228003501892,-3.75259088459015
0.832121212121212,0.651391424560547,0.114788327693939,-3.7214556306839
0.832727272727273,0.799882635498047,0.0501228003501892,-4.0136480134964
0.833333333333333,0.6633665222167969,0.0477277808189392,-3.8268364900589
0.833939393939394,0.459789862060547,0.172268796443939,-3.97772272052765
0.834545454545455,0.632231268310547,-0.0145427269935608,-3.9082671541214
0.835151515151515,0.593910955810547,0.102813230037689,-3.70469049396515
0.835757575757576,0.620256170654297,0.31836498785018896,-3.9226372713088997
0.836363636363636,0.44302472534179704,0.0573078589439392,-4.03520318927765
0.836969696969697,0.6657615417480469,0.191428952693939,-3.89150201740265
0.837575757575758,0.754377264404297,0.191428952693939,-3.78612115802765
0.838181818181818,0.476554998779297,0.256094480037689,-4.116633853340151
0.838787878787879,0.735217108154297,-0.0265178246498108,-3.82444147052765
0.839393939393939,0.5843308776855469,0.0189875464439392,-3.87713190021515
0.84,0.569960760498047,0.114788327693939,-4.01125299396515
0.840606060606061,0.534035467529297,0.117183347225189,-4.109448794746401
0.841212121212121,0.5819358581542969,0.102813230037689,-4.1549541658401505
0.841818181818182,0.708871893310547,0.045332761287689205,-3.9896978181839
0.842424242424242,0.610676092529297,-0.019332766056060803,-3.91066217365265
0.843030303030303,0.47176495971679705,0.0022224097251892097,-3.8747368806839
0.843636363636364,0.6010960144042969,0.20340405035018902,-3.79570123615265
0.844242424242424,0.627441229248047,0.0118024878501892,-3.71427057209015
0.844848484848485,0.656181463623047,0.00701244878768921,-3.8962920564651498
0.845454545454545,0.6010960144042969,0.0525178198814392,-3.92024225177765
0.846060606060606,0.591515936279297,0.15789867925643902,-3.8555767244339
0.846666666666667,0.46218488159179705,0.14352856206893902,-3.81007135334015
0.847272727272727,0.538825506591797,0.040542722225189204,-3.8316265291214
0.847878787878788,0.6226511901855469,-0.048073000431060796,-3.71427057209015
0.848484848484849,0.45260480346679705,0.15789867925643902,-4.1333989900589
0.849090909090909,0.557985662841797,0.165083737850189,-4.23159479084015
0.84969696969697,0.256213201904297,0.0597028784751892,-4.2531499666214
0.85030303030303,0.5412205261230469,0.0189875464439392,-3.4723735994339
0.850909090909091,0.668156561279297,0.0908381323814392,-3.39333795490265
0.851515151515152,0.5005051940917971,0.234539304256439,-3.69511041584015
0.852121212121212,0.694501776123047,0.160293698787689,-3.76217096271515
0.852727272727273,0.735217108154297,0.040542722225189204,-3.9322173494339
0.853333333333333,0.502900213623047,0.28004467535018895,-3.6232598299026497
0.853939393939394,0.41188947143554705,0.0477277808189392,-3.96814264240265
0.854545454545454,0.371174139404297,-0.07681323480606081,-3.99209283771515
0.855151515151515,0.5436155456542969,0.155503659725189,-4.0998687166214
0.855757575757576,0.459789862060547,0.177058835506439,-4.0950786775589
0.856363636363636,0.40470441284179703,-0.0408879418373108,-3.92982232990265
0.856969696969697,0.5220603698730469,-0.0959733910560608,-4.24596490802765
0.857575757575758,0.39512433471679703,0.282439694881439,-4.1214238924026505
0.858181818181818,0.41188947143554705,0.0477277808189392,-3.8220464509964
0.858787878787879,0.42386456909179704,0.0597028784751892,-3.9226372713088997
0.859393939393939,0.47415997924804704,0.222564206600189,-3.7980962556839
0.86,0.589120916748047,0.0549128394126892,-3.9178472322464
0.860606060606061,0.476554998779297,0.121973386287689,-4.0040679353714
0.861212121212121,0.495715155029297,0.042937741756439204,-3.81007135334015
0.861818181818182,0.596305975341797,0.0525178198814392,-4.0232280916214
0.862424242424242,0.390334295654297,0.0477277808189392,-4.02562311115265
0.863030303030303,0.495715155029297,-0.0384929223060608,-4.135794009590151
0.863636363636364,0.675341619873047,0.0764680151939392,-4.262730044746401
0.864242424242424,0.577145819091797,0.030962644100189198,-4.142979068183901
0.864848484848485,0.7232420104980469,0.263279538631439,-3.9082671541214
0.865454545454545,0.737612127685547,0.253699460506439,-3.52745904865265
0.866060606060606,0.579540838623047,0.23932934331893901,-3.94419244709015
0.866666666666667,0.514875311279297,0.167478757381439,-4.188484439277651
0.867272727272727,0.514875311279297,0.0118024878501892,-4.1573491853714
0.867878787878788,0.49332013549804704,0.265674558162689,-3.9417974275589
0.868484848484849,0.301718572998047,0.026172605037689197,-3.9753277009964
0.869090909090909,0.6250462097167969,0.0740729956626892,-4.01125299396515
0.86969696969697,0.598700994873047,0.18903393316268902,-3.8172564119339
0.87030303030303,0.42386456909179704,0.100418210506439,-3.9370073884964
0.870909090909091,0.495715155029297,0.205799069881439,-4.0807085603713995
0.871515151515151,0.596305975341797,0.121973386287689,-3.87234186115265
0.872121212121212,0.459789862060547,0.17945385503768901,-3.85797174396515
0.872727272727273,0.459789862060547,0.0381477026939392,-4.0232280916214
0.873333333333333,0.766352362060547,0.042937741756439204,-4.0328081697464
0.873939393939394,0.5244553894042969,0.040542722225189204,-3.8124663728714
0.874545454545455,0.380754217529297,0.09802319097518919,-3.8412066072464
0.875151515151515,0.490925115966797,0.18424389410018902,-4.0471782869339
0.875757575757576,0.440629705810547,0.0477277808189392,-3.83881158771515
0.876363636363636,0.428654608154297,0.150713620662689,-4.1142388338089
0.876969696969697,0.560380682373047,0.284834714412689,-3.9274273103714
0.877575757575758,0.517270330810547,0.114788327693939,-3.88671197834015
0.878181818181818,0.648996405029297,0.150713620662689,-4.07352350177765
0.878787878787879,0.435839666748047,0.09323315191268919,-3.6639751619339
0.879393939393939,0.397519354248047,0.0189875464439392,-4.0854985994339
0.88,0.490925115966797,0.23932934331893901,-4.09268365802765
0.880606060606061,0.337643865966797,0.17945385503768901,-3.7166655916213998
0.881212121212121,0.6226511901855469,0.026172605037689197,-3.8364165681838998
0.881818181818182,0.5651707214355469,0.040542722225189204,-4.0375982088089
0.882424242424242,0.478950018310547,0.112393308162689,-4.0711284822464
0.883030303030303,0.538825506591797,0.107603269100189,-3.9130571931838998
0.883636363636364,0.531640447998047,0.109998288631439,-4.0998687166214
0.884242424242424,0.502900213623047,0.0644929175376892,-3.82444147052765
0.884848484848485,0.37356915893554704,-0.0408879418373108,-3.9896978181839
0.885454545454545,0.6657615417480469,-0.050468019962310796,-4.2052495759964
0.886060606060606,0.706476873779297,0.0118024878501892,-3.97772272052765
0.886666666666667,0.486135076904297,0.162688718318939,-3.9082671541214
0.887272727272727,0.627441229248047,0.18424389410018902,-4.1142388338089
0.887878787878788,0.586725897216797,0.0237775855064392,-4.142979068183901
0.888484848484848,0.419074530029297,0.25848949956893896,-3.92024225177765
0.889090909090909,0.512480291748047,0.167478757381439,-3.7885161775589
0.88969696969697,0.507690252685547,0.0381477026939392,-3.9226372713088997
0.89030303030303,0.476554998779297,0.191428952693939,-4.0136480134964
0.890909090909091,0.677736639404297,0.222564206600189,-3.80528131427765
0.891515151515151,0.5843308776855469,-0.00256762933731079,-3.9561675447463998
0.892121212121212,0.43344464721679704,-0.043282961368560795,-3.8531817049026498
0.892727272727273,0.502900213623047,0.18903393316268902,-3.95856256427765
0.893333333333333,0.6010960144042969,-0.0265178246498108,-3.97772272052765
0.893939393939394,0.512480291748047,-0.0265178246498108,-4.0543633455276495
0.894545454545455,0.459789862060547,0.145923581600189,-4.0711284822464
0.895151515151515,0.39272931518554705,0.232144284725189,-3.8220464509964
0.895757575757576,0.277768377685547,0.272859616756439,-3.9561675447463998
0.896363636363636,0.617861151123047,0.109998288631439,-3.91066217365265
0.896969696969697,0.478950018310547,-0.00256762933731079,-4.0328081697464
0.897575757575758,0.33524884643554703,0.0860480933189392,-3.9394024080276497
0.898181818181818,0.5244553894042969,0.0237775855064392,-3.87713190021515
0.898787878787879,0.498110174560547,0.15789867925643902,-3.98730279865265
0.899393939393939,0.378359197998047,0.17945385503768901,-3.8555767244339
0.9,0.653786444091797,0.00461742925643921,-3.96814264240265
0.900606060606061,0.728032049560547,-0.0241228051185608,-3.80049127521515
0.901212121212121,0.507690252685547,0.155503659725189,-3.8124663728714
0.901818181818182,0.6226511901855469,0.112393308162689,-4.06394342365265
0.902424242424242,0.531640447998047,0.026172605037689197,-3.9729326814651498
0.903030303030303,0.6609715026855469,0.265674558162689,-3.81007135334015
0.903636363636364,0.608281072998047,0.14831860113143902,-3.8747368806839
0.904242424242424,0.38314923706054704,0.0812580542564392,-3.97772272052765
0.904848484848485,0.694501776123047,0.09323315191268919,-4.09747369709015
0.905454545454545,0.47176495971679705,0.222564206600189,-3.9729326814651498
0.906060606060606,0.428654608154297,-0.0337028832435608,-3.9705376619339
0.906666666666667,0.514875311279297,0.12915844488143902,-4.0040679353714
0.907272727272727,0.435839666748047,0.040542722225189204,-3.80049127521515
0.907878787878788,0.29453351440429704,-0.08160327386856081,-3.78133111896515
0.908484848484848,0.308903631591797,0.102813230037689,-4.142979068183901
0.909090909090909,0.699291815185547,-0.17021899652481098,-4.1908794588089
0.90969696969697,0.687316717529297,0.241724362850189,-3.47955865802765
0.91030303030303,0.672946600341797,0.14352856206893902,-3.36459772052765
0.910909090909091,0.613071112060547,0.0644929175376892,-3.6591851228714
0.911515151515152,0.481345037841797,0.0620978980064392,-3.7980962556839
0.912121212121212,0.569960760498047,-0.0265178246498108,-3.80528131427765
0.912727272727273,0.5436155456542969,0.224959226131439,-3.9465874666214
0.913333333333333,0.5843308776855469,0.256094480037689,-3.9178472322464
0.913939393939394,0.672946600341797,0.112393308162689,-3.85797174396515
0.914545454545455,0.44302472534179704,-0.028912844181060802,-3.92024225177765
0.915151515151515,0.46218488159179705,0.112393308162689,-4.0375982088089
0.915757575757576,0.41428449096679704,0.186638913631439,-4.0711284822464
0.916363636363636,0.5843308776855469,0.0573078589439392,-3.9801177400589
0.916969696969697,0.6609715026855469,-0.07202319574356081,-3.9417974275589
0.917575757575758,0.5412205261230469,0.0381477026939392,-4.03520318927765
0.918181818181818,0.46457990112304703,-0.0241228051185608,-4.183694400215151
0.918787878787879,0.708871893310547,-0.08399829339981081,-4.1381890291214
0.919393939393939,0.577145819091797,0.126763425350189,-3.90108209552765
0.92,0.495715155029297,0.040542722225189204,-3.88192193927765
0.920606060606061,0.7208469909667969,0.246514401912689,-3.9944878572464
0.921212121212121,0.328063787841797,0.165083737850189,-3.7837261384964
0.921818181818182,0.320878729248047,0.09562817144393919,-3.85797174396515
0.922424242424242,0.577145819091797,0.09562817144393919,-3.9657476228714
0.923030303030303,0.608281072998047,0.0716779761314392,-3.9274273103714
0.923636363636364,0.47415997924804704,0.13394848394393902,-4.0663384431839
0.924242424242424,0.510085272216797,-0.00735766839981079,-3.8364165681838998
0.924848484848485,0.553195623779297,0.145923581600189,-3.96814264240265
0.925454545454545,0.44302472534179704,0.119578366756439,-3.89150201740265
0.926060606060606,0.495715155029297,-0.112738527774811,-3.7741460603714
0.926666666666667,0.7208469909667969,-0.0911833519935608,-3.9657476228714
0.927272727272727,0.5460105651855469,0.028567624568939198,-4.0040679353714
0.927878787878788,0.49332013549804704,0.174663815975189,-3.9322173494339
0.928484848484848,0.447814764404297,0.0525178198814392,-3.79091119709015
0.929090909090909,0.478950018310547,-0.0241228051185608,-3.7741460603714
0.92969696969697,0.629836248779297,0.040542722225189204,-3.95377252521515
0.93030303030303,0.538825506591797,0.167478757381439,-3.99209283771515
0.930909090909091,0.555590643310547,-0.0217277855873108,-4.102263736152651
0.931515151515152,0.45499982299804703,0.00461742925643921,-4.195669497871401
0.932121212121212,0.5460105651855469,-0.06962817621231081,-3.90587213459015
0.932727272727273,0.778327459716797,-0.110343508243561,-3.8986870759964
0.933333333333333,0.629836248779297,0.00701244878768921,-4.0280181306839
0.933939393939394,0.778327459716797,0.040542722225189204,-3.87234186115265
0.934545454545455,0.634626287841797,0.26806957769393897,-3.6639751619339
0.935151515151515,0.526850408935547,0.0908381323814392,-4.03041315021515
0.935757575757576,0.677736639404297,0.0644929175376892,-3.94898248615265
0.936363636363636,0.653786444091797,-0.07681323480606081,-4.01604303302765
0.936969696969697,0.6609715026855469,0.109998288631439,-3.9825127595901497
0.937575757575758,0.48374005737304704,0.380635495662689,-3.9274273103714
0.938181818181818,0.44302472534179704,0.330340085506439,-3.92024225177765
0.938787878787879,0.5627757019042969,0.126763425350189,-3.92503229084015
0.939393939393939,0.629836248779297,0.040542722225189204,-4.102263736152651
0.94,0.368779119873047,0.0644929175376892,-3.8124663728714
0.940606060606061,0.5005051940917971,0.0141975073814392,-3.4771636384963998
0.941212121212121,0.627441229248047,0.150713620662689,-3.76217096271515
0.941818181818182,0.46218488159179705,0.181848874568939,-4.0543633455276495
0.942424242424242,0.687316717529297,-0.019332766056060803,-3.93461236896515
0.943030303030303,0.476554998779297,-0.08639331293106081,-4.0615484041214
0.943636363636364,0.507690252685547,0.0836530737876892,-3.8627617830276497
0.944242424242424,0.716056951904297,0.23932934331893901,-3.6687652009964
0.944848484848485,0.220287908935547,0.100418210506439,-3.9705376619339
0.945454545454545,0.46457990112304703,-0.0648381371498108,-3.83402154865265
0.946060606060606,0.639416326904297,-0.0576530785560608,-3.84839166584015
0.946666666666667,0.476554998779297,0.196218991756439,-4.1333989900589
0.947272727272727,0.498110174560547,0.21777416753768902,-4.03999322834015
0.947878787878788,0.42386456909179704,-0.00017260980606079098,-3.93461236896515
0.948484848484848,0.380754217529297,0.23932934331893901,-3.9944878572464
0.949090909090909,0.572355780029297,0.0764680151939392,-3.8843169588089
0.94969696969697,0.431049627685547,0.109998288631439,-3.9370073884964
0.95030303030303,0.44541974487304703,0.21298412847518902,-3.99209283771515
0.950909090909091,0.629836248779297,0.186638913631439,-3.9226372713088997
0.951515151515152,0.696896795654297,0.14831860113143902,-4.0136480134964
0.952121212121212,0.514875311279297,-0.0528630394935608,-3.9825127595901497
0.952727272727273,0.469369940185547,-0.08639331293106081,-4.01604303302765
0.953333333333333,0.35201398315429705,0.0381477026939392,-3.9274273103714
0.953939393939394,0.5460105651855469,0.145923581600189,-3.79570123615265
0.954545454545455,0.732822088623047,-0.0624431176185608,-3.9417974275589
0.955151515151515,0.42386456909179704,0.0357526831626892,-4.1333989900589
0.955757575757576,0.47415997924804704,0.205799069881439,-4.02562311115265
0.956363636363636,0.428654608154297,0.292019773006439,-4.01125299396515
0.956969696969697,0.426259588623047,-0.00496264886856079,-4.1214238924026505
0.957575757575758,0.531640447998047,-0.050468019962310796,-4.03520318927765
0.958181818181818,0.572355780029297,0.196218991756439,-3.91545221271515
0.958787878787879,0.613071112060547,0.253699460506439,-3.9178472322464
0.959393939393939,0.550800604248047,0.306389890193939,-3.9034771150589
0.96,0.512480291748047,-0.0121477074623108,-3.83402154865265
0.960606060606061,0.40230939331054705,-0.045677980899810795,-3.94898248615265
0.961212121212121,0.488530096435547,0.114788327693939,-4.142979068183901
0.961818181818182,0.577145819091797,0.0836530737876892,-3.92982232990265
0.962424242424242,0.40230939331054705,0.14831860113143902,-3.8699468416214
0.963030303030303,0.6250462097167969,0.117183347225189,-4.0711284822464
0.963636363636364,0.713661932373047,0.0812580542564392,-3.8555767244339
0.964242424242424,0.699291815185547,0.275254636287689,-3.86755182209015
0.964848484848485,0.675341619873047,0.18903393316268902,-4.01604303302765
0.965454545454545,0.46218488159179705,0.21298412847518902,-3.7454058259964
0.966060606060606,0.517270330810547,0.220169187068939,-3.8986870759964
0.966666666666667,0.6849216979980469,-0.112738527774811,-3.9082671541214
0.967272727272727,0.627441229248047,-0.0337028832435608,-3.96814264240265
0.967878787878788,0.416679510498047,-0.131898684024811,-4.308235415840151
0.968484848484849,0.421469549560547,0.0573078589439392,-3.96335260334015
0.969090909090909,0.5651707214355469,-0.0145427269935608,-4.0519683259964
0.96969696969697,0.421469549560547,0.0022224097251892097,-4.21722467365265
0.97030303030303,0.6010960144042969,0.181848874568939,-3.2807720369338997
0.970909090909091,0.42386456909179704,0.181848874568939,-3.2759819978714
0.971515151515152,0.32566876831054703,0.19382397222518902,-4.0136480134964
0.972121212121212,0.447814764404297,0.09562817144393919,-4.2004595369339
0.972727272727273,0.615466131591797,0.174663815975189,-4.08310357990265
0.973333333333333,0.5819358581542969,0.0549128394126892,-3.8699468416214
0.973939393939394,0.617861151123047,-0.00017260980606079098,-3.94898248615265
0.974545454545454,0.457394842529297,0.102813230037689,-3.9944878572464
0.975151515151515,0.668156561279297,0.0549128394126892,-4.0854985994339
0.975757575757576,0.854968084716797,0.00940746831893921,-3.9465874666214
0.976363636363636,0.6825266784667969,0.107603269100189,-4.0543633455276495
0.976969696969697,0.550800604248047,0.14352856206893902,-4.09268365802765
0.977575757575758,0.366384100341797,-0.048073000431060796,-4.08789361896515
0.978181818181818,0.5005051940917971,-0.0983684105873108,-4.02562311115265
0.978787878787879,0.534035467529297,-0.0552580590248108,-3.91066217365265
0.979393939393939,0.639416326904297,0.0716779761314392,-3.9657476228714
0.98,0.409494451904297,0.315969968318939,-3.79091119709015
0.980606060606061,0.46218488159179705,0.0836530737876892,-3.9657476228714
0.981212121212121,0.459789862060547,0.13873852300643902,-3.84839166584015
0.981818181818182,0.48374005737304704,0.325550046443939,-4.0519683259964
0.982424242424242,0.5244553894042969,-0.0600480980873108,-3.93461236896515
0.983030303030303,0.577145819091797,0.17945385503768901,-3.9705376619339
0.983636363636364,0.5651707214355469,0.332735105037689,-4.01604303302765
0.984242424242424,0.5843308776855469,-0.00735766839981079,-4.0519683259964
0.984848484848485,0.627441229248047,-0.06962817621231081,-4.21722467365265
0.985454545454545,0.40470441284179703,-0.0983684105873108,-4.0136480134964
0.986060606060606,0.555590643310547,0.0788630347251892,-4.2675200838089005
0.986666666666667,0.589120916748047,0.0381477026939392,-3.9944878572464
0.987272727272727,0.7040818542480469,-0.00256762933731079,-3.9657476228714
0.987878787878788,0.637021307373047,0.09323315191268919,-3.88192193927765
0.988484848484849,0.387939276123047,0.028567624568939198,-3.9034771150589
0.989090909090909,0.6010960144042969,-0.0528630394935608,-3.99209283771515
