Time (s),Accel X (m/s^2),Accel Y (m/s^2),Accel Z (m/s^2)
0.0,0.134483621120453,-0.135730153942108,-0.19670435743332002
0.000606060606060606,-0.0882531952857971,0.036711252307891795,0.0930930058479304
0.00121212121212121,-0.222374289035797,-0.13812517347335798,0.33738499803543
0.00181818181818182,-0.10741335153579701,-0.0758546656608581,0.13620335741043
0.00242424242424242,-0.035562765598297096,-0.0614845484733582,0.22960911912918
0.00303030303030303,0.0171276640892029,0.0319212132453918,0.13141331834793
0.00363636363636364,-0.0523279023170471,-0.166865407848358,0.0260324589729304
0.00424242424242424,-0.0499328827857971,-0.169260427379608,0.0978830449104304
0.00484848484848485,0.050657937526702904,0.0486863499641418,-0.0290529902458196
0.00545454545454545,-0.0858581757545471,-0.051904470348358205,0.13620335741043
0.00606060606060606,-0.15531374216079702,-0.17884050550460798,0.33978001756667997
0.00666666666666667,0.0841882109642029,-0.286616384410858,0.27990452928542997
0.00727272727272727,0.0482629179954529,-0.164470388317108,0.0954880253791804
0.00787878787878788,-0.10980837106704701,-0.257876150035858,-0.0841384394645696
0.00848484848484848,0.00754758596420288,-0.150100271129608,0.0499826542854304
0.00909090909090909,0.235074441432953,-0.111779958629608,-0.00510279493331957
0.0096969696969697,0.0482629179954529,-0.241111013317108,-0.12724879102706999
0.0103030303030303,-0.07388307809829711,-0.006399099254608151,0.23679417772293
0.0109090909090909,0.100953347682953,-0.006399099254608151,0.10267308397293
0.0115151515151515,0.026707742214202898,0.0846116429328919,0.24876927537917998
0.0121212121212121,-0.07148805856704711,-0.135730153942108,0.0715378300666804
0.0127272727272727,-0.07388307809829711,-0.327331716442108,0.10267308397293
0.0133333333333333,-0.0834631562232971,-0.106989919567108,0.17212865037918
0.0139393939393939,-0.11220339059829701,0.041501291370391796,0.0236374394416804
0.0145454545454545,-0.19602907419204701,-0.0351393336296082,0.10267308397293
0.0151515151515152,0.112928445339203,0.039106271839141796,0.13859837694167998
0.0157575757575758,0.0746081328392029,0.0319212132453918,0.37331029100418
0.0163636363636364,-0.0235876679420471,-0.109384939098358,0.21523900194168
0.016969696969697,0.0338928008079529,-0.023164235973358198,0.35415013475418
0.0175757575757576,0.220704324245453,0.041501291370391796,0.27032445116042997
0.0181818181818182,0.239864480495453,-0.17405046644210798,0.0787228886604304
0.0187878787878788,-0.160103781223297,-0.106989919567108,0.028427478504180398
0.0193939393939394,-0.162498800754547,0.09658674058914189,0.15296849412917998
0.02,-0.126573507785797,-0.18842058362960798,0.0906979863166804
0.0206060606060606,-0.035562765598297096,-0.164470388317108,0.0212424199104304
0.0212121212121212,-0.0978332734107971,-0.102199880504608,0.0140573613166804
0.0218181818181818,-0.021192648410797103,-0.0998048609733581,0.25595433397293
0.0224242424242424,0.0746081328392029,-0.123755056285858,0.19128880662918
0.023030303030303,-0.251114523410797,-0.0279542750358582,0.24637425584793
0.0236363636363636,-0.315780050754547,0.0654514866828919,0.0954880253791804
0.0242424242424242,-0.21518923044204702,-0.0998048609733581,0.0859079472541804
0.0248484848484848,-0.0307727265357971,-0.154890310192108,0.39726048631668
0.0254545454545455,0.0698180937767029,-0.106989919567108,-0.0410280879020696
0.0260606060606061,-0.0116125702857971,-0.0399293726921082,0.10027806444168
0.0266666666666667,-0.172078878879547,-0.0614845484733582,0.20805394334792998
0.0272727272727273,-0.198424093723297,-0.0255592555046082,0.20326390428542998
0.0278787878787879,0.0602380156517029,-0.118965017223358,-0.0194729121208196
0.0284848484848485,0.0889782500267029,-0.121360036754608,0.21044896287918
0.0290909090909091,0.0793981719017029,-0.08543474378585811,0.44755589647293
0.0296969696969697,-0.255904562473297,0.036711252307891795,0.29666966600418
0.0303030303030303,-0.20081911325454702,-0.0111891383171082,0.14099339647293
0.0309090909090909,0.139273660182953,0.0774265843391419,0.14578343553543
0.0315151515151515,0.000362527370452881,-0.176445485973358,0.25595433397293
0.0321212121212121,-0.258299582004547,-0.150100271129608,0.0691428105354304
0.0327272727272727,-0.243929464817047,0.16125226793289202,-0.0985085566520696
0.0333333333333333,-0.07148805856704711,0.039106271839141796,-0.0530031855583196
0.0339393939393939,-0.0259826874732971,0.0319212132453918,0.36852025194168
0.0345454545454545,-0.0571179413795471,-0.28182634534835804,0.0811179081916804
0.0351515151515151,-0.265484640598297,-0.23871599378585798,-0.0074978144645695705
0.0357575757575758,0.00275754690170288,-0.0950148219108581,0.0643527714729304
0.0363636363636364,0.0937682890892029,-0.00160906019210815,0.17452366991042997
0.036969696969697,-0.037957785129547096,-0.14770525159835798,-0.11527369337082
0.0375757575757576,-0.00442751169204712,-0.056694509410858206,0.0140573613166804
0.0381818181818182,-0.14094362497329702,0.0295261937141418,0.19847386522292998
0.0387878787878788,-0.172078878879547,0.015156076526641799,-0.0194729121208196
0.0393939393939394,0.14406369924545298,-0.0327443140983582,0.10746312303543
0.04,-0.061907980442047095,0.10137677965164199,-0.0218679316520696
0.0406060606060606,-0.0235876679420471,0.0462913304328918,0.43797581834793
0.0412121212121212,-0.0595129609107971,-0.14291521253585798,0.39726048631668
0.0418181818181818,-0.138548605442047,0.041501291370391796,0.18649876756668
0.0424242424242424,-0.143338644504547,-0.0255592555046082,0.13620335741043
0.043030303030303,-0.0259826874732971,-0.241111013317108,0.0691428105354304
0.0436363636363636,-0.037957785129547096,-0.265061208629608,0.0236374394416804
0.0442424242424242,0.0386828398704529,-0.0111891383171082,-0.26136988477707
0.0448484848484848,-0.0116125702857971,-0.0471144312858582,0.10267308397293
0.0454545454545455,-0.10262331247329701,-0.023164235973358198,0.0811179081916804
0.0460606060606061,0.299739968776703,-0.219555837535858,0.30864476366043
0.0466666666666667,-0.0523279023170471,-0.209975759410858,0.22242406053542998
0.0472727272727273,-0.0523279023170471,0.132512033557892,-0.0697683222770696
0.0478787878787879,0.105743386745453,0.182807443714142,0.32061986131667997
0.0484848484848485,0.0458678984642029,-0.020769216442108197,0.11225316209793
0.0490909090909091,-0.0834631562232971,-0.130940114879608,0.16494359178543
0.0496969696969697,-0.0523279023170471,-0.08064470472335811,0.0954880253791804
0.0503030303030303,0.0865832304954529,-0.09261980237960811,0.25355931444168
0.0509090909090909,0.0482629179954529,0.132512033557892,0.16973363084793
0.0515151515151515,-0.0978332734107971,0.0582664280891418,0.0811179081916804
0.0521212121212121,-0.021192648410797103,-0.19800066175460798,0.20805394334792998
0.0527272727272727,-0.164893820285797,-0.00160906019210815,0.16494359178543
0.0533333333333333,-0.133758566379547,-0.054299489879608205,0.18410374803542998
0.0539393939393939,-0.15531374216079702,-0.0638795680046082,0.0140573613166804
0.0545454545454545,-0.0978332734107971,-0.0351393336296082,0.29906468553543
0.0551515151515152,0.127298562526703,-0.054299489879608205,0.26313939256668
0.0557575757575758,-0.184053976535797,-0.0638795680046082,0.006872302722930429
0.0563636363636364,0.0626330351829529,-0.23871599378585798,0.11464818162918
0.056969696969697,0.282974832057953,-0.109384939098358,0.10746312303543
0.0575757575757576,0.0171276640892029,0.041501291370391796,0.11225316209793
0.0581818181818182,0.00275754690170288,-0.013584157848358201,0.13141331834793
0.0587878787878788,-0.0571179413795471,-0.20279070081710798,0.0835129277229304
0.0593939393939394,-0.174473898410797,-0.08782976331710811,0.0140573613166804
0.06,-0.15052370309829702,0.0822166234016419,0.0164523808479304
0.0606060606060606,-0.0427478241920471,-0.020769216442108197,0.16254857225417998
0.0612121212121212,-0.00203249216079712,-0.08782976331710811,0.18649876756668
0.0618181818181818,-0.188844015598297,-0.145310232067108,0.13620335741043
0.0624242424242424,-0.131363546848297,-0.219555837535858,0.37331029100418
0.063030303030303,-0.10262331247329701,-0.08782976331710811,0.12183324022293
0.0636363636363636,-0.0523279023170471,0.039106271839141796,0.13620335741043
0.0642424242424242,-0.0307727265357971,0.134907053089142,0.16015355272293
0.0648484848484848,0.0698180937767029,-0.224345876598358,0.0883029667854304
0.0654545454545455,0.0362878203392029,-0.20758073987960798,0.0236374394416804
0.0660606060606061,-0.0786731171607971,0.120536935901642,0.0332175175666804
0.0666666666666667,-0.0786731171607971,0.0678465062141419,0.19607884569168
0.0672727272727273,0.11532346487045299,-0.145310232067108,-0.00510279493331957
0.0678787878787879,0.108138406276703,-0.09022478284835811,0.23439915819167997
0.0684848484848485,-0.035562765598297096,-0.18363054456710798,0.16254857225417998
0.0690909090909091,0.232679421901703,-0.109384939098358,0.45953099412917997
0.0696969696969697,0.0961633086204529,0.122931955432892,0.10985814256668
0.0703030303030303,0.0410778594017029,-0.0255592555046082,0.33498997850418
0.0709090909090909,0.12490354299545299,-0.00400407972335815,0.36373021287918
0.0715151515151515,-0.0810681366920471,-0.245901052379608,-0.0721633418083196
0.0721212121212121,0.139273660182953,0.0438963109016418,0.0308224980354304
0.0727272727272727,0.0698180937767029,0.041501291370391796,-0.0865334589958196
0.0733333333333333,-0.181658957004547,-0.229135915660858,0.14099339647293
0.0739393939393939,0.024312722682952898,-0.18363054456710798,0.0212424199104304
0.0745454545454545,0.136878640651703,-0.23871599378585798,-0.13443384962082
0.0751515151515151,-0.009217550754547119,0.0606614476203918,0.0954880253791804
0.0757575757575758,-0.172078878879547,0.0175510960578918,0.10746312303543
0.0763636363636364,0.0865832304954529,0.0127610569953918,0.052377673816680397
0.076969696969697,-0.100228292942047,-0.0974098414421081,0.29427464647293
0.0775757575757576,0.0961633086204529,-0.159680349254608,0.0739328495979304
0.0781818181818182,-0.0164026093482971,-0.195605642223358,-0.17035914258957002
0.0787878787878788,-0.06430299997329711,0.14688215074539201,0.10985814256668
0.0793939393939394,0.00275754690170288,0.12772199449539198,0.25595433397293
0.08,-0.27266969919204703,-0.23392595472335798,-0.0242629511833196
0.0806060606060606,-0.0164026093482971,0.0582664280891418,-0.13682886915207002
0.0812121212121212,-0.06430299997329711,0.0654514866828919,0.0404025761604304
0.0818181818181818,-0.0547229218482971,0.0486863499641418,0.13380833787917998
0.0824242424242424,-0.174473898410797,-0.0758546656608581,0.00447728319168043
0.083030303030303,-0.15052370309829702,-0.17405046644210798,-0.009892833995819571
0.0836363636363636,0.0602380156517029,-0.0399293726921082,-0.0817434199333196
0.0842424242424242,-0.0140075898170471,-0.140520193004608,0.12662327928543
0.0848484848484849,-0.021192648410797103,-0.118965017223358,0.27032445116042997
0.0854545454545454,0.256629617214203,0.09179670152664189,0.17212865037918
0.0860606060606061,0.0123376250267029,-0.20758073987960798,0.26074437303542997
0.0866666666666667,-0.11938844919204701,-0.34409685316085803,-0.0482131464958196
0.0872727272727273,-0.018797628879547102,-0.104594900035858,0.0595627324104304
0.0878787878787879,-0.018797628879547102,0.039106271839141796,0.0427975956916804
0.0884848484848485,-0.191239035129547,0.144487131214142,0.14338841600417998
0.0890909090909091,-0.219979269504547,-0.130940114879608,0.0978830449104304
0.0896969696969697,0.0985583281517029,-0.181235525035858,0.24158421678543
0.0903030303030303,-0.07388307809829711,0.000785959339141848,0.31343480272293
0.0909090909090909,-0.208004171848297,0.09179670152664189,-0.0721633418083196
0.0915151515151515,0.00994260549545288,-0.162075368785858,0.0859079472541804
0.0921212121212121,0.0314977812767029,-0.159680349254608,-0.0434231074333196
0.0927272727272727,-0.0858581757545471,-0.0710646265983581,-0.0553982050895696
0.0933333333333333,0.0746081328392029,-0.006399099254608151,0.15536351366043
0.0939393939393939,-0.06909303903579711,0.0510813694953918,0.18170872850418
0.0945454545454545,-0.10741335153579701,0.0582664280891418,0.0835129277229304
0.0951515151515152,0.00994260549545288,-0.08303972425460811,-0.0074978144645695705
0.0957575757575758,-0.0595129609107971,-0.214765798473358,0.0308224980354304
0.0963636363636364,-0.20560915231704702,0.000785959339141848,0.22002904100418
0.096969696969697,-0.061907980442047095,-0.123755056285858,0.0930930058479304
0.0975757575757576,0.170408914089203,-0.12854509534835798,0.0978830449104304
0.0981818181818182,0.263814675807953,-0.0782496851921081,0.00447728319168043
0.0987878787878788,0.15364377737045298,0.0103660374641418,0.71100804491043
0.0993939393939394,0.182384011745453,-0.14291521253585798,0.42360570116043
0.1,0.15364377737045298,-0.00400407972335815,-0.34040552930832
0.100606060606061,-0.100228292942047,0.0822166234016419,0.33498997850418
0.101212121212121,-0.246324484348297,0.16125226793289202,0.31582982225418
0.101818181818182,-0.0786731171607971,-0.0614845484733582,0.11704320116043
0.102424242424242,0.127298562526703,-0.35367693128585803,0.12901829881667998
0.103030303030303,-0.0810681366920471,0.0271311741828918,0.006872302722930429
0.103636363636364,-0.0427478241920471,0.26663312730789196,0.13620335741043
0.104242424242424,-0.0906482148170471,-0.15728532972335799,0.26074437303542997
0.104848484848485,-0.0475378632545471,-0.298591482067108,0.0164523808479304
0.105454545454545,-0.0547229218482971,-0.24829607191085798,-0.15598902540207002
0.106060606060606,-0.0499328827857971,0.000785959339141848,-0.038633068370819604
0.106666666666667,0.129693582057953,0.0798216038703919,0.22002904100418
0.107272727272727,-0.0834631562232971,-0.00879411878585815,0.26074437303542997
0.107878787878788,-0.018797628879547102,-0.08303972425460811,0.31103978319167996
0.108484848484848,0.141668679714203,-0.224345876598358,0.31103978319167996
0.109090909090909,0.0793981719017029,0.16604230699539202,0.0763278691291804
0.10969696969697,-0.061907980442047095,0.09179670152664189,0.0212424199104304
0.11030303030303,-0.0810681366920471,0.09658674058914189,0.26074437303542997
0.110909090909091,-0.0427478241920471,-0.00879411878585815,0.26553441209793
0.111515151515152,0.170408914089203,-0.0255592555046082,-0.0434231074333196
0.112121212121212,0.160828835964203,-0.00160906019210815,0.24876927537917998
0.112727272727273,0.0770031523704529,0.197177560901642,-0.0506081660270696
0.113333333333333,0.0889782500267029,0.039106271839141796,0.10506810350418
0.113939393939394,-0.0786731171607971,-0.0686696070671081,0.17931370897292997
0.114545454545455,-0.148128683567047,-0.08543474378585811,-0.0266579707145696
0.115151515151515,-0.157708761692047,-0.18842058362960798,0.22721409959792999
0.115757575757576,-0.07148805856704711,0.0630564671516418,-0.0482131464958196
0.116363636363636,-0.0283777070045471,-0.164470388317108,0.18410374803542998
0.116969696969697,-0.0235876679420471,-0.135730153942108,0.13859837694167998
0.117575757575758,-0.00442751169204712,-0.121360036754608,0.15775853319167998
0.118181818181818,-0.0858581757545471,0.18520246324539202,0.22481908006668
0.118787878787879,-0.07388307809829711,0.247472971057892,-0.00031275587081957103
0.119393939393939,0.0674230742454529,0.0582664280891418,0.12901829881667998
0.12,0.129693582057953,-0.0279542750358582,-0.0721633418083196
0.120606060606061,0.0746081328392029,-0.116569997692108,0.0308224980354304
0.121212121212121,0.0889782500267029,0.0462913304328918,0.00447728319168043
0.121818181818182,-0.0451428437232971,0.130117014026642,-0.0793484004020696
0.122424242424242,-0.181658957004547,0.18520246324539202,0.0906979863166804
0.123030303030303,-0.0882531952857971,-0.159680349254608,0.0763278691291804
0.123636363636364,0.0770031523704529,-0.265061208629608,-0.038633068370819604
0.124242424242424,0.055447976589202905,-0.18363054456710798,0.006872302722930429
0.124848484848485,-0.0235876679420471,-0.0327443140983582,0.17931370897292997
0.125454545454545,0.00754758596420288,0.036711252307891795,0.10746312303543
0.126060606060606,-0.10262331247329701,-0.0447194117546082,-0.0577932246208196
0.126666666666667,0.0410778594017029,-0.102199880504608,0.0332175175666804
0.127272727272727,-0.00203249216079712,-0.18842058362960798,0.26553441209793
0.127878787878788,-0.10980837106704701,0.0510813694953918,0.22002904100418
0.128484848484848,0.057842996120452905,0.09179670152664189,0.20326390428542998
0.129090909090909,0.0458678984642029,-0.0590895289421082,-0.0577932246208196
0.12969696969697,-0.176868917942047,-0.0351393336296082,-0.11766871290207
0.13030303030303,0.00994260549545288,-0.245901052379608,0.23918919725417997
0.130909090909091,-0.07148805856704711,0.0319212132453918,0.00926732225418043
0.131515151515152,-0.186448996067047,0.218732736682892,-0.0482131464958196
0.132121212121212,0.187174050807953,-0.145310232067108,0.22960911912918
0.132727272727273,0.14885373830795298,-0.00160906019210815,0.0619577519416804
0.133333333333333,-0.0523279023170471,-0.0447194117546082,0.22002904100418
0.133939393939394,-0.0978332734107971,-0.00160906019210815,0.0906979863166804
0.134545454545455,0.024312722682952898,-0.0638795680046082,0.12183324022293
0.135151515151515,-0.10501833200454701,-0.0686696070671081,0.29187962694168
0.135757575757576,0.110533425807953,-0.08782976331710811,0.24637425584793
0.136363636363636,0.112928445339203,-0.109384939098358,0.052377673816680397
0.136969696969697,0.0291027617454529,0.041501291370391796,0.27511449022293
0.137575757575758,0.00515256643295288,0.120536935901642,0.24876927537917998
0.138181818181818,-0.169683859348297,0.08940168199539189,-0.0625832636833196
0.138787878787879,0.053052957057952904,-0.12854509534835798,-0.0338430293083196
0.139393939393939,0.0123376250267029,-0.126150075817108,0.00208226366043043
0.14,0.129693582057953,-0.104594900035858,-0.009892833995819571
0.140606060606061,-0.10741335153579701,0.039106271839141796,0.10267308397293
0.141212121212121,-0.07148805856704711,0.122931955432892,0.0835129277229304
0.141818181818182,0.053052957057952904,0.00797101793289185,0.16254857225417998
0.142424242424242,0.024312722682952898,-0.15249529066085799,0.31103978319167996
0.143030303030303,0.134483621120453,-0.21237077894210799,-0.10569361524582
0.143636363636364,-0.0762780976295471,-0.00160906019210815,-0.00270777540206957
0.144242424242424,-0.20560915231704702,-0.0423243922233582,0.18649876756668
0.144848484848485,-0.162498800754547,-0.229135915660858,-0.0553982050895696
0.145454545454545,0.0338928008079529,-0.384812185192108,-0.00270777540206957
0.146060606060606,-0.021192648410797103,-0.109384939098358,0.0188474003791804
0.146666666666667,0.050657937526702904,-0.0255592555046082,0.11704320116043
0.147272727272727,-0.0427478241920471,-0.049509450817108204,0.12662327928543
0.147878787878788,-0.172078878879547,-0.0327443140983582,0.14099339647293
0.148484848484848,-0.0499328827857971,-0.111779958629608,0.22242406053542998
0.149090909090909,-0.0523279023170471,-0.21716081800460799,0.24876927537917998
0.14969696969697,0.00515256643295288,0.0247361546516418,0.12901829881667998
0.15030303030303,-0.193634054660797,0.223522775745392,0.0380075566291804
0.150909090909091,-0.148128683567047,-0.116569997692108,0.0787228886604304
0.151515151515152,0.127298562526703,-0.0782496851921081,0.11943822069168
0.152121212121212,0.12011350393295299,-0.162075368785858,0.12422825975418
0.152727272727273,-0.11459841012954701,0.09898176012039189,-0.19430933790207
0.153333333333333,0.0793981719017029,-0.0998048609733581,-0.012287853527069601
0.153939393939394,0.0626330351829529,-0.214765798473358,0.0547726933479304
0.154545454545455,-0.07148805856704711,-0.159680349254608,0.11225316209793
0.155151515151515,-0.00203249216079712,-0.0159791773796082,0.0739328495979304
0.155757575757576,0.0410778594017029,0.113351877307892,0.0427975956916804
0.156363636363636,0.055447976589202905,0.09419172105789189,0.23439915819167997
0.156969696969697,-0.172078878879547,0.0846116429328919,0.0715378300666804
0.157575757575758,0.0171276640892029,-0.123755056285858,0.19368382616042998
0.158181818181818,-0.009217550754547119,0.0175510960578918,0.23439915819167997
0.158787878787879,-0.0930432343482971,0.0582664280891418,-0.0314480097770696
0.159393939393939,0.021917703151702897,-0.013584157848358201,-0.0889284785270696
0.16,-0.0786731171607971,-0.123755056285858,-0.11527369337082
0.160606060606061,0.100953347682953,-0.049509450817108204,0.31822484178543
0.161212121212121,-0.021192648410797103,-0.181235525035858,0.81159886522293
0.161818181818182,-0.131363546848297,0.113351877307892,0.10506810350418
0.162424242424242,-0.14573366403579702,0.209152658557892,-0.0338430293083196
0.163030303030303,-0.21518923044204702,0.0199461155891418,0.15057347459793
0.163636363636364,0.057842996120452905,-0.0662745875358581,0.0595627324104304
0.164242424242424,-0.06909303903579711,0.0606614476203918,-0.0482131464958196
0.164848484848485,0.0650280547142029,0.0295261937141418,0.13859837694167998
0.165454545454545,0.0985583281517029,-0.0399293726921082,0.25834935350418
0.166060606060606,0.0410778594017029,-0.104594900035858,0.0643527714729304
0.166666666666667,-0.0235876679420471,-0.34409685316085803,0.15296849412917998
0.167272727272727,0.0889782500267029,-0.0686696070671081,-0.0434231074333196
0.167878787878788,0.14885373830795298,0.0822166234016419,0.31582982225418
0.168484848484848,-0.258299582004547,0.0247361546516418,0.13859837694167998
0.169090909090909,-0.0954382538795471,-0.0734596461296081,-0.012287853527069601
0.16969696969697,0.112928445339203,0.0271311741828918,0.0332175175666804
0.17030303030303,0.053052957057952904,-0.0159791773796082,0.12662327928543
0.170909090909091,-0.260694601535797,-0.15728532972335799,0.0859079472541804
0.171515151515152,-0.11699342966079701,-0.051904470348358205,-0.20149439649582002
0.172121212121212,0.0602380156517029,-0.00879411878585815,0.15296849412917998
0.172727272727273,-0.219979269504547,0.0175510960578918,0.31822484178543
0.173333333333333,-0.00682253122329712,-0.00160906019210815,0.16015355272293
0.173939393939394,0.14406369924545298,-0.0782496851921081,0.0859079472541804
0.174545454545455,-0.00442751169204712,-0.18363054456710798,0.0906979863166804
0.175151515151515,-0.0954382538795471,-0.190815603160858,0.00926732225418043
0.175757575757576,-0.100228292942047,-0.140520193004608,0.0308224980354304
0.176363636363636,-0.12178346872329701,-0.0614845484733582,0.00447728319168043
0.176969696969697,-0.131363546848297,0.134907053089142,-0.0673733027458196
0.177575757575758,-0.11220339059829701,-0.00879411878585815,0.14099339647293
0.178181818181818,-0.181658957004547,-0.17405046644210798,0.31343480272293
0.178787878787879,-0.169683859348297,-0.00400407972335815,0.15057347459793
0.179393939393939,-0.0403528046607971,-0.0279542750358582,0.12662327928543
0.18,-0.07148805856704711,-0.0375343531608582,0.0978830449104304
0.180606060606061,-0.0259826874732971,-0.0303492945671082,0.0835129277229304
0.181212121212121,-0.0786731171607971,-0.0662745875358581,-0.0745583613395696
0.181818181818182,-0.0786731171607971,-0.0303492945671082,0.12183324022293
0.182424242424242,0.12490354299545299,-0.0447194117546082,0.23679417772293
0.183030303030303,0.055447976589202905,0.00797101793289185,0.21523900194168
0.183636363636364,-0.11459841012954701,-0.0614845484733582,0.38768040819168
0.184242424242424,-0.126573507785797,0.0774265843391419,0.17931370897292997
0.184848484848485,0.112928445339203,-0.0974098414421081,0.25355931444168
0.185454545454545,-0.152918722629547,-0.102199880504608,0.26074437303542997
0.186060606060606,-0.06430299997329711,-0.145310232067108,0.17691868944168
0.186666666666667,0.057842996120452905,-0.150100271129608,0.24637425584793
0.187272727272727,0.0338928008079529,-0.0782496851921081,0.0404025761604304
0.187878787878788,0.11771848440170299,-0.0255592555046082,0.15775853319167998
0.188484848484848,-0.0547229218482971,-0.0950148219108581,0.06674779100418039
0.189090909090909,-0.0259826874732971,-0.00160906019210815,-0.0530031855583196
0.18969696969697,-0.11459841012954701,0.0486863499641418,0.16494359178543
0.19030303030303,0.0123376250267029,0.0247361546516418,-0.14161890821457002
0.190909090909091,0.0626330351829529,-0.0950148219108581,-0.37393580274582
0.191515151515152,-0.00442751169204712,-0.21716081800460799,0.16733861131667999
0.192121212121212,0.0195226836204529,-0.00879411878585815,-0.0434231074333196
0.192727272727273,0.024312722682952898,-0.0950148219108581,-0.0817434199333196
0.193333333333333,0.0650280547142029,0.041501291370391796,0.12662327928543
0.193939393939394,-0.0762780976295471,-0.0375343531608582,-0.17035914258957002
0.194545454545455,0.112928445339203,-0.209975759410858,0.0883029667854304
0.195151515151515,0.0291027617454529,-0.171655446910858,0.0116623417854304
0.195757575757576,-0.0499328827857971,-0.0279542750358582,-0.12964381055832
0.196363636363636,0.232679421901703,-0.0255592555046082,0.0236374394416804
0.196969696969697,-0.0523279023170471,-0.231530935192108,0.0787228886604304
0.197575757575758,-0.018797628879547102,0.022341135120391802,0.052377673816680397
0.198181818181818,0.0841882109642029,-0.106989919567108,0.29427464647293
0.198787878787879,0.00275754690170288,-0.130940114879608,0.15296849412917998
0.199393939393939,0.206334207057953,0.10137677965164199,0.13620335741043
0.2,0.0913732695579529,-0.0111891383171082,0.13620335741043
0.200606060606061,-0.0930432343482971,-0.126150075817108,0.0571677128791804
0.201212121212121,0.0674230742454529,-0.09261980237960811,0.13380833787917998
0.201818181818182,0.00515256643295288,-0.049509450817108204,0.13859837694167998
0.202424242424242,0.0482629179954529,-0.0662745875358581,0.15775853319167998
0.203030303030303,-0.00442751169204712,-0.245901052379608,0.25834935350418
0.203636363636364,-0.14094362497329702,-0.159680349254608,0.10027806444168
0.204242424242424,0.0314977812767029,0.0750315648078919,-0.15598902540207002
0.204848484848485,-0.131363546848297,-0.140520193004608,-0.00510279493331957
0.205454545454545,-0.009217550754547119,-0.0950148219108581,0.17691868944168
0.206060606060606,0.179988992214203,-0.126150075817108,0.20086888475418
0.206666666666667,-0.0499328827857971,-0.00400407972335815,0.13859837694167998
0.207272727272727,0.0171276640892029,-0.14291521253585798,0.11225316209793
0.207878787878788,0.232679421901703,-0.0686696070671081,0.19847386522292998
0.208484848484848,0.187174050807953,0.0486863499641418,0.22960911912918
0.209090909090909,0.136878640651703,-0.121360036754608,0.21763402147292998
0.20969696969697,-0.0451428437232971,-0.0950148219108581,0.26074437303542997
0.21030303030303,0.000362527370452881,-0.0447194117546082,0.30145970506667996
0.210909090909091,0.0602380156517029,-0.00160906019210815,0.25116429491042996
0.211515151515152,0.132088601589203,-0.236320974254608,0.27271947069168
0.212121212121212,-0.0523279023170471,-0.176445485973358,-0.012287853527069601
0.212727272727273,-0.0858581757545471,0.122931955432892,-0.0553982050895696
0.213333333333333,0.105743386745453,0.132512033557892,0.16494359178543
0.213939393939394,0.021917703151702897,-0.111779958629608,-0.0074978144645695705
0.214545454545455,-0.021192648410797103,-0.13812517347335798,0.0763278691291804
0.215151515151515,-0.186448996067047,0.015156076526641799,0.31343480272293
0.215757575757576,-0.20081911325454702,-0.0111891383171082,0.17452366991042997
0.216363636363636,0.0602380156517029,-0.17405046644210798,0.0883029667854304
0.216969696969697,-0.11699342966079701,0.0175510960578918,0.23679417772293
0.217575757575758,-0.303804953098297,0.0462913304328918,0.27271947069168
0.218181818181818,0.132088601589203,-0.154890310192108,0.23679417772293
0.218787878787879,0.0291027617454529,0.10616681871414199,0.0571677128791804
0.219393939393939,-0.0954382538795471,-0.12854509534835798,0.0332175175666804
0.22,0.021917703151702897,-0.102199880504608,0.62478734178543
0.220606060606061,0.0458678984642029,-0.0974098414421081,0.35654515428543
0.221212121212121,-0.10741335153579701,0.022341135120391802,0.39247044725418
0.221818181818182,-0.267879660129547,-0.13812517347335798,0.13380833787917998
0.222424242424242,-0.06430299997329711,-0.15249529066085799,-0.0410280879020696
0.223030303030303,-0.0523279023170471,-0.051904470348358205,0.22242406053542998
0.223636363636364,-0.31338503122329703,0.036711252307891795,-0.17035914258957002
0.224242424242424,-0.0116125702857971,-0.0351393336296082,0.0308224980354304
0.224848484848485,0.0793981719017029,-0.14291521253585798,0.21044896287918
0.225454545454545,-0.0259826874732971,0.0774265843391419,0.06674779100418039
0.226060606060606,-0.0235876679420471,-0.221950857067108,0.11704320116043
0.226666666666667,-0.10741335153579701,-0.18842058362960798,0.00208226366043043
0.227272727272727,0.0195226836204529,0.0175510960578918,0.0930930058479304
0.227878787878788,0.139273660182953,-0.190815603160858,0.34696507616043
0.228484848484848,-0.0451428437232971,-0.0159791773796082,0.0715378300666804
0.229090909090909,-0.160103781223297,0.149277170276642,0.0547726933479304
0.22969696969697,-0.0140075898170471,-0.21237077894210799,0.20326390428542998
0.23030303030303,0.14885373830795298,-0.013584157848358201,0.20565892381668
0.230909090909091,-0.0403528046607971,-0.114174978160858,0.19128880662918
0.231515151515152,-0.0475378632545471,-0.102199880504608,-0.0146828730583196
0.232121212121212,0.000362527370452881,-0.00879411878585815,0.10267308397293
0.232727272727273,-0.021192648410797103,-0.19800066175460798,0.21763402147292998
0.233333333333333,0.0961633086204529,-0.205185720348358,-0.0290529902458196
0.233939393939394,-0.06430299997329711,0.0510813694953918,0.0260324589729304
0.234545454545455,-0.239139425754547,-0.0111891383171082,0.14578343553543
0.235151515151515,-0.0164026093482971,-0.231530935192108,0.21044896287918
0.235757575757576,0.151248757839203,0.034316232776641795,0.0763278691291804
0.236363636363636,-0.0307727265357971,-0.08782976331710811,0.21044896287918
0.236969696969697,-0.0786731171607971,-0.0183741969108582,0.13141331834793
0.237575757575758,0.14885373830795298,-0.0423243922233582,0.12901829881667998
0.238181818181818,0.0291027617454529,-0.0471144312858582,0.20805394334792998
0.238787878787879,-0.07388307809829711,-0.0662745875358581,0.0978830449104304
0.239393939393939,-0.231954367160797,0.0127610569953918,0.0954880253791804
0.24,-0.203214132785797,0.00318097887039185,0.0643527714729304
0.240606060606061,0.187174050807953,-0.0351393336296082,0.14099339647293
0.241212121212121,0.000362527370452881,0.0702415257453919,0.0763278691291804
0.241818181818182,-0.021192648410797103,-0.00160906019210815,0.21044896287918
0.242424242424242,0.0626330351829529,-0.00879411878585815,0.14338841600417998
0.243030303030303,0.0650280547142029,-0.0734596461296081,-0.12724879102706999
0.243636363636364,-0.152918722629547,0.09658674058914189,0.0236374394416804
0.244242424242424,-0.20081911325454702,-0.0638795680046082,0.19128880662918
0.244848484848485,-0.0427478241920471,-0.135730153942108,0.47150609178543
0.245454545454545,-0.138548605442047,-0.23392595472335798,0.46192601366043
0.246060606060606,-0.037957785129547096,0.0486863499641418,0.15296849412917998
0.246666666666667,0.12250852346420299,0.10377179918289199,0.00208226366043043
0.247272727272727,0.12490354299545299,-0.102199880504608,-0.0314480097770696
0.247878787878788,0.0793981719017029,-0.0614845484733582,0.10506810350418
0.248484848484848,-0.0140075898170471,0.134907053089142,-0.0218679316520696
0.249090909090909,0.057842996120452905,-0.114174978160858,0.10746312303543
0.24969696969697,0.00994260549545288,-0.08064470472335811,-0.0242629511833196
0.25030303030303,-0.0140075898170471,0.113351877307892,-0.00270777540206957
0.250909090909091,0.0482629179954529,-0.0974098414421081,0.20805394334792998
0.251515151515152,-0.0164026093482971,-0.14770525159835798,0.0212424199104304
0.252121212121212,-0.06430299997329711,-0.08064470472335811,0.16973363084793
0.252727272727273,0.0362878203392029,-0.13812517347335798,0.19368382616042998
0.253333333333333,0.103348367214203,-0.0303492945671082,0.23439915819167997
0.253939393939394,0.0698180937767029,-0.0327443140983582,0.26313939256668
0.254545454545455,0.0841882109642029,-0.21237077894210799,0.052377673816680397
0.255151515151515,0.211124246120453,-0.013584157848358201,-0.0865334589958196
0.255757575757576,0.14406369924545298,-0.104594900035858,0.17691868944168
0.256363636363636,-0.037957785129547096,-0.020769216442108197,0.0859079472541804
0.256969696969697,0.0746081328392029,-0.109384939098358,0.24876927537917998
0.257575757575758,-0.19602907419204701,-0.241111013317108,0.17212865037918
0.258181818181818,-0.193634054660797,-0.0614845484733582,-0.12485377149582
0.258787878787879,-0.0571179413795471,-0.0351393336296082,0.0978830449104304
0.259393939393939,0.055447976589202905,0.039106271839141796,0.15057347459793
0.26,-0.06669801950454711,-0.0686696070671081,0.23918919725417997
0.260606060606061,-0.0307727265357971,0.0702415257453919,0.0547726933479304
0.261212121212121,0.14885373830795298,0.18041242418289202,0.24876927537917998
0.261818181818182,-0.06430299997329711,-0.0758546656608581,0.37810033006668
0.262424242424242,-0.179263937473297,0.120536935901642,0.12183324022293
0.263030303030303,-0.0906482148170471,-0.023164235973358198,0.12422825975418
0.263636363636364,-0.0140075898170471,-0.0614845484733582,0.17931370897292997
0.264242424242424,-0.15531374216079702,-0.0590895289421082,0.20086888475418
0.264848484848485,0.0770031523704529,-0.0255592555046082,0.37570531053543
0.265454545454545,0.146458718776703,-0.162075368785858,0.17691868944168
0.266060606060606,-0.0164026093482971,-0.35367693128585803,0.10027806444168
0.266666666666667,0.0602380156517029,-0.18842058362960798,0.24158421678543
0.267272727272727,-0.037957785129547096,-0.164470388317108,0.0859079472541804
0.267878787878788,-0.0403528046607971,0.034316232776641795,0.14817845506667998
0.268484848484848,-0.0140075898170471,-0.0447194117546082,0.15296849412917998
0.269090909090909,-0.15531374216079702,-0.26266618909835804,0.11464818162918
0.26969696969697,0.00754758596420288,-0.126150075817108,0.11943822069168
0.27030303030303,-0.0475378632545471,-0.049509450817108204,0.29666966600418
0.270909090909091,-0.14573366403579702,-0.0662745875358581,0.10746312303543
0.271515151515151,-0.021192648410797103,0.24028791246414202,0.16733861131667999
0.272121212121212,0.0746081328392029,-0.0950148219108581,0.11464818162918
0.272727272727273,-0.138548605442047,-0.0159791773796082,-0.0961135371208196
0.273333333333333,-0.0499328827857971,-0.0111891383171082,0.10267308397293
0.273939393939394,0.00515256643295288,0.11095685777664199,0.12422825975418
0.274545454545455,-0.06669801950454711,0.0486863499641418,0.26792943162918
0.275151515151515,0.127298562526703,-0.20279070081710798,0.18170872850418
0.275757575757576,-0.00442751169204712,-0.166865407848358,0.00447728319168043
0.276363636363636,-0.334940207004547,-0.145310232067108,0.0116623417854304
0.276969696969697,-0.143338644504547,0.034316232776641795,0.26553441209793
0.277575757575758,-0.0810681366920471,-0.17884050550460798,0.28469456834793
0.278181818181818,0.11532346487045299,-0.0447194117546082,0.0906979863166804
0.278787878787879,0.0722131133079529,0.0103660374641418,0.23439915819167997
0.279393939393939,-0.184053976535797,0.0175510960578918,-0.18951929883957
0.28,0.0937682890892029,-0.181235525035858,0.16494359178543
0.280606060606061,0.0410778594017029,-0.114174978160858,0.21763402147292998
0.281212121212121,-0.0810681366920471,-0.056694509410858206,0.40684056444168
0.281818181818182,-0.224769308567047,0.0510813694953918,0.34457005662918
0.282424242424242,0.00754758596420288,-0.054299489879608205,-0.0506081660270696
0.283030303030303,0.110533425807953,-0.00400407972335815,0.25355931444168
0.283636363636364,0.053052957057952904,0.039106271839141796,0.18170872850418
0.284242424242424,-0.11220339059829701,-0.253086110973358,0.16254857225417998
0.284848484848485,-0.229559347629547,-0.154890310192108,-0.20867945508957
0.285454545454545,0.00994260549545288,-0.109384939098358,-0.0697683222770696
0.286060606060606,0.12250852346420299,-0.116569997692108,-0.00510279493331957
0.286666666666667,0.227889382839203,-0.0638795680046082,-0.00270777540206957
0.287272727272727,0.156038796901703,0.034316232776641795,0.18649876756668
0.287878787878788,-0.10262331247329701,-0.226740896129608,-0.0458181269645696
0.288484848484849,-0.15531374216079702,-0.33212175550460804,-0.0577932246208196
0.289090909090909,0.0410778594017029,-0.0998048609733581,-0.0937185175895696
0.28969696969697,0.194359109401703,0.16125226793289202,0.0451926152229304
0.29030303030303,-0.229559347629547,-0.0303492945671082,0.31103978319167996
0.290909090909091,-0.0451428437232971,-0.0351393336296082,0.26553441209793
0.291515151515152,0.467391335964203,0.0582664280891418,0.18410374803542998
0.292121212121212,-0.0858581757545471,-0.0734596461296081,-0.0985085566520696
0.292727272727273,-0.38284059762954703,-0.118965017223358,0.12662327928543
0.293333333333333,-0.06669801950454711,-0.0638795680046082,0.0308224980354304
0.293939393939394,-0.157708761692047,-0.0782496851921081,0.16494359178543
0.294545454545455,-0.14094362497329702,-0.375232107067108,0.0619577519416804
0.295151515151515,-0.15052370309829702,-0.265061208629608,-0.23023463087082002
0.295757575757576,0.20872922658920298,-0.056694509410858206,-0.11287867383957
0.296363636363636,0.168013894557953,0.120536935901642,0.16973363084793
0.296969696969697,-0.191239035129547,-0.159680349254608,0.24876927537917998
0.297575757575758,-0.00203249216079712,-0.195605642223358,-0.0410280879020696
0.298181818181818,-0.10741335153579701,0.0678465062141419,0.0547726933479304
0.298787878787879,0.225494363307953,0.0462913304328918,0.12422825975418
0.299393939393939,0.273394753932953,-0.13333513441085798,0.0883029667854304
0.3,-0.009217550754547119,-0.0111891383171082,0.19368382616042998
0.300606060606061,0.0793981719017029,0.09898176012039189,0.23439915819167997
0.301212121212121,0.14406369924545298,0.0127610569953918,-0.0530031855583196
0.301818181818182,-0.10501833200454701,-0.166865407848358,0.006872302722930429
0.302424242424242,-0.231954367160797,-0.135730153942108,0.0787228886604304
0.303030303030303,-0.157708761692047,0.0702415257453919,0.12183324022293
0.303636363636364,-0.14094362497329702,-0.195605642223358,0.13620335741043
0.304242424242424,-0.07148805856704711,0.0199461155891418,0.16015355272293
0.304848484848485,-0.07388307809829711,-0.00160906019210815,0.0547726933479304
0.305454545454545,-0.037957785129547096,-0.145310232067108,0.0571677128791804
0.306060606060606,-0.00442751169204712,-0.0686696070671081,0.17931370897292997
0.306666666666667,-0.0140075898170471,-0.006399099254608151,0.0404025761604304
0.307272727272727,-0.0307727265357971,-0.0279542750358582,0.0883029667854304
0.307878787878788,-0.033167746067047095,-0.0471144312858582,0.15536351366043
0.308484848484848,0.0147326445579529,-0.114174978160858,-0.0242629511833196
0.309090909090909,-0.0283777070045471,-0.0590895289421082,-0.0242629511833196
0.30969696969697,-0.0571179413795471,0.0750315648078919,0.13380833787917998
0.31030303030303,-0.00442751169204712,-0.0614845484733582,0.18410374803542998
0.310909090909091,-0.037957785129547096,-0.00400407972335815,0.77088353319168
0.311515151515152,-0.00203249216079712,-0.121360036754608,0.0332175175666804
0.312121212121212,0.0626330351829529,-0.106989919567108,-0.18951929883957
0.312727272727273,0.134483621120453,0.0295261937141418,0.31343480272293
0.313333333333333,0.12011350393295299,-0.0399293726921082,0.18649876756668
0.313939393939394,0.0362878203392029,-0.0950148219108581,0.28229954881668
0.314545454545455,-0.0451428437232971,0.0199461155891418,0.15057347459793
0.315151515151515,0.000362527370452881,0.0103660374641418,0.12662327928543
0.315757575757576,0.050657937526702904,-0.116569997692108,0.24397923631667998
0.316363636363636,0.0602380156517029,-0.415947439098358,0.27750950975418
0.316969696969697,0.110533425807953,-0.30338152112960803,0.20805394334792998
0.317575757575758,-0.0140075898170471,-0.118965017223358,0.0978830449104304
0.318181818181818,0.184779031276703,-0.23392595472335798,0.17452366991042997
0.318787878787879,-0.00682253122329712,-0.0447194117546082,0.0547726933479304
0.319393939393939,-0.0810681366920471,0.0774265843391419,-0.0458181269645696
0.32,-0.133758566379547,-0.0614845484733582,0.10027806444168
0.320606060606061,-0.0307727265357971,-0.0471144312858582,0.22960911912918
0.321212121212121,0.14885373830795298,-0.0782496851921081,0.23200413866043
0.321818181818182,-0.0978332734107971,-0.056694509410858206,0.0715378300666804
0.322424242424242,-0.06669801950454711,0.0175510960578918,0.20565892381668
0.323030303030303,-0.0762780976295471,-0.054299489879608205,0.0787228886604304
0.323636363636364,-0.0116125702857971,-0.186025564098358,-0.18472925977707003
0.324242424242424,-0.0571179413795471,-0.25548113050460797,-0.19670435743332002
0.324848484848485,0.0650280547142029,0.0510813694953918,-0.24460474805832003
0.325454545454545,-0.018797628879547102,0.034316232776641795,0.0475876347541804
0.326060606060606,-0.06430299997329711,-0.0662745875358581,0.32061986131667997
0.326666666666667,0.024312722682952898,-0.224345876598358,0.0451926152229304
0.327272727272727,-0.184053976535797,-0.0614845484733582,0.0859079472541804
0.327878787878788,0.287764871120453,0.09898176012039189,0.13620335741043
0.328484848484848,0.239864480495453,-0.0327443140983582,0.26074437303542997
0.329090909090909,0.00994260549545288,0.0103660374641418,0.052377673816680397
0.32969696969697,-0.0834631562232971,-0.130940114879608,-0.12245875196457
0.33030303030303,-0.179263937473297,-0.111779958629608,0.0859079472541804
0.330909090909091,-0.0786731171607971,0.134907053089142,0.22721409959792999
0.331515151515152,-0.009217550754547119,-0.0686696070671081,0.052377673816680397
0.332121212121212,0.0458678984642029,-0.123755056285858,0.14817845506667998
0.332727272727273,0.0650280547142029,-0.051904470348358205,0.17452366991042997
0.333333333333333,-0.0283777070045471,-0.0998048609733581,0.10027806444168
0.333939393939394,-0.181658957004547,-0.102199880504608,0.0499826542854304
0.334545454545455,0.0722131133079529,-0.0998048609733581,0.0380075566291804
0.335151515151515,-0.0786731171607971,-0.15728532972335799,0.30624974412918
0.335757575757576,-0.11220339059829701,-0.265061208629608,0.0571677128791804
0.336363636363636,0.160828835964203,-0.17884050550460798,-0.012287853527069601
0.336969696969697,0.110533425807953,-0.135730153942108,-0.13682886915207002
0.337575757575758,-0.0499328827857971,-0.08782976331710811,0.0164523808479304
0.338181818181818,-0.11220339059829701,0.039106271839141796,0.0499826542854304
0.338787878787879,-0.0571179413795471,-0.114174978160858,-0.0410280879020696
0.339393939393939,-0.0930432343482971,-0.09022478284835811,0.0547726933479304
0.34,0.100953347682953,0.0510813694953918,0.0811179081916804
0.340606060606061,-0.0307727265357971,0.0462913304328918,0.37810033006668
0.341212121212121,-0.0882531952857971,0.015156076526641799,0.73016820116043
0.341818181818182,0.165618875026703,-0.0758546656608581,0.61281224412918
0.342424242424242,-0.0978332734107971,0.041501291370391796,0.0140573613166804
0.343030303030303,0.0362878203392029,-0.00400407972335815,-0.15359400587082
0.343636363636364,-0.0762780976295471,-0.18842058362960798,-0.00510279493331957
0.344242424242424,-0.181658957004547,0.015156076526641799,-0.0601882441520696
0.344848484848485,0.0817931914329529,-0.020769216442108197,0.0787228886604304
0.345454545454545,0.00515256643295288,-0.0974098414421081,0.0404025761604304
0.346060606060606,-0.0235876679420471,-0.056694509410858206,0.10027806444168
0.346666666666667,0.053052957057952904,-0.0614845484733582,0.34217503709793
0.347272727272727,-0.06669801950454711,-0.09022478284835811,-0.10329859571457
0.347878787878788,0.0602380156517029,-0.118965017223358,0.19847386522292998
0.348484848484849,0.110533425807953,-0.13333513441085798,0.10506810350418
0.349090909090909,0.0889782500267029,-0.00879411878585815,0.0212424199104304
0.34969696969697,0.160828835964203,0.09898176012039189,0.11225316209793
0.35030303030303,-0.219979269504547,0.24028791246414202,0.0404025761604304
0.350909090909091,-0.131363546848297,0.0654514866828919,-0.0242629511833196
0.351515151515152,-0.06430299997329711,-0.17884050550460798,0.23439915819167997
0.352121212121212,-0.00682253122329712,-0.0590895289421082,0.21523900194168
0.352727272727273,-0.0116125702857971,-0.0734596461296081,0.21523900194168
0.353333333333333,-0.0427478241920471,0.039106271839141796,0.35415013475418
0.353939393939394,0.0338928008079529,-0.229135915660858,-0.0553982050895696
0.354545454545455,-0.15531374216079702,-0.0111891383171082,-0.0937185175895696
0.355151515151515,0.0746081328392029,-0.0447194117546082,0.0356125370979304
0.355757575757576,-0.0475378632545471,-0.126150075817108,0.0691428105354304
0.356363636363636,-0.0786731171607971,-0.231530935192108,0.0116623417854304
0.356969696969697,-0.0116125702857971,-0.169260427379608,-0.0721633418083196
0.357575757575758,-0.033167746067047095,0.0606614476203918,0.0643527714729304
0.358181818181818,-0.0882531952857971,0.209152658557892,0.25355931444168
0.358787878787879,-0.0283777070045471,0.130117014026642,0.24876927537917998
0.359393939393939,0.160828835964203,-0.054299489879608205,0.0499826542854304
0.36,0.146458718776703,0.0055759984016418495,0.17452366991042997
0.360606060606061,0.0650280547142029,0.022341135120391802,0.27032445116042997
0.361212121212121,-0.0403528046607971,0.0558714085578918,0.00208226366043043
0.361818181818182,0.0889782500267029,-0.13812517347335798,0.13859837694167998
0.362424242424242,0.127298562526703,-0.0758546656608581,0.0906979863166804
0.363030303030303,-0.06909303903579711,0.0534763890266418,0.0883029667854304
0.363636363636364,-0.0164026093482971,-0.190815603160858,0.19128880662918
0.364242424242424,-0.0307727265357971,-0.253086110973358,0.0883029667854304
0.364848484848485,-0.203214132785797,0.00318097887039185,0.0356125370979304
0.365454545454545,-0.0307727265357971,-0.023164235973358198,0.0380075566291804
0.366060606060606,-0.217584249973297,-0.19800066175460798,0.13620335741043
0.366666666666667,-0.12417848825454701,-0.135730153942108,0.0451926152229304
0.367272727272727,0.14406369924545298,-0.0423243922233582,-0.0266579707145696
0.367878787878788,-0.037957785129547096,0.10856183824539199,-0.009892833995819571
0.368484848484848,0.00515256643295288,-0.049509450817108204,-0.012287853527069601
0.369090909090909,-0.11459841012954701,-0.0782496851921081,0.57449193162918
0.36969696969697,-0.033167746067047095,-0.0686696070671081,0.45953099412917997
0.37030303030303,0.16322385549545299,-0.14291521253585798,0.70621800584793
0.370909090909091,-0.07148805856704711,-0.0255592555046082,0.75172337694168
0.371515151515152,-0.174473898410797,0.08700666246414189,-0.10090357618331999
0.372121212121212,-0.0595129609107971,0.0558714085578918,-0.0745583613395696
0.372727272727273,-0.138548605442047,0.0654514866828919,0.16733861131667999
0.373333333333333,0.0961633086204529,-0.020769216442108197,0.23918919725417997
0.373939393939394,-0.0164026093482971,-0.0183741969108582,0.10027806444168
0.374545454545455,-0.212794210910797,-0.0303492945671082,0.0811179081916804
0.375151515151515,0.000362527370452881,-0.08064470472335811,0.22960911912918
0.375757575757576,-0.179263937473297,0.022341135120391802,0.10746312303543
0.376363636363636,0.20393918752670298,-0.0686696070671081,0.23679417772293
0.376969696969697,0.242259500026703,0.273818185901642,0.33978001756667997
0.377575757575758,-0.10262331247329701,0.16604230699539202,-0.14880396680832
0.378181818181818,-0.06430299997329711,-0.0998048609733581,-0.0865334589958196
0.378787878787879,0.024312722682952898,-0.0662745875358581,0.23439915819167997
0.379393939393939,-0.0571179413795471,0.0127610569953918,0.0164523808479304
0.38,-0.15052370309829702,-0.0183741969108582,0.22002904100418
0.380606060606061,-0.179263937473297,0.139697092151642,0.0260324589729304
0.381212121212121,-0.06669801950454711,0.144487131214142,-0.00031275587081957103
0.381818181818182,0.050657937526702904,-0.154890310192108,0.15057347459793
0.382424242424242,-0.0427478241920471,-0.0734596461296081,0.0475876347541804
0.383030303030303,0.0889782500267029,-0.0471144312858582,0.32061986131667997
0.383636363636364,0.170408914089203,0.000785959339141848,0.16973363084793
0.384242424242424,0.172803933620453,-0.0447194117546082,0.12662327928543
0.384848484848485,0.0458678984642029,-0.126150075817108,0.17691868944168
0.385454545454545,-0.0140075898170471,0.0654514866828919,0.10746312303543
0.386060606060606,0.0482629179954529,-0.0638795680046082,0.27990452928542997
0.386666666666667,-0.00682253122329712,-0.0327443140983582,0.14099339647293
0.387272727272727,0.0195226836204529,-0.054299489879608205,0.0763278691291804
0.387878787878788,0.151248757839203,-0.356071950817108,0.028427478504180398
0.388484848484848,-0.0307727265357971,-0.20758073987960798,0.11943822069168
0.389090909090909,-0.10262331247329701,0.0295261937141418,0.26074437303542997
0.38969696969697,0.00515256643295288,-0.130940114879608,0.31103978319167996
0.39030303030303,0.0123376250267029,-0.181235525035858,0.0859079472541804
0.390909090909091,-0.152918722629547,-0.126150075817108,-0.31406031446457
0.391515151515152,-0.0978332734107971,0.0295261937141418,0.12662327928543
0.392121212121212,-0.021192648410797103,0.139697092151642,0.17691868944168
0.392727272727273,-0.061907980442047095,0.0199461155891418,0.0404025761604304
0.393333333333333,-0.126573507785797,0.0438963109016418,0.22242406053542998
0.393939393939394,-0.11699342966079701,-0.0159791773796082,0.13380833787917998
0.394545454545455,0.00275754690170288,-0.0303492945671082,-0.16556910352707002
0.395151515151515,-0.033167746067047095,-0.0327443140983582,0.0380075566291804
0.395757575757576,0.0147326445579529,0.00318097887039185,0.24876927537917998
0.396363636363636,0.050657937526702904,-0.126150075817108,0.15296849412917998
0.396969696969697,0.0386828398704529,-0.19800066175460798,0.16254857225417998
0.397575757575758,0.103348367214203,-0.023164235973358198,-0.0817434199333196
0.398181818181818,0.0698180937767029,-0.15249529066085799,-0.0985085566520696
0.398787878787879,-0.033167746067047095,0.0271311741828918,-0.26855494337082003
0.399393939393939,0.0362878203392029,-0.20758073987960798,-0.0410280879020696
0.4,-0.11220339059829701,-0.18363054456710798,-0.00510279493331957
0.400606060606061,-0.033167746067047095,-0.18842058362960798,0.47869115037918
0.401212121212121,0.026707742214202898,-0.241111013317108,0.37810033006668
0.401818181818182,0.0770031523704529,0.08700666246414189,-0.24220972852707
0.402424242424242,-0.037957785129547096,-0.104594900035858,0.22242406053542998
0.403030303030303,-0.152918722629547,-0.0423243922233582,0.10985814256668
0.403636363636364,0.0291027617454529,-0.106989919567108,0.15296849412917998
0.404242424242424,0.0195226836204529,-0.140520193004608,0.27032445116042997
0.404848484848485,-0.0547229218482971,-0.12854509534835798,0.14578343553543
0.405454545454545,-0.0499328827857971,-0.339306814098358,0.35654515428543
0.406060606060606,0.16322385549545299,-0.0614845484733582,0.14578343553543
0.406666666666667,0.0650280547142029,0.0534763890266418,0.0643527714729304
0.407272727272727,0.110533425807953,-0.0471144312858582,0.0188474003791804
0.407878787878788,0.055447976589202905,0.022341135120391802,0.15057347459793
0.408484848484849,0.024312722682952898,-0.0159791773796082,0.20565892381668
0.409090909090909,0.112928445339203,0.168437326526642,-0.10329859571457
0.40969696969697,0.108138406276703,-0.114174978160858,0.0188474003791804
0.41030303030303,-0.0140075898170471,-0.181235525035858,0.0260324589729304
0.410909090909091,-0.033167746067047095,0.0558714085578918,-0.0362380488395696
0.411515151515152,-0.167288839817047,0.0750315648078919,0.0404025761604304
0.412121212121212,-0.167288839817047,0.0750315648078919,0.22481908006668
0.412727272727273,0.0482629179954529,-0.12854509534835798,0.29187962694168
0.413333333333333,-0.179263937473297,-0.18363054456710798,0.0332175175666804
0.413939393939394,-0.251114523410797,0.0247361546516418,-0.0290529902458196
0.414545454545455,-0.0307727265357971,0.144487131214142,0.14817845506667998
0.415151515151515,-0.021192648410797103,0.130117014026642,0.0380075566291804
0.415757575757576,-0.061907980442047095,-0.18842058362960798,0.16015355272293
0.416363636363636,0.0123376250267029,-0.0183741969108582,0.16733861131667999
0.416969696969697,0.0650280547142029,-0.102199880504608,0.33019993944167997
0.417575757575758,-0.00442751169204712,-0.0662745875358581,0.33259495897293
0.418181818181818,-0.19602907419204701,0.0247361546516418,0.21763402147292998
0.418787878787879,0.0123376250267029,-0.274641286754608,0.0260324589729304
0.419393939393939,0.0195226836204529,-0.00400407972335815,-0.10329859571457
0.42,0.220704324245453,-0.0974098414421081,0.0188474003791804
0.420606060606061,0.0147326445579529,0.000785959339141848,0.20565892381668
0.421212121212121,0.0291027617454529,0.158857248401642,-0.012287853527069601
0.421818181818182,0.156038796901703,-0.0399293726921082,0.0787228886604304
0.422424242424242,-0.0882531952857971,-0.051904470348358205,0.11704320116043
0.423030303030303,-0.0499328827857971,-0.08782976331710811,0.0811179081916804
0.423636363636364,-0.100228292942047,0.0271311741828918,0.23200413866043
0.424242424242424,-0.0547229218482971,0.0271311741828918,0.0835129277229304
0.424848484848485,-0.10741335153579701,-0.0974098414421081,0.18410374803542998
0.425454545454545,-0.0930432343482971,0.0774265843391419,0.22721409959792999
0.426060606060606,-0.11459841012954701,-0.154890310192108,0.19847386522292998
0.426666666666667,-0.100228292942047,-0.164470388317108,-0.017077892589569602
0.427272727272727,0.0171276640892029,0.0702415257453919,0.0954880253791804
0.427878787878788,0.050657937526702904,0.158857248401642,0.0739328495979304
0.428484848484848,-0.143338644504547,0.0175510960578918,0.13380833787917998
0.429090909090909,-0.0475378632545471,-0.0998048609733581,0.20805394334792998
0.42969696969697,-0.033167746067047095,0.0702415257453919,0.13380833787917998
0.43030303030303,-0.14573366403579702,0.08940168199539189,0.29666966600418
0.430909090909091,0.021917703151702897,-0.0590895289421082,0.41163060350418
0.431515151515152,-0.033167746067047095,-0.140520193004608,0.20805394334792998
0.432121212121212,0.0722131133079529,0.015156076526641799,0.0308224980354304
0.432727272727273,0.0698180937767029,0.0462913304328918,0.17452366991042997
0.433333333333333,0.0722131133079529,-0.08543474378585811,0.30385472459793
0.433939393939394,0.11532346487045299,-0.051904470348358205,0.0116623417854304
0.434545454545455,0.0961633086204529,-0.14291521253585798,0.10746312303543
0.435151515151515,0.0865832304954529,-0.08064470472335811,0.17691868944168
0.435757575757576,0.0913732695579529,-0.00879411878585815,0.12901829881667998
0.436363636363636,-0.128968527317047,-0.21716081800460799,0.24397923631667998
0.436969696969697,-0.0810681366920471,-0.0662745875358581,-0.16077906446457002
0.437575757575758,-0.0547229218482971,-0.111779958629608,0.19128880662918
0.438181818181818,-0.061907980442047095,-0.150100271129608,0.35894017381668
0.438787878787879,-0.035562765598297096,0.0103660374641418,0.0547726933479304
0.439393939393939,-0.246324484348297,-0.006399099254608151,0.0260324589729304
0.44,0.0338928008079529,-0.0614845484733582,0.13620335741043
0.440606060606061,-0.0427478241920471,-0.23871599378585798,0.0595627324104304
0.441212121212121,-0.07148805856704711,-0.0734596461296081,0.0883029667854304
0.441818181818182,0.0171276640892029,0.14209211168289201,0.20326390428542998
0.442424242424242,-0.0762780976295471,-0.116569997692108,-0.009892833995819571
0.443030303030303,-0.10262331247329701,-0.121360036754608,-0.012287853527069601
0.443636363636364,-0.255904562473297,0.0510813694953918,0.19128880662918
0.444242424242424,-0.07148805856704711,0.0462913304328918,0.06674779100418039
0.444848484848485,0.12250852346420299,0.23070783433914202,0.0739328495979304
0.445454545454545,-0.0451428437232971,0.0702415257453919,0.21523900194168
0.446060606060606,-0.033167746067047095,-0.08064470472335811,0.27511449022293
0.446666666666667,-0.176868917942047,-0.102199880504608,0.0643527714729304
0.447272727272727,0.021917703151702897,-0.346491872692108,0.0739328495979304
0.447878787878788,0.0913732695579529,-0.224345876598358,0.15775853319167998
0.448484848484848,-0.0810681366920471,0.0199461155891418,-0.10329859571457
0.449090909090909,-0.0786731171607971,-0.0111891383171082,0.22002904100418
0.44969696969697,0.0338928008079529,-0.0710646265983581,0.53138158006668
0.45030303030303,0.0147326445579529,0.015156076526641799,0.0954880253791804
0.450909090909091,0.00515256643295288,0.12772199449539198,0.18889378709792998
0.451515151515152,0.182384011745453,0.039106271839141796,0.37331029100418
0.452121212121212,-0.061907980442047095,-0.0255592555046082,0.0308224980354304
0.452727272727273,-0.227164328098297,-0.0950148219108581,0.0954880253791804
0.453333333333333,-0.11459841012954701,-0.20758073987960798,0.18649876756668
0.453939393939394,-0.10980837106704701,-0.0279542750358582,0.10027806444168
0.454545454545455,-0.251114523410797,0.15646222887039202,0.16015355272293
0.455151515151515,-0.018797628879547102,-0.08303972425460811,0.16494359178543
0.455757575757576,-0.0403528046607971,-0.15728532972335799,0.15057347459793
0.456363636363636,-0.208004171848297,-0.049509450817108204,0.33019993944167997
0.456969696969697,-0.174473898410797,-0.054299489879608205,0.12901829881667998
0.457575757575758,-0.14094362497329702,-0.08543474378585811,0.10746312303543
0.458181818181818,0.0889782500267029,0.09179670152664189,0.30145970506667996
0.458787878787879,-0.227164328098297,-0.176445485973358,0.10267308397293
0.459393939393939,-0.0475378632545471,-0.17405046644210798,0.43079075975417996
0.46,0.139273660182953,0.16604230699539202,0.0164523808479304
0.460606060606061,-0.0116125702857971,0.12772199449539198,0.26313939256668
0.461212121212121,0.055447976589202905,0.0630564671516418,0.6822678105354301
0.461818181818182,0.136878640651703,-0.164470388317108,-0.0434231074333196
0.462424242424242,0.0482629179954529,-0.135730153942108,0.06674779100418039
0.463030303030303,-0.018797628879547102,-0.0998048609733581,-0.0530031855583196
0.463636363636364,0.0602380156517029,0.022341135120391802,0.028427478504180398
0.464242424242424,-0.11699342966079701,-0.104594900035858,0.006872302722930429
0.464848484848485,0.0386828398704529,-0.277036306285858,0.12422825975418
0.465454545454545,-0.0786731171607971,-0.0255592555046082,-0.11287867383957
0.466060606060606,0.021917703151702897,0.00797101793289185,0.0691428105354304
0.466666666666667,-0.10262331247329701,0.041501291370391796,0.28469456834793
0.467272727272727,-0.291829855442047,-0.0375343531608582,0.19368382616042998
0.467878787878788,-0.037957785129547096,-0.08543474378585811,0.26792943162918
0.468484848484849,-0.061907980442047095,0.00318097887039185,0.23918919725417997
0.469090909090909,0.12490354299545299,0.08940168199539189,0.24637425584793
0.46969696969697,-0.10501833200454701,-0.013584157848358201,0.14099339647293
0.47030303030303,-0.10741335153579701,-0.102199880504608,0.24637425584793
0.470909090909091,0.156038796901703,-0.0662745875358581,0.23200413866043
0.471515151515151,0.057842996120452905,-0.24829607191085798,0.15296849412917998
0.472121212121212,-0.0571179413795471,-0.13333513441085798,-0.0530031855583196
0.472727272727273,-0.11699342966079701,0.00318097887039185,0.0427975956916804
0.473333333333333,0.0722131133079529,-0.09022478284835811,0.20326390428542998
0.473939393939394,-0.217584249973297,-0.0950148219108581,0.0475876347541804
0.474545454545455,0.196754128932953,-0.0590895289421082,0.0715378300666804
0.475151515151515,0.0410778594017029,-0.0159791773796082,0.21284398241042998
0.475757575757576,-0.0810681366920471,0.113351877307892,0.0619577519416804
0.476363636363636,0.333270242214203,0.0606614476203918,0.0954880253791804
0.476969696969697,-0.0499328827857971,-0.176445485973358,0.12901829881667998
0.477575757575758,0.026707742214202898,-0.265061208629608,-0.0841384394645696
0.478181818181818,-0.037957785129547096,-0.0111891383171082,0.0619577519416804
0.478787878787879,-0.0283777070045471,0.08940168199539189,0.27750950975418
0.479393939393939,-0.10262331247329701,-0.00160906019210815,0.10746312303543
0.48,-0.0954382538795471,-0.0662745875358581,0.13380833787917998
0.480606060606061,0.024312722682952898,-0.111779958629608,0.31822484178543
0.481212121212121,0.0338928008079529,-0.0686696070671081,0.0571677128791804
0.481818181818182,0.0722131133079529,-0.236320974254608,-0.012287853527069601
0.482424242424242,0.100953347682953,-0.0447194117546082,0.0571677128791804
0.483030303030303,-0.0762780976295471,0.0199461155891418,0.10985814256668
0.483636363636364,-0.160103781223297,-0.169260427379608,0.16494359178543
0.484242424242424,0.00994260549545288,0.00318097887039185,0.24158421678543
0.484848484848485,-0.037957785129547096,0.0438963109016418,0.22481908006668
0.485454545454545,-0.0834631562232971,-0.0734596461296081,0.0212424199104304
0.486060606060606,0.050657937526702904,-0.17405046644210798,-0.00031275587081957103
0.486666666666667,0.026707742214202898,-0.12854509534835798,0.0930930058479304
0.487272727272727,-0.0834631562232971,0.0199461155891418,0.36852025194168
0.487878787878788,-0.009217550754547119,-0.0111891383171082,-0.009892833995819571
0.488484848484848,0.261419656276703,-0.102199880504608,0.0787228886604304
0.489090909090909,0.201544167995453,-0.209975759410858,0.052377673816680397
0.48969696969697,-0.157708761692047,0.0654514866828919,-0.29011011915207
0.49030303030303,-0.164893820285797,0.000785959339141848,-0.0577932246208196
0.490909090909091,-0.033167746067047095,-0.135730153942108,0.0308224980354304
0.491515151515152,0.0722131133079529,0.163647287464142,0.028427478504180398
0.492121212121212,-0.193634054660797,-0.14291521253585798,0.13380833787917998
0.492727272727273,-0.160103781223297,-0.274641286754608,0.20805394334792998
0.493333333333333,0.0458678984642029,-0.12854509534835798,0.10027806444168
0.493939393939394,-0.128968527317047,0.0319212132453918,0.0356125370979304
0.494545454545455,0.0123376250267029,-0.0183741969108582,0.0787228886604304
0.495151515151515,0.156038796901703,-0.0974098414421081,0.028427478504180398
0.495757575757576,-0.248719503879547,-0.023164235973358198,0.0619577519416804
0.496363636363636,-0.133758566379547,-0.0950148219108581,0.20805394334792998
0.496969696969697,0.254234597682953,-0.0351393336296082,0.00926732225418043
0.497575757575758,-0.10262331247329701,-0.17884050550460798,0.0547726933479304
0.498181818181818,-0.212794210910797,-0.114174978160858,0.0906979863166804
0.498787878787879,0.000362527370452881,-0.0782496851921081,-0.10329859571457
0.499393939393939,-0.224769308567047,0.0103660374641418,0.14338841600417998
0.5,-0.33254518747329703,-0.08303972425460811,0.12183324022293
0.500606060606061,-0.133758566379547,-0.190815603160858,-0.20388941602707
0.501212121212121,-0.0427478241920471,0.0295261937141418,-0.18472925977707003
0.501818181818182,-0.0930432343482971,-0.121360036754608,-0.0506081660270696
0.502424242424242,-0.0810681366920471,-0.130940114879608,0.20805394334792998
0.503030303030303,-0.10262331247329701,-0.054299489879608205,0.23439915819167997
0.503636363636364,-0.167288839817047,-0.130940114879608,0.10267308397293
0.504242424242424,-0.0307727265357971,-0.023164235973358198,0.0930930058479304
0.504848484848485,-0.133758566379547,-0.140520193004608,0.0212424199104304
0.505454545454545,0.026707742214202898,-0.140520193004608,0.16973363084793
0.506060606060606,0.316505105495453,0.09658674058914189,0.14817845506667998
0.506666666666667,-0.018797628879547102,0.0055759984016418495,-0.17514918165207002
0.507272727272727,0.050657937526702904,-0.056694509410858206,0.00926732225418043
0.507878787878788,0.0386828398704529,0.0199461155891418,0.12183324022293
0.508484848484849,-0.10262331247329701,0.125326974964142,-0.0314480097770696
0.509090909090909,0.050657937526702904,-0.08303972425460811,0.10746312303543
0.50969696969697,-0.0307727265357971,0.09419172105789189,0.10267308397293
0.51030303030303,-0.191239035129547,0.0630564671516418,0.0811179081916804
0.510909090909091,-0.26308962106704703,-0.130940114879608,0.0954880253791804
0.511515151515151,0.0698180937767029,0.113351877307892,0.0643527714729304
0.512121212121212,-0.009217550754547119,0.00318097887039185,0.19847386522292998
0.512727272727273,0.021917703151702897,-0.0351393336296082,0.24397923631667998
0.513333333333333,-0.06909303903579711,0.00318097887039185,0.13141331834793
0.513939393939394,-0.0978332734107971,0.0247361546516418,0.12662327928543
0.514545454545455,0.0698180937767029,-0.049509450817108204,0.28948460741043
0.515151515151515,-0.169683859348297,0.000785959339141848,0.0883029667854304
0.515757575757576,0.0291027617454529,0.036711252307891795,0.14578343553543
0.516363636363636,0.156038796901703,-0.0351393336296082,0.0739328495979304
0.516969696969697,-0.0547229218482971,-0.0423243922233582,0.06674779100418039
0.517575757575758,-0.231954367160797,-0.219555837535858,0.22002904100418
0.518181818181818,0.0362878203392029,-0.121360036754608,0.0260324589729304
0.518787878787879,-0.0547229218482971,-0.118965017223358,0.14578343553543
0.519393939393939,0.108138406276703,-0.020769216442108197,0.46911107225418
0.52,0.134483621120453,0.0247361546516418,0.36133519334792996
0.520606060606061,-0.157708761692047,-0.0950148219108581,0.5577267949104301
0.521212121212121,-0.174473898410797,-0.0686696070671081,0.42360570116043
0.521818181818182,-0.184053976535797,-0.08782976331710811,0.24637425584793
0.522424242424242,-0.303804953098297,-0.17884050550460798,0.45713597459793
0.523030303030303,-0.188844015598297,-0.0590895289421082,-0.0577932246208196
0.523636363636364,0.053052957057952904,-0.013584157848358201,0.06674779100418039
0.524242424242424,-0.157708761692047,-0.123755056285858,-0.0745583613395696
0.524848484848485,0.0195226836204529,-0.0375343531608582,0.0787228886604304
0.525454545454546,-0.009217550754547119,-0.0974098414421081,0.35654515428543
0.526060606060606,-0.0116125702857971,-0.13812517347335798,0.23439915819167997
0.526666666666667,0.000362527370452881,-0.221950857067108,0.23918919725417997
0.527272727272727,-0.167288839817047,-0.106989919567108,0.0451926152229304
0.527878787878788,0.00515256643295288,-0.049509450817108204,0.22242406053542998
0.528484848484848,0.0147326445579529,-0.0782496851921081,0.0883029667854304
0.529090909090909,-0.037957785129547096,0.0319212132453918,0.0212424199104304
0.52969696969697,0.189569070339203,0.16125226793289202,0.24876927537917998
0.53030303030303,0.021917703151702897,0.0271311741828918,0.33019993944167997
0.530909090909091,-0.0475378632545471,-0.310566579723358,0.30864476366043
0.531515151515151,0.0674230742454529,-0.08064470472335811,0.0859079472541804
0.532121212121212,0.0913732695579529,-0.0471144312858582,-0.0769533808708196
0.532727272727273,-0.0259826874732971,-0.00160906019210815,0.12422825975418
0.533333333333333,0.20393918752670298,-0.054299489879608205,0.15536351366043
0.533939393939394,0.21830930471420298,-0.200395681285858,0.12183324022293
0.534545454545455,-0.236744406223297,-0.0998048609733581,-0.012287853527069601
0.535151515151515,-0.06430299997329711,-0.24829607191085798,0.10506810350418
0.535757575757576,0.206334207057953,0.034316232776641795,0.16015355272293
0.536363636363636,0.15843381643295298,0.139697092151642,0.0547726933479304
0.536969696969697,0.146458718776703,0.022341135120391802,0.21763402147292998
0.537575757575758,0.12011350393295299,-0.013584157848358201,0.19607884569168
0.538181818181818,-0.0786731171607971,-0.114174978160858,0.35654515428543
0.538787878787879,0.021917703151702897,0.022341135120391802,0.28229954881668
0.539393939393939,0.021917703151702897,0.00797101793289185,0.11704320116043
0.54,0.055447976589202905,-0.0710646265983581,0.22960911912918
0.540606060606061,0.0458678984642029,-0.209975759410858,0.13141331834793
0.541212121212121,-0.0834631562232971,0.0654514866828919,0.11704320116043
0.541818181818182,0.26620969533920297,-0.0327443140983582,0.0715378300666804
0.542424242424242,0.22309934377670299,-0.14770525159835798,0.16973363084793
0.543030303030303,-0.11220339059829701,-0.0111891383171082,-0.0218679316520696
0.543636363636364,-0.157708761692047,-0.116569997692108,0.0739328495979304
0.544242424242424,-0.19602907419204701,-0.0447194117546082,0.30385472459793
0.544848484848485,-0.06669801950454711,-0.0590895289421082,0.35175511522293
0.545454545454545,-0.018797628879547102,-0.049509450817108204,0.5218015019416801
0.546060606060606,0.0386828398704529,-0.09022478284835811,0.19368382616042998
0.546666666666667,-0.0571179413795471,-0.106989919567108,0.00926732225418043
0.547272727272727,0.0650280547142029,0.0295261937141418,0.0763278691291804
0.547878787878788,-0.0283777070045471,-0.051904470348358205,0.31343480272293
0.548484848484848,-0.021192648410797103,-0.0303492945671082,0.0164523808479304
0.549090909090909,-0.0834631562232971,-0.102199880504608,0.44276585741043
0.54969696969697,-0.303804953098297,-0.0303492945671082,0.20805394334792998
0.55030303030303,0.050657937526702904,-0.0327443140983582,0.38049534959792997
0.550909090909091,-0.12178346872329701,-0.054299489879608205,0.7157980839729301
0.551515151515152,-0.037957785129547096,0.0486863499641418,0.0595627324104304
0.552121212121212,0.053052957057952904,-0.13333513441085798,0.12183324022293
0.552727272727273,-0.021192648410797103,0.0247361546516418,0.19128880662918
0.553333333333333,0.108138406276703,0.0295261937141418,0.22242406053542998
0.553939393939394,-0.128968527317047,0.0822166234016419,0.30145970506667996
0.554545454545455,0.055447976589202905,-0.190815603160858,0.16973363084793
0.555151515151515,0.273394753932953,0.00797101793289185,-0.16796412305832
0.555757575757576,0.021917703151702897,0.199572580432892,0.0715378300666804
0.556363636363636,0.055447976589202905,-0.102199880504608,0.23679417772293
0.556969696969697,0.100953347682953,-0.0662745875358581,0.26074437303542997
0.557575757575758,0.0602380156517029,0.0247361546516418,0.0763278691291804
0.558181818181818,-0.035562765598297096,0.0103660374641418,0.14578343553543
0.558787878787879,0.108138406276703,-0.0159791773796082,0.23200413866043
0.559393939393939,0.249444558620453,-0.023164235973358198,0.10506810350418
0.56,-0.188844015598297,-0.14291521253585798,0.19128880662918
0.560606060606061,0.00515256643295288,0.0295261937141418,0.11943822069168
0.561212121212121,0.215914285182953,0.09419172105789189,0.13620335741043
0.561818181818182,-0.0403528046607971,0.132512033557892,0.18410374803542998
0.562424242424242,0.0195226836204529,-0.130940114879608,-0.0074978144645695705
0.563030303030303,-0.021192648410797103,-0.020769216442108197,0.0547726933479304
0.563636363636364,0.0410778594017029,0.0726365452766419,0.18170872850418
0.564242424242424,0.021917703151702897,-0.104594900035858,0.0595627324104304
0.564848484848485,0.057842996120452905,-0.24350603284835798,0.13141331834793
0.565454545454545,0.0338928008079529,-0.0471144312858582,-0.13203883008957001
0.566060606060606,-0.0307727265357971,-0.0447194117546082,0.10267308397293
0.566666666666667,0.0913732695579529,-0.320146657848358,0.38289036912918
0.567272727272727,-0.00203249216079712,-0.324936696910858,-0.0314480097770696
0.567878787878788,0.22309934377670299,-0.09261980237960811,-0.17754420118332
0.568484848484848,0.172803933620453,-0.0375343531608582,0.0691428105354304
0.569090909090909,0.160828835964203,0.00318097887039185,0.30624974412918
0.56969696969697,0.0770031523704529,0.15646222887039202,0.30385472459793
0.57030303030303,0.12250852346420299,-0.0255592555046082,0.17212865037918
0.570909090909091,0.227889382839203,-0.104594900035858,0.11464818162918
0.571515151515152,-0.11699342966079701,-0.25548113050460797,0.17452366991042997
0.572121212121212,0.0602380156517029,-0.0399293726921082,0.052377673816680397
0.572727272727273,0.12250852346420299,0.0630564671516418,-0.0338430293083196
0.573333333333333,-0.12417848825454701,-0.0183741969108582,0.22960911912918
0.573939393939394,-0.25350954294204703,-0.154890310192108,0.17452366991042997
0.574545454545455,-0.00682253122329712,0.0510813694953918,-0.0577932246208196
0.575151515151515,0.0314977812767029,-0.054299489879608205,0.20086888475418
0.575757575757576,-0.07388307809829711,-0.14291521253585798,0.30624974412918
0.576363636363636,0.177593972682953,0.0654514866828919,0.21284398241042998
0.576969696969697,0.189569070339203,-0.0303492945671082,0.23200413866043
0.577575757575758,0.021917703151702897,0.034316232776641795,0.41163060350418
0.578181818181818,-0.160103781223297,-0.0447194117546082,0.19847386522292998
0.578787878787879,0.170408914089203,-0.0590895289421082,0.13859837694167998
0.579393939393939,-0.0762780976295471,-0.126150075817108,0.25834935350418
0.58,-0.184053976535797,-0.0255592555046082,0.10027806444168
0.580606060606061,0.026707742214202898,-0.0159791773796082,0.64873753709793
0.581212121212121,-0.20560915231704702,-0.15728532972335799,0.33019993944167997
0.581818181818182,-0.11699342966079701,-0.0159791773796082,-0.14161890821457002
0.582424242424242,-0.143338644504547,-0.020769216442108197,0.27032445116042997
0.583030303030303,0.021917703151702897,-0.0399293726921082,0.0116623417854304
0.583636363636364,-0.06909303903579711,-0.0614845484733582,0.052377673816680397
0.584242424242424,-0.0283777070045471,-0.09022478284835811,0.40684056444168
0.584848484848485,0.0338928008079529,0.0295261937141418,0.26792943162918
0.585454545454545,-0.167288839817047,0.00318097887039185,0.12662327928543
0.586060606060606,0.0722131133079529,-0.056694509410858206,0.0883029667854304
0.586666666666667,0.20393918752670298,-0.049509450817108204,0.12422825975418
0.587272727272727,-0.0571179413795471,-0.0111891383171082,0.13141331834793
0.587878787878788,-0.0954382538795471,0.0654514866828919,0.0715378300666804
0.588484848484848,-0.0571179413795471,0.0486863499641418,0.20326390428542998
0.589090909090909,-0.0140075898170471,-0.0303492945671082,0.26074437303542997
0.58969696969697,-0.06430299997329711,0.113351877307892,0.19847386522292998
0.59030303030303,-0.018797628879547102,0.09419172105789189,0.10506810350418
0.590909090909091,-0.00682253122329712,-0.0279542750358582,0.0116623417854304
0.591515151515152,-0.0140075898170471,-0.023164235973358198,0.10985814256668
0.592121212121212,-0.009217550754547119,-0.0375343531608582,0.26792943162918
0.592727272727273,0.100953347682953,-0.0399293726921082,0.10506810350418
0.593333333333333,0.105743386745453,-0.0399293726921082,0.26074437303542997
0.593939393939394,-0.11459841012954701,-0.324936696910858,0.0859079472541804
0.594545454545455,-0.06669801950454711,-0.310566579723358,-0.14640894727707002
0.595151515151515,0.0722131133079529,-0.0471144312858582,-0.12245875196457
0.595757575757576,0.0817931914329529,-0.0686696070671081,0.16733861131667999
0.596363636363636,0.0195226836204529,-0.08782976331710811,0.19607884569168
0.596969696969697,-0.018797628879547102,-0.15249529066085799,0.0978830449104304
0.597575757575758,-0.00682253122329712,-0.0974098414421081,0.0739328495979304
0.598181818181818,-0.0930432343482971,-0.056694509410858206,-0.012287853527069601
0.598787878787879,-0.0116125702857971,-0.0974098414421081,0.19368382616042998
0.599393939393939,0.021917703151702897,-0.159680349254608,0.26792943162918
0.6,-0.0116125702857971,-0.18363054456710798,0.0356125370979304
0.600606060606061,-0.10262331247329701,0.0271311741828918,-0.20149439649582002
0.601212121212121,-0.0858581757545471,0.0654514866828919,0.10746312303543
0.601818181818182,-0.0523279023170471,-0.0303492945671082,0.12183324022293
0.602424242424242,-0.0762780976295471,-0.0111891383171082,0.06674779100418039
0.603030303030303,0.021917703151702897,0.0319212132453918,0.17212865037918
0.603636363636364,-0.148128683567047,0.09419172105789189,0.23439915819167997
0.604242424242424,-0.13615358591079701,-0.0734596461296081,0.21523900194168
0.604848484848485,0.00515256643295288,-0.186025564098358,0.28469456834793
0.605454545454545,0.227889382839203,-0.0614845484733582,0.0116623417854304
0.606060606060606,0.0195226836204529,-0.09022478284835811,-0.0841384394645696
0.606666666666667,-0.181658957004547,-0.104594900035858,0.29666966600418
0.607272727272727,0.0698180937767029,-0.19800066175460798,0.19607884569168
0.607878787878788,-0.009217550754547119,0.000785959339141848,0.0164523808479304
0.608484848484849,-0.0116125702857971,0.194782541370392,0.11704320116043
0.609090909090909,0.000362527370452881,-0.0303492945671082,0.30864476366043
0.60969696969697,0.0147326445579529,0.022341135120391802,-0.0601882441520696
0.61030303030303,0.0626330351829529,0.14688215074539201,0.24637425584793
0.610909090909091,0.0626330351829529,0.218732736682892,0.51222142381668
0.611515151515152,-0.037957785129547096,0.168437326526642,0.20805394334792998
0.612121212121212,-0.14094362497329702,0.0558714085578918,0.0308224980354304
0.612727272727273,-0.11699342966079701,-0.00400407972335815,-0.23262965040207
0.613333333333333,-0.337335226535797,-0.0758546656608581,-0.12006373243332
0.613939393939394,0.0171276640892029,-0.08303972425460811,0.12183324022293
0.614545454545455,0.151248757839203,-0.0111891383171082,0.37331029100418
0.615151515151515,-0.167288839817047,-0.104594900035858,0.23439915819167997
0.615757575757576,-0.133758566379547,0.0055759984016418495,0.0140573613166804
0.616363636363636,0.0817931914329529,-0.08064470472335811,-0.0721633418083196
0.616969696969697,0.132088601589203,-0.0327443140983582,0.0427975956916804
0.617575757575758,0.053052957057952904,-0.020769216442108197,0.14338841600417998
0.618181818181818,0.230284402370453,-0.0183741969108582,0.0404025761604304
0.618787878787879,0.199149148464203,0.137302072620392,0.33498997850418
0.619393939393939,0.105743386745453,-0.116569997692108,0.0906979863166804
0.62,0.136878640651703,-0.28182634534835804,-0.00270777540206957
0.620606060606061,-0.0427478241920471,-0.00879411878585815,0.27511449022293
0.621212121212121,0.021917703151702897,0.0774265843391419,0.11943822069168
0.621818181818182,0.136878640651703,-0.150100271129608,0.31582982225418
0.622424242424242,-0.133758566379547,0.015156076526641799,0.00447728319168043
0.623030303030303,-0.143338644504547,0.0486863499641418,0.17212865037918
0.623636363636364,-0.148128683567047,-0.0758546656608581,0.12422825975418
0.624242424242424,0.0602380156517029,-0.0471144312858582,0.0787228886604304
0.624848484848485,-0.25350954294204703,-0.0782496851921081,0.15536351366043
0.625454545454545,-0.12178346872329701,-0.126150075817108,-0.0793484004020696
0.626060606060606,0.00515256643295288,-0.0471144312858582,0.0906979863166804
0.626666666666667,-0.0906482148170471,-0.29380144300460803,0.00926732225418043
0.627272727272727,0.292554910182953,-0.08303972425460811,-0.0146828730583196
0.627878787878788,0.100953347682953,-0.0447194117546082,-0.009892833995819571
0.628484848484849,0.256629617214203,-0.0471144312858582,0.22481908006668
0.629090909090909,0.024312722682952898,-0.056694509410858206,0.29187962694168
0.62969696969697,-0.00203249216079712,-0.140520193004608,0.12183324022293
0.63030303030303,-0.0403528046607971,-0.0734596461296081,0.29187962694168
0.630909090909091,0.00754758596420288,-0.118965017223358,0.0308224980354304
0.631515151515151,-0.00203249216079712,0.09419172105789189,0.0619577519416804
0.632121212121212,-0.07388307809829711,0.10856183824539199,0.39007542772292997
0.632727272727273,0.134483621120453,-0.08303972425460811,0.10027806444168
0.633333333333333,0.129693582057953,-0.056694509410858206,0.10506810350418
0.633939393939394,0.12250852346420299,-0.0734596461296081,0.21523900194168
0.634545454545455,-0.0906482148170471,-0.365652028942108,0.12901829881667998
0.635151515151515,0.0650280547142029,-0.0662745875358581,0.0859079472541804
0.635757575757576,0.199149148464203,0.09179670152664189,0.31822484178543
0.636363636363636,0.177593972682953,-0.195605642223358,0.20565892381668
0.636969696969697,0.055447976589202905,-0.0327443140983582,-0.0218679316520696
0.637575757575758,-0.13615358591079701,0.015156076526641799,0.25595433397293
0.638181818181818,-0.0954382538795471,-0.08543474378585811,0.13380833787917998
0.638787878787879,0.057842996120452905,0.0822166234016419,0.16015355272293
0.639393939393939,-0.00203249216079712,0.0702415257453919,0.0404025761604304
0.64,0.050657937526702904,0.000785959339141848,0.11225316209793
0.640606060606061,0.105743386745453,0.0127610569953918,0.34457005662918
0.641212121212121,-0.11459841012954701,0.130117014026642,0.44755589647293
0.641818181818182,-0.236744406223297,-0.121360036754608,0.26553441209793
0.642424242424242,0.0291027617454529,-0.0974098414421081,-0.0410280879020696
0.643030303030303,-0.00442751169204712,0.149277170276642,0.26792943162918
0.643636363636364,-0.10741335153579701,-0.08782976331710811,0.13620335741043
0.644242424242424,-0.0595129609107971,-0.221950857067108,0.13859837694167998
0.644848484848485,-0.035562765598297096,-0.0974098414421081,0.0236374394416804
0.645454545454546,-0.0978332734107971,-0.023164235973358198,0.30145970506667996
0.646060606060606,0.0937682890892029,-0.106989919567108,0.37331029100418
0.646666666666667,0.021917703151702897,-0.231530935192108,0.19128880662918
0.647272727272727,-0.009217550754547119,0.034316232776641795,0.00926732225418043
0.647878787878788,0.0793981719017029,0.115746896839142,0.10985814256668
0.648484848484848,-0.32296510934829703,-0.154890310192108,0.0883029667854304
0.649090909090909,-0.07388307809829711,-0.130940114879608,-0.0458181269645696
0.64969696969697,0.110533425807953,0.000785959339141848,0.23679417772293
0.65030303030303,0.0889782500267029,-0.190815603160858,0.12422825975418
0.650909090909091,0.0698180937767029,-0.0159791773796082,-0.14880396680832
0.651515151515151,-0.0427478241920471,0.10377179918289199,0.15057347459793
0.652121212121212,-0.162498800754547,-0.056694509410858206,0.33019993944167997
0.652727272727273,-0.033167746067047095,0.0175510960578918,0.0595627324104304
0.653333333333333,0.0626330351829529,-0.159680349254608,0.31343480272293
0.653939393939394,-0.00442751169204712,-0.0279542750358582,0.24397923631667998
0.654545454545455,-0.0140075898170471,-0.09261980237960811,0.006872302722930429
0.655151515151515,0.026707742214202898,-0.195605642223358,0.33738499803543
0.655757575757576,-0.11699342966079701,-0.28422136487960803,0.0571677128791804
0.656363636363636,-0.179263937473297,-0.257876150035858,0.0547726933479304
0.656969696969697,0.0674230742454529,-0.15249529066085799,0.0906979863166804
0.657575757575758,0.0817931914329529,-0.20279070081710798,-0.0913234980583196
0.658181818181818,0.0722131133079529,-0.236320974254608,0.0427975956916804
0.658787878787879,0.136878640651703,0.0606614476203918,0.17691868944168
0.659393939393939,-0.12417848825454701,0.0750315648078919,0.32301488084793
0.66,-0.174473898410797,-0.195605642223358,-0.0793484004020696
0.660606060606061,-0.0810681366920471,0.0654514866828919,0.00208226366043043
0.661212121212121,0.00275754690170288,-0.0327443140983582,0.33019993944167997
0.661818181818182,-0.181658957004547,-0.0662745875358581,0.22002904100418
0.662424242424242,0.0123376250267029,-0.0998048609733581,0.06674779100418039
0.663030303030303,0.14406369924545298,-0.020769216442108197,0.0691428105354304
0.663636363636364,0.021917703151702897,0.0846116429328919,0.11464818162918
0.664242424242424,0.139273660182953,-0.056694509410858206,0.16254857225417998
0.664848484848485,0.024312722682952898,-0.164470388317108,-0.017077892589569602
0.665454545454545,0.00994260549545288,-0.20279070081710798,0.00447728319168043
0.666060606060606,-0.11699342966079701,-0.0423243922233582,-0.0889284785270696
0.666666666666667,0.00275754690170288,0.0510813694953918,0.12183324022293
0.667272727272727,0.057842996120452905,-0.102199880504608,0.20326390428542998
0.667878787878788,-0.0235876679420471,-0.109384939098358,-0.20149439649582002
0.668484848484848,-0.11699342966079701,-0.23871599378585798,0.0619577519416804
0.669090909090909,-0.133758566379547,0.0175510960578918,0.6607126347541801
0.66969696969697,-0.12178346872329701,0.158857248401642,0.13141331834793
0.67030303030303,0.0626330351829529,-0.15249529066085799,-0.32124537305832
0.670909090909091,0.12011350393295299,0.00318097887039185,0.51461644334793
0.671515151515152,0.0722131133079529,-0.023164235973358198,0.34217503709793
0.672121212121212,-0.14573366403579702,0.09658674058914189,0.23439915819167997
0.672727272727273,-0.11220339059829701,0.0271311741828918,0.36373021287918
0.673333333333333,0.12490354299545299,-0.253086110973358,0.0835129277229304
0.673939393939394,0.0314977812767029,-0.221950857067108,0.0260324589729304
0.674545454545455,0.0386828398704529,-0.200395681285858,-0.30687525587082
0.675151515151515,-0.193634054660797,-0.020769216442108197,0.0763278691291804
0.675757575757576,-0.0906482148170471,0.039106271839141796,0.28948460741043
0.676363636363636,0.20393918752670298,-0.18363054456710798,0.17931370897292997
0.676969696969697,0.0817931914329529,-0.200395681285858,0.21044896287918
0.677575757575758,-0.15531374216079702,-0.111779958629608,0.13380833787917998
0.678181818181818,-0.07388307809829711,-0.12854509534835798,0.19607884569168
0.678787878787879,0.00754758596420288,-0.08303972425460811,0.17452366991042997
0.679393939393939,-0.07148805856704711,-0.14770525159835798,0.48108616991042996
0.68,0.110533425807953,-0.0686696070671081,0.11704320116043
0.680606060606061,-0.0571179413795471,-0.0662745875358581,-0.0410280879020696
0.681212121212121,-0.00203249216079712,-0.056694509410858206,0.18889378709792998
0.681818181818182,0.0722131133079529,0.118141916370392,0.10027806444168
0.682424242424242,0.0123376250267029,-0.114174978160858,0.17212865037918
0.683030303030303,0.156038796901703,-0.111779958629608,0.13620335741043
0.683636363636364,0.112928445339203,-0.102199880504608,0.21763402147292998
0.684242424242424,0.22309934377670299,-0.245901052379608,0.0595627324104304
0.684848484848485,-0.0906482148170471,-0.26266618909835804,-0.11527369337082
0.685454545454545,0.0889782500267029,-0.162075368785858,0.00208226366043043
0.686060606060606,0.184779031276703,-0.241111013317108,0.23918919725417997
0.686666666666667,-0.0858581757545471,-0.130940114879608,0.19128880662918
0.687272727272727,0.108138406276703,0.0103660374641418,0.0332175175666804
0.687878787878788,-0.0451428437232971,-0.118965017223358,0.13141331834793
0.688484848484848,-0.203214132785797,0.00318097887039185,0.25595433397293
0.689090909090909,-0.00682253122329712,-0.102199880504608,0.29187962694168
0.68969696969697,0.12250852346420299,-0.14291521253585798,0.25595433397293
0.69030303030303,-0.148128683567047,-0.126150075817108,0.14578343553543
0.690909090909091,-0.033167746067047095,0.0654514866828919,0.12901829881667998
0.691515151515152,0.105743386745453,0.149277170276642,0.006872302722930429
0.692121212121212,0.0362878203392029,-0.224345876598358,0.06674779100418039
0.692727272727273,-0.0427478241920471,-0.41115740003585804,-0.0865334589958196
0.693333333333333,0.0793981719017029,-0.26266618909835804,-0.0937185175895696
0.693939393939394,0.0746081328392029,-0.0447194117546082,-0.17035914258957002
0.694545454545455,-0.25350954294204703,0.0319212132453918,0.0739328495979304
0.695151515151515,-0.11938844919204701,-0.20279070081710798,0.14578343553543
0.695757575757576,0.00515256643295288,-0.0638795680046082,-0.18712427930832
0.696363636363636,0.000362527370452881,-0.023164235973358198,0.18649876756668
0.696969696969697,-0.0858581757545471,-0.164470388317108,0.13620335741043
0.697575757575758,-0.07388307809829711,0.113351877307892,-0.0194729121208196
0.698181818181818,-0.10741335153579701,-0.145310232067108,0.18889378709792998
0.698787878787879,0.053052957057952904,-0.116569997692108,0.14578343553543
0.699393939393939,0.0817931914329529,0.115746896839142,0.5816769902229301
0.7,-0.176868917942047,-0.0423243922233582,0.0739328495979304
0.700606060606061,-0.10501833200454701,0.0438963109016418,0.57449193162918
0.701212121212121,0.132088601589203,0.10856183824539199,0.8403390995979301
0.701818181818182,0.132088601589203,-0.15249529066085799,-0.0266579707145696
0.702424242424242,-0.00442751169204712,-0.257876150035858,0.0547726933479304
0.703030303030303,-0.128968527317047,-0.049509450817108204,-0.0697683222770696
0.703636363636364,-0.0786731171607971,-0.339306814098358,0.24158421678543
0.704242424242424,-0.11220339059829701,-0.051904470348358205,0.0308224980354304
0.704848484848485,-0.239139425754547,0.036711252307891795,0.19607884569168
0.705454545454545,0.0171276640892029,-0.181235525035858,0.15057347459793
0.706060606060606,0.254234597682953,0.034316232776641795,0.0236374394416804
0.706666666666667,-0.0547229218482971,0.0462913304328918,-0.012287853527069601
0.707272727272727,-0.131363546848297,-0.145310232067108,0.13859837694167998
0.707878787878788,0.194359109401703,-0.104594900035858,0.11464818162918
0.708484848484848,0.053052957057952904,-0.0638795680046082,-0.0290529902458196
0.709090909090909,-0.14573366403579702,-0.296196462535858,0.0356125370979304
0.70969696969697,0.12490354299545299,0.0103660374641418,-0.0649782832145696
0.71030303030303,0.201544167995453,-0.0279542750358582,0.17212865037918
0.710909090909091,0.0602380156517029,0.134907053089142,0.23679417772293
0.711515151515152,0.156038796901703,-0.0327443140983582,0.21523900194168
0.712121212121212,0.0458678984642029,-0.135730153942108,0.19607884569168
0.712727272727273,0.0195226836204529,0.015156076526641799,0.11943822069168
0.713333333333333,-0.009217550754547119,-0.0423243922233582,0.19607884569168
0.713939393939394,0.12490354299545299,-0.19800066175460798,0.31103978319167996
0.714545454545455,0.146458718776703,-0.0447194117546082,0.00447728319168043
0.715151515151515,-0.0164026093482971,-0.0686696070671081,0.0906979863166804
0.715757575757576,0.026707742214202898,-0.121360036754608,0.30385472459793
0.716363636363636,0.00754758596420288,0.0846116429328919,0.33738499803543
0.716969696969697,-0.11699342966079701,-0.145310232067108,0.0787228886604304
0.717575757575758,-0.224769308567047,-0.296196462535858,0.11943822069168
0.718181818181818,0.0195226836204529,-0.21716081800460799,0.0691428105354304
0.718787878787879,0.000362527370452881,0.182807443714142,-0.0530031855583196
0.719393939393939,-0.06669801950454711,0.09179670152664189,0.24397923631667998
0.72,-0.021192648410797103,-0.049509450817108204,0.0188474003791804
0.720606060606061,0.050657937526702904,0.034316232776641795,0.16015355272293
0.721212121212121,-0.100228292942047,-0.08064470472335811,0.31343480272293
0.721818181818182,-0.179263937473297,-0.150100271129608,0.0404025761604304
0.722424242424242,-0.148128683567047,-0.159680349254608,0.11225316209793
0.723030303030303,-0.12417848825454701,-0.186025564098358,0.11943822069168
0.723636363636364,0.189569070339203,-0.279431325817108,-0.11048365430832
0.724242424242424,0.227889382839203,0.0678465062141419,0.0332175175666804
0.724848484848485,-0.10501833200454701,0.0247361546516418,0.17212865037918
0.725454545454545,-0.14094362497329702,-0.0590895289421082,0.0571677128791804
0.726060606060606,-0.0235876679420471,-0.229135915660858,0.16973363084793
0.726666666666667,-0.11459841012954701,-0.13812517347335798,0.14817845506667998
0.727272727272727,-0.167288839817047,-0.0758546656608581,0.25116429491042996
0.727878787878788,-0.179263937473297,-0.0375343531608582,0.25116429491042996
0.728484848484849,0.100953347682953,0.0271311741828918,0.15057347459793
0.729090909090909,0.175198953151703,-0.176445485973358,-0.14401392774582
0.72969696969697,0.0458678984642029,-0.19800066175460798,-0.26136988477707
0.73030303030303,-0.0499328827857971,-0.260271169567108,0.5409616581916801
0.730909090909091,-0.00682253122329712,0.15646222887039202,0.75172337694168
0.731515151515152,0.0793981719017029,0.041501291370391796,0.25834935350418
0.732121212121212,0.053052957057952904,-0.25548113050460797,0.0404025761604304
0.732727272727273,-0.181658957004547,-0.0758546656608581,0.10985814256668
0.733333333333333,-0.179263937473297,-0.19800066175460798,0.27750950975418
0.733939393939394,-0.12417848825454701,-0.135730153942108,0.14099339647293
0.734545454545455,-0.231954367160797,-0.0303492945671082,0.14338841600417998
0.735151515151515,-0.0307727265357971,-0.14770525159835798,0.26792943162918
0.735757575757576,0.105743386745453,-0.00879411878585815,0.10506810350418
0.736363636363636,0.136878640651703,0.0199461155891418,0.0451926152229304
0.736969696969697,0.139273660182953,0.0558714085578918,0.13141331834793
0.737575757575758,0.0338928008079529,-0.104594900035858,0.30864476366043
0.738181818181818,-0.0427478241920471,-0.0638795680046082,0.43797581834793
0.738787878787879,-0.0930432343482971,-0.0686696070671081,0.27271947069168
0.739393939393939,-0.162498800754547,-0.111779958629608,0.0787228886604304
0.74,-0.06909303903579711,-0.171655446910858,0.0404025761604304
0.740606060606061,0.0171276640892029,0.16604230699539202,-0.0338430293083196
0.741212121212121,-0.0523279023170471,0.218732736682892,0.0954880253791804
0.741818181818182,0.108138406276703,-0.226740896129608,0.25355931444168
0.742424242424242,0.0458678984642029,-0.08064470472335811,0.14578343553543
0.743030303030303,-0.0954382538795471,0.0127610569953918,0.15296849412917998
0.743636363636364,-0.0116125702857971,-0.176445485973358,0.13620335741043
0.744242424242424,0.11532346487045299,0.11095685777664199,-0.0218679316520696
0.744848484848485,0.0626330351829529,0.10616681871414199,-0.0146828730583196
0.745454545454545,-0.222374289035797,-0.229135915660858,0.0356125370979304
0.746060606060606,0.00515256643295288,0.14688215074539201,-0.0314480097770696
0.746666666666667,0.206334207057953,0.0726365452766419,-0.0530031855583196
0.747272727272727,-0.260694601535797,-0.0351393336296082,-0.0961135371208196
0.747878787878788,-0.0571179413795471,-0.121360036754608,-0.11287867383957
0.748484848484849,0.282974832057953,-0.18842058362960798,0.17931370897292997
0.749090909090909,-0.0403528046607971,-0.221950857067108,0.27511449022293
0.74969696969697,-0.07148805856704711,-0.25548113050460797,0.0763278691291804
0.75030303030303,-0.061907980442047095,-0.049509450817108204,0.24637425584793
0.750909090909091,-0.033167746067047095,-0.166865407848358,0.17452366991042997
0.751515151515151,-0.06430299997329711,0.10377179918289199,-0.0937185175895696
0.752121212121212,-0.0307727265357971,-0.126150075817108,0.0787228886604304
0.752727272727273,-0.236744406223297,-0.13812517347335798,0.14338841600417998
0.753333333333333,-0.018797628879547102,-0.0399293726921082,0.22481908006668
0.753939393939394,-0.018797628879547102,-0.245901052379608,0.20326390428542998
0.754545454545455,0.00515256643295288,-0.106989919567108,0.0571677128791804
0.755151515151515,0.0458678984642029,-0.0399293726921082,0.27032445116042997
0.755757575757576,-0.131363546848297,-0.106989919567108,0.20326390428542998
0.756363636363636,0.000362527370452881,-0.049509450817108204,0.11225316209793
0.756969696969697,0.0698180937767029,0.000785959339141848,-0.0290529902458196
0.757575757575758,0.239864480495453,-0.171655446910858,-0.00031275587081957103
0.758181818181818,-0.157708761692047,-0.0423243922233582,-0.28771509962082004
0.758787878787879,0.0913732695579529,-0.140520193004608,-0.00270777540206957
0.759393939393939,0.227889382839203,-0.0950148219108581,0.6032321660041801
0.76,-0.0140075898170471,0.0103660374641418,0.0547726933479304
0.760606060606061,-0.009217550754547119,-0.15249529066085799,0.22481908006668
0.761212121212121,-0.172078878879547,-0.279431325817108,0.6176022831916801
0.761818181818182,-0.061907980442047095,0.0199461155891418,0.18170872850418
0.762424242424242,-0.033167746067047095,-0.0590895289421082,0.18649876756668
0.763030303030303,-0.10980837106704701,-0.162075368785858,0.21763402147292998
0.763636363636364,-0.035562765598297096,-0.169260427379608,-0.12006373243332
0.764242424242424,0.00515256643295288,-0.18842058362960798,0.0978830449104304
0.764848484848485,-0.0906482148170471,0.16125226793289202,0.22002904100418
0.765454545454545,-0.172078878879547,0.039106271839141796,0.22721409959792999
0.766060606060606,-0.0954382538795471,-0.0590895289421082,0.10985814256668
0.766666666666667,-0.20560915231704702,-0.08303972425460811,0.006872302722930429
0.767272727272727,-0.0834631562232971,0.0247361546516418,0.14578343553543
0.767878787878788,0.199149148464203,-0.08303972425460811,0.21044896287918
0.768484848484848,0.0291027617454529,-0.0662745875358581,0.27750950975418
0.769090909090909,-0.0954382538795471,-0.27224626722335804,0.10746312303543
0.76969696969697,-0.11459841012954701,0.0271311741828918,-0.0362380488395696
0.77030303030303,-0.100228292942047,0.14209211168289201,0.15296849412917998
0.770909090909091,0.00515256643295288,-0.0375343531608582,0.0691428105354304
0.771515151515151,0.12490354299545299,0.015156076526641799,0.18170872850418
0.772121212121212,-0.0259826874732971,-0.0998048609733581,0.19607884569168
0.772727272727273,0.12250852346420299,-0.0662745875358581,0.00447728319168043
0.773333333333333,0.12490354299545299,-0.0782496851921081,0.0691428105354304
0.773939393939394,0.134483621120453,-0.00160906019210815,0.0811179081916804
0.774545454545455,0.0123376250267029,-0.190815603160858,0.26313939256668
0.775151515151515,-0.0283777070045471,0.154067209339142,0.12901829881667998
0.775757575757576,-0.0786731171607971,-0.08064470472335811,0.00447728319168043
0.776363636363636,0.0698180937767029,-0.19321062269210798,0.18170872850418
0.776969696969697,0.127298562526703,-0.0375343531608582,0.16494359178543
0.777575757575758,0.110533425807953,-0.054299489879608205,0.0619577519416804
0.778181818181818,0.237469460964203,-0.0303492945671082,0.13141331834793
0.778787878787879,0.151248757839203,-0.0686696070671081,0.22960911912918
0.779393939393939,0.196754128932953,-0.145310232067108,0.18410374803542998
0.78,-0.198424093723297,-0.13812517347335798,0.22721409959792999
0.780606060606061,-0.100228292942047,0.197177560901642,0.15536351366043
0.781212121212121,-0.167288839817047,0.036711252307891795,0.16015355272293
0.781818181818182,-0.167288839817047,-0.013584157848358201,0.17931370897292997
0.782424242424242,-0.0427478241920471,0.08940168199539189,0.15296849412917998
0.783030303030303,-0.184053976535797,-0.0710646265983581,0.21523900194168
0.783636363636364,0.0147326445579529,-0.051904470348358205,0.16015355272293
0.784242424242424,0.0961633086204529,-0.08782976331710811,0.25355931444168
0.784848484848485,0.0961633086204529,-0.130940114879608,0.12422825975418
0.785454545454545,0.175198953151703,-0.054299489879608205,-0.17035914258957002
0.786060606060606,0.0434728789329529,-0.00400407972335815,0.19847386522292998
0.786666666666667,0.0434728789329529,-0.0638795680046082,0.26553441209793
0.787272727272727,-0.186448996067047,-0.104594900035858,0.27750950975418
0.787878787878788,0.105743386745453,-0.08543474378585811,0.20086888475418
0.788484848484848,0.136878640651703,-0.109384939098358,0.13859837694167998
0.789090909090909,0.11771848440170299,0.0319212132453918,0.14578343553543
0.78969696969697,0.0147326445579529,0.0726365452766419,-0.17514918165207002
0.79030303030303,0.175198953151703,-0.00160906019210815,-0.19430933790207
0.790909090909091,0.100953347682953,-0.121360036754608,0.48587620897293
0.791515151515152,-0.179263937473297,-0.0614845484733582,0.36373021287918
0.792121212121212,0.20393918752670298,0.134907053089142,-0.00510279493331957
0.792727272727273,-0.0571179413795471,0.0558714085578918,0.22242406053542998
0.793333333333333,-0.0499328827857971,-0.049509450817108204,0.24876927537917998
0.793939393939394,-0.10980837106704701,-0.0327443140983582,0.18410374803542998
0.794545454545455,-0.0786731171607971,-0.00879411878585815,0.22721409959792999
0.795151515151515,0.0362878203392029,-0.0471144312858582,0.23200413866043
0.795757575757576,0.105743386745453,-0.0998048609733581,0.15057347459793
0.796363636363636,0.103348367214203,-0.0758546656608581,0.18410374803542998
0.796969696969697,0.103348367214203,-0.116569997692108,0.13859837694167998
0.797575757575758,0.0123376250267029,-0.09022478284835811,0.0906979863166804
0.798181818181818,0.0314977812767029,-0.0399293726921082,0.0212424199104304
0.798787878787879,0.168013894557953,-0.106989919567108,0.0451926152229304
0.799393939393939,0.0961633086204529,-0.0279542750358582,0.006872302722930429
0.8,0.050657937526702904,-0.150100271129608,0.15775853319167998
0.800606060606061,-0.13615358591079701,-0.15728532972335799,0.00926732225418043
0.801212121212121,0.00275754690170288,-0.0159791773796082,-0.0577932246208196
0.801818181818182,-0.11220339059829701,-0.020769216442108197,0.10027806444168
0.802424242424242,0.0482629179954529,0.0271311741828918,-0.0074978144645695705
0.803030303030303,-0.186448996067047,-0.0399293726921082,0.00926732225418043
0.803636363636364,-0.198424093723297,-0.051904470348358205,0.10985814256668
0.804242424242424,-0.018797628879547102,0.0247361546516418,0.16494359178543
0.804848484848485,-0.131363546848297,-0.08303972425460811,0.17212865037918
0.805454545454545,0.057842996120452905,-0.14770525159835798,0.11225316209793
0.806060606060606,-0.0810681366920471,0.0678465062141419,-0.18472925977707003
0.806666666666667,0.0937682890892029,-0.08782976331710811,-0.17514918165207002
0.807272727272727,-0.0834631562232971,-0.0159791773796082,0.27990452928542997
0.807878787878788,-0.0427478241920471,0.0462913304328918,0.19607884569168
0.808484848484848,-0.035562765598297096,-0.0974098414421081,0.29906468553543
0.809090909090909,-0.00682253122329712,0.113351877307892,0.16015355272293
0.80969696969697,0.0889782500267029,0.0822166234016419,0.0404025761604304
0.81030303030303,-0.13615358591079701,-0.020769216442108197,0.19128880662918
0.810909090909091,0.11771848440170299,-0.0638795680046082,0.0763278691291804
0.811515151515152,-0.018797628879547102,-0.0111891383171082,0.28948460741043
0.812121212121212,-0.0403528046607971,0.08940168199539189,0.33738499803543
0.812727272727273,0.156038796901703,-0.102199880504608,0.0356125370979304
0.813333333333333,-0.0571179413795471,-0.0614845484733582,0.15057347459793
0.813939393939394,0.00754758596420288,-0.20279070081710798,-0.13203883008957001
0.814545454545455,0.000362527370452881,-0.118965017223358,0.10506810350418
0.815151515151515,0.0171276640892029,-0.200395681285858,0.14817845506667998
0.815757575757576,0.0482629179954529,-0.257876150035858,-0.10808863477707
0.816363636363636,-0.15531374216079702,0.120536935901642,0.0547726933479304
0.816969696969697,-0.10741335153579701,-0.226740896129608,0.10267308397293
0.817575757575758,0.053052957057952904,-0.0351393336296082,0.18170872850418
0.818181818181818,0.024312722682952898,-0.121360036754608,0.19368382616042998
0.818787878787879,0.055447976589202905,-0.176445485973358,0.20805394334792998
0.819393939393939,-0.126573507785797,-0.08303972425460811,-0.27334498243332
0.82,0.12250852346420299,-0.020769216442108197,-0.36196070508957
0.820606060606061,0.342850320339203,0.0846116429328919,0.50982640428543
0.821212121212121,0.0458678984642029,0.034316232776641795,0.7397482792854301
0.821818181818182,-0.07148805856704711,0.0582664280891418,-0.00270777540206957
0.822424242424242,0.201544167995453,-0.09261980237960811,0.0164523808479304
0.823030303030303,-0.0547229218482971,0.09898176012039189,0.17212865037918
0.823636363636364,-0.188844015598297,0.00318097887039185,0.25834935350418
0.824242424242424,-0.0834631562232971,-0.260271169567108,0.16733861131667999
0.824848484848485,-0.018797628879547102,-0.104594900035858,0.0380075566291804
0.825454545454545,-0.164893820285797,0.0726365452766419,0.11225316209793
0.826060606060606,-0.009217550754547119,-0.241111013317108,-0.0290529902458196
0.826666666666667,0.237469460964203,0.0055759984016418495,0.12662327928543
0.827272727272727,-0.021192648410797103,-0.00160906019210815,0.12422825975418
0.827878787878788,0.156038796901703,-0.08782976331710811,0.0787228886604304
0.828484848484848,0.103348367214203,0.118141916370392,0.23200413866043
0.829090909090909,0.057842996120452905,0.000785959339141848,0.0930930058479304
0.82969696969697,-0.13615358591079701,-0.0662745875358581,0.0859079472541804
0.83030303030303,-0.0499328827857971,-0.0998048609733581,-0.009892833995819571
0.830909090909091,0.0961633086204529,-0.0327443140983582,-0.0338430293083196
0.831515151515152,0.0434728789329529,0.17083234605789202,-0.17754420118332
0.832121212121212,0.0793981719017029,-0.0590895289421082,0.24876927537917998
0.832727272727273,0.156038796901703,0.00797101793289185,0.16254857225417998
0.833333333333333,-0.06669801950454711,-0.12854509534835798,-0.19670435743332002
0.833939393939394,-0.018797628879547102,-0.104594900035858,-0.0194729121208196
0.834545454545455,0.0602380156517029,0.130117014026642,0.0954880253791804
0.835151515151515,0.0410778594017029,-0.164470388317108,0.028427478504180398
0.835757575757576,0.0195226836204529,-0.20279070081710798,0.0739328495979304
0.836363636363636,-0.033167746067047095,-0.118965017223358,0.17691868944168
0.836969696969697,0.0362878203392029,-0.130940114879608,0.11943822069168
0.837575757575758,-0.033167746067047095,-0.0447194117546082,0.17212865037918
0.838181818181818,0.108138406276703,0.0558714085578918,0.17931370897292997
0.838787878787879,0.0793981719017029,0.0558714085578918,0.16254857225417998
0.839393939393939,-0.11938844919204701,-0.0686696070671081,-0.0506081660270696
0.84,-0.11938844919204701,-0.130940114879608,0.29666966600418
0.840606060606061,-0.0978332734107971,0.0702415257453919,0.20805394334792998
0.841212121212121,-0.239139425754547,0.113351877307892,0.0547726933479304
0.841818181818182,0.0410778594017029,-0.154890310192108,0.0212424199104304
0.842424242424242,0.055447976589202905,-0.006399099254608151,-0.0673733027458196
0.843030303030303,0.00994260549545288,0.0630564671516418,0.24397923631667998
0.843636363636364,-0.037957785129547096,-0.176445485973358,0.24397923631667998
0.844242424242424,-0.0954382538795471,0.0534763890266418,-0.0506081660270696
0.844848484848485,-0.12417848825454701,0.18041242418289202,0.0835129277229304
0.845454545454545,-0.11699342966079701,0.10616681871414199,0.12662327928543
0.846060606060606,0.0602380156517029,-0.126150075817108,0.14099339647293
0.846666666666667,0.00754758596420288,-0.08303972425460811,0.25595433397293
0.847272727272727,-0.00203249216079712,-0.056694509410858206,0.20086888475418
0.847878787878788,-0.222374289035797,-0.15249529066085799,0.16973363084793
0.848484848484849,-0.198424093723297,0.0271311741828918,-0.0673733027458196
0.849090909090909,-0.0427478241920471,-0.0255592555046082,0.62478734178543
0.84969696969697,0.0338928008079529,-0.09261980237960811,0.22242406053542998
0.85030303030303,-0.009217550754547119,0.08700666246414189,-0.36196070508957
0.850909090909091,-0.0259826874732971,0.00797101793289185,0.33019993944167997
0.851515151515152,0.0674230742454529,-0.176445485973358,0.23200413866043
0.852121212121212,-0.188844015598297,-0.049509450817108204,0.0835129277229304
0.852727272727273,-0.219979269504547,0.10377179918289199,0.0260324589729304
0.853333333333333,-0.061907980442047095,-0.0686696070671081,0.0547726933479304
0.853939393939394,0.0913732695579529,-0.29380144300460803,0.16015355272293
0.854545454545454,-0.184053976535797,-0.219555837535858,0.0188474003791804
0.855151515151515,-0.06430299997329711,-0.257876150035858,0.18410374803542998
0.855757575757576,-0.0906482148170471,-0.08543474378585811,-0.0074978144645695705
0.856363636363636,-0.0954382538795471,0.0822166234016419,-0.0817434199333196
0.856969696969697,0.057842996120452905,-0.08782976331710811,0.0140573613166804
0.857575757575758,-0.033167746067047095,0.118141916370392,0.16254857225417998
0.858181818181818,0.0746081328392029,0.0678465062141419,0.0739328495979304
0.858787878787879,0.000362527370452881,-0.34170183362960804,0.10027806444168
0.859393939393939,0.0722131133079529,-0.209975759410858,0.29427464647293
0.86,-0.06909303903579711,-0.08303972425460811,-0.15359400587082
0.860606060606061,-0.131363546848297,-0.0327443140983582,-0.0506081660270696
0.861212121212121,-0.06430299997329711,-0.020769216442108197,0.11704320116043
0.861818181818182,-0.00682253122329712,-0.209975759410858,0.0835129277229304
0.862424242424242,-0.148128683567047,-0.00400407972335815,-0.0841384394645696
0.863030303030303,0.0841882109642029,-0.0303492945671082,0.18649876756668
0.863636363636364,0.141668679714203,-0.102199880504608,0.36133519334792996
0.864242424242424,-0.162498800754547,-0.15728532972335799,0.20805394334792998
0.864848484848485,0.0674230742454529,-0.118965017223358,0.10985814256668
0.865454545454545,0.026707742214202898,-0.209975759410858,0.10985814256668
0.866060606060606,-0.15052370309829702,-0.126150075817108,0.0883029667854304
0.866666666666667,-0.0762780976295471,0.0750315648078919,0.12422825975418
0.867272727272727,0.0889782500267029,0.17562238512039202,0.0547726933479304
0.867878787878788,0.297344949245453,0.0510813694953918,0.23679417772293
0.868484848484849,0.053052957057952904,-0.135730153942108,0.33978001756667997
0.869090909090909,0.0362878203392029,-0.0638795680046082,0.14817845506667998
0.86969696969697,-0.203214132785797,-0.08782976331710811,0.0954880253791804
0.87030303030303,-0.358890402317047,-0.0974098414421081,0.028427478504180398
0.870909090909091,-0.037957785129547096,-0.056694509410858206,0.13141331834793
0.871515151515151,-0.00682253122329712,0.08700666246414189,0.12901829881667998
0.872121212121212,0.0650280547142029,-0.056694509410858206,0.24397923631667998
0.872727272727273,-0.0954382538795471,-0.049509450817108204,0.13141331834793
0.873333333333333,-0.12417848825454701,-0.111779958629608,-0.00510279493331957
0.873939393939394,0.110533425807953,-0.0471144312858582,0.13141331834793
0.874545454545455,-0.0475378632545471,0.000785959339141848,0.27511449022293
0.875151515151515,-0.15531374216079702,-0.145310232067108,0.22481908006668
0.875757575757576,-0.0834631562232971,-0.09261980237960811,0.37091527147292996
0.876363636363636,-0.018797628879547102,0.10856183824539199,0.22481908006668
0.876969696969697,0.0626330351829529,-0.0590895289421082,0.0427975956916804
0.877575757575758,-0.0499328827857971,-0.13812517347335798,0.15536351366043
0.878181818181818,-0.06430299997329711,0.10616681871414199,0.27271947069168
0.878787878787879,-0.0882531952857971,-0.0950148219108581,0.15775853319167998
0.879393939393939,-0.14094362497329702,-0.116569997692108,-0.13682886915207002
0.88,-0.07148805856704711,0.022341135120391802,-0.0937185175895696
0.880606060606061,-0.0834631562232971,0.324113596057892,-0.25897486524582003
0.881212121212121,-0.0858581757545471,0.10856183824539199,0.23679417772293
0.881818181818182,0.00515256643295288,-0.162075368785858,0.35175511522293
0.882424242424242,-0.11459841012954701,-0.171655446910858,-0.11048365430832
0.883030303030303,0.0817931914329529,0.0486863499641418,-0.12485377149582
0.883636363636364,0.0626330351829529,0.115746896839142,0.14338841600417998
0.884242424242424,-0.198424093723297,-0.0758546656608581,0.22002904100418
0.884848484848485,-0.157708761692047,-0.0590895289421082,-0.009892833995819571
0.885454545454545,-0.25350954294204703,-0.13812517347335798,0.26074437303542997
0.886060606060606,-0.11938844919204701,-0.209975759410858,0.25595433397293
0.886666666666667,-0.0523279023170471,-0.09261980237960811,-0.20388941602707
0.887272727272727,0.0722131133079529,-0.195605642223358,-0.0601882441520696
0.887878787878788,-0.0235876679420471,-0.023164235973358198,0.16973363084793
0.888484848484848,-0.208004171848297,0.0750315648078919,0.0811179081916804
0.889090909090909,0.0195226836204529,-0.17405046644210798,0.22002904100418
0.88969696969697,0.136878640651703,-0.104594900035858,-0.00031275587081957103
0.89030303030303,-0.0786731171607971,-0.19800066175460798,0.00208226366043043
0.890909090909091,-0.035562765598297096,-0.260271169567108,0.20326390428542998
0.891515151515151,0.0147326445579529,-0.114174978160858,0.12422825975418
0.892121212121212,0.0386828398704529,0.000785959339141848,0.14338841600417998
0.892727272727273,0.136878640651703,-0.0447194117546082,0.16494359178543
0.893333333333333,-0.033167746067047095,-0.18363054456710798,0.18410374803542998
0.893939393939394,-0.14573366403579702,-0.0662745875358581,-0.0530031855583196
0.894545454545455,0.024312722682952898,-0.0782496851921081,0.0859079472541804
0.895151515151515,0.057842996120452905,-0.104594900035858,0.25116429491042996
0.895757575757576,-0.0116125702857971,0.0271311741828918,-0.0985085566520696
0.896363636363636,-0.217584249973297,-0.0399293726921082,0.0475876347541804
0.896969696969697,-0.021192648410797103,-0.130940114879608,-0.00510279493331957
0.897575757575758,0.187174050807953,-0.09022478284835811,0.10027806444168
0.898181818181818,0.0123376250267029,0.199572580432892,0.0499826542854304
0.898787878787879,-0.0164026093482971,0.036711252307891795,-0.0530031855583196
0.899393939393939,0.151248757839203,0.0462913304328918,0.17452366991042997
0.9,0.141668679714203,0.0175510960578918,0.16733861131667999
0.900606060606061,-0.181658957004547,0.00318097887039185,0.15057347459793
0.901212121212121,0.151248757839203,-0.09022478284835811,-0.0649782832145696
0.901818181818182,0.11771848440170299,0.041501291370391796,0.0595627324104304
0.902424242424242,-0.06430299997329711,0.269028146839142,-0.0937185175895696
0.903030303030303,-0.009217550754547119,0.0438963109016418,0.0212424199104304
0.903636363636364,0.0195226836204529,-0.176445485973358,0.28229954881668
0.904242424242424,0.12490354299545299,0.0199461155891418,-0.0961135371208196
0.904848484848485,0.100953347682953,0.158857248401642,0.0475876347541804
0.905454545454545,-0.179263937473297,-0.241111013317108,-0.0074978144645695705
0.906060606060606,-0.308594992160797,0.0534763890266418,-0.33082545118332
0.906666666666667,-0.164893820285797,0.000785959339141848,0.16254857225417998
0.907272727272727,-0.0235876679420471,-0.17884050550460798,0.22242406053542998
0.907878787878788,0.053052957057952904,-0.13812517347335798,-0.0458181269645696
0.908484848484848,-0.06669801950454711,-0.0974098414421081,0.14817845506667998
0.909090909090909,0.11532346487045299,-0.0111891383171082,-0.0721633418083196
0.90969696969697,-0.018797628879547102,0.08940168199539189,-0.41944117383957
0.91030303030303,-0.00442751169204712,0.022341135120391802,-0.27334498243332
0.910909090909091,0.12250852346420299,0.0103660374641418,-0.24939478712082
0.911515151515152,-0.033167746067047095,0.16604230699539202,0.18410374803542998
0.912121212121212,-0.018797628879547102,-0.224345876598358,0.30624974412918
0.912727272727273,0.00515256643295288,-0.049509450817108204,-0.00031275587081957103
0.913333333333333,-0.10262331247329701,-0.0423243922233582,0.15057347459793
0.913939393939394,-0.279854757785797,-0.0710646265983581,-0.0434231074333196
0.914545454545455,0.182384011745453,0.0486863499641418,0.11225316209793
0.915151515151515,-0.00682253122329712,-0.0423243922233582,0.19847386522292998
0.915757575757576,-0.231954367160797,0.120536935901642,0.00447728319168043
0.916363636363636,-0.06669801950454711,-0.00160906019210815,0.19128880662918
0.916969696969697,-0.0307727265357971,-0.154890310192108,0.13141331834793
0.917575757575758,0.0123376250267029,0.0295261937141418,-0.0530031855583196
0.918181818181818,-0.10741335153579701,-0.118965017223358,-0.27574000196457
0.918787878787879,-0.208004171848297,-0.23392595472335798,0.00926732225418043
0.919393939393939,-0.0834631562232971,-0.0758546656608581,0.13141331834793
0.92,-0.06669801950454711,-0.049509450817108204,-0.0745583613395696
0.920606060606061,-0.11220339059829701,0.125326974964142,0.0763278691291804
0.921212121212121,-0.184053976535797,-0.0159791773796082,-0.00270777540206957
0.921818181818182,-0.157708761692047,-0.0662745875358581,-0.017077892589569602
0.922424242424242,0.110533425807953,-0.0782496851921081,0.21763402147292998
0.923030303030303,-0.07148805856704711,-0.0590895289421082,0.21763402147292998
0.923636363636364,-0.14094362497329702,-0.0375343531608582,0.13859837694167998
0.924242424242424,-0.10501833200454701,-0.21237077894210799,0.0451926152229304
0.924848484848485,0.0985583281517029,-0.12854509534835798,0.0763278691291804
0.925454545454545,0.0841882109642029,0.00797101793289185,0.20086888475418
0.926060606060606,0.0722131133079529,-0.0159791773796082,0.19368382616042998
0.926666666666667,0.105743386745453,-0.0447194117546082,0.10985814256668
0.927272727272727,-0.12417848825454701,-0.116569997692108,0.14578343553543
0.927878787878788,-0.128968527317047,-0.0998048609733581,-0.00510279493331957
0.928484848484848,-0.10262331247329701,-0.0303492945671082,0.0883029667854304
0.929090909090909,0.108138406276703,-0.135730153942108,0.13859837694167998
0.92969696969697,0.112928445339203,-0.0183741969108582,0.0356125370979304
0.93030303030303,-0.07388307809829711,-0.054299489879608205,0.0475876347541804
0.930909090909091,-0.0834631562232971,-0.121360036754608,-0.24220972852707
0.931515151515152,-0.212794210910797,-0.08782976331710811,0.15775853319167998
0.932121212121212,-0.06909303903579711,0.139697092151642,0.13380833787917998
0.932727272727273,0.187174050807953,0.11095685777664199,-0.13203883008957001
0.933333333333333,0.0147326445579529,0.0750315648078919,0.18410374803542998
0.933939393939394,-0.00442751169204712,0.0654514866828919,0.10267308397293
0.934545454545455,0.165618875026703,-0.190815603160858,0.11464818162918
0.935151515151515,-0.12178346872329701,-0.0614845484733582,0.0739328495979304
0.935757575757576,0.12011350393295299,-0.08064470472335811,-0.00270777540206957
0.936363636363636,0.333270242214203,-0.09022478284835811,0.28708958787918
0.936969696969697,-0.0283777070045471,-0.162075368785858,0.0116623417854304
0.937575757575758,-0.021192648410797103,-0.056694509410858206,-0.12964381055832
0.938181818181818,-0.0140075898170471,-0.12854509534835798,0.0571677128791804
0.938787878787879,-0.100228292942047,-0.056694509410858206,0.06674779100418039
0.939393939393939,-0.018797628879547102,-0.130940114879608,-0.017077892589569602
0.94,0.00515256643295288,-0.18363054456710798,0.13141331834793
0.940606060606061,-0.0906482148170471,0.0127610569953918,0.10746312303543
0.941212121212121,0.168013894557953,0.0271311741828918,0.0883029667854304
0.941818181818182,-0.100228292942047,0.163647287464142,0.31822484178543
0.942424242424242,-0.212794210910797,-0.00879411878585815,0.16254857225417998
0.943030303030303,-0.169683859348297,-0.0375343531608582,0.11943822069168
0.943636363636364,-0.131363546848297,-0.118965017223358,0.20565892381668
0.944242424242424,-0.0307727265357971,-0.0183741969108582,0.22721409959792999
0.944848484848485,0.024312722682952898,0.0486863499641418,0.22242406053542998
0.945454545454545,0.0434728789329529,-0.08782976331710811,0.21284398241042998
0.946060606060606,-0.26308962106704703,-0.106989919567108,0.16254857225417998
0.946666666666667,-0.11220339059829701,0.00797101793289185,0.10746312303543
0.947272727272727,0.0913732695579529,0.0199461155891418,0.10985814256668
0.947878787878788,-0.0810681366920471,-0.0327443140983582,0.0619577519416804
0.948484848484848,-0.0547229218482971,-0.020769216442108197,0.0380075566291804
0.949090909090909,0.156038796901703,-0.006399099254608151,0.22481908006668
0.94969696969697,0.00275754690170288,-0.0950148219108581,0.36852025194168
0.95030303030303,-0.06430299997329711,-0.104594900035858,0.0906979863166804
0.950909090909091,-0.009217550754547119,-0.200395681285858,0.0643527714729304
0.951515151515152,-0.0140075898170471,-0.190815603160858,0.00447728319168043
0.952121212121212,0.0817931914329529,0.0846116429328919,-0.0889284785270696
0.952727272727273,0.0291027617454529,0.000785959339141848,0.14338841600417998
0.953333333333333,-0.14094362497329702,-0.0662745875358581,0.0188474003791804
0.953939393939394,-0.0930432343482971,-0.257876150035858,0.24876927537917998
0.954545454545455,0.000362527370452881,-0.18363054456710798,0.0356125370979304
