Time (s),Accel X (m/s^2),Accel Y (m/s^2),Accel Z (m/s^2)
0.0,0.0793669243812561,-0.0765572670936585,-1.5028730718612702
0.000605693519079346,0.14163743219375602,-0.0334469155311584,-1.26576613826752
0.00121138703815869,-0.037989032649993905,-0.222653458499908,-1.4046772710800202
0.00181708055723804,0.18714280328750602,-0.20588832178115798,-1.3783320562362702
0.00242277407631738,0.218278057193756,-0.045422013187408405,-1.3400117437362702
0.00302846759539673,0.19672288141250602,0.0384036704063416,-1.44539260311127
0.00363416111447607,0.290128643131256,-0.256183731937408,-1.1484101812362701
0.00423985463355542,0.203907940006256,-0.136432755374908,-1.47413283748627
0.00484554815263477,0.352399150943756,0.0192435141563416,-1.47892287654877
0.00545124167171411,0.19672288141250602,-0.0190767983436584,-1.44060256404877
0.00605693519079346,0.120082256412506,-0.129247696781158,-1.59148879451752
0.0066626287098728,0.0458366509437561,-0.179543106937408,-1.35438186092377
0.00726832222895215,0.0626017876625061,0.00247837743759155,-1.3232466070175202
0.0078740157480315,0.290128643131256,-0.213073380374908,-1.35677688045502
0.00847970926711084,0.0458366509437561,-0.134037735843658,-1.3783320562362702
0.00908540278619019,0.0410466118812561,-0.0741622475624085,-1.7591401617050202
0.00969109630526953,0.22546311578750602,-0.251393692874908,-1.5795136968612702
0.0102967898243489,0.19193284235000602,-0.0741622475624085,-1.05739943904877
0.0109024833434282,0.21588303766250602,0.134204451656342,-0.9615986577987671
0.0115081768625076,0.13205735406875602,0.050378768062591596,-1.45497268123627
0.0121138703815869,0.0865519829750061,-0.11727259912490799,-1.5028730718612702
0.0127195639006663,0.15121751031875602,-0.11727259912490799,-1.33522170467377
0.0133252574197456,0.09373704156875609,-0.165172989749908,-1.4262324468612702
0.013930950938825,0.108107158756256,-0.34958949365615805,-1.1268550054550202
0.0145366444579043,-0.0715193060874939,-0.0861373452186585,-1.38551711483002
0.0151423379769836,0.050626690006256095,-0.0023116616249084497,-1.43581252498627
0.015748031496063,0.23025315485000603,-0.184333145999908,-1.50526809139252
0.0163537250151423,0.223068096256256,-0.174753067874908,-1.61543898983002
0.0169594185342217,0.0697868462562561,-0.0334469155311584,-1.33761672420502
0.017565112053301,0.0841569634437561,0.11983433446884201,-1.15559523983002
0.0181708055723804,-0.0523591498374939,0.0623538657188416,-1.29211135311127
0.0187764990914597,-0.0523591498374939,-0.0573971108436584,-1.3112715093612701
0.0193821926105391,0.153612529850006,-0.136432755374908,-1.47652785701752
0.0199878861296184,0.0266764946937561,-0.105297501468658,-1.4214424077987702
0.0205935796486978,0.134452373600006,-0.047817032718658406,-1.23463088436127
0.0211992731677771,-0.00924879827499386,-0.0621871499061584,-1.27055617733002
0.0218049666868564,0.213488018131256,-0.213073380374908,-1.34719680233002
0.0224106602059358,0.417064678287506,-0.29210902490615803,-1.4525776617050201
0.0230163537250151,0.18714280328750602,-0.0550020913124084,-1.41425734920502
0.0236220472440945,0.18235276422500601,0.155759627437592,-1.28253127498627
0.0242277407631738,0.323658916568756,-0.0118917397499084,-1.29211135311127
0.0248334342822532,0.0123063775062561,-0.169963028812408,-1.39749221248627
0.0254391278013325,0.0865519829750061,-0.153197892093658,-1.33761672420502
0.0260448213204119,0.0913420220375061,-0.11727259912490799,-1.36875197811127
0.0266505148394912,0.100922100162506,0.15336460790634202,-1.3711469976425201
0.0272562083585706,0.108107158756256,0.103069197750092,-1.2681611577987701
0.0278619018776499,-0.08109938421249391,-0.25857875146865805,-1.46215773983002
0.0284675953967293,0.263783428287506,-0.306479142093658,-1.4980830327987702
0.0290732889158086,0.520050518131256,0.100674178218842,-1.5292182867050201
0.0296789824348879,0.15121751031875602,-0.05021205224990841,-1.6441792242050202
0.0302846759539673,0.28773362360000604,-0.107692520999908,-1.21547072811127
0.0308903694730466,0.297313701725006,0.031218611812591602,-1.23702590389252
0.031496062992126,0.0626017876625061,-0.220258438968658,-1.33522170467377
0.0321017565112053,0.417064678287506,-0.20588832178115798,-1.31366652889252
0.0327074500302847,0.244623272037506,-0.193913224124908,-1.39749221248627
0.033313143549364,0.0434416314125061,-0.191518204593658,-1.66812941951752
0.0339188370684434,0.249413311100006,-0.306479142093658,-1.6058589117050202
0.0345245305875227,0.199117900943756,-0.31845423974990805,-1.3998872320175202
0.0351302241066021,0.0841569634437561,-0.105297501468658,-1.3615669195175202
0.0357359176256814,-0.00924879827499386,-0.045422013187408405,-1.1603852788925202
0.0363416111447607,0.134452373600006,-0.0645821694374085,-1.3184565679550202
0.0369473046638401,0.333238994693756,-0.0190767983436584,-1.4477876226425201
0.0375529981829194,0.0482316704750061,-0.21067836084365799,-1.2585810796737702
0.0381586917019988,0.24222825250625601,-0.0573971108436584,-1.19631057186127
0.0387643852210781,0.316473857975006,-0.0023116616249084497,-1.29450637264252
0.0393700787401575,0.120082256412506,-0.0166817788124084,-1.52203322811127
0.0399757722592368,0.0147013970375061,-0.0957174233436585,-1.0406343023300202
0.0405814657783162,0.359584209537506,-0.131642716312408,-1.1316450445175201
0.0411871592973955,0.203907940006256,-0.11727259912490799,-1.23942092342377
0.0417928528164749,0.127267315006256,-0.105297501468658,-1.17475539608002
0.0423985463355542,0.249413311100006,0.167734725093842,-1.22744582576752
0.0430042398546336,0.144032451725006,-0.143617813968658,-1.23942092342377
0.0436099333737129,0.21588303766250602,-0.248998673343658,-1.35677688045502
0.0442156268927922,0.0865519829750061,-0.153197892093658,-1.35438186092377
0.0448213204118716,0.00272629938125614,0.0886990805625915,-1.29929641170502
0.0454270139309509,-0.021223895931243898,-0.00949672021865845,-1.23702590389252
0.0460327074500303,0.0745768853187561,-0.148407853031158,-1.3232466070175202
0.0466384009691096,0.100922100162506,-0.21067836084365799,-1.29929641170502
0.047244094488189,0.115292217350006,-0.213073380374908,-1.3400117437362702
0.0478497880072683,0.175167705631256,-0.0645821694374085,-1.3998872320175202
0.0484554815263477,0.14642747125625602,-0.040631974124908404,-1.3927021734237701
0.049061175045427,0.199117900943756,-0.0214718178749084,-1.2513960210800201
0.0496668685645064,0.244623272037506,-0.227443497562408,-1.3927021734237701
0.0502725620835857,-0.037989032649993905,-0.191518204593658,-1.4214424077987702
0.050878255602665,0.16558762750625602,-0.112482560062408,-1.39030715389252
0.0514839491217444,0.299708721256256,-0.222653458499908,-1.1867304937362702
0.0520896426408237,-0.040384052181243905,-0.148407853031158,-1.41425734920502
0.0526953361599031,-0.035594013118743904,0.0384036704063416,-1.21547072811127
0.0533010296789824,0.0626017876625061,0.047983748531341595,-1.3495918218612701
0.0539067231980618,0.26857346735000603,-0.138827774906158,-1.64178420467377
0.0545124167171411,0.0147013970375061,-0.0358419350624084,-1.27534621639252
0.0551181102362205,0.0602067681312561,0.165339705562592,-1.37593703670502
0.0557238037552998,0.256598369693756,-0.004706681156158451,-1.66812941951752
0.0563294972743792,0.18235276422500601,-0.0262618569374084,-1.2897163335800201
0.0569351907934585,0.359584209537506,-0.124457657718658,-1.37593703670502
0.0575408843125379,0.261388408756256,0.0791190024375915,-1.2849262945175202
0.0581465778316172,0.110502178287506,-0.0142867592811584,-1.23463088436127
0.0587522713506965,0.0434416314125061,-0.153197892093658,-1.53879836483002
0.0593579648697759,0.122477275943756,-0.0023116616249084497,-1.23223586483002
0.0599636583888552,0.31886887750625603,-0.220258438968658,-1.3400117437362702
0.0605693519079346,0.09613206110000609,-0.0597921303749084,-1.41186232967377
0.0611750454270139,0.13205735406875602,0.012058455562591601,-1.39749221248627
0.0617807389460933,0.108107158756256,-0.172358048343658,-1.35198684139252
0.0623864324651726,0.14642747125625602,-0.284923966312408,-1.66333938045502
0.062992125984252,0.244623272037506,-0.220258438968658,-1.5411933843612702
0.0635978195033313,0.100922100162506,-0.0597921303749084,-1.4429975835800202
0.0642035130224107,0.0386515923500061,-0.169963028812408,-1.3400117437362702
0.06480920654149,0.115292217350006,-0.265763810062408,-1.2202607671737702
0.0654149000605694,0.256598369693756,-0.0741622475624085,-1.3927021734237701
0.0660205935796487,0.373954326725006,0.012058455562591601,-1.19631057186127
0.066626287098728,0.213488018131256,0.0216385336875916,-1.08134963436127
0.0672319806178074,0.199117900943756,-0.0190767983436584,-1.53161330623627
0.0678376741368867,0.26857346735000603,-0.287318985843658,-1.24900100154877
0.0684433676559661,0.129662334537506,-0.162777970218658,-1.40707229061127
0.0690490611750454,0.09613206110000609,0.0599588461875916,-1.7519551031112701
0.0696547546941248,0.0721818657875061,0.0216385336875916,-1.4477876226425201
0.0702604482132041,0.112897197818756,0.00247837743759155,-0.997523950767517
0.0708661417322835,-0.08588942327499391,-0.05021205224990841,-1.15799025936127
0.0714718352513628,0.0602067681312561,-0.253788712406158,-1.3879121343612701
0.0720775287704422,0.0769719048500061,-0.217863419437408,-1.53640334529877
0.0726832222895215,0.0649968071937561,-0.0166817788124084,-1.50526809139252
0.0732889158086008,0.0386515923500061,-0.110087540531158,-1.23223586483002
0.0738946093276802,0.021886455631256102,-0.136432755374908,-1.40707229061127
0.0745003028467595,0.261388408756256,-0.15080287256240799,-1.1987055913925202
0.0751059963658389,0.19193284235000602,-0.265763810062408,-1.37354201717377
0.0757116898849182,0.158402568912506,-0.129247696781158,-1.54837844295502
0.0763173834039976,0.122477275943756,-0.05021205224990841,-1.3280366460800201
0.0769230769230769,0.227858135318756,0.0863040610313415,-1.3184565679550202
0.0775287704421563,0.304498760318756,-0.201098282718658,-1.3016914312362702
0.0781344639612356,-0.0547541693687439,-0.208283341312408,-1.2130757085800201
0.078740157480315,0.0649968071937561,0.06953892431259151,-1.53400832576752
0.0793458509993943,0.208697979068756,-0.131642716312408,-1.17954543514252
0.0799515445184737,0.189537822818756,-0.256183731937408,-1.26097609920502
0.080557238037553,0.273363506412506,-0.138827774906158,-1.41904738826752
0.0811629315566323,-0.0116438178062439,-0.0142867592811584,-1.23463088436127
0.0817686250757117,0.21588303766250602,-0.00710170068740845,-1.42862746639252
0.082374318594791,0.21109299860000602,-0.215468399906158,-1.4525776617050201
0.0829800121138704,0.134452373600006,-0.28971400537490805,-1.38072707576752
0.0835857056329497,0.390719463443756,-0.160382950687408,-1.4429975835800202
0.0841913991520291,0.261388408756256,-0.043026993656158405,-1.18433547420502
0.0847970926711084,-0.0499641303062439,0.0815140219688415,-1.20110061092377
0.0854027861901878,0.09373704156875609,0.0863040610313415,-1.52682326717377
0.0860084797092671,0.316473857975006,-0.234628556156158,-1.30408645076752
0.0866141732283465,0.163192607975006,-0.129247696781158,-1.28732131404877
0.0872198667474258,0.00512131891250614,-0.0645821694374085,-1.1987055913925202
0.0878255602665051,0.13684739313125602,-0.177148087406158,-1.3280366460800201
0.0884312537855845,0.127267315006256,0.00247837743759155,-1.36396193904877
0.0890369473046638,-0.061939227962493904,0.00487339696884155,-1.23702590389252
0.0896426408237432,0.0673918267250061,-0.0310518959999084,-1.6489692632675201
0.0902483343428225,0.19672288141250602,-0.186728165531158,-1.4382075445175202
0.0908540278619019,0.153612529850006,0.031218611812591602,-1.43581252498627
0.0914597213809812,0.306893779850006,0.141389510250092,-1.3927021734237701
0.0920654149000606,0.294918682193756,0.00966343603134155,-1.32085158748627
0.0926711084191399,0.292523662662506,-0.15080287256240799,-1.3927021734237701
0.0932768019382193,0.14642747125625602,-0.153197892093658,-1.3663569585800202
0.0938824954572986,0.13205735406875602,-0.0813473061561585,-1.33761672420502
0.094488188976378,0.09613206110000609,-0.107692520999908,-1.29929641170502
0.0950938824954573,0.0745768853187561,-0.0789522866249085,-1.55316848201752
0.0956995760145366,0.055416729068756096,-0.00710170068740845,-1.3711469976425201
0.096305269533616,0.148822490787506,0.0336136313438416,-1.33522170467377
0.0969109630526953,0.117687236881256,0.016848494625091602,-1.0885346929550201
0.0975166565717747,-0.00924879827499386,0.00487339696884155,-1.1867304937362702
0.098122350090854,0.124872295475006,0.0910941000938415,-1.42383742733002
0.0987280436099334,0.18235276422500601,-0.148407853031158,-1.11727492733002
0.0993337371290127,0.314078838443756,-0.201098282718658,-1.62022902889252
0.0999394306480921,0.326053936100006,-0.05021205224990841,-1.50526809139252
0.100545124167171,0.25899338922500603,0.0288235922813416,-1.06458449764252
0.101150817686251,0.0889470025062561,0.165339705562592,-1.3064814702987702
0.10175651120533,0.21588303766250602,0.00487339696884155,-1.3112715093612701
0.102362204724409,0.00512131891250614,-0.213073380374908,-1.35198684139252
0.102967898243489,0.0123063775062561,-0.143617813968658,-1.5723286382675201
0.103573591762568,0.120082256412506,-0.0526070717811584,-1.51484816951752
0.104179285281647,0.20630295953750602,-0.102902481937408,-1.23942092342377
0.104784978800727,0.0123063775062561,-0.172358048343658,-1.21068068904877
0.105390672319806,-0.0499641303062439,-0.11487757959365799,-1.51005813045502
0.105996365838886,0.19672288141250602,-0.0765572670936585,-1.59867385311127
0.106602059357965,0.144032451725006,-0.0573971108436584,-1.2801362554550202
0.107207752877044,0.0649968071937561,-0.136432755374908,-1.26097609920502
0.107813446396124,0.0170964165687561,-0.172358048343658,-1.26097609920502
0.108419139915203,0.208697979068756,-0.0358419350624084,-1.4980830327987702
0.109024833434282,0.134452373600006,0.031218611812591602,-1.51724318904877
0.109630526953362,0.23025315485000603,0.043193709468841594,-1.3927021734237701
0.110236220472441,0.199117900943756,-0.148407853031158,-1.23942092342377
0.11084191399152,0.129662334537506,-0.177148087406158,-1.25379104061127
0.1114476075106,0.496100322818756,-0.191518204593658,-1.35677688045502
0.112053301029679,0.144032451725006,-0.14601283349990798,-1.48850295467377
0.112658994548758,-0.186480243587494,0.0384036704063416,-1.3783320562362702
0.113264688067838,0.0482316704750061,0.115044295406342,-1.3184565679550202
0.113870381586917,0.27815354547500604,-0.0262618569374084,-1.53879836483002
0.114476075105996,0.189537822818756,-0.0550020913124084,-1.27774123592377
0.115081768625076,0.158402568912506,-0.004706681156158451,-1.37593703670502
0.115687462144155,0.112897197818756,0.052773787593841597,-1.43341750545502
0.116293155663234,0.09613206110000609,-0.0190767983436584,-1.27055617733002
0.116898849182314,0.108107158756256,-0.0262618569374084,-1.35677688045502
0.117504542701393,0.17037766656875603,-0.203493302249908,-1.2082856695175201
0.118110236220472,0.297313701725006,-0.29929408349990805,-1.46694777889252
0.118715929739552,0.0266764946937561,-0.110087540531158,-1.5292182867050201
0.119321623258631,0.14163743219375602,-0.179543106937408,-1.2729511968612701
0.11992731677771,0.122477275943756,-0.11966761865615799,-1.44539260311127
0.12053301029679,-0.19366530218124398,-0.15080287256240799,-1.23702590389252
0.121138703815869,0.14642747125625602,-0.129247696781158,-1.1651753179550202
0.121744397334949,0.0865519829750061,-0.0526070717811584,-1.30408645076752
0.122350090854028,0.0458366509437561,0.0192435141563416,-1.42383742733002
0.122955784373107,0.108107158756256,-0.256183731937408,-1.35438186092377
0.123561477892187,0.167982647037506,-0.263368790531158,-1.45736770076752
0.124167171411266,0.139242412662506,-0.237023575687408,-1.5459834234237702
0.124772864930345,-0.0571491888999939,0.052773787593841597,-1.54358840389252
0.125378558449425,0.0649968071937561,0.0599588461875916,-1.3998872320175202
0.125984251968504,0.0386515923500061,-0.193913224124908,-1.3495918218612701
0.126589945487583,-0.033198993587493904,-0.169963028812408,-1.46215773983002
0.127195639006663,0.0841569634437561,-0.11727259912490799,-1.19391555233002
0.127801332525742,0.175167705631256,0.15336460790634202,-1.38551711483002
0.128407026044821,-0.14815993108749398,0.0240335532188416,-1.4477876226425201
0.129012719563901,0.00272629938125614,-0.237023575687408,-1.7471650640487701
0.12961841308298,0.175167705631256,-0.215468399906158,-1.89326125545502
0.130224106602059,0.057811748600006096,-0.165172989749908,-0.968783716392517
0.130829800121139,0.112897197818756,-0.00710170068740845,-1.33761672420502
0.131435493640218,0.0626017876625061,-0.045422013187408405,-1.6178340093612702
0.132041187159297,0.244623272037506,-0.237023575687408,-1.2466059820175202
0.132646880678377,0.280548565006256,-0.162777970218658,-1.4310224859237701
0.133252574197456,-0.004458759212493861,-0.12206263818740799,-1.40707229061127
0.133858267716535,0.0170964165687561,-0.196308243656158,-1.44539260311127
0.134463961235615,0.00272629938125614,-0.14601283349990798,-1.35198684139252
0.135069654754694,-0.112234638118744,-0.0765572670936585,-1.48371291561127
0.135675348273773,0.31886887750625603,-0.328034317874908,-1.48371291561127
0.136281041792853,0.208697979068756,-0.134037735843658,-1.41425734920502
0.136886735311932,0.055416729068756096,0.0192435141563416,-1.47173781795502
0.137492428831012,0.21588303766250602,-0.0621871499061584,-1.2633711187362702
0.138098122350091,0.266178447818756,-0.110087540531158,-1.12445998592377
0.13870381586917,0.129662334537506,-0.0765572670936585,-1.2418159429550202
0.13930950938825,0.144032451725006,-0.0645821694374085,-1.4214424077987702
0.139915202907329,0.189537822818756,-0.222653458499908,-1.5028730718612702
0.140520896426408,0.124872295475006,-0.0358419350624084,-1.4597627202987702
0.141126589945488,0.112897197818756,0.043193709468841594,-1.20589064998627
0.141732283464567,0.0865519829750061,-0.203493302249908,-1.4693427984237701
0.142337976983646,0.172772686100006,-0.29929408349990805,-1.5507734624862701
0.142943670502726,-0.150554950618744,-0.155592911624908,-1.4046772710800202
0.143549364021805,0.251808330631256,0.0551688071250916,-1.2897163335800201
0.144155057540884,0.333238994693756,-0.0669771889686585,-1.2082856695175201
0.144760751059964,0.21109299860000602,-0.0621871499061584,-1.62501906795502
0.145366444579043,0.373954326725006,-0.0861373452186585,-1.5675385992050201
0.145972138098122,0.227858135318756,-0.11727259912490799,-1.36875197811127
0.146577831617202,0.19193284235000602,0.0623538657188416,-1.23463088436127
0.147183525136281,0.249413311100006,0.0551688071250916,-1.29450637264252
0.14778921865536,0.163192607975006,0.00247837743759155,-1.3448017827987702
0.14839491217444,0.153612529850006,0.184499861812592,-1.16278029842377
0.149000605693519,0.297313701725006,-0.00710170068740845,-1.19391555233002
0.149606299212598,0.0626017876625061,0.0336136313438416,-1.2849262945175202
0.150211992731678,0.108107158756256,-0.028656876468658398,-1.2681611577987701
0.150817686250757,0.282943584537506,-0.201098282718658,-1.34719680233002
0.151423379769836,0.153612529850006,-0.217863419437408,-1.5196382085800202
0.152029073288916,0.0602067681312561,-0.038236954593658404,-1.4262324468612702
0.152634766807995,0.134452373600006,0.134204451656342,-1.2849262945175202
0.153240460327075,0.163192607975006,-0.129247696781158,-1.41186232967377
0.153846153846154,0.304498760318756,-0.00710170068740845,-1.5292182867050201
0.154451847365233,0.24222825250625601,-0.0909273842811585,-1.41904738826752
0.155057540884313,-0.0475691107749939,-0.169963028812408,-1.2681611577987701
0.155663234403392,0.124872295475006,-0.0693722084999085,-1.34719680233002
0.156268927922471,0.055416729068756096,0.0192435141563416,-1.29450637264252
0.156874621441551,0.148822490787506,-0.325639298343658,-1.20589064998627
0.15748031496063,0.290128643131256,-0.328034317874908,-1.6274140874862701
0.158086008479709,-0.0116438178062439,-0.0190767983436584,-1.54358840389252
0.158691701998789,-0.136184833431244,-0.0693722084999085,-1.36396193904877
0.159297395517868,0.00512131891250614,-0.105297501468658,-1.6992646734237702
0.159903089036947,0.21588303766250602,-0.160382950687408,-1.34719680233002
0.160508782556027,0.199117900943756,-0.191518204593658,-1.02386916561127
0.161114476075106,0.256598369693756,-0.11487757959365799,-1.42383742733002
0.161720169594185,0.227858135318756,0.00487339696884155,-1.43341750545502
0.162325863113265,0.167982647037506,-0.0645821694374085,-1.33761672420502
0.162931556632344,0.290128643131256,-0.0526070717811584,-1.49329299373627
0.163537250151423,0.31886887750625603,-0.0597921303749084,-1.39749221248627
0.164142943670503,0.23025315485000603,-0.0550020913124084,-1.28253127498627
0.164748637189582,0.302103740787506,-0.0023116616249084497,-1.4046772710800202
0.165354330708661,0.09373704156875609,-0.0933224038124085,-1.30887648983002
0.165960024227741,0.0075163384437561395,-0.100507462406158,-1.3184565679550202
0.16656571774682,0.0769719048500061,-0.11966761865615799,-1.34719680233002
0.167171411265899,0.120082256412506,-0.004706681156158451,-1.28253127498627
0.167777104784979,0.0338615532875061,0.06474888525009151,-1.3495918218612701
0.168382798304058,-0.00924879827499386,-0.174753067874908,-1.3711469976425201
0.168988491823137,0.24701829156875602,-0.112482560062408,-1.44539260311127
0.169594185342217,0.0170964165687561,-0.165172989749908,-1.30408645076752
0.170199878861296,0.0721818657875061,-0.277738907718658,-1.36875197811127
0.170805572380376,0.0434416314125061,-0.0310518959999084,-1.6178340093612702
0.171411265899455,0.129662334537506,0.0599588461875916,-1.34719680233002
0.172016959418534,0.36916428766250603,-0.184333145999908,-1.19391555233002
0.172622652937614,0.275758525943756,-0.220258438968658,-1.3998872320175202
0.173228346456693,0.031466533756256104,-0.0693722084999085,-1.6441792242050202
0.173834039975772,-0.0284089545249939,-0.138827774906158,-1.4525776617050201
0.174439733494852,0.148822490787506,-0.11487757959365799,-1.3448017827987702
0.175045427013931,0.34760911188125604,-0.165172989749908,-1.3184565679550202
0.17565112053301,0.280548565006256,-0.0957174233436585,-1.20110061092377
0.17625681405209,0.0865519829750061,-0.335219376468658,-1.47173781795502
0.176862507571169,0.20630295953750602,-0.0813473061561585,-1.43581252498627
0.177468201090248,0.112897197818756,0.0623538657188416,-1.3927021734237701
0.178073894609328,0.14163743219375602,-0.160382950687408,-1.2633711187362702
0.178679588128407,0.361979229068756,0.00247837743759155,-1.23702590389252
0.179285281647486,0.0889470025062561,-0.11966761865615799,-1.21068068904877
0.179890975166566,0.148822490787506,-0.11727259912490799,-1.20589064998627
0.180496668685645,0.22067307672500602,-0.040631974124908404,-1.3328266851425201
0.181102362204724,0.124872295475006,0.0551688071250916,-1.4046772710800202
0.181708055723804,0.237438213443756,-0.0550020913124084,-1.51484816951752
0.182313749242883,0.366769268131256,-0.217863419437408,-1.3495918218612701
0.182919442761962,0.19672288141250602,0.040798689937591594,-1.35917189998627
0.183525136281042,0.0721818657875061,0.103069197750092,-1.2849262945175202
0.184130829800121,0.18235276422500601,-0.0645821694374085,-1.3927021734237701
0.1847365233192,-0.109839618587494,0.0384036704063416,-1.29690139217377
0.18534221683828,0.20151292047500602,-0.100507462406158,-1.39509719295502
0.185947910357359,0.24222825250625601,-0.11966761865615799,-1.39749221248627
0.186553603876439,-0.014038837337493901,0.165339705562592,-1.35198684139252
0.187159297395518,0.297313701725006,0.11743931493759201,-1.16757033748627
0.187764990914597,0.235043193912506,-0.0885323647499085,-1.20110061092377
0.188370684433677,0.366769268131256,-0.105297501468658,-1.50526809139252
0.188976377952756,0.0602067681312561,0.134204451656342,-1.6274140874862701
0.189582071471835,0.110502178287506,0.050378768062591596,-1.7591401617050202
0.190187764990915,0.33802903375625604,-0.198703263187408,-1.00470900936127
0.190793458509994,-0.033198993587493904,-0.0166817788124084,-1.32564162654877
0.191399152029073,0.402694561100006,-0.0957174233436585,-1.5244282476425202
0.192004845548153,0.345214092350006,-0.0550020913124084,-0.995128931236267
0.192610539067232,0.110502178287506,0.06714390478134151,-1.28732131404877
0.193216232586311,0.0889470025062561,-0.15080287256240799,-1.4597627202987702
0.193821926105391,0.0817619439125061,-0.196308243656158,-1.52203322811127
0.19442761962447,0.15600754938125602,-0.177148087406158,-1.59148879451752
0.195033313143549,0.172772686100006,-0.0645821694374085,-1.2633711187362702
0.195639006662629,0.0793669243812561,0.11743931493759201,-1.39749221248627
0.196244700181708,-0.061939227962493904,0.127019393062592,-1.3831220952987702
0.196850393700787,0.00033127985000613603,-0.0597921303749084,-1.16757033748627
0.197456087219867,0.208697979068756,-0.239418595218658,-1.30408645076752
0.198061780738946,0.25899338922500603,-0.0837423256874085,-1.4477876226425201
0.198667474258025,0.249413311100006,-0.028656876468658398,-1.5411933843612702
0.199273167777105,0.34760911188125604,0.0815140219688415,-1.45497268123627
0.199878861296184,0.256598369693756,-0.162777970218658,-1.29929641170502
0.200484554815263,0.17037766656875603,-0.131642716312408,-1.1699653570175201
0.201090248334343,0.263783428287506,0.050378768062591596,-1.32564162654877
0.201695941853422,0.09852708063125609,-0.198703263187408,-1.3328266851425201
0.202301635372502,0.0290715142250061,-0.0166817788124084,-1.22744582576752
0.202907328891581,0.0194914361000061,-0.174753067874908,-1.2418159429550202
0.20351302241066,0.23025315485000603,-0.215468399906158,-1.50047805233002
0.20411871592974,0.280548565006256,-0.0621871499061584,-1.35677688045502
0.204724409448819,0.13205735406875602,0.0360086508750916,-1.30887648983002
0.205330102967898,0.402694561100006,-0.0645821694374085,-1.3879121343612701
0.205935796486978,0.28773362360000604,-0.0765572670936585,-1.3448017827987702
0.206541490006057,-0.033198993587493904,-0.148407853031158,-1.22744582576752
0.207147183525136,0.0602067681312561,-0.189123185062408,-1.33043166561127
0.207752877044216,0.0889470025062561,0.0863040610313415,-1.57711867733002
0.208358570563295,-0.0667292670249939,0.14857456884384201,-1.1388301031112702
0.208964264082374,0.24222825250625601,0.15336460790634202,-1.17715041561127
0.209569957601454,0.167982647037506,-0.189123185062408,-1.27534621639252
0.210175651120533,0.0362565728187561,-0.31845423974990805,-1.47892287654877
0.210781344639612,-0.0571491888999939,-0.0166817788124084,-1.4980830327987702
0.211387038158692,0.0865519829750061,0.105464217281342,-1.33761672420502
0.211992731677771,0.251808330631256,-0.0334469155311584,-1.4908979742050201
0.21259842519685,-0.0427790717124939,-0.107692520999908,-1.55556350154877
0.21320411871593,0.0889470025062561,-0.0669771889686585,-1.56993361873627
0.213809812235009,0.18235276422500601,-0.0597921303749084,-1.2801362554550202
0.214415505754088,0.153612529850006,-0.00949672021865845,-1.1819404546737702
0.215021199273168,0.057811748600006096,-0.0789522866249085,-1.53879836483002
0.215626892792247,0.0889470025062561,-0.043026993656158405,-1.46694777889252
0.216232586311326,0.237438213443756,-0.0573971108436584,-1.38072707576752
0.216838279830406,0.148822490787506,0.00966343603134155,-1.3831220952987702
0.217443973349485,0.18714280328750602,0.06714390478134151,-1.2585810796737702
0.218049666868565,0.194327861881256,-0.040631974124908404,-1.35438186092377
0.218655360387644,-0.004458759212493861,-0.105297501468658,-1.4477876226425201
0.219261053906723,0.144032451725006,-0.0933224038124085,-1.6322041265487701
0.219866747425803,-0.014038837337493901,-0.00949672021865845,-1.5292182867050201
0.220472440944882,0.103317119693756,-0.0789522866249085,-1.13643508358002
0.221078134463961,0.354794170475006,0.06953892431259151,-1.1220649663925202
0.221683827983041,0.024281475162506103,-0.12206263818740799,-1.33522170467377
0.22228952150212,-0.014038837337493901,-0.15080287256240799,-1.38072707576752
0.222895215021199,0.00033127985000613603,-0.107692520999908,-1.23463088436127
0.223500908540279,0.105712139225006,0.0791190024375915,-1.2681611577987701
0.224106602059358,0.100922100162506,0.167734725093842,-1.1005097906112702
0.224712295578437,0.354794170475006,-0.277738907718658,-1.30408645076752
0.225317989097517,0.412274639225006,-0.0669771889686585,-1.52682326717377
0.225923682616596,0.24701829156875602,0.0288235922813416,-1.20589064998627
0.226529376135675,0.16558762750625602,0.06714390478134151,-1.1867304937362702
0.227135069654755,-0.018828876399993897,0.129414412593842,-1.35917189998627
0.227740763173834,0.0626017876625061,-0.220258438968658,-1.27534621639252
0.228346456692913,0.270968486881256,-0.30887416162490805,-1.44539260311127
0.228952150211993,0.275758525943756,-0.100507462406158,-1.38551711483002
0.229557843731072,-0.0475691107749939,-0.129247696781158,-1.20110061092377
0.230163537250151,0.0123063775062561,-0.110087540531158,-1.45018264217377
0.230769230769231,0.223068096256256,-0.0885323647499085,-1.48371291561127
0.23137492428831,0.194327861881256,-0.124457657718658,-1.4046772710800202
0.231980617807389,0.213488018131256,-0.0885323647499085,-1.1987055913925202
0.232586311326469,0.256598369693756,0.134204451656342,-1.3280366460800201
0.233192004845548,0.16079758844375602,-0.0861373452186585,-1.54358840389252
0.233797698364627,0.17037766656875603,-0.37832972803115805,-1.4645527593612702
0.234403391883707,0.275758525943756,-0.179543106937408,-1.41665236873627
0.235009085402786,0.24701829156875602,-0.043026993656158405,-1.35917189998627
0.235614778921866,0.0170964165687561,0.0791190024375915,-1.4429975835800202
0.236220472440945,0.266178447818756,-0.15080287256240799,-1.47652785701752
0.236826165960024,0.16558762750625602,-0.141222794437408,-1.11727492733002
0.237431859479104,0.18714280328750602,-0.181938126468658,-1.2250508062362702
0.238037552998183,0.194327861881256,-0.189123185062408,-1.6010688726425202
0.238643246517262,0.167982647037506,-0.0238668374061584,-1.52682326717377
0.239248940036342,0.345214092350006,-0.148407853031158,-1.17236037654877
0.239854633555421,0.0626017876625061,-0.028656876468658398,-1.3783320562362702
0.2404603270745,0.232648174381256,-0.0741622475624085,-1.54358840389252
0.24106602059358,0.15121751031875602,-0.134037735843658,-0.959203638267517
0.241671714112659,0.139242412662506,0.0863040610313415,-1.25379104061127
0.242277407631738,0.249413311100006,0.0599588461875916,-1.49329299373627
0.242883101150818,0.153612529850006,-0.215468399906158,-1.2729511968612701
0.243488794669897,-0.0427790717124939,-0.143617813968658,-1.60346389217377
0.244094488188976,-0.105049579524994,8.335790634155139e-05,-1.38072707576752
0.244700181708056,0.14163743219375602,-0.107692520999908,-1.3831220952987702
0.245305875227135,0.25899338922500603,-0.169963028812408,-1.34719680233002
0.245911568746214,0.09852708063125609,-0.0837423256874085,-1.1699653570175201
0.246517262265294,0.139242412662506,0.050378768062591596,-1.4693427984237701
0.247122955784373,0.21588303766250602,-0.174753067874908,-1.2082856695175201
0.247728649303452,0.09613206110000609,8.335790634155139e-05,-1.34240676326752
0.248334342822532,0.0649968071937561,-0.0957174233436585,-1.3879121343612701
0.248940036341611,0.050626690006256095,-0.234628556156158,-1.40228225154877
0.24954572986069,0.19672288141250602,-0.244208634281158,-1.41425734920502
0.25015142337977,-0.0499641303062439,-0.215468399906158,-1.0454243413925202
0.250757116898849,-0.00924879827499386,0.07193394384384151,-0.786762232017517
0.251362810417929,0.179957744693756,-0.14601283349990798,-1.1532002202987701
0.251968503937008,0.0841569634437561,-0.0765572670936585,-1.51484816951752
0.252574197456087,0.0817619439125061,-0.00949672021865845,-1.33761672420502
0.253179890975167,0.16558762750625602,-0.00949672021865845,-1.24421096248627
0.253785584494246,0.108107158756256,-0.045422013187408405,-1.29690139217377
0.254391278013325,0.134452373600006,-0.100507462406158,-1.41904738826752
0.254996971532405,0.139242412662506,-0.256183731937408,-1.51484816951752
0.255602665051484,-0.0571491888999939,-0.239418595218658,-1.3927021734237701
0.256208358570563,0.177562725162506,0.045588729000091595,-1.4861079351425202
0.256814052089643,0.314078838443756,-0.148407853031158,-1.3879121343612701
0.257419745608722,0.108107158756256,0.0839090415000915,-1.3328266851425201
0.258025439127801,0.0889470025062561,0.0288235922813416,-1.3280366460800201
0.258631132646881,0.239833232975006,-0.215468399906158,-1.4429975835800202
0.25923682616596,0.00033127985000613603,-0.107692520999908,-1.4429975835800202
0.259842519685039,-0.018828876399993897,-0.157987931156158,-1.08134963436127
0.260448213204119,-0.040384052181243905,-0.134037735843658,-1.5076631109237701
0.261053906723198,-0.004458759212493861,-0.0597921303749084,-1.21786574764252
0.261659600242277,0.00512131891250614,0.0575638266563416,-1.1987055913925202
0.262265293761357,0.18235276422500601,0.012058455562591601,-1.49568801326752
0.262870987280436,0.43861985406875603,-0.0023116616249084497,-1.37593703670502
0.263476680799515,0.127267315006256,-0.0957174233436585,-1.42383742733002
0.264082374318595,-0.0499641303062439,-0.0765572670936585,-1.19631057186127
0.264688067837674,0.23025315485000603,-0.27055384912490804,-1.3615669195175202
0.265293761356753,0.21109299860000602,-0.217863419437408,-1.3184565679550202
0.265899454875833,0.0434416314125061,-0.004706681156158451,-1.33761672420502
0.266505148394912,0.304498760318756,-0.11487757959365799,-1.49329299373627
0.267110841913992,0.31886887750625603,-0.0166817788124084,-1.17236037654877
0.267716535433071,0.184747783756256,0.131809432125092,-1.26576613826752
0.26832222895215,0.117687236881256,-0.0957174233436585,-1.22265578670502
0.26892792247123,0.09613206110000609,-0.100507462406158,-1.41186232967377
0.269533615990309,0.16558762750625602,-0.0166817788124084,-1.45497268123627
0.270139309509388,0.23025315485000603,-0.038236954593658404,-1.5028730718612702
0.270745003028468,0.27815354547500604,0.0551688071250916,-1.2897163335800201
0.271350696547547,0.20151292047500602,-0.0981124428749085,-1.11966994686127
0.271956390066626,0.0266764946937561,-0.141222794437408,-1.25618606014252
0.272562083585706,0.0865519829750061,-0.0118917397499084,-1.3663569585800202
0.273167777104785,0.16079758844375602,-0.112482560062408,-1.33522170467377
0.273773470623864,0.15600754938125602,-0.246603653812408,-1.3232466070175202
0.274379164142944,0.237438213443756,-0.0310518959999084,-1.58190871639252
0.274984857662023,0.115292217350006,0.050378768062591596,-1.41665236873627
0.275590551181102,0.199117900943756,0.107859236812592,-1.2130757085800201
0.276196244700182,0.290128643131256,0.043193709468841594,-1.23942092342377
0.276801938219261,0.18235276422500601,-0.0933224038124085,-1.36875197811127
0.27740763173834,0.0602067681312561,0.0240335532188416,-1.46215773983002
0.27801332525742,0.050626690006256095,-0.191518204593658,-1.40707229061127
0.278619018776499,0.0362565728187561,-0.160382950687408,-1.51005813045502
0.279224712295578,-0.021223895931243898,-0.0550020913124084,-1.59867385311127
0.279830405814658,0.16558762750625602,-0.0789522866249085,-1.62980910701752
0.280436099333737,0.0170964165687561,-0.131642716312408,-0.9232783452987671
0.281041792852816,-0.0427790717124939,-0.0621871499061584,-0.8849580327987671
0.281647486371896,0.213488018131256,-0.167568009281158,-1.4382075445175202
0.282253179890975,0.244623272037506,-0.141222794437408,-1.19631057186127
0.282858873410055,0.0075163384437561395,-0.0118917397499084,-1.38551711483002
0.283464566929134,0.179957744693756,0.047983748531341595,-1.34719680233002
0.284070260448213,0.302103740787506,0.0192435141563416,-1.23702590389252
0.284675953967293,-0.0308039740562439,-0.0526070717811584,-1.40228225154877
0.285281647486372,0.172772686100006,-0.107692520999908,-1.35677688045502
0.285887341005451,0.227858135318756,-0.160382950687408,-1.29690139217377
0.286493034524531,0.144032451725006,-0.0885323647499085,-1.28253127498627
0.28709872804361,0.235043193912506,-0.193913224124908,-1.17954543514252
0.287704421562689,0.15121751031875602,-0.28252894678115803,-1.46215773983002
0.288310115081769,0.129662334537506,-0.244208634281158,-1.4645527593612702
0.288915808600848,0.189537822818756,0.0144534750938416,-1.54358840389252
0.289521502119927,0.0793669243812561,-0.0023116616249084497,-1.47652785701752
0.290127195639007,0.18714280328750602,-0.11487757959365799,-1.10290481014252
0.290732889158086,0.13684739313125602,0.0863040610313415,-1.3016914312362702
0.291338582677165,0.18235276422500601,-0.00710170068740845,-1.4262324468612702
0.291944276196245,0.129662334537506,-0.284923966312408,-1.2729511968612701
0.292549969715324,0.0865519829750061,-0.153197892093658,-1.5244282476425202
0.293155663234403,0.23025315485000603,-0.0597921303749084,-1.37593703670502
0.293761356753483,-0.0284089545249939,-0.191518204593658,-1.1268550054550202
0.294367050272562,0.122477275943756,-0.0813473061561585,-1.3998872320175202
0.294972743791641,0.364374248600006,-0.12206263818740799,-1.24900100154877
0.295578437310721,0.15600754938125602,-0.217863419437408,-1.21547072811127
0.2961841308298,0.148822490787506,0.0623538657188416,-1.44060256404877
0.296789824348879,0.09613206110000609,-0.296899063968658,-1.30887648983002
0.297395517867959,-0.00685377874374386,-0.198703263187408,-1.4094673101425201
0.298001211387038,0.189537822818756,-0.165172989749908,-1.4094673101425201
0.298606904906118,0.158402568912506,-0.11966761865615799,-1.37593703670502
0.299212598425197,0.0769719048500061,-0.0933224038124085,-1.4094673101425201
0.299818291944276,-0.08349440374374391,-0.110087540531158,-1.29690139217377
0.300423985463356,0.0266764946937561,-0.0765572670936585,-1.23942092342377
0.301029678982435,0.0434416314125061,-0.167568009281158,-1.36875197811127
0.301635372501514,0.25899338922500603,-0.05021205224990841,-1.31366652889252
0.302241066020594,0.19193284235000602,-0.222653458499908,-1.13643508358002
0.302846759539673,-0.035594013118743904,-0.0262618569374084,-1.52682326717377
0.303452453058752,0.129662334537506,-0.160382950687408,-1.45497268123627
0.304058146577832,-0.0164338568687439,-0.0789522866249085,-1.22265578670502
0.304663840096911,0.0266764946937561,0.0958841391563415,-1.3112715093612701
0.30526953361599,0.179957744693756,-0.181938126468658,-1.55556350154877
0.30587522713507,0.0194914361000061,0.129414412593842,-1.61543898983002
0.306480920654149,-0.021223895931243898,-0.11727259912490799,-1.37354201717377
0.307086614173228,0.09613206110000609,-0.277738907718658,-1.38072707576752
0.307692307692308,0.050626690006256095,8.335790634155139e-05,-1.53161330623627
0.308298001211387,0.184747783756256,0.016848494625091602,-1.37354201717377
0.308903694730466,0.28773362360000604,-0.0262618569374084,-1.4813178960800202
0.309509388249546,0.400299541568756,-0.00949672021865845,-1.58669875545502
0.310115081768625,0.472150127506256,-0.179543106937408,-1.42383742733002
0.310720775287704,0.13684739313125602,-0.167568009281158,-1.8190156499862702
0.311326468806784,0.330843975162506,0.0623538657188416,-1.34719680233002
0.311932162325863,0.22067307672500602,-0.047817032718658406,-1.26097609920502
0.312537855844942,0.21588303766250602,-0.131642716312408,-1.2849262945175202
0.313143549364022,0.311683818912506,-0.0190767983436584,-1.06458449764252
0.313749242883101,0.167982647037506,-0.0621871499061584,-1.58669875545502
0.31435493640218,0.139242412662506,-0.0885323647499085,-1.42383742733002
0.31496062992126,0.158402568912506,-0.105297501468658,-1.24421096248627
0.315566323440339,0.19193284235000602,-0.138827774906158,-1.34240676326752
0.316172016959419,0.0673918267250061,-0.0693722084999085,-1.4429975835800202
0.316777710478498,0.208697979068756,-0.196308243656158,-1.4310224859237701
0.317383403997577,0.15600754938125602,-0.201098282718658,-1.58669875545502
0.317989097516657,0.21588303766250602,-0.31126918115615804,-1.62980910701752
0.318594791035736,0.359584209537506,-0.0550020913124084,-1.56514357967377
0.319200484554815,0.057811748600006096,0.0192435141563416,-1.5411933843612702
0.319806178073895,0.158402568912506,-0.134037735843658,-1.59148879451752
0.320411871592974,0.110502178287506,-0.0621871499061584,-1.4310224859237701
0.321017565112053,0.0745768853187561,0.0144534750938416,-1.2130757085800201
0.321623258631133,0.340424053287506,-0.11727259912490799,-1.4525776617050201
0.322228952150212,0.20630295953750602,-0.232233536624908,-1.43581252498627
0.322834645669291,0.124872295475006,-0.153197892093658,-1.61543898983002
0.323440339188371,0.053021709537506095,-0.05021205224990841,-1.4813178960800202
0.32404603270745,0.115292217350006,-0.0166817788124084,-1.1915205327987701
0.324651726226529,0.21109299860000602,0.0623538657188416,-1.28732131404877
0.325257419745609,0.134452373600006,-0.11727259912490799,-1.3448017827987702
0.325863113264688,0.19672288141250602,-0.174753067874908,-1.38551711483002
0.326468806783767,0.14163743219375602,-0.191518204593658,-1.23463088436127
0.327074500302847,0.19193284235000602,-0.112482560062408,-1.51724318904877
0.327680193821926,0.294918682193756,-0.0981124428749085,-1.22265578670502
0.328285887341005,0.15600754938125602,-0.189123185062408,-1.32085158748627
0.328891580860085,0.194327861881256,-0.0957174233436585,-1.6609443609237702
0.329497274379164,0.0410466118812561,-0.112482560062408,-1.45497268123627
0.330102967898244,0.0434416314125061,-0.0310518959999084,-1.59388381404877
0.330708661417323,0.452989971256256,-0.0190767983436584,-1.51005813045502
0.331314354936402,0.469755107975006,0.0192435141563416,-1.35438186092377
0.331920048455482,0.15121751031875602,0.0839090415000915,-1.38072707576752
0.332525741974561,-0.00924879827499386,0.105464217281342,-1.1915205327987701
0.33313143549364,-0.0930744818687439,-0.0550020913124084,-1.30887648983002
0.33373712901272,0.134452373600006,-0.0573971108436584,-1.30887648983002
0.334342822531799,0.19672288141250602,-0.0909273842811585,-1.3879121343612701
0.334948516050878,0.26857346735000603,-0.0789522866249085,-1.3112715093612701
0.335554209569958,0.0482316704750061,0.0144534750938416,-1.23942092342377
0.336159903089037,0.09613206110000609,-0.0957174233436585,-1.4693427984237701
0.336765596608116,0.302103740787506,-0.14601283349990798,-1.35677688045502
0.337371290127196,0.09373704156875609,-0.00949672021865845,-1.5675385992050201
0.337976983646275,0.134452373600006,0.146179549312592,-1.4477876226425201
0.338582677165354,0.0602067681312561,0.174919783687592,-1.1819404546737702
0.339188370684434,0.26857346735000603,-0.0023116616249084497,-1.36396193904877
0.339794064203513,0.15121751031875602,-0.21067836084365799,-1.61304397029877
0.340399757722592,0.266178447818756,-0.191518204593658,-1.64657424373627
0.341005451241672,0.18714280328750602,-0.134037735843658,-1.09092971248627
0.341611144760751,0.13684739313125602,-0.11727259912490799,-1.17475539608002
0.34221683827983,0.330843975162506,-0.198703263187408,-1.4693427984237701
0.34282253179891,0.256598369693756,-0.25857875146865805,-1.5627485601425202
0.343428225317989,0.21588303766250602,-0.0909273842811585,-1.5675385992050201
0.344033918837068,0.0626017876625061,-0.100507462406158,-1.3711469976425201
0.344639612356148,0.20151292047500602,0.0288235922813416,-1.40228225154877
0.345245305875227,0.175167705631256,-0.0717672280311585,-1.1220649663925202
0.345850999394306,0.270968486881256,-0.0597921303749084,-1.39030715389252
0.346456692913386,0.0458366509437561,-0.0909273842811585,-1.5459834234237702
0.347062386432465,0.14163743219375602,-0.227443497562408,-1.39509719295502
0.347668079951545,0.0194914361000061,-0.0526070717811584,-1.52203322811127
0.348273773470624,-0.033198993587493904,-0.193913224124908,-1.40228225154877
0.348879466989703,0.311683818912506,-0.36156459131240803,-1.4597627202987702
0.349485160508783,-0.0475691107749939,-0.043026993656158405,-1.46694777889252
0.350090854027862,0.263783428287506,0.0934891196250915,-1.2585810796737702
0.350696547546941,0.16558762750625602,-0.0909273842811585,-1.29690139217377
0.351302241066021,0.108107158756256,-0.0573971108436584,-1.28253127498627
0.3519079345851,0.0338615532875061,-0.148407853031158,-1.51724318904877
0.352513628104179,-0.0882844428062439,-0.177148087406158,-1.3927021734237701
0.353119321623259,0.314078838443756,-0.110087540531158,-1.2298408452987701
0.353725015142338,0.120082256412506,-0.234628556156158,-1.55316848201752
0.354330708661417,0.103317119693756,-0.004706681156158451,-1.68489455623627
0.354936402180497,0.354794170475006,-0.047817032718658406,-1.29211135311127
0.355542095699576,0.28773362360000604,-0.177148087406158,-1.35438186092377
0.356147789218655,0.127267315006256,-0.0789522866249085,-1.53640334529877
0.356753482737735,0.177562725162506,-0.304084122562408,-1.3663569585800202
0.357359176256814,0.144032451725006,-0.0262618569374084,-1.41665236873627
0.357964869775893,0.0075163384437561395,-0.100507462406158,-1.26097609920502
0.358570563294973,0.100922100162506,-0.0142867592811584,-1.52203322811127
0.359176256814052,0.0362565728187561,-0.107692520999908,-1.7256098882675202
0.359781950333131,0.297313701725006,-0.169963028812408,-1.37593703670502
0.360387643852211,0.302103740787506,0.0288235922813416,-1.3232466070175202
0.36099333737129,0.105712139225006,-0.0933224038124085,-1.35917189998627
0.361599030890369,0.0913420220375061,0.047983748531341595,-1.26576613826752
0.362204724409449,0.0889470025062561,-0.047817032718658406,-1.5292182867050201
0.362810417928528,0.194327861881256,-0.141222794437408,-1.6992646734237702
0.363416111447607,0.270968486881256,-0.045422013187408405,-1.3495918218612701
0.364021804966687,0.412274639225006,0.0144534750938416,-1.23702590389252
0.364627498485766,0.24701829156875602,-0.162777970218658,-1.54837844295502
0.365233192004846,0.177562725162506,-0.134037735843658,-1.46215773983002
0.365838885523925,0.20151292047500602,-0.0957174233436585,-1.2729511968612701
0.366444579043004,0.0482316704750061,0.00487339696884155,-1.41186232967377
0.367050272562084,0.177562725162506,-0.177148087406158,-1.4310224859237701
0.367655966081163,0.20151292047500602,-0.0789522866249085,-1.41665236873627
0.368261659600242,0.0147013970375061,-0.14601283349990798,-1.2801362554550202
0.368867353119322,0.26857346735000603,-0.155592911624908,-1.6106489507675201
0.369473046638401,0.18714280328750602,-0.0933224038124085,-1.6441792242050202
0.37007874015748,0.148822490787506,-0.169963028812408,-1.3184565679550202
0.37068443367656,0.254203350162506,-0.129247696781158,-1.23702590389252
0.371290127195639,0.412274639225006,-0.0310518959999084,-1.2681611577987701
0.371895820714718,0.22546311578750602,0.162944686031342,-1.38072707576752
0.372501514233798,0.15600754938125602,0.0072684165000915495,-1.3280366460800201
0.373107207752877,0.031466533756256104,-0.0669771889686585,-1.43341750545502
0.373712901271956,-0.00685377874374386,-0.141222794437408,-1.3495918218612701
0.374318594791036,0.134452373600006,-0.124457657718658,-1.2681611577987701
0.374924288310115,0.0266764946937561,-0.0789522866249085,-1.17715041561127
0.375529981829194,0.122477275943756,-0.110087540531158,-1.18433547420502
0.376135675348274,-0.0571491888999939,-0.0669771889686585,-1.5076631109237701
0.376741368867353,-0.0164338568687439,-0.198703263187408,-1.61543898983002
0.377347062386432,0.00033127985000613603,-0.110087540531158,-1.62022902889252
0.377952755905512,0.127267315006256,8.335790634155139e-05,-1.4908979742050201
0.378558449424591,0.270968486881256,-0.153197892093658,-1.18433547420502
0.379164142943671,0.103317119693756,-0.15080287256240799,-1.27055617733002
0.37976983646275,0.194327861881256,-0.05021205224990841,-1.4597627202987702
0.380375529981829,0.33802903375625604,0.0623538657188416,-1.29690139217377
0.380981223500909,0.103317119693756,-0.105297501468658,-1.11487990779877
0.381586917019988,0.0697868462562561,-0.11487757959365799,-1.2729511968612701
0.382192610539067,0.103317119693756,-0.0981124428749085,-1.35677688045502
0.382798304058147,0.194327861881256,-0.143617813968658,-1.3783320562362702
0.383403997577226,0.14642747125625602,-0.169963028812408,-1.28253127498627
0.384009691096305,-0.0260139349937439,-0.129247696781158,-1.2585810796737702
0.384615384615385,0.112897197818756,-0.0669771889686585,-1.3448017827987702
0.385221078134464,0.199117900943756,-0.05021205224990841,-1.21547072811127
0.385826771653543,-0.018828876399993897,-0.186728165531158,-1.2897163335800201
0.386432465172623,0.175167705631256,-0.0717672280311585,-1.5795136968612702
0.387038158691702,0.0649968071937561,-0.0933224038124085,-1.3615669195175202
0.387643852210781,-0.0308039740562439,-0.251393692874908,-1.4429975835800202
0.388249545729861,0.342819072818756,-0.153197892093658,-1.53400832576752
0.38885523924894,0.17037766656875603,-0.047817032718658406,-1.49329299373627
0.389460932768019,0.299708721256256,0.0144534750938416,-1.37354201717377
0.390066626287099,0.335634014225006,-0.220258438968658,-1.41186232967377
0.390672319806178,0.163192607975006,-0.11727259912490799,-1.4214424077987702
0.391278013325257,0.09613206110000609,0.0839090415000915,-1.38072707576752
0.391883706844337,0.153612529850006,-0.107692520999908,-1.42862746639252
0.392489400363416,-0.112234638118744,-0.0669771889686585,-1.3064814702987702
0.393095093882495,-0.023618915462493898,-0.141222794437408,-1.5028730718612702
0.393700787401575,0.144032451725006,-0.148407853031158,-1.1651753179550202
0.394306480920654,0.122477275943756,0.07193394384384151,-1.0789546148300202
0.394912174439733,0.148822490787506,-0.0214718178749084,-1.13643508358002
0.395517867958813,0.27815354547500604,-0.196308243656158,-1.24421096248627
0.396123561477892,0.21109299860000602,0.00247837743759155,-1.51005813045502
0.396729254996972,-0.12899977483749397,0.105464217281342,-1.39749221248627
0.397334948516051,0.148822490787506,-0.0669771889686585,-1.3400117437362702
0.39794064203513,0.302103740787506,-0.253788712406158,-1.3232466070175202
0.39854633555421,0.0482316704750061,-0.0933224038124085,-1.5579585210800202
0.399152029073289,0.0602067681312561,-0.0789522866249085,-1.4429975835800202
0.399757722592368,0.110502178287506,-0.28252894678115803,-0.959203638267517
0.400363416111448,0.395509502506256,-0.0526070717811584,-0.7819721929550171
0.400969109630527,0.15600754938125602,-0.105297501468658,-1.52203322811127
0.401574803149606,-0.0116438178062439,-0.045422013187408405,-1.4477876226425201
0.402180496668686,0.115292217350006,-0.0526070717811584,-1.12445998592377
0.402786190187765,0.09852708063125609,-0.11487757959365799,-1.4429975835800202
0.403391883706844,0.108107158756256,-0.00710170068740845,-1.24900100154877
0.403997577225924,-0.0475691107749939,-0.0262618569374084,-1.17715041561127
0.404603270745003,0.0338615532875061,-0.169963028812408,-1.40707229061127
0.405208964264082,0.148822490787506,0.07432896337509151,-1.44539260311127
0.405814657783162,0.22067307672500602,0.304250838375092,-1.3184565679550202
0.406420351302241,0.390719463443756,-0.0550020913124084,-1.2681611577987701
0.40702604482132,0.251808330631256,-0.126852677249908,-1.1220649663925202
0.4076317383404,-0.16732008733749398,0.0575638266563416,-1.38072707576752
0.408237431859479,-0.13378981389999398,-0.045422013187408405,-1.4980830327987702
0.408843125378558,0.09373704156875609,-0.110087540531158,-1.51724318904877
0.409448818897638,0.213488018131256,-0.0669771889686585,-1.3232466070175202
0.410054512416717,0.13205735406875602,-0.153197892093658,-1.45497268123627
0.410660205935796,0.14163743219375602,-0.184333145999908,-1.3783320562362702
0.411265899454876,0.14642747125625602,-0.28971400537490805,-1.33043166561127
0.411871592973955,0.0745768853187561,-0.148407853031158,-1.41904738826752
0.412477286493035,0.294918682193756,-0.189123185062408,-1.34719680233002
0.413082980012114,0.15600754938125602,-0.184333145999908,-1.51724318904877
0.413688673531193,0.227858135318756,-0.0621871499061584,-1.7639302007675202
0.414294367050273,0.270968486881256,-0.0550020913124084,-1.4980830327987702
0.414900060569352,0.148822490787506,-0.0717672280311585,-1.24900100154877
0.415505754088431,0.333238994693756,-0.141222794437408,-1.2250508062362702
0.416111447607511,0.24222825250625601,-0.0238668374061584,-1.3328266851425201
0.41671714112659,0.179957744693756,0.012058455562591601,-1.4525776617050201
0.417322834645669,-0.0164338568687439,-0.126852677249908,-1.4262324468612702
0.417928528164749,0.0362565728187561,0.012058455562591601,-1.30887648983002
0.418534221683828,0.148822490787506,-0.0262618569374084,-1.1388301031112702
0.419139915202907,0.254203350162506,-0.14601283349990798,-1.09571975154877
0.419745608721987,0.0793669243812561,0.047983748531341595,-1.2034956304550202
0.420351302241066,0.232648174381256,0.016848494625091602,-1.2897163335800201
0.420956995760145,0.22067307672500602,-0.129247696781158,-1.2897163335800201
0.421562689279225,0.172772686100006,-0.143617813968658,-1.4693427984237701
0.422168382798304,0.297313701725006,-0.0909273842811585,-1.22265578670502
0.422774076317383,0.0745768853187561,-0.148407853031158,-1.3663569585800202
0.423379769836463,0.0889470025062561,-0.0621871499061584,-1.59388381404877
0.423985463355542,0.115292217350006,0.0144534750938416,-1.28253127498627
0.424591156874621,0.0745768853187561,-0.0717672280311585,-1.4382075445175202
0.425196850393701,0.158402568912506,-0.172358048343658,-1.35438186092377
0.42580254391278,0.237438213443756,0.0551688071250916,-1.5028730718612702
0.426408237431859,0.194327861881256,0.0264285727500916,-1.40228225154877
0.427013930950939,-0.0164338568687439,0.103069197750092,-1.4046772710800202
0.427619624470018,0.239833232975006,0.174919783687592,-1.49329299373627
0.428225317989098,0.373954326725006,8.335790634155139e-05,-1.30887648983002
0.428831011508177,0.32844895563125603,-0.186728165531158,-1.26576613826752
0.429436705027256,0.371559307193756,-0.263368790531158,-1.1484101812362701
0.430042398546336,-0.021223895931243898,-0.0981124428749085,-0.887353052330017
0.430648092065415,0.314078838443756,-0.110087540531158,-0.995128931236267
0.431253785584494,0.0626017876625061,-0.0909273842811585,-1.47413283748627
0.431859479103574,-0.061939227962493904,-0.102902481937408,-1.0933247320175201
0.432465172622653,0.18235276422500601,-0.0166817788124084,-1.19631057186127
0.433070866141732,0.256598369693756,-0.0861373452186585,-1.41904738826752
0.433676559660812,-0.023618915462493898,0.040798689937591594,-1.47173781795502
0.434282253179891,-0.0499641303062439,8.335790634155139e-05,-1.3112715093612701
0.43488794669897,0.335634014225006,-0.129247696781158,-1.1268550054550202
0.43549364021805,0.0602067681312561,0.047983748531341595,-1.2298408452987701
0.436099333737129,0.0865519829750061,-0.0717672280311585,-1.2729511968612701
0.436705027256208,0.0817619439125061,-0.0693722084999085,-1.27774123592377
0.437310720775288,0.0745768853187561,-0.0717672280311585,-1.2729511968612701
0.437916414294367,0.0673918267250061,-0.15080287256240799,-1.2418159429550202
0.438522107813446,0.127267315006256,-0.0957174233436585,-1.2849262945175202
0.439127801332526,0.213488018131256,-0.177148087406158,-1.40228225154877
0.439733494851605,0.177562725162506,-0.0789522866249085,-1.4262324468612702
0.440339188370684,0.120082256412506,-0.12206263818740799,-1.3663569585800202
0.440944881889764,-0.0691242865562439,-0.11487757959365799,-1.26097609920502
0.441550575408843,0.14163743219375602,-0.040631974124908404,-1.48850295467377
0.442156268927922,0.285338604068756,-0.0693722084999085,-1.5124531499862701
0.442761962447002,0.14163743219375602,-0.0166817788124084,-1.3615669195175202
0.443367655966081,-0.0260139349937439,-0.0621871499061584,-1.47652785701752
0.44397334948516,0.15600754938125602,-0.0765572670936585,-1.39749221248627
0.44457904300424,0.297313701725006,-0.00949672021865845,-1.5507734624862701
0.445184736523319,0.0290715142250061,0.06953892431259151,-1.40228225154877
0.445790430042399,0.0745768853187561,0.00247837743759155,-1.38072707576752
0.446396123561478,0.0793669243812561,-0.0885323647499085,-1.05500441951752
0.447001817080557,0.13205735406875602,-0.208283341312408,-1.1532002202987701
0.447607510599637,0.15121751031875602,-0.0789522866249085,-1.59627883358002
0.448213204118716,-0.033198993587493904,0.00247837743759155,-1.3064814702987702
0.448818897637795,0.09373704156875609,0.07193394384384151,-1.39030715389252
0.449424591156875,0.053021709537506095,-0.110087540531158,-1.3328266851425201
0.450030284675954,0.127267315006256,-0.28252894678115803,-1.30408645076752
0.450635978195033,0.292523662662506,-0.040631974124908404,-1.40228225154877
0.451241671714113,0.009911357975006141,-0.11487757959365799,-1.20110061092377
0.451847365233192,-0.037989032649993905,0.07193394384384151,-1.1915205327987701
0.452453058752271,-0.0739143256187439,0.160549666500092,-1.35438186092377
0.453058752271351,0.134452373600006,-0.0813473061561585,-1.41186232967377
0.45366444579043,0.0482316704750061,-0.30168910303115803,-1.4645527593612702
0.454270139309509,0.024281475162506103,0.0288235922813416,-1.37354201717377
0.454875832828589,0.167982647037506,-0.0717672280311585,-1.3783320562362702
0.455481526347668,0.09613206110000609,-0.138827774906158,-1.3064814702987702
0.456087219866747,0.383534404850006,-0.138827774906158,-1.47892287654877
0.456692913385827,0.256598369693756,-0.0023116616249084497,-1.4980830327987702
0.457298606904906,0.275758525943756,-0.0262618569374084,-1.20110061092377
0.457904300423985,0.373954326725006,-0.237023575687408,-1.31366652889252
0.458509993943065,0.203907940006256,0.0767239829063415,-1.3615669195175202
0.459115687462144,0.057811748600006096,-0.0358419350624084,-1.39749221248627
0.459721380981224,0.235043193912506,-0.0837423256874085,-1.55556350154877
0.460327074500303,0.0123063775062561,0.189289900875092,-1.3448017827987702
0.460932768019382,0.108107158756256,0.129414412593842,-1.3615669195175202
0.461538461538462,0.39790452203750604,-0.284923966312408,-1.59867385311127
0.462144155057541,0.09852708063125609,-0.244208634281158,-1.2466059820175202
0.46274984857662,0.16558762750625602,-0.0789522866249085,-1.44060256404877
0.4633555420957,0.050626690006256095,-0.191518204593658,-1.4214424077987702
0.463961235614779,0.0697868462562561,-0.136432755374908,-1.60346389217377
0.464566929133858,0.227858135318756,-0.0597921303749084,-1.41186232967377
0.465172622652938,0.20151292047500602,-0.112482560062408,-1.1484101812362701
0.465778316172017,0.15121751031875602,-0.25857875146865805,-1.29211135311127
0.466384009691096,0.00272629938125614,-0.0909273842811585,-1.53161330623627
0.466989703210176,0.00033127985000613603,-0.124457657718658,-1.58669875545502
0.467595396729255,0.0482316704750061,-0.203493302249908,-1.2681611577987701
0.468201090248334,0.117687236881256,-0.138827774906158,-1.3927021734237701
0.468806783767414,0.20630295953750602,-0.0573971108436584,-1.21786574764252
0.469412477286493,0.282943584537506,-0.0118917397499084,-1.2466059820175202
0.470018170805572,0.208697979068756,-0.134037735843658,-1.26097609920502
0.470623864324652,0.350004131412506,-0.11727259912490799,-1.39749221248627
0.471229557843731,0.18714280328750602,-0.0262618569374084,-1.4046772710800202
0.47183525136281,0.09373704156875609,0.06953892431259151,-1.32085158748627
0.47244094488189,0.0290715142250061,-0.313664200687408,-1.3783320562362702
0.473046638400969,0.232648174381256,-0.28013392724990804,-1.4861079351425202
0.473652331920048,0.381139385318756,0.0144534750938416,-1.52682326717377
0.474258025439128,-0.0523591498374939,-0.241813614749908,-1.36396193904877
0.474863718958207,0.18714280328750602,-0.169963028812408,-1.40707229061127
0.475469412477286,0.28773362360000604,-0.0142867592811584,-1.23223586483002
0.476075105996366,0.127267315006256,-0.198703263187408,-1.39509719295502
0.476680799515445,0.0410466118812561,-0.0861373452186585,-1.44060256404877
0.477286493034525,0.20151292047500602,-0.131642716312408,-1.3328266851425201
0.477892186553604,0.19672288141250602,-0.0526070717811584,-1.46215773983002
0.478497880072683,0.144032451725006,0.00966343603134155,-1.38551711483002
0.479103573591763,0.270968486881256,0.203660018062592,-1.42862746639252
0.479709267110842,0.19672288141250602,-0.12206263818740799,-1.33043166561127
0.480314960629921,0.235043193912506,-0.193913224124908,-1.56514357967377
0.480920654149001,0.175167705631256,-0.00710170068740845,-1.5411933843612702
0.48152634766808,-0.00206373968124386,0.170129744625092,-1.45497268123627
0.482132041187159,0.0841569634437561,0.172524764156342,-1.35677688045502
0.482737734706239,0.23025315485000603,-0.316059220218658,-1.3448017827987702
0.483343428225318,0.0841569634437561,-0.347194474124908,-1.6226240484237702
0.483949121744397,0.139242412662506,-0.28013392724990804,-1.56993361873627
0.484554815263477,0.18235276422500601,-0.0526070717811584,-1.21068068904877
0.485160508782556,0.0266764946937561,0.11983433446884201,-1.08134963436127
0.485766202301635,0.16558762750625602,-0.0765572670936585,-1.47413283748627
0.486371895820715,0.117687236881256,-0.0885323647499085,-1.47892287654877
0.486977589339794,0.00272629938125614,-0.0238668374061584,-1.20589064998627
0.487583282858873,-0.033198993587493904,0.043193709468841594,-1.27774123592377
0.488188976377953,0.23025315485000603,-0.102902481937408,-1.5890937749862701
0.488794669897032,0.199117900943756,-0.0358419350624084,-1.56993361873627
0.489400363416111,0.105712139225006,0.131809432125092,-1.4908979742050201
0.490006056935191,0.134452373600006,-0.0166817788124084,-1.46694777889252
0.49061175045427,0.127267315006256,0.0288235922813416,-1.05500441951752
0.491217443973349,0.235043193912506,-0.0142867592811584,-1.1532002202987701
0.491823137492429,0.0362565728187561,-0.232233536624908,-1.4262324468612702
0.492428831011508,0.103317119693756,-0.335219376468658,-1.46694777889252
0.493034524530587,0.273363506412506,-0.0957174233436585,-1.4046772710800202
0.493640218049667,0.0889470025062561,0.0599588461875916,-1.36875197811127
0.494245911568746,0.158402568912506,-0.0023116616249084497,-1.2130757085800201
0.494851605087826,0.452989971256256,-0.0166817788124084,-1.0454243413925202
0.495457298606905,0.20630295953750602,-0.198703263187408,-1.2585810796737702
0.496062992125984,0.0793669243812561,-0.165172989749908,-1.4310224859237701
0.496668685645064,0.16558762750625602,-0.177148087406158,-1.4046772710800202
0.497274379164143,0.321263897037506,-0.0669771889686585,-1.54837844295502
0.497880072683222,0.20630295953750602,-0.0837423256874085,-1.46215773983002
0.498485766202302,0.16079758844375602,0.0288235922813416,-1.21786574764252
0.499091459721381,0.235043193912506,-0.138827774906158,-1.3711469976425201
0.49969715324046,0.239833232975006,-0.363959610843658,-1.2202607671737702
0.50030284675954,0.0913420220375061,-0.028656876468658398,-1.4693427984237701
0.500908540278619,0.0458366509437561,-0.177148087406158,-1.4693427984237701
0.501514233797698,0.144032451725006,-0.167568009281158,-1.52682326717377
0.502119927316778,0.167982647037506,-0.0597921303749084,-1.4645527593612702
0.502725620835857,0.254203350162506,0.0360086508750916,-1.2250508062362702
0.503331314354936,0.172772686100006,0.0264285727500916,-1.3328266851425201
0.503937007874016,-0.0571491888999939,-0.0142867592811584,-1.41904738826752
0.504542701393095,0.0649968071937561,-0.0214718178749084,-1.42862746639252
0.505148394912174,0.120082256412506,0.052773787593841597,-1.18433547420502
0.505754088431254,0.0362565728187561,-0.0765572670936585,-1.41665236873627
0.506359781950333,0.23025315485000603,-0.0334469155311584,-1.33761672420502
0.506965475469413,0.120082256412506,-0.177148087406158,-1.36875197811127
0.507571168988492,0.20630295953750602,-0.157987931156158,-1.5507734624862701
0.508176862507571,0.18235276422500601,-0.0909273842811585,-1.35917189998627
0.50878255602665,0.139242412662506,-0.0214718178749084,-1.19391555233002
0.50938824954573,0.14642747125625602,0.158154646968842,-1.40707229061127
0.509993943064809,0.108107158756256,8.335790634155139e-05,-1.45736770076752
0.510599636583889,0.292523662662506,-0.11966761865615799,-1.2202607671737702
0.511205330102968,0.122477275943756,-0.0837423256874085,-1.09811477108002
0.511811023622047,0.17037766656875603,-0.0981124428749085,-1.38551711483002
0.512416717141127,0.103317119693756,-0.0765572670936585,-1.27055617733002
0.513022410660206,-0.22719557561874398,-0.045422013187408405,-1.05500441951752
0.513628104179285,0.25899338922500603,-0.0885323647499085,-1.18912551326752
0.514233797698365,0.179957744693756,0.0767239829063415,-1.4813178960800202
0.514839491217444,-0.107444599056244,-0.184333145999908,-1.41665236873627
0.515445184736523,0.100922100162506,-0.028656876468658398,-1.41425734920502
0.516050878255603,0.22067307672500602,-0.0765572670936585,-1.62022902889252
0.516656571774682,0.23025315485000603,-0.0550020913124084,-1.47892287654877
0.517262265293761,-0.107444599056244,0.043193709468841594,-1.29211135311127
0.517867958812841,0.09852708063125609,-0.203493302249908,-1.3879121343612701
0.51847365233192,0.232648174381256,-0.138827774906158,-1.53879836483002
0.519079345850999,0.050626690006256095,-0.0142867592811584,-1.38072707576752
0.519685039370079,0.290128643131256,-0.0765572670936585,-1.56514357967377
0.520290732889158,0.16079758844375602,-0.179543106937408,-0.896933130455017
0.520896426408237,0.13205735406875602,0.07193394384384151,-0.990338892173767
0.521502119927317,0.129662334537506,8.335790634155139e-05,-1.3998872320175202
0.522107813446396,0.0290715142250061,-0.0981124428749085,-1.3495918218612701
0.522713506965475,-0.119419696712494,-0.040631974124908404,-1.73518996639252
0.523319200484555,-0.0739143256187439,-0.11487757959365799,-1.41665236873627
0.523924894003634,0.009911357975006141,-0.0981124428749085,-1.11248488826752
0.524530587522714,-0.0930744818687439,0.0623538657188416,-1.23942092342377
0.525136281041793,0.18235276422500601,-0.0813473061561585,-1.3998872320175202
0.525741974560872,0.22067307672500602,0.0384036704063416,-1.35917189998627
0.526347668079951,0.00033127985000613603,-0.043026993656158405,-1.4094673101425201
0.526953361599031,0.163192607975006,-0.0909273842811585,-1.29690139217377
0.52755905511811,0.256598369693756,0.0791190024375915,-1.1699653570175201
0.52816474863719,0.14642747125625602,0.052773787593841597,-1.1532002202987701
0.528770442156269,0.163192607975006,-0.00949672021865845,-1.10769484920502
0.529376135675348,0.232648174381256,-0.203493302249908,-1.3879121343612701
0.529981829194428,0.266178447818756,-0.15080287256240799,-1.61543898983002
0.530587522713507,0.09613206110000609,-0.31126918115615804,-1.3016914312362702
0.531193216232586,0.09613206110000609,0.0910941000938415,-1.5507734624862701
0.531798909751666,0.244623272037506,0.170129744625092,-1.3831220952987702
0.532404603270745,-0.037989032649993905,-0.234628556156158,-1.2466059820175202
0.533010296789824,0.0290715142250061,-0.0166817788124084,-1.3615669195175202
0.533615990308904,0.189537822818756,0.0264285727500916,-1.23942092342377
0.534221683827983,-0.102654559993744,0.0072684165000915495,-1.36875197811127
0.534827377347062,0.16558762750625602,0.0336136313438416,-1.2801362554550202
0.535433070866142,0.18714280328750602,-0.040631974124908404,-1.29450637264252
0.536038764385221,-0.033198993587493904,-0.045422013187408405,-1.2633711187362702
0.5366444579043,0.129662334537506,0.0384036704063416,-1.3064814702987702
0.53725015142338,-0.004458759212493861,0.050378768062591596,-1.2633711187362702
0.537855844942459,0.21109299860000602,-0.11727259912490799,-1.30408645076752
0.538461538461538,0.314078838443756,-0.107692520999908,-1.3328266851425201
0.539067231980618,0.120082256412506,-0.294504044437408,-1.3615669195175202
0.539672925499697,0.172772686100006,-0.0765572670936585,-1.47652785701752
0.540278619018776,0.112897197818756,0.012058455562591601,-1.1603852788925202
0.540884312537856,0.0745768853187561,-0.229838517093658,-1.27534621639252
0.541490006056935,0.112897197818756,-0.177148087406158,-1.69447463436127
0.542095699576015,0.09613206110000609,-0.177148087406158,-1.52203322811127
0.542701393095094,0.0170964165687561,0.06953892431259151,-1.6393891851425202
0.543307086614173,0.139242412662506,-0.0885323647499085,-1.51484816951752
0.543912780133253,0.270968486881256,-0.0813473061561585,-1.27055617733002
0.544518473652332,0.30928879938125603,0.0623538657188416,-1.1651753179550202
0.545124167171411,0.00033127985000613603,-0.11727259912490799,-1.26097609920502
0.545729860690491,0.19672288141250602,-0.189123185062408,-1.18433547420502
0.54633555420957,0.0626017876625061,-0.0142867592811584,-1.4046772710800202
0.546941247728649,-0.140974872493744,0.047983748531341595,-1.56993361873627
0.547546941247729,0.110502178287506,0.00487339696884155,-1.3232466070175202
0.548152634766808,0.280548565006256,8.335790634155139e-05,-1.1651753179550202
0.548758328285887,0.144032451725006,-0.21067836084365799,-0.753231958580017
0.549364021804967,-0.0691242865562439,-0.136432755374908,-1.17954543514252
0.549969715324046,0.0194914361000061,-0.0717672280311585,-1.3184565679550202
0.550575408843125,0.139242412662506,-0.0597921303749084,-1.07655959529877
0.551181102362205,0.203907940006256,0.0216385336875916,-1.37593703670502
0.551786795881284,0.218278057193756,-0.167568009281158,-1.34240676326752
0.552392489400363,0.28773362360000604,-0.0166817788124084,-1.1052998296737702
0.552998182919443,0.112897197818756,-0.05021205224990841,-1.3448017827987702
0.553603876438522,0.18714280328750602,-0.129247696781158,-1.4094673101425201
0.554209569957601,0.103317119693756,-0.110087540531158,-1.19631057186127
0.554815263476681,0.321263897037506,-0.0885323647499085,-1.41904738826752
0.55542095699576,0.239833232975006,-0.0813473061561585,-1.2681611577987701
0.556026650514839,0.158402568912506,-0.0957174233436585,-1.35917189998627
0.556632344033919,0.316473857975006,-0.189123185062408,-1.37593703670502
0.557238037552998,0.299708721256256,-0.160382950687408,-1.36396193904877
0.557843731072078,0.175167705631256,0.0360086508750916,-1.3280366460800201
0.558449424591157,-0.0930744818687439,0.0264285727500916,-1.19631057186127
0.559055118110236,0.0889470025062561,-0.215468399906158,-1.51005813045502
0.559660811629316,-0.0116438178062439,-0.29929408349990805,-1.57711867733002
0.560266505148395,0.218278057193756,-0.15080287256240799,-1.51005813045502
0.560872198667474,0.335634014225006,-0.208283341312408,-1.4094673101425201
0.561477892186554,0.0721818657875061,-0.203493302249908,-1.3998872320175202
0.562083585705633,0.218278057193756,0.0886990805625915,-1.5076631109237701
0.562689279224712,-0.0523591498374939,-0.0765572670936585,-1.43341750545502
0.563294972743792,0.09613206110000609,-0.179543106937408,-1.27055617733002
0.563900666262871,0.177562725162506,-0.0190767983436584,-1.4597627202987702
0.56450635978195,0.0889470025062561,-0.0262618569374084,-1.55556350154877
0.56511205330103,0.218278057193756,0.0360086508750916,-1.27534621639252
0.565717746820109,0.163192607975006,0.00487339696884155,-1.2418159429550202
0.566323440339188,0.00512131891250614,-0.0214718178749084,-1.3783320562362702
0.566929133858268,0.158402568912506,-0.162777970218658,-1.37593703670502
0.567534827377347,0.100922100162506,-0.179543106937408,-1.32085158748627
0.568140520896426,-0.0667292670249939,-0.237023575687408,-1.45736770076752
0.568746214415506,0.23025315485000603,-0.105297501468658,-1.44539260311127
0.569351907934585,0.350004131412506,-0.105297501468658,-1.19391555233002
0.569957601453664,0.311683818912506,-0.244208634281158,-1.3879121343612701
0.570563294972744,0.16558762750625602,-0.0909273842811585,-1.2897163335800201
0.571168988491823,0.311683818912506,-0.0693722084999085,-1.26576613826752
0.571774682010902,0.177562725162506,-0.107692520999908,-1.3615669195175202
0.572380375529982,0.213488018131256,-0.0909273842811585,-1.3184565679550202
0.572986069049061,0.167982647037506,0.12462437353134201,-1.2681611577987701
0.57359176256814,0.163192607975006,0.06953892431259151,-1.33761672420502
0.57419745608722,0.14163743219375602,-0.36874964990615805,-1.25618606014252
0.574803149606299,0.031466533756256104,-0.29929408349990805,-1.46694777889252
0.575408843125379,0.0626017876625061,-0.131642716312408,-1.43581252498627
0.576014536644458,0.108107158756256,-0.131642716312408,-1.1987055913925202
0.576620230163537,0.213488018131256,-0.131642716312408,-1.02147414608002
0.577225923682617,0.00512131891250614,-0.0190767983436584,-1.14122512264252
0.577831617201696,-0.160135028743744,0.0288235922813416,-1.44539260311127
0.578437310720775,0.0458366509437561,-0.0933224038124085,-1.23942092342377
0.579043004239855,0.33802903375625604,0.182104842281342,-0.813107446861267
0.579648697758934,0.18235276422500601,0.107859236812592,-1.21786574764252
0.580254391278013,0.117687236881256,-0.0214718178749084,-1.6657343999862702
0.580860084797093,0.00272629938125614,0.0192435141563416,-1.17954543514252
0.581465778316172,0.0697868462562561,0.00487339696884155,-1.4645527593612702
0.582071471835251,0.285338604068756,-0.11966761865615799,-1.4046772710800202
0.582677165354331,0.0697868462562561,-0.11727259912490799,-1.3328266851425201
0.58328285887341,0.16079758844375602,-0.00710170068740845,-1.5076631109237701
0.583888552392489,0.0194914361000061,-0.181938126468658,-1.3783320562362702
0.584494245911569,0.0458366509437561,-0.21067836084365799,-1.47652785701752
0.585099939430648,0.208697979068756,-0.100507462406158,-1.53400832576752
0.585705632949727,0.189537822818756,-0.038236954593658404,-1.3495918218612701
0.586311326468807,0.17037766656875603,0.131809432125092,-1.5076631109237701
0.586917019987886,0.0697868462562561,0.162944686031342,-1.6920796148300201
0.587522713506965,0.251808330631256,-0.0262618569374084,-1.4214424077987702
0.588128407026045,0.0602067681312561,-0.14601283349990798,-1.31366652889252
0.588734100545124,0.0194914361000061,-0.134037735843658,-1.38551711483002
0.589339794064203,0.115292217350006,-0.153197892093658,-1.3232466070175202
0.589945487583283,0.105712139225006,-0.265763810062408,-1.3879121343612701
0.590551181102362,0.0793669243812561,-0.0190767983436584,-1.6393891851425202
0.591156874621442,0.0626017876625061,-0.105297501468658,-1.4813178960800202
0.591762568140521,0.15121751031875602,-0.0693722084999085,-1.3064814702987702
0.5923682616596,0.0697868462562561,0.052773787593841597,-1.0406343023300202
0.59297395517868,0.0482316704750061,-0.177148087406158,-1.3232466070175202
0.593579648697759,0.120082256412506,-0.112482560062408,-1.58190871639252
0.594185342216838,-0.00924879827499386,0.206055037593842,-1.3831220952987702
0.594791035735918,0.0434416314125061,-0.0669771889686585,-1.30408645076752
0.595396729254997,0.189537822818756,-0.253788712406158,-1.40228225154877
0.596002422774076,-0.08109938421249391,-0.0262618569374084,-1.69686965389252
0.596608116293156,0.124872295475006,0.0216385336875916,-1.3400117437362702
0.597213809812235,0.167982647037506,-0.29210902490615803,-1.3112715093612701
0.597819503331314,0.057811748600006096,-0.112482560062408,-1.59148879451752
0.598425196850394,-0.140974872493744,0.0815140219688415,-1.2633711187362702
0.599030890369473,-0.037989032649993905,-0.11966761865615799,-1.49568801326752
0.599636583888552,0.314078838443756,-0.198703263187408,-1.40707229061127
0.600242277407632,0.120082256412506,0.0934891196250915,-1.46694777889252
0.600847970926711,0.0697868462562561,0.225215193843842,-1.51724318904877
0.60145366444579,0.0482316704750061,-0.306479142093658,-1.01189406795502
0.60205935796487,0.144032451725006,-0.11487757959365799,-1.27534621639252
0.602665051483949,0.112897197818756,-0.28013392724990804,-1.34240676326752
0.603270745003028,-0.117024677181244,0.00247837743759155,-1.37593703670502
0.603876438522108,0.254203350162506,0.165339705562592,-1.35438186092377
0.604482132041187,0.0913420220375061,0.0192435141563416,-1.4597627202987702
0.605087825560267,0.22546311578750602,-0.153197892093658,-1.50047805233002
0.605693519079346,0.21588303766250602,-0.0909273842811585,-1.4046772710800202
0.606299212598425,0.050626690006256095,0.047983748531341595,-1.4477876226425201
0.606904906117504,0.424249736881256,-0.20588832178115798,-1.44060256404877
0.607510599636584,0.19193284235000602,-0.0933224038124085,-1.5795136968612702
0.608116293155663,0.100922100162506,0.045588729000091595,-1.47413283748627
0.608721986674743,0.0482316704750061,0.0216385336875916,-1.32085158748627
0.609327680193822,0.18714280328750602,-0.337614395999908,-1.56035354061127
0.609933373712901,0.172772686100006,-0.047817032718658406,-1.57711867733002
0.610539067231981,0.261388408756256,-0.05021205224990841,-1.38551711483002
0.61114476075106,0.235043193912506,-0.241813614749908,-1.03105422420502
0.611750454270139,0.208697979068756,0.0910941000938415,-1.6226240484237702
0.612356147789219,0.021886455631256102,-0.0573971108436584,-1.4813178960800202
0.612961841308298,0.158402568912506,-0.136432755374908,-1.1915205327987701
0.613567534827377,0.0769719048500061,0.12222935400009201,-1.36396193904877
0.614173228346457,0.25899338922500603,-0.14601283349990798,-1.23702590389252
0.614778921865536,0.32844895563125603,-0.201098282718658,-1.48371291561127
0.615384615384615,-0.0260139349937439,0.107859236812592,-1.45018264217377
0.615990308903695,0.179957744693756,-0.045422013187408405,-1.2250508062362702
0.616596002422774,0.199117900943756,-0.110087540531158,-1.30887648983002
0.617201695941853,0.09613206110000609,0.0240335532188416,-1.30887648983002
0.617807389460933,0.09852708063125609,-0.0789522866249085,-1.26576613826752
0.618413082980012,0.153612529850006,-0.234628556156158,-1.39509719295502
0.619018776499091,0.184747783756256,-0.0717672280311585,-1.3064814702987702
0.619624470018171,0.15121751031875602,-0.0573971108436584,-1.43581252498627
0.62023016353725,0.0362565728187561,-0.157987931156158,-1.47173781795502
0.620835857056329,0.285338604068756,0.045588729000091595,-1.1867304937362702
0.621441550575409,0.0123063775062561,0.043193709468841594,-1.05500441951752
0.622047244094488,-0.0284089545249939,-0.148407853031158,-1.3711469976425201
0.622652937613568,0.251808330631256,-0.232233536624908,-1.21068068904877
0.623258631132647,0.0266764946937561,-0.141222794437408,-1.3400117437362702
0.623864324651726,0.280548565006256,-0.0214718178749084,-1.5124531499862701
0.624470018170806,0.232648174381256,0.0551688071250916,-1.3184565679550202
0.625075711689885,-0.0308039740562439,0.06953892431259151,-1.16757033748627
0.625681405208964,0.227858135318756,-0.110087540531158,-1.48371291561127
0.626287098728044,0.292523662662506,-0.045422013187408405,-1.2801362554550202
0.626892792247123,0.055416729068756096,-0.00949672021865845,-1.30408645076752
0.627498485766202,-0.160135028743744,-0.124457657718658,-1.33522170467377
0.628104179285282,-0.174505145931244,0.045588729000091595,-1.27055617733002
0.628709872804361,0.09852708063125609,-0.0142867592811584,-1.3783320562362702
0.62931556632344,0.153612529850006,-0.179543106937408,-1.12445998592377
0.62992125984252,0.0362565728187561,-0.0765572670936585,-1.29690139217377
0.630526953361599,0.172772686100006,-0.043026993656158405,-1.2250508062362702
0.631132646880678,0.0913420220375061,-0.179543106937408,-1.29929641170502
0.631738340399758,0.14642747125625602,-0.189123185062408,-1.55316848201752
0.632344033918837,0.0410466118812561,-0.229838517093658,-1.43581252498627
0.632949727437916,-0.00206373968124386,-0.225048478031158,-1.4597627202987702
0.633555420956996,0.232648174381256,-0.124457657718658,-1.55556350154877
0.634161114476075,0.129662334537506,-0.191518204593658,-1.1867304937362702
0.634766807995154,-0.0308039740562439,-0.306479142093658,-1.36875197811127
0.635372501514234,0.112897197818756,-0.102902481937408,-1.6058589117050202
0.635978195033313,0.232648174381256,0.07432896337509151,-1.3328266851425201
0.636583888552392,0.184747783756256,-0.0597921303749084,-1.3495918218612701
0.637189582071472,-0.00924879827499386,-0.169963028812408,-1.44060256404877
0.637795275590551,0.055416729068756096,-0.105297501468658,-1.1867304937362702
0.638400969109631,0.273363506412506,-0.126852677249908,-1.27774123592377
0.63900666262871,0.294918682193756,-0.0909273842811585,-0.978363794517517
0.639612356147789,0.199117900943756,-0.193913224124908,-1.2082856695175201
0.640218049666869,-0.13378981389999398,-0.12206263818740799,-1.56993361873627
0.640823743185948,0.00272629938125614,0.0791190024375915,-1.5028730718612702
0.641429436705027,0.172772686100006,0.031218611812591602,-1.5028730718612702
0.642035130224107,0.261388408756256,-0.0957174233436585,-1.27774123592377
0.642640823743186,0.22546311578750602,-0.0981124428749085,-1.3998872320175202
0.643246517262265,0.237438213443756,-0.028656876468658398,-1.3495918218612701
0.643852210781345,0.18235276422500601,-0.14601283349990798,-1.2681611577987701
0.644457904300424,0.0482316704750061,-0.112482560062408,-1.09811477108002
0.645063597819503,0.23025315485000603,-0.246603653812408,-1.03584426326752
0.645669291338583,0.199117900943756,-0.00949672021865845,-1.30408645076752
0.646274984857662,0.129662334537506,0.012058455562591601,-1.40228225154877
0.646880678376741,0.256598369693756,-0.102902481937408,-1.21068068904877
0.647486371895821,-0.035594013118743904,-0.0597921303749084,-1.3064814702987702
0.6480920654149,-0.0978645209312439,-0.169963028812408,-1.3783320562362702
0.648697758933979,0.172772686100006,-0.038236954593658404,-1.2729511968612701
0.649303452453059,0.17037766656875603,-0.160382950687408,-1.27774123592377
0.649909145972138,0.13684739313125602,-0.0645821694374085,-1.33043166561127
0.650514839491217,0.057811748600006096,-0.0166817788124084,-1.2034956304550202
0.651120533010297,0.17037766656875603,-0.0621871499061584,-1.3112715093612701
0.651726226529376,-0.033198993587493904,-0.167568009281158,-1.41904738826752
0.652331920048455,-0.0308039740562439,0.050378768062591596,-1.23463088436127
0.652937613567535,0.0817619439125061,0.0264285727500916,-1.3711469976425201
0.653543307086614,0.117687236881256,-0.294504044437408,-1.27774123592377
0.654149000605693,-0.021223895931243898,-0.222653458499908,-1.36396193904877
0.654754694124773,0.208697979068756,-0.215468399906158,-1.5076631109237701
0.655360387643852,0.20151292047500602,-0.141222794437408,-1.38551711483002
0.655966081162932,0.0266764946937561,-0.0669771889686585,-1.1987055913925202
0.656571774682011,0.0889470025062561,-0.0933224038124085,-1.39509719295502
0.65717746820109,-0.0691242865562439,-0.100507462406158,-1.19391555233002
0.65778316172017,0.14163743219375602,0.0384036704063416,-1.16278029842377
0.658388855239249,0.0889470025062561,8.335790634155139e-05,-1.54358840389252
0.658994548758328,-0.00206373968124386,-0.143617813968658,-1.20589064998627
0.659600242277408,0.27815354547500604,-0.0118917397499084,-1.3016914312362702
0.660205935796487,0.213488018131256,-0.12206263818740799,-1.09811477108002
0.660811629315566,0.16558762750625602,-0.112482560062408,-1.3495918218612701
0.661417322834646,0.22067307672500602,-0.131642716312408,-1.41665236873627
0.662023016353725,0.057811748600006096,-0.143617813968658,-1.2466059820175202
0.662628709872804,0.134452373600006,-0.191518204593658,-1.56514357967377
0.663234403391884,0.00272629938125614,-0.316059220218658,-1.47173781795502
0.663840096910963,-0.021223895931243898,-0.0621871499061584,-1.3879121343612701
0.664445790430042,0.0626017876625061,0.00247837743759155,-1.2633711187362702
0.665051483949122,-0.0284089545249939,-0.028656876468658398,-1.30408645076752
0.665657177468201,-0.023618915462493898,-0.110087540531158,-1.3927021734237701
0.66626287098728,0.0194914361000061,-0.0885323647499085,-1.3663569585800202
0.66686856450636,0.117687236881256,-0.239418595218658,-1.29450637264252
0.667474258025439,0.390719463443756,0.100674178218842,-1.5124531499862701
0.668079951544518,0.32844895563125603,0.232400252437592,-1.3184565679550202
0.668685645063598,0.0410466118812561,0.0863040610313415,-1.41665236873627
0.669291338582677,0.15600754938125602,0.0264285727500916,-1.3831220952987702
0.669897032101756,0.17037766656875603,-0.136432755374908,-0.930463403892517
0.670502725620836,0.24222825250625601,0.043193709468841594,-1.4861079351425202
0.671108419139915,0.0889470025062561,-0.148407853031158,-0.8825630132675171
0.671714112658994,0.103317119693756,-0.234628556156158,-1.13643508358002
0.672319806178074,0.09373704156875609,-0.131642716312408,-1.46215773983002
0.672925499697153,0.15600754938125602,-0.179543106937408,-1.22744582576752
0.673531193216233,0.112897197818756,-0.043026993656158405,-1.62501906795502
0.674136886735312,-0.0164338568687439,-0.0789522866249085,-1.2633711187362702
0.674742580254391,0.402694561100006,-0.00710170068740845,-1.24900100154877
0.675348273773471,0.426644756412506,0.103069197750092,-1.3400117437362702
0.67595396729255,0.124872295475006,-0.189123185062408,-1.4693427984237701
0.676559660811629,-0.00206373968124386,-0.0933224038124085,-1.4382075445175202
0.677165354330709,0.244623272037506,-0.0573971108436584,-1.21068068904877
0.677771047849788,0.122477275943756,-0.229838517093658,-1.30887648983002
0.678376741368867,-0.08109938421249391,-0.12206263818740799,-1.5459834234237702
0.678982434887947,0.13684739313125602,-0.0238668374061584,-1.3280366460800201
0.679588128407026,0.273363506412506,-0.0573971108436584,-1.39749221248627
0.680193821926105,-0.035594013118743904,0.012058455562591601,-1.6322041265487701
0.680799515445185,0.232648174381256,-0.0238668374061584,-1.4262324468612702
0.681405208964264,0.129662334537506,-0.0789522866249085,-1.36396193904877
0.682010902483343,0.0410466118812561,-0.0861373452186585,-1.3615669195175202
0.682616596002423,0.203907940006256,-0.34240443506240803,-1.1484101812362701
0.683222289521502,0.0817619439125061,-0.0214718178749084,-1.46215773983002
0.683827983040581,0.254203350162506,-0.0023116616249084497,-1.30408645076752
0.684433676559661,0.203907940006256,-0.105297501468658,-1.26576613826752
0.68503937007874,0.055416729068756096,-0.045422013187408405,-1.39509719295502
0.68564506359782,0.31886887750625603,-0.0981124428749085,-1.35198684139252
0.686250757116899,0.390719463443756,0.00487339696884155,-1.4262324468612702
0.686856450635978,0.0889470025062561,-0.0669771889686585,-1.38551711483002
0.687462144155058,-0.035594013118743904,-0.141222794437408,-1.4597627202987702
0.688067837674137,-0.0308039740562439,-0.0669771889686585,-1.4214424077987702
0.688673531193216,-0.033198993587493904,-0.0957174233436585,-1.25379104061127
0.689279224712296,0.0602067681312561,-0.167568009281158,-1.2897163335800201
0.689884918231375,0.350004131412506,0.0288235922813416,-1.21068068904877
0.690490611750454,-0.0523591498374939,0.100674178218842,-1.21786574764252
0.691096305269534,0.177562725162506,-0.141222794437408,-1.35917189998627
0.691701998788613,0.270968486881256,-0.239418595218658,-1.33043166561127
0.692307692307692,-0.0571491888999939,-0.148407853031158,-1.47413283748627
0.692913385826772,0.053021709537506095,0.0264285727500916,-1.4214424077987702
0.693519079345851,0.0817619439125061,0.0982791586875915,-1.39030715389252
0.69412477286493,0.323658916568756,-0.11966761865615799,-1.3328266851425201
0.69473046638401,0.421854717350006,0.0192435141563416,-1.31366652889252
0.695336159903089,0.0123063775062561,-0.040631974124908404,-1.49568801326752
0.695941853422168,-0.061939227962493904,-0.0334469155311584,-1.55316848201752
0.696547546941248,0.31886887750625603,-0.162777970218658,-1.23223586483002
0.697153240460327,0.115292217350006,0.0144534750938416,-1.30408645076752
0.697758933979406,-0.0427790717124939,0.165339705562592,-1.26576613826752
0.698364627498486,0.122477275943756,-0.186728165531158,-1.2585810796737702
0.698970321017565,-0.023618915462493898,-0.0597921303749084,-1.8070405523300201
0.699576014536644,0.0865519829750061,-0.0550020913124084,-1.8190156499862702
0.700181708055724,0.227858135318756,0.00966343603134155,-1.6058589117050202
0.700787401574803,0.24701829156875602,0.134204451656342,-0.937648462486267
0.701393095093882,0.13205735406875602,0.0264285727500916,-1.36875197811127
0.701998788612962,-0.0284089545249939,-0.047817032718658406,-1.66333938045502
0.702604482132041,0.342819072818756,-0.00710170068740845,-1.21547072811127
0.703210175651121,0.213488018131256,-0.0693722084999085,-1.1915205327987701
0.7038158691702,0.254203350162506,-0.05021205224990841,-1.25379104061127
0.704421562689279,0.0913420220375061,0.040798689937591594,-1.2466059820175202
0.705027256208359,-0.014038837337493901,0.012058455562591601,-1.2513960210800201
0.705632949727438,-0.0116438178062439,0.143784529781342,-1.2466059820175202
0.706238643246517,0.203907940006256,-0.0933224038124085,-1.26097609920502
0.706844336765597,0.285338604068756,0.045588729000091595,-1.3064814702987702
0.707450030284676,0.127267315006256,-0.0023116616249084497,-1.16278029842377
0.708055723803755,0.450594951725006,-0.263368790531158,-1.41904738826752
0.708661417322835,0.393114482975006,-0.0645821694374085,-1.4262324468612702
0.709267110841914,0.203907940006256,-0.12206263818740799,-1.27534621639252
0.709872804360993,0.239833232975006,-0.0597921303749084,-1.30887648983002
0.710478497880073,0.057811748600006096,-0.0669771889686585,-1.26097609920502
0.711084191399152,0.249413311100006,0.0288235922813416,-1.4980830327987702
0.711689884918231,0.18714280328750602,-0.15080287256240799,-1.44060256404877
0.712295578437311,0.024281475162506103,-0.107692520999908,-1.23223586483002
0.71290127195639,0.304498760318756,8.335790634155139e-05,-1.40707229061127
0.713506965475469,0.115292217350006,-0.153197892093658,-1.3998872320175202
0.714112658994549,0.0266764946937561,0.0623538657188416,-1.2250508062362702
0.714718352513628,-0.0164338568687439,-0.004706681156158451,-1.25379104061127
0.715324046032707,0.172772686100006,-0.0142867592811584,-1.3112715093612701
0.715929739551787,0.0913420220375061,-0.00710170068740845,-1.26097609920502
0.716535433070866,-0.00206373968124386,0.12462437353134201,-1.29450637264252
0.717141126589945,0.232648174381256,0.136599471187592,-1.3615669195175202
0.717746820109025,-0.0284089545249939,-0.177148087406158,-1.31606154842377
0.718352513628104,0.127267315006256,-0.246603653812408,-1.4597627202987702
0.718958207147184,0.213488018131256,-0.0741622475624085,-1.6010688726425202
0.719563900666263,0.0266764946937561,0.158154646968842,-1.32564162654877
0.720169594185342,0.223068096256256,-0.0214718178749084,-1.35438186092377
0.720775287704422,0.194327861881256,-0.11487757959365799,-1.2681611577987701
0.721380981223501,0.0194914361000061,0.129414412593842,-1.2681611577987701
0.72198667474258,0.0362565728187561,0.0192435141563416,-1.1987055913925202
0.72259236826166,0.263783428287506,-0.0861373452186585,-1.3495918218612701
0.723198061780739,0.21109299860000602,-0.11487757959365799,-1.23702590389252
0.723803755299818,0.24701829156875602,-0.268158829593658,-1.1100898687362701
0.724409448818898,0.144032451725006,-0.174753067874908,-1.59148879451752
0.725015142337977,0.0889470025062561,-0.0214718178749084,-1.5459834234237702
0.725620835857056,0.100922100162506,-0.0238668374061584,-1.44060256404877
0.726226529376136,0.263783428287506,-0.0789522866249085,-1.5244282476425202
0.726832222895215,-0.040384052181243905,-0.143617813968658,-1.2418159429550202
0.727437916414294,0.26857346735000603,0.06953892431259151,-1.34240676326752
0.728043609933374,0.345214092350006,-0.0190767983436584,-1.52203322811127
0.728649303452453,0.0194914361000061,-0.11727259912490799,-1.35677688045502
0.729254996971532,0.364374248600006,-0.0262618569374084,-0.985548853111267
0.729860690490612,0.175167705631256,-0.268158829593658,-1.00949904842377
0.730466384009691,0.134452373600006,-0.0262618569374084,-1.02626418514252
0.73107207752877,0.0147013970375061,-0.043026993656158405,-1.19631057186127
0.73167777104785,0.0602067681312561,-0.12206263818740799,-1.2513960210800201
0.732283464566929,0.16558762750625602,0.0216385336875916,-1.28253127498627
0.732889158086008,0.108107158756256,-0.0550020913124084,-1.27055617733002
0.733494851605088,0.227858135318756,-0.105297501468658,-1.21068068904877
0.734100545124167,0.316473857975006,0.0192435141563416,-1.47652785701752
0.734706238643246,0.16558762750625602,0.0815140219688415,-1.1268550054550202
0.735311932162326,0.0626017876625061,-0.028656876468658398,-1.4214424077987702
0.735917625681405,0.326053936100006,0.00247837743759155,-1.3783320562362702
0.736523319200485,0.203907940006256,-0.110087540531158,-1.1388301031112702
0.737129012719564,0.19672288141250602,-0.0334469155311584,-1.3016914312362702
0.737734706238643,0.223068096256256,-0.141222794437408,-1.2801362554550202
0.738340399757723,0.249413311100006,-0.0789522866249085,-1.2849262945175202
0.738946093276802,0.299708721256256,-0.0645821694374085,-1.0789546148300202
0.739551786795881,0.117687236881256,-0.21067836084365799,-1.20589064998627
0.740157480314961,0.139242412662506,-0.0526070717811584,-1.3232466070175202
0.74076317383404,0.340424053287506,-0.0597921303749084,-1.33522170467377
0.741368867353119,0.158402568912506,-0.169963028812408,-1.32564162654877
0.741974560872199,0.0769719048500061,0.040798689937591594,-1.3879121343612701
0.742580254391278,-0.140974872493744,-0.0909273842811585,-1.3448017827987702
0.743185947910357,-0.061939227962493904,-0.14601283349990798,-1.4310224859237701
0.743791641429437,0.304498760318756,-0.107692520999908,-1.5411933843612702
0.744397334948516,0.057811748600006096,-0.248998673343658,-1.2298408452987701
0.745003028467595,0.285338604068756,-0.131642716312408,-1.39509719295502
0.745608721986675,0.256598369693756,-0.0526070717811584,-1.37354201717377
0.746214415505754,0.057811748600006096,0.0192435141563416,-1.25379104061127
0.746820109024833,0.0434416314125061,-0.107692520999908,-1.41425734920502
0.747425802543913,0.122477275943756,0.045588729000091595,-1.1699653570175201
0.748031496062992,0.103317119693756,0.040798689937591594,-1.35917189998627
0.748637189582071,0.333238994693756,-0.148407853031158,-1.59148879451752
0.749242883101151,0.16558762750625602,-0.0621871499061584,-1.30887648983002
0.74984857662023,0.00512131891250614,-0.0526070717811584,-1.4429975835800202
0.75045427013931,0.285338604068756,-0.0717672280311585,-1.1603852788925202
0.751059963658389,0.172772686100006,0.00966343603134155,-1.2298408452987701
0.751665657177468,0.17037766656875603,-0.102902481937408,-1.4429975835800202
0.752271350696547,0.251808330631256,-0.208283341312408,-1.3998872320175202
0.752877044215627,0.266178447818756,-0.169963028812408,-1.5196382085800202
0.753482737734706,0.09852708063125609,-0.0262618569374084,-1.06458449764252
0.754088431253786,0.0626017876625061,-0.102902481937408,-1.21547072811127
0.754694124772865,0.280548565006256,-0.0621871499061584,-1.4980830327987702
0.755299818291944,0.153612529850006,0.0910941000938415,-1.39509719295502
0.755905511811024,0.148822490787506,-0.0238668374061584,-1.51005813045502
0.756511205330103,0.050626690006256095,-0.045422013187408405,-1.43341750545502
0.757116898849182,0.0147013970375061,-0.234628556156158,-1.31606154842377
0.757722592368262,0.13205735406875602,-0.038236954593658404,-1.46215773983002
0.758328285887341,0.053021709537506095,-0.193913224124908,-1.4525776617050201
0.75893397940642,0.23025315485000603,-0.0885323647499085,-1.70644973201752
0.7595396729255,0.0290715142250061,0.201264998531342,-1.3879121343612701
0.760145366444579,0.0075163384437561395,-0.177148087406158,-1.40228225154877
0.760751059963658,0.100922100162506,-0.213073380374908,-1.23463088436127
0.761356753482738,0.19672288141250602,-0.155592911624908,-1.45018264217377
0.761962447001817,0.16558762750625602,-0.047817032718658406,-1.60825393123627
0.762568140520896,0.0841569634437561,-0.0981124428749085,-1.32085158748627
0.763173834039976,0.27815354547500604,-0.00710170068740845,-1.22265578670502
0.763779527559055,0.22546311578750602,-0.20588832178115798,-1.14122512264252
0.764385221078134,0.167982647037506,-0.162777970218658,-1.4908979742050201
0.764990914597214,-0.0427790717124939,0.14857456884384201,-1.27534621639252
0.765596608116293,0.282943584537506,-0.162777970218658,-1.3663569585800202
0.766202301635373,0.254203350162506,-0.153197892093658,-1.41665236873627
0.766807995154452,0.20630295953750602,-0.160382950687408,-1.3016914312362702
0.767413688673531,0.17037766656875603,0.115044295406342,-1.31366652889252
0.768019382192611,0.239833232975006,0.110254256343842,-1.54358840389252
0.76862507571169,0.239833232975006,-0.0334469155311584,-1.41904738826752
0.769230769230769,-0.0116438178062439,0.0072684165000915495,-1.35677688045502
0.769836462749849,-0.0930744818687439,0.0360086508750916,-1.28732131404877
0.770442156268928,0.14642747125625602,0.0384036704063416,-1.3016914312362702
0.771047849788007,0.235043193912506,-0.191518204593658,-1.1915205327987701
0.771653543307087,0.175167705631256,-0.0573971108436584,-1.29929641170502
0.772259236826166,0.364374248600006,8.335790634155139e-05,-1.37354201717377
0.772864930345245,0.09852708063125609,0.00487339696884155,-1.2082856695175201
0.773470623864325,0.0386515923500061,-0.0765572670936585,-1.43341750545502
0.774076317383404,0.17037766656875603,-0.0765572670936585,-1.2250508062362702
0.774682010902483,0.0362565728187561,0.160549666500092,-1.3879121343612701
0.775287704421563,0.09373704156875609,-0.0142867592811584,-1.5028730718612702
0.775893397940642,0.316473857975006,-0.0885323647499085,-1.41186232967377
0.776499091459721,0.129662334537506,-0.038236954593658404,-1.35198684139252
0.777104784978801,0.0410466118812561,-0.129247696781158,-1.2130757085800201
0.77771047849788,0.17037766656875603,-0.0765572670936585,-1.2034956304550202
0.778316172016959,0.0697868462562561,-0.0885323647499085,-1.21068068904877
0.778921865536039,0.261388408756256,-0.136432755374908,-1.19631057186127
0.779527559055118,0.26857346735000603,-0.193913224124908,-1.2849262945175202
0.780133252574197,0.09373704156875609,-0.28013392724990804,-1.48371291561127
0.780738946093277,0.16558762750625602,-0.0981124428749085,-1.3927021734237701
0.781344639612356,0.14163743219375602,0.0264285727500916,-1.29690139217377
0.781950333131435,0.285338604068756,-0.124457657718658,-1.3184565679550202
0.782556026650515,0.14163743219375602,-0.12206263818740799,-1.3711469976425201
0.783161720169594,-0.0595442084312439,-0.124457657718658,-1.22265578670502
0.783767413688674,0.0434416314125061,-0.136432755374908,-1.3232466070175202
0.784373107207753,0.0889470025062561,-0.0023116616249084497,-1.29929641170502
0.784978800726832,0.148822490787506,-0.0238668374061584,-1.35917189998627
0.785584494245912,0.09613206110000609,-0.0214718178749084,-1.50047805233002
0.786190187764991,-0.0164338568687439,-0.148407853031158,-1.32564162654877
0.78679588128407,0.24222825250625601,-0.0765572670936585,-1.37593703670502
0.78740157480315,0.14642747125625602,-0.047817032718658406,-1.2633711187362702
0.788007268322229,-0.0284089545249939,-0.29210902490615803,-1.0933247320175201
0.788612961841308,0.158402568912506,0.103069197750092,-1.3879121343612701
0.789218655360388,0.15600754938125602,0.11743931493759201,-1.71842482967377
0.789824348879467,-0.00206373968124386,0.016848494625091602,-1.77830031795502
0.790430042398546,0.22067307672500602,0.052773787593841597,-1.00231398983002
0.791035735917626,0.0697868462562561,-0.05021205224990841,-1.48371291561127
0.791641429436705,0.0697868462562561,-0.004706681156158451,-1.51724318904877
0.792247122955784,0.057811748600006096,0.0192435141563416,-1.18912551326752
0.792852816474864,0.304498760318756,-0.0741622475624085,-1.4813178960800202
0.793458509993943,0.20630295953750602,-0.124457657718658,-1.28253127498627
0.794064203513022,0.055416729068756096,-0.328034317874908,-1.57711867733002
0.794669897032102,0.431434795475006,-0.165172989749908,-1.2729511968612701
0.795275590551181,0.16558762750625602,0.0288235922813416,-1.10769484920502
0.79588128407026,0.0626017876625061,-0.126852677249908,-1.3232466070175202
0.79648697758934,0.189537822818756,-0.215468399906158,-1.32085158748627
0.797092671108419,0.20630295953750602,-0.0526070717811584,-1.40228225154877
0.797698364627498,0.139242412662506,-0.265763810062408,-1.46215773983002
0.798304058146578,0.0817619439125061,-0.0741622475624085,-1.45497268123627
0.798909751665657,0.153612529850006,0.191684920406342,-1.24421096248627
0.799515445184736,0.148822490787506,0.0216385336875916,-1.3400117437362702
0.800121138703816,0.19672288141250602,-0.0190767983436584,-1.46694777889252
0.800726832222895,0.36916428766250603,-0.0933224038124085,-1.3927021734237701
0.801332525741975,0.127267315006256,-0.0334469155311584,-1.29690139217377
0.801938219261054,0.189537822818756,-0.0861373452186585,-1.4310224859237701
0.802543912780133,0.158402568912506,-0.15080287256240799,-1.4861079351425202
0.803149606299213,0.122477275943756,-0.028656876468658398,-1.36875197811127
0.803755299818292,0.18235276422500601,-0.0334469155311584,-1.4477876226425201
0.804360993337371,0.290128643131256,-0.153197892093658,-1.1915205327987701
0.804966686856451,0.237438213443756,0.0863040610313415,-1.30887648983002
0.80557238037553,0.13684739313125602,0.129414412593842,-1.4094673101425201
0.806178073894609,0.263783428287506,0.00966343603134155,-1.37593703670502
0.806783767413689,0.16558762750625602,-0.172358048343658,-1.2633711187362702
0.807389460932768,0.19672288141250602,-0.047817032718658406,-1.64657424373627
0.807995154451847,0.153612529850006,-0.028656876468658398,-1.68968459529877
0.808600847970927,0.208697979068756,-0.0190767983436584,-1.37593703670502
0.809206541490006,0.179957744693756,0.0982791586875915,-1.29450637264252
0.809812235009085,-0.109839618587494,-0.141222794437408,-1.06937453670502
0.810417928528165,0.031466533756256104,-0.215468399906158,-1.36875197811127
0.811023622047244,0.34760911188125604,-0.040631974124908404,-1.53640334529877
0.811629315566323,-0.0260139349937439,0.043193709468841594,-1.5028730718612702
0.812235009085403,-0.035594013118743904,-0.32084925928115804,-1.3927021734237701
0.812840702604482,0.254203350162506,-0.241813614749908,-1.3448017827987702
0.813446396123562,0.18235276422500601,-0.0334469155311584,-1.39749221248627
0.814052089642641,0.120082256412506,0.0288235922813416,-1.46215773983002
0.81465778316172,0.139242412662506,0.0886990805625915,-1.4310224859237701
0.815263476680799,0.17037766656875603,-0.0765572670936585,-1.2729511968612701
0.815869170199879,-0.00924879827499386,-0.225048478031158,-1.49329299373627
0.816474863718958,0.19193284235000602,-0.0118917397499084,-1.4429975835800202
0.817080557238038,0.0889470025062561,0.184499861812592,-1.19631057186127
0.817686250757117,0.148822490787506,-0.232233536624908,-1.15080520076752
0.818291944276196,0.199117900943756,-0.129247696781158,-1.5292182867050201
0.818897637795276,0.18714280328750602,-0.028656876468658398,-1.27055617733002
0.819503331314355,0.16079758844375602,-0.0526070717811584,-1.3112715093612701
0.820109024833434,-0.0715193060874939,-0.0023116616249084497,-1.55316848201752
0.820714718352514,0.153612529850006,-0.11487757959365799,-0.861007837486267
0.821320411871593,0.0123063775062561,-0.0166817788124084,-1.26576613826752
0.821926105390672,0.0865519829750061,-0.335219376468658,-1.72321486873627
0.822531798909752,0.00033127985000613603,-0.32084925928115804,-1.58190871639252
0.823137492428831,0.15121751031875602,-0.0693722084999085,-1.32564162654877
0.82374318594791,0.208697979068756,-0.0166817788124084,-1.3064814702987702
0.82434887946699,0.203907940006256,-0.028656876468658398,-1.25379104061127
0.824954572986069,0.515260479068756,-0.00710170068740845,-1.33522170467377
0.825560266505148,0.0745768853187561,8.335790634155139e-05,-1.34719680233002
0.826165960024228,0.112897197818756,0.0288235922813416,-1.21547072811127
0.826771653543307,0.292523662662506,0.177314803218842,-1.55316848201752
0.827377347062386,0.122477275943756,-0.004706681156158451,-1.4813178960800202
0.827983040581466,0.0793669243812561,-0.0621871499061584,-1.1819404546737702
0.828588734100545,0.110502178287506,-0.043026993656158405,-1.4861079351425202
0.829194427619624,0.20151292047500602,-0.237023575687408,-1.43581252498627
0.829800121138704,0.0147013970375061,-0.253788712406158,-1.3927021734237701
0.830405814657783,0.199117900943756,0.0072684165000915495,-1.77111525936127
0.831011508176863,0.357189190006256,0.0336136313438416,-1.32085158748627
0.831617201695942,0.158402568912506,-0.0957174233436585,-0.940043482017517
0.832222895215021,0.316473857975006,-0.0741622475624085,-1.1987055913925202
0.8328285887341,0.16558762750625602,-0.0238668374061584,-1.2681611577987701
0.83343428225318,0.00512131891250614,-0.0693722084999085,-1.15559523983002
0.834039975772259,0.148822490787506,-0.129247696781158,-1.17715041561127
0.834645669291339,0.144032451725006,-0.0334469155311584,-1.19631057186127
0.835251362810418,-0.0475691107749939,-0.028656876468658398,-1.2298408452987701
0.835857056329497,0.227858135318756,-0.00949672021865845,-1.44060256404877
0.836462749848577,0.292523662662506,-0.0909273842811585,-1.36396193904877
0.837068443367656,0.0434416314125061,-0.0238668374061584,-1.44060256404877
0.837674136886735,0.189537822818756,-0.126852677249908,-1.53640334529877
0.838279830405815,-0.0451740912437439,-0.225048478031158,-1.3232466070175202
0.838885523924894,0.0123063775062561,-0.112482560062408,-1.51484816951752
0.839491217443973,0.33802903375625604,-0.189123185062408,-1.30408645076752
0.840096910963053,0.227858135318756,-0.148407853031158,-1.35677688045502
0.840702604482132,0.153612529850006,-0.0981124428749085,-1.32085158748627
0.841308298001211,0.0458366509437561,-0.0526070717811584,-1.35677688045502
0.841913991520291,0.153612529850006,0.0072684165000915495,-1.54837844295502
0.84251968503937,0.0673918267250061,-0.0334469155311584,-1.21547072811127
0.843125378558449,-0.0427790717124939,-0.220258438968658,-1.31606154842377
0.843731072077529,0.100922100162506,-0.174753067874908,-1.6872895757675201
0.844336765596608,0.09373704156875609,0.043193709468841594,-1.54837844295502
0.844942459115687,0.0194914361000061,0.0551688071250916,-1.3495918218612701
0.845548152634767,0.103317119693756,-0.134037735843658,-1.31606154842377
0.846153846153846,0.148822490787506,-0.198703263187408,-1.3495918218612701
0.846759539672925,-0.0284089545249939,-0.244208634281158,-1.3711469976425201
0.847365233192005,-0.124209735774994,-0.00710170068740845,-1.51484816951752
0.847970926711084,0.0434416314125061,8.335790634155139e-05,-1.19391555233002
0.848576620230164,0.112897197818756,-0.004706681156158451,-1.30887648983002
0.849182313749243,-0.061939227962493904,-0.160382950687408,-1.5890937749862701
0.849788007268322,0.17037766656875603,-0.316059220218658,-1.65854934139252
0.850393700787402,0.354794170475006,0.0958841391563415,-1.03823928279877
0.850999394306481,0.20630295953750602,-0.038236954593658404,-1.1005097906112702
0.85160508782556,0.00033127985000613603,-0.184333145999908,-1.72321486873627
0.85221078134464,0.127267315006256,-0.15080287256240799,-1.3663569585800202
0.852816474863719,0.0649968071937561,-0.0933224038124085,-1.2801362554550202
0.853422168382798,0.09852708063125609,-0.179543106937408,-1.29450637264252
0.854027861901878,0.09852708063125609,-0.0765572670936585,-1.33043166561127
0.854633555420957,0.0721818657875061,8.335790634155139e-05,-1.1819404546737702
0.855239248940036,0.021886455631256102,-0.107692520999908,-1.3064814702987702
0.855844942459116,0.31886887750625603,-0.169963028812408,-1.42383742733002
0.856450635978195,0.402694561100006,-0.05021205224990841,-1.50047805233002
0.857056329497274,0.14163743219375602,-0.0645821694374085,-1.18912551326752
0.857662023016354,0.18235276422500601,-0.167568009281158,-1.29929641170502
0.858267716535433,0.199117900943756,-0.038236954593658404,-1.3711469976425201
0.858873410054512,0.345214092350006,-0.229838517093658,-1.1532002202987701
0.859479103573592,0.09852708063125609,-0.0334469155311584,-1.59627883358002
0.860084797092671,-0.061939227962493904,0.07432896337509151,-1.4980830327987702
0.86069049061175,0.16079758844375602,8.335790634155139e-05,-1.30408645076752
0.86129618413083,0.122477275943756,0.0384036704063416,-1.36875197811127
0.861901877649909,0.103317119693756,-0.112482560062408,-1.38072707576752
0.862507571168988,0.184747783756256,-0.25857875146865805,-1.46215773983002
0.863113264688068,0.333238994693756,-0.191518204593658,-1.37354201717377
0.863718958207147,0.129662334537506,-0.112482560062408,-1.3783320562362702
0.864324651726227,0.00512131891250614,-0.155592911624908,-1.3064814702987702
0.864930345245306,0.21588303766250602,-0.217863419437408,-1.32085158748627
0.865536038764385,0.22067307672500602,-0.30168910303115803,-1.56993361873627
0.866141732283465,0.261388408756256,-0.0837423256874085,-1.6609443609237702
0.866747425802544,0.26857346735000603,-0.0597921303749084,-1.5196382085800202
0.867353119321623,0.127267315006256,-0.00949672021865845,-1.32085158748627
0.867958812840703,0.0745768853187561,-0.00949672021865845,-1.4693427984237701
0.868564506359782,0.0769719048500061,-0.134037735843658,-1.59388381404877
0.869170199878861,0.15600754938125602,-0.129247696781158,-1.38551711483002
0.869775893397941,0.297313701725006,0.047983748531341595,-1.32564162654877
0.87038158691702,0.0410466118812561,-0.004706681156158451,-1.3998872320175202
0.870987280436099,0.14642747125625602,-0.138827774906158,-1.41665236873627
0.871592973955179,0.13205735406875602,-0.160382950687408,-1.4262324468612702
0.872198667474258,-0.0643342474937439,-0.167568009281158,-1.37593703670502
0.872804360993337,0.0697868462562561,-0.004706681156158451,-1.29690139217377
0.873410054512417,0.28773362360000604,-0.172358048343658,-1.38551711483002
0.874015748031496,0.275758525943756,-0.0909273842811585,-1.45018264217377
0.874621441550575,0.134452373600006,-0.0909273842811585,-1.20110061092377
0.875227135069655,0.175167705631256,-0.11487757959365799,-1.31366652889252
0.875832828588734,0.158402568912506,-0.0765572670936585,-1.29450637264252
0.876438522107813,0.179957744693756,0.045588729000091595,-1.22744582576752
0.877044215626893,0.235043193912506,-0.0597921303749084,-1.2729511968612701
0.877649909145972,0.244623272037506,-0.0789522866249085,-1.3232466070175202
0.878255602665051,-0.014038837337493901,-0.043026993656158405,-1.35677688045502
0.878861296184131,0.0458366509437561,-0.14601283349990798,-1.17475539608002
0.87946698970321,0.36916428766250603,0.0144534750938416,-1.17475539608002
0.880072683222289,0.208697979068756,-0.138827774906158,-1.58190871639252
0.880678376741369,0.0338615532875061,-0.160382950687408,-1.10290481014252
0.881284070260448,0.15121751031875602,-0.124457657718658,-1.1915205327987701
0.881889763779528,0.115292217350006,-0.20588832178115798,-1.5124531499862701
0.882495457298607,0.15121751031875602,-0.0023116616249084497,-1.53161330623627
0.883101150817686,0.172772686100006,-0.174753067874908,-1.3711469976425201
0.883706844336766,0.261388408756256,-0.0909273842811585,-1.00710402889252
0.884312537855845,0.0170964165687561,0.203660018062592,-1.4693427984237701
0.884918231374924,0.09373704156875609,0.047983748531341595,-1.34719680233002
0.885523924894004,0.486520244693756,-0.0262618569374084,-1.27055617733002
0.886129618413083,0.19672288141250602,-0.169963028812408,-1.5124531499862701
0.886735311932162,0.213488018131256,0.0072684165000915495,-1.5196382085800202
0.887341005451242,0.0865519829750061,-0.0214718178749084,-1.4597627202987702
0.887946698970321,0.0362565728187561,0.167734725093842,-1.4429975835800202
0.8885523924894,0.263783428287506,0.016848494625091602,-1.5675385992050201
0.88915808600848,0.177562725162506,-0.0597921303749084,-1.53879836483002
0.889763779527559,-0.037989032649993905,0.0815140219688415,-1.51484816951752
0.890369473046638,0.00512131891250614,-0.0957174233436585,-1.57711867733002
0.890975166565718,0.0913420220375061,-0.0310518959999084,-1.48850295467377
0.891580860084797,0.17037766656875603,-0.0861373452186585,-1.43581252498627
0.892186553603876,0.333238994693756,-0.0597921303749084,-1.4046772710800202
0.892792247122956,0.232648174381256,-0.0550020913124084,-1.33522170467377
0.893397940642035,0.129662334537506,0.0551688071250916,-1.31366652889252
0.894003634161115,0.223068096256256,-0.00949672021865845,-1.4525776617050201
0.894609327680194,0.0673918267250061,0.0910941000938415,-1.2585810796737702
0.895215021199273,0.148822490787506,0.0910941000938415,-1.26576613826752
0.895820714718352,0.23025315485000603,8.335790634155139e-05,-1.3495918218612701
0.896426408237432,0.232648174381256,0.0839090415000915,-1.51724318904877
0.897032101756511,0.153612529850006,0.0958841391563415,-1.3016914312362702
0.897637795275591,0.127267315006256,-0.102902481937408,-1.48371291561127
0.89824348879467,0.144032451725006,-0.227443497562408,-1.4046772710800202
0.898849182313749,0.167982647037506,-0.234628556156158,-1.43581252498627
0.899454875832829,0.208697979068756,-0.220258438968658,-1.4597627202987702
0.900060569351908,0.19193284235000602,-0.41186000146865803,-1.36396193904877
0.900666262870987,0.237438213443756,-0.256183731937408,-1.47413283748627
0.901271956390067,-0.07870436468124391,0.0216385336875916,-1.50047805233002
0.901877649909146,0.021886455631256102,0.0575638266563416,-1.36875197811127
0.902483343428225,0.19193284235000602,-0.124457657718658,-1.51484816951752
0.903089036947305,0.100922100162506,-0.045422013187408405,-1.67531447811127
0.903694730466384,0.108107158756256,-0.00949672021865845,-1.38551711483002
0.904300423985463,0.0913420220375061,-0.102902481937408,-1.3016914312362702
0.904906117504543,0.110502178287506,0.0863040610313415,-1.17954543514252
0.905511811023622,-0.0284089545249939,-0.0645821694374085,-1.37593703670502
0.906117504542701,-0.0571491888999939,-0.131642716312408,-1.3328266851425201
0.906723198061781,-0.0954695013999939,-0.0526070717811584,-1.27055617733002
0.90732889158086,0.122477275943756,0.0288235922813416,-1.4262324468612702
0.907934585099939,0.14642747125625602,-0.354379532718658,-1.42383742733002
0.908540278619019,0.120082256412506,-0.138827774906158,-1.45736770076752
0.909145972138098,0.239833232975006,-0.047817032718658406,-1.80464553279877
0.909751665657177,0.261388408756256,-0.12206263818740799,-1.5675385992050201
0.910357359176257,0.383534404850006,0.06474888525009151,-0.849032739830017
0.910963052695336,0.139242412662506,-0.153197892093658,-0.8442427007675171
0.911568746214416,0.0458366509437561,0.016848494625091602,-1.3663569585800202
0.912174439733495,0.031466533756256104,0.0623538657188416,-1.3927021734237701
0.912780133252574,0.0626017876625061,-0.126852677249908,-1.37354201717377
0.913385826771653,0.13205735406875602,-0.167568009281158,-1.3879121343612701
0.913991520290733,0.117687236881256,-0.038236954593658404,-1.41186232967377
0.914597213809812,0.18235276422500601,-0.0693722084999085,-1.3400117437362702
0.915202907328892,0.139242412662506,-0.251393692874908,-1.44539260311127
0.915808600847971,0.282943584537506,0.0072684165000915495,-1.39749221248627
0.91641429436705,0.19672288141250602,-0.134037735843658,-1.3400117437362702
0.91701998788613,0.244623272037506,-0.263368790531158,-1.42383742733002
0.917625681405209,0.110502178287506,-0.0861373452186585,-1.4477876226425201
0.918231374924288,-0.004458759212493861,-0.253788712406158,-1.29450637264252
0.918837068443368,0.244623272037506,-0.138827774906158,-1.39749221248627
0.919442761962447,0.20151292047500602,-0.0909273842811585,-1.38551711483002
0.920048455481526,0.254203350162506,-0.0885323647499085,-0.975968774986267
0.920654149000606,0.30928879938125603,-0.0358419350624084,-1.2082856695175201
0.921259842519685,0.134452373600006,-0.028656876468658398,-1.41186232967377
0.921865536038764,-0.0547541693687439,0.0791190024375915,-1.2633711187362702
0.922471229557844,0.175167705631256,0.0072684165000915495,-1.38551711483002
0.923076923076923,-0.037989032649993905,-0.14601283349990798,-1.2681611577987701
0.923682616596002,0.108107158756256,-0.268158829593658,-1.15559523983002
0.924288310115082,0.031466533756256104,-0.11727259912490799,-1.43581252498627
0.924894003634161,-0.018828876399993897,-0.198703263187408,-1.47173781795502
0.92549969715324,0.28773362360000604,-0.143617813968658,-1.58190871639252
0.92610539067232,0.0123063775062561,-0.215468399906158,-1.3831220952987702
0.926711084191399,0.16558762750625602,-0.256183731937408,-1.33761672420502
0.927316777710478,0.14163743219375602,-0.0118917397499084,-1.59388381404877
0.927922471229558,0.273363506412506,-0.100507462406158,-1.3615669195175202
0.928528164748637,0.23025315485000603,-0.0741622475624085,-1.29450637264252
0.929133858267717,0.0290715142250061,-0.0358419350624084,-1.37593703670502
0.929739551786796,0.26857346735000603,-0.0837423256874085,-1.29690139217377
0.930345245305875,0.302103740787506,-0.0717672280311585,-1.24900100154877
0.930950938824954,0.163192607975006,0.143784529781342,-1.4046772710800202
0.931556632344034,0.153612529850006,-0.0813473061561585,-1.56035354061127
0.932162325863113,0.16079758844375602,-0.208283341312408,-1.32085158748627
0.932768019382193,-0.014038837337493901,0.0575638266563416,-1.6178340093612702
0.933373712901272,0.16079758844375602,-0.0238668374061584,-1.33761672420502
0.933979406420351,0.20151292047500602,-0.160382950687408,-1.2250508062362702
0.934585099939431,0.19672288141250602,-0.25857875146865805,-1.45736770076752
0.93519079345851,0.16558762750625602,-0.27055384912490804,-1.47652785701752
0.935796486977589,0.163192607975006,0.040798689937591594,-1.5890937749862701
0.936402180496669,0.129662334537506,-0.251393692874908,-1.29929641170502
0.937007874015748,0.18714280328750602,-0.0741622475624085,-1.48371291561127
0.937613567534827,0.103317119693756,0.191684920406342,-1.6058589117050202
0.938219261053907,0.0913420220375061,-0.0118917397499084,-1.19631057186127
0.938824954572986,0.22546311578750602,-0.00949672021865845,-0.6622212163925171
0.939430648092065,0.385929424381256,-0.157987931156158,-1.2849262945175202
0.940036341611145,0.184747783756256,-0.134037735843658,-1.2130757085800201
0.940642035130224,-0.0427790717124939,-0.11727259912490799,-0.968783716392517
0.941247728649303,0.122477275943756,-0.253788712406158,-1.55316848201752
0.941853422168383,0.0458366509437561,-0.0597921303749084,-1.4597627202987702
0.942459115687462,0.0649968071937561,-0.191518204593658,-1.46694777889252
0.943064809206541,0.120082256412506,-0.14601283349990798,-1.45018264217377
0.943670502725621,0.24222825250625601,0.016848494625091602,-1.31366652889252
0.9442761962447,0.124872295475006,-0.05021205224990841,-1.3280366460800201
0.94488188976378,0.261388408756256,-0.0166817788124084,-1.11727492733002
0.945487583282859,0.292523662662506,-0.186728165531158,-1.1699653570175201
0.946093276801938,0.203907940006256,-0.0023116616249084497,-1.41425734920502
0.946698970321018,0.0817619439125061,0.07432896337509151,-1.3711469976425201
0.947304663840097,0.0266764946937561,0.12222935400009201,-1.3783320562362702
0.947910357359176,-0.0595442084312439,0.103069197750092,-1.4861079351425202
0.948516050878256,0.112897197818756,-0.0526070717811584,-1.41425734920502
0.949121744397335,0.177562725162506,-0.32084925928115804,-1.11487990779877
0.949727437916414,-0.12899977483749397,-0.217863419437408,-1.3280366460800201
0.950333131435494,-0.0475691107749939,0.06474888525009151,-1.47413283748627
0.950938824954573,0.115292217350006,-0.0957174233436585,-1.3184565679550202
0.951544518473652,0.199117900943756,-0.203493302249908,-1.2681611577987701
0.952150211992732,-0.121814716243744,-0.05021205224990841,-1.52682326717377
0.952755905511811,-0.0739143256187439,-0.00710170068740845,-1.4861079351425202
0.95336159903089,0.122477275943756,-0.160382950687408,-1.3016914312362702
0.95396729254997,0.13684739313125602,0.047983748531341595,-1.3927021734237701
0.954572986069049,0.23025315485000603,0.031218611812591602,-1.2513960210800201
0.955178679588128,0.24701829156875602,-0.275343888187408,-1.23463088436127
0.955784373107208,0.0865519829750061,-0.100507462406158,-1.3927021734237701
0.956390066626287,0.285338604068756,0.016848494625091602,-1.51005813045502
0.956995760145366,0.172772686100006,0.241980330562592,-1.3400117437362702
0.957601453664446,0.0913420220375061,0.179709822750092,-1.39030715389252
0.958207147183525,0.158402568912506,-0.0837423256874085,-1.2202607671737702
0.958812840702604,-0.00206373968124386,-0.0957174233436585,-1.1316450445175201
