Time (s),Accel X (m/s^2),Accel Y (m/s^2),Accel Z (m/s^2)
0.0,0.196233118629456,0.0215179407119751,-0.0583083409309386
0.000605693519079346,-0.0576389516830444,-0.112603153038025,0.22430396375656098
0.00121138703815869,0.047741907691955604,-0.0215924108505249,0.200353768444061
0.00181708055723804,-0.0576389516830444,-0.0263824499130249,-0.0343581456184386
0.00242277407631738,-0.033688756370544394,-0.148528446006775,0.28417945203781103
0.00302846759539673,-0.0169236196517944,0.0263079797744751,0.12371314344406101
0.00363416111447607,0.00702657566070558,-0.0455426061630249,0.018332284069061403
0.00423985463355542,-0.21331522121429403,-0.0982330358505249,0.20274878797531098
0.00484554815263477,-0.23487039699554402,0.0143328821182251,0.305734627819061
0.00545124167171411,-0.0720090688705444,-0.131763309288025,0.360820077037811
0.00605693519079346,-0.0696140493392944,-0.134158328819275,0.118923104381561
0.0066626287098728,0.06690206394195561,-0.0072222936630249,0.24825415906906098
0.00726832222895215,-0.06003397121429439,-0.103023074913025,0.329684823131561
0.0078740157480315,-0.17978494777679402,0.0191229211807251,0.162033455944061
0.00847970926711084,0.0860622201919556,0.150848995399475,0.22909400281906098
0.00908540278619019,0.00702657566070558,0.0598382532119751,0.171613534069061
0.00969109630526953,-0.246845494651794,0.0071478235244751,0.166823495006561
0.0102967898243489,-0.0744040884017944,0.0430731164932251,0.44225074110031104
0.0109024833434282,-0.033688756370544394,-0.08146789913177489,0.775158455944061
0.0115081768625076,-0.0935642446517944,-0.143738406944275,0.39195533094406104
0.0121138703815869,-0.0528489126205444,0.148453975868225,0.12131812391281101
0.0127195639006663,0.00942159519195558,0.0742083703994751,0.190773690319061
0.0133252574197456,0.0237917123794556,-0.146133426475525,0.154848397350311
0.013930950938825,0.06929708347320561,-0.0072222936630249,0.0566525965690614
0.0145366444579043,-0.0049485219955444195,-0.126973270225525,0.0997629481315614
0.0151423379769836,-0.17020486965179402,-0.0335675085067749,0.19316870985031098
0.015748031496063,-0.036083775901794395,-0.0982330358505249,-0.027173087024688597
0.0163537250151423,0.0309767709732056,-0.28264953975677504,0.0662326746940614
0.0169594185342217,0.00702657566070558,-0.0862579381942749,0.0806027918815614
0.017565112053301,0.05971700534820561,-0.253909305381775,0.308129647350311
0.0181708055723804,-0.0672190298080444,0.0406780969619751,0.16442847547531098
0.0187764990914597,0.121987513160706,0.0215179407119751,0.0255173426628114
0.0193821926105391,-0.062428990745544394,-0.124578250694275,0.267414315319061
0.0199878861296184,-0.256425572776794,-3.72350692748983e-05,0.0925778895378114
0.0205935796486978,-0.0576389516830444,-0.129368289756775,0.0877878504753114
0.0211992731677771,0.06929708347320561,-0.0766778600692749,0.37279517469406104
0.0218049666868564,0.07408712253570561,0.0574432336807251,0.257834237194061
0.0224106602059358,0.208208216285706,-0.194033817100525,0.0638376551628114
0.0230163537250151,-0.00734354152679442,-0.136553348350525,-0.00801293077468863
0.0236220472440945,-0.24924051418304402,0.0071478235244751,0.13329322156906098
0.0242277407631738,0.0956422983169556,0.0550482141494751,0.195563729381561
0.0248334342822532,0.16988790378570598,0.0574432336807251,0.16442847547531098
0.0254391278013325,-0.0049485219955444195,0.011937862586975101,0.219513924694061
0.0260448213204119,-0.16062479152679401,0.0095428430557251,0.0686276942253114
0.0266505148394912,0.0142116342544556,-0.124578250694275,0.408720467662811
0.0272562083585706,0.0213966928482056,-0.0120123327255249,0.39195533094406104
0.0278619018776499,-0.119909459495544,0.112528682899475,0.200353768444061
0.0284675953967293,-0.033688756370544394,-0.287439578819275,0.150058358287811
0.0290732889158086,0.0788771615982056,-0.239539188194275,-0.0415432042121886
0.0296789824348879,-0.0791941274642944,-3.72350692748983e-05,0.111738045787811
0.0302846759539673,-0.0744040884017944,-0.028777469444274898,0.0734177332878114
0.0308903694730466,-0.12469949855804399,-0.0670977819442749,0.200353768444061
0.031496062992126,-0.16062479152679401,-0.0742828405380249,0.408720467662811
0.0321017565112053,0.0237917123794556,0.0789984094619751,-0.00322289171218863
0.0327074500302847,-0.0887742055892944,-0.138948367881775,-0.0726784581184386
0.033313143549364,0.0237917123794556,0.0526531946182251,0.212328866100311
0.0339188370684434,0.0956422983169556,0.0598382532119751,0.276994393444061
0.0345245305875227,0.11480245456695601,-0.0910479772567749,0.0734177332878114
0.0351302241066021,0.0453468881607056,-0.160503543663025,0.30333960828781104
0.0357359176256814,0.057321985816955606,-0.206008914756775,0.29375953016281103
0.0363416111447607,0.17467794284820598,-0.141343387413025,-0.23074974718093902
0.0369473046638401,0.162702845191956,-0.126973270225525,0.159638436412811
0.0375529981829194,-0.112724400901794,0.148453975868225,0.18837867078781098
0.0381586917019988,-0.0959592641830444,-0.28983459835052505,0.0566525965690614
0.0387643852210781,-0.0528489126205444,-0.150923465538025,0.257834237194061
0.0393700787401575,-0.0265036977767944,0.016727901649475102,-0.0247780674934386
0.0399757722592368,-0.0767991079330444,-0.232354129600525,0.0207273036003114
0.0405814657783162,-0.0887742055892944,-0.143738406944275,0.47338599500656103
0.0411871592973955,0.0429518686294556,-0.148528446006775,0.245859139537811
0.0417928528164749,-0.103144322776794,-0.167688602256775,0.0853928309440614
0.0423985463355542,0.00942159519195558,-0.110208133506775,0.104552987194061
0.0430042398546336,0.0812721811294556,0.0334930383682251,0.135688241100311
0.0436099333737129,-0.117514439964294,-0.177268680381775,0.190773690319061
0.0442156268927922,-0.0744040884017944,-0.103023074913025,-0.0247780674934386
0.0448213204118716,0.272873743629456,-0.131763309288025,0.28178443250656104
0.0454270139309509,0.0836672006607056,-0.112603153038025,0.365610116100311
0.0460327074500303,-0.105539342308044,-0.148528446006775,0.0255173426628114
0.0466384009691096,0.057321985816955606,-0.179663699913025,-0.103813712024689
0.047244094488189,-0.0312937368392944,-0.0790728796005249,-0.005617911243438629
0.0478497880072683,-0.186970006370544,-0.18205871944427499,0.140478280162811
0.0484554815263477,0.136357630348206,-0.34971008663177505,-0.0367531651496886
0.049061175045427,0.0860622201919556,-0.110208133506775,0.130898202037811
0.0496668685645064,-0.0983542837142944,-0.227564090538025,-0.029568106555938597
0.0502725620835857,0.00463155612945558,-0.18205871944427499,-0.0559133213996886
0.050878255602665,0.162702845191956,-0.009617313194274899,0.31291968641281104
0.0514839491217444,0.363884485816956,-0.035962528038024896,0.162033455944061
0.0520896426408237,-0.0672190298080444,0.0502581750869751,0.116528084850311
0.0526953361599031,0.0333717905044556,0.0598382532119751,0.114133065319061
0.0533010296789824,-0.036083775901794395,-0.0024322546005249,0.20753882703781099
0.0539067231980618,-0.127094518089294,-0.0718878210067749,0.22430396375656098
0.0545124167171411,0.050136927223205605,-0.0838629186630249,0.336869881725311
0.0551181102362205,-0.12948953762054402,-0.179663699913025,0.17879859266281098
0.0557238037552998,-0.0528489126205444,0.011937862586975101,-0.120578848743439
0.0563294972743792,0.0908522592544556,-0.229959110069275,0.039887459850311405
0.0569351907934585,0.19862813816070599,0.0574432336807251,0.23388404188156098
0.0575408843125379,-0.0696140493392944,0.225094600868225,0.181193612194061
0.0581465778316172,0.0309767709732056,-0.229959110069275,0.0255173426628114
0.0587522713506965,0.0309767709732056,-0.158108524131775,0.209933846569061
0.0593579648697759,-0.218105260276794,0.0095428430557251,0.12850318250656098
0.0599636583888552,-0.0720090688705444,-0.035962528038024896,0.18358863172531098
0.0605693519079346,0.00942159519195558,-0.0838629186630249,0.0470725184440614
0.0611750454270139,0.11240743503570601,-0.0503326452255249,0.22909400281906098
0.0617807389460933,0.157912806129456,0.0406780969619751,0.104552987194061
0.0623864324651726,-0.13427957668304402,0.011937862586975101,0.13329322156906098
0.062992125984252,-0.06003397121429439,-0.0263824499130249,0.296154549694061
0.0635978195033313,-0.040873814964294396,-0.08146789913177489,0.0518625575065614
0.0642035130224107,-0.0672190298080444,-0.0766778600692749,0.104552987194061
0.06480920654149,0.15551778659820598,0.0789984094619751,-0.0559133213996886
0.0654149000605694,-0.0528489126205444,0.0861834680557251,0.288969491100311
0.0660205935796487,0.0333717905044556,-0.009617313194274899,0.200353768444061
0.066626287098728,-0.16062479152679401,-0.318574832725525,0.126108162975311
0.0672319806178074,-0.0983542837142944,-0.210798953819275,0.0853928309440614
0.0678376741368867,0.0405568490982056,-0.0575177038192749,0.159638436412811
0.0684433676559661,-0.043268834495544396,0.100553585243225,0.221908944225311
0.0690490611750454,0.047741907691955604,0.117318721961975,0.6410373621940609
0.0696547546941248,0.06690206394195561,-0.0311724889755249,0.25543921766281097
0.0702604482132041,-0.127094518089294,-0.009617313194274899,0.17879859266281098
0.0708661417322835,-0.0193186391830444,-0.227564090538025,0.614692147350311
0.0714718352513628,0.0788771615982056,-0.0910479772567749,0.27459937391281103
0.0720775287704422,-0.136674596214294,0.0550482141494751,0.18837867078781098
0.0726832222895215,-0.0241086782455444,-0.146133426475525,0.0782077723503114
0.0732889158086008,0.0142116342544556,-0.0311724889755249,0.14287329969406098
0.0738946093276802,0.0453468881607056,-0.0311724889755249,0.0734177332878114
0.0745003028467595,-0.0696140493392944,-0.009617313194274899,0.288969491100311
0.0751059963658389,-0.17499490871429402,-0.0575177038192749,0.154848397350311
0.0757116898849182,-0.0217136587142944,-0.194033817100525,0.0207273036003114
0.0763173834039976,0.19383809909820598,0.136478878211975,0.0111472254753114
0.0769230769230769,0.0357668100357056,0.0694183313369751,0.231489022350311
0.0775287704421563,-0.12948953762054402,-0.110208133506775,0.126108162975311
0.0781344639612356,-0.18936502590179402,-0.0886529577255249,-0.027173087024688597
0.078740157480315,-0.0935642446517944,0.0215179407119751,-0.0822585362434386
0.0793458509993943,-0.0312937368392944,0.136478878211975,0.0446774989128114
0.0799515445184737,-0.141464635276794,-0.136553348350525,0.0949729090690614
0.080557238037553,-0.19415506496429402,-0.119788211631775,0.140478280162811
0.0811629315566323,-0.0648240102767944,-0.0503326452255249,0.23388404188156098
0.0817686250757117,-0.0839841665267944,-0.0982330358505249,0.0135422450065614
0.082374318594791,-0.242055455589294,0.0143328821182251,0.0734177332878114
0.0829800121138704,-0.0887742055892944,0.0502581750869751,0.0327024012565614
0.0835857056329497,0.0213966928482056,0.0694183313369751,0.217118905162811
0.0841913991520291,0.208208216285706,-0.009617313194274899,0.339264901256561
0.0847970926711084,0.263293665504456,-0.0790728796005249,0.257834237194061
0.0854027861901878,-0.0217136587142944,-0.0431475866317749,0.0542575770378114
0.0860084797092671,0.0812721811294556,-0.112603153038025,-0.158899161243439
0.0866141732283465,0.0884572397232056,-0.0886529577255249,-0.07028343858718859
0.0872198667474258,0.0261867319107056,-0.0048272741317749,0.0853928309440614
0.0878255602665051,0.20581319675445597,-0.265884403038025,0.14766333875656099
0.0884312537855845,0.0956422983169556,-0.165293582725525,-0.120578848743439
0.0890369473046638,-0.103144322776794,0.0837884485244751,0.039887459850311405
0.0896426408237432,-0.172599889183044,-0.177268680381775,0.245859139537811
0.0902483343428225,-0.136674596214294,0.124503780555725,-0.187639395618439
0.0908540278619019,0.157912806129456,0.0574432336807251,0.17400855360031098
0.0914597213809812,0.0142116342544556,-0.191638797569275,0.300944588756561
0.0920654149000606,-0.0720090688705444,-0.0239874303817749,-0.0559133213996886
0.0926711084191399,-0.0815891469955444,-0.196428836631775,0.154848397350311
0.0932768019382193,-0.107934361839294,-0.0766778600692749,0.035097420787811404
0.0938824954572986,-0.0672190298080444,0.0239129602432251,0.035097420787811404
0.094488188976378,-0.0959592641830444,-0.0239874303817749,0.250649178600311
0.0950938824954573,0.050136927223205605,-0.035962528038024896,0.35363501844406103
0.0956995760145366,0.0884572397232056,-0.0383575475692749,0.24825415906906098
0.096305269533616,0.0285817514419556,-0.0024322546005249,0.162033455944061
0.0969109630526953,-0.0672190298080444,-0.0503326452255249,0.24346412000656098
0.0975166565717747,0.0190016733169556,0.0263079797744751,0.109343026256561
0.098122350090854,0.153122767066956,0.17719421024322501,0.25543921766281097
0.0987280436099334,0.0621120248794556,-0.0263824499130249,0.39435035047531103
0.0993337371290127,-0.000158482933044421,-0.146133426475525,0.33447486219406103
0.0999394306480921,0.0980373178482056,-0.0766778600692749,0.6003220301628109
0.100545124167171,-0.242055455589294,-0.136553348350525,0.36321509656906104
0.101150817686251,-0.100749303245544,-0.165293582725525,0.118923104381561
0.10175651120533,0.0884572397232056,-0.201218875694275,0.126108162975311
0.102362204724409,0.07408712253570561,0.0287029993057251,0.00875220594406137
0.102967898243489,0.105222376441956,0.0885784875869751,0.154848397350311
0.103573591762568,0.00463155612945558,-0.0431475866317749,0.166823495006561
0.104179285281647,0.0956422983169556,-0.0335675085067749,0.0925778895378114
0.104784978800727,-0.115119420433044,-0.028777469444274898,0.23388404188156098
0.105390672319806,-0.0288987173080444,-0.0910479772567749,0.36321509656906104
0.105996365838886,0.050136927223205605,-0.174873660850525,0.20753882703781099
0.106602059357965,-0.0265036977767944,-0.08146789913177489,0.245859139537811
0.107207752877044,0.050136927223205605,0.0358880578994751,0.027912362194061402
0.107813446396124,-0.163019811058044,0.0574432336807251,-0.0607033604621886
0.108419139915203,-0.13427957668304402,-0.239539188194275,-0.0343581456184386
0.109024833434282,-0.0935642446517944,-0.105418094444275,0.00396216688156137
0.109630526953362,0.0285817514419556,-0.0383575475692749,0.16921851453781098
0.110236220472441,0.172282923316956,-0.0383575475692749,0.28178443250656104
0.11084191399152,-0.19894510402679402,-0.0599127233505249,0.195563729381561
0.1114476075106,0.0309767709732056,-0.0335675085067749,0.152453377819061
0.112053301029679,0.16988790378570598,-0.0168023717880249,0.16921851453781098
0.112658994548758,-0.0863791860580444,-0.107813113975525,0.260229256725311
0.113264688067838,-0.00255350246429442,-0.0694928014755249,0.106948006725311
0.113870381586917,0.06690206394195561,0.016727901649475102,0.109343026256561
0.114476075105996,0.0980373178482056,0.138873897743225,0.288969491100311
0.115081768625076,-0.0935642446517944,-0.103023074913025,0.336869881725311
0.115687462144155,0.0261867319107056,-0.0191973913192749,0.236279061412811
0.116293155663234,0.057321985816955606,-0.189243778038025,0.12371314344406101
0.116898849182314,-0.0312937368392944,0.0430731164932251,0.0997629481315614
0.117504542701393,-0.0839841665267944,-0.0024322546005249,0.22909400281906098
0.118110236220472,-0.06003397121429439,-0.28983459835052505,0.176403573131561
0.118715929739552,0.12917257175445598,-0.0263824499130249,-0.0247780674934386
0.119321623258631,0.19383809909820598,0.0215179407119751,-0.103813712024689
0.11992731677771,0.057321985816955606,-0.227564090538025,0.0734177332878114
0.12053301029679,-0.00973856105804442,-0.103023074913025,0.030307381725311403
0.121138703815869,0.0142116342544556,-0.0048272741317749,-0.017593008899688598
0.121744397334949,0.00942159519195558,-0.0383575475692749,0.0710227137565614
0.122350090854028,-0.0217136587142944,0.0861834680557251,0.0446774989128114
0.122955784373107,-0.103144322776794,0.0358880578994751,0.25543921766281097
0.123561477892187,-0.206130162620544,-0.0886529577255249,0.190773690319061
0.124167171411266,-0.0241086782455444,-0.129368289756775,0.447040780162811
0.124772864930345,0.102827356910706,0.0239129602432251,0.226698983287811
0.125378558449425,-0.0863791860580444,-0.148528446006775,0.0734177332878114
0.125984251968504,-0.036083775901794395,-0.0527276647567749,0.0901828700065614
0.126589945487583,0.100432337379456,-0.153318485069275,0.260229256725311
0.127195639006663,0.0405568490982056,-0.0503326452255249,-0.0607033604621886
0.127801332525742,-0.0552439321517944,0.004752803993225099,-0.0128029698371886
0.128407026044821,-0.0911692251205444,0.0334930383682251,0.20274878797531098
0.129012719563901,-0.122304479026794,0.184379268836975,0.0566525965690614
0.12961841308298,-0.127094518089294,0.0263079797744751,0.0422824793815614
0.130224106602059,-0.136674596214294,-0.206008914756775,-0.182849356555939
0.130829800121139,0.054926966285705606,-0.0024322546005249,0.185983651256561
0.131435493640218,0.07408712253570561,0.0526531946182251,0.13808326063156098
0.132041187159297,0.07169210300445561,-0.0072222936630249,0.159638436412811
0.132646880678377,0.12917257175445598,-0.0694928014755249,0.13329322156906098
0.133252574197456,-0.127094518089294,-0.198823856163025,-0.120578848743439
0.133858267716535,-0.110329381370544,0.0143328821182251,-0.10620873155593899
0.134463961235615,0.0621120248794556,-0.0838629186630249,0.22430396375656098
0.135069654754694,0.0333717905044556,-0.0072222936630249,0.315314705944061
0.135675348273773,0.0190016733169556,-0.0024322546005249,0.0925778895378114
0.136281041792853,-0.0145286001205444,-0.0048272741317749,0.106948006725311
0.136886735311932,-0.117514439964294,0.0071478235244751,0.300944588756561
0.137492428831012,0.00702657566070558,-0.0790728796005249,0.20274878797531098
0.138098122350091,0.208208216285706,-0.122183231163025,0.269809334850311
0.13870381586917,-0.0863791860580444,-0.162898563194275,0.260229256725311
0.13930950938825,-0.0456638540267944,0.0909735071182251,0.0422824793815614
0.139915202907329,0.119592493629456,-0.0120123327255249,0.154848397350311
0.140520896426408,0.119592493629456,-0.0886529577255249,0.0662326746940614
0.141126589945488,-0.131884557151794,-0.114998172569275,0.126108162975311
0.141732283464567,-0.210920201683044,-0.177268680381775,0.39195533094406104
0.142337976983646,-0.0983542837142944,0.0454681360244751,0.200353768444061
0.142943670502726,-0.0959592641830444,-0.162898563194275,-0.0319631260871886
0.143549364021805,-0.0528489126205444,-0.0431475866317749,0.00156714735031137
0.144155057540884,-0.0935642446517944,0.011937862586975101,0.0806027918815614
0.144760751059964,-0.0552439321517944,-0.162898563194275,0.140478280162811
0.145366444579043,-0.0241086782455444,-0.146133426475525,-0.0128029698371886
0.145972138098122,0.126777552223206,-0.179663699913025,-0.11099877061843899
0.146577831617202,0.057321985816955606,0.0263079797744751,-0.0343581456184386
0.147183525136281,0.18425802097320598,0.0334930383682251,0.0470725184440614
0.14778921865536,0.06450704441070561,-0.0958380163192749,0.0255173426628114
0.14839491217444,0.06690206394195561,0.0478631555557251,-0.11578880968093899
0.149000605693519,0.0860622201919556,-0.0168023717880249,0.205143807506561
0.149606299212598,0.0166066537857056,0.0406780969619751,0.12131812391281101
0.150211992731678,-0.17499490871429402,-0.0311724889755249,0.17879859266281098
0.150817686250757,-0.364201451683044,0.0598382532119751,0.219513924694061
0.151423379769836,0.0836672006607056,0.110133663368225,0.205143807506561
0.152029073288916,0.0860622201919556,-0.08146789913177489,0.260229256725311
0.152634766807995,-0.0983542837142944,-0.0191973913192749,0.25543921766281097
0.153240460327075,-0.0288987173080444,-0.028777469444274898,0.46141089735031104
0.153846153846154,-0.0744040884017944,-0.136553348350525,0.17400855360031098
0.154451847365233,0.05971700534820561,-0.141343387413025,0.279389412975311
0.155057540884313,-0.0672190298080444,-0.08146789913177489,0.32249976453781104
0.155663234403392,-0.0959592641830444,-0.179663699913025,0.0327024012565614
0.156268927922471,0.12917257175445598,0.0694183313369751,-0.132553946399689
0.156874621441551,-0.0456638540267944,0.0933685266494751,-0.0319631260871886
0.15748031496063,-0.222895299339294,-0.035962528038024896,0.0111472254753114
0.158086008479709,-0.0935642446517944,0.0071478235244751,0.265019295787811
0.158691701998789,-0.0456638540267944,-0.0120123327255249,0.34165992078781104
0.159297395517868,-0.122304479026794,-0.170083621788025,0.231489022350311
0.159903089036947,-0.136674596214294,-0.119788211631775,0.260229256725311
0.160508782556027,-0.117514439964294,-0.129368289756775,0.17400855360031098
0.161114476075106,-0.16541483058929402,-0.122183231163025,0.674567635631561
0.161720169594185,-0.17499490871429402,-0.24193420772552499,0.346449959850311
0.162325863113265,0.00223653659820558,-0.26109436397552505,-0.132553946399689
0.162931556632344,-0.16541483058929402,-0.134158328819275,0.126108162975311
0.163537250151423,-0.17499490871429402,-0.119788211631775,0.154848397350311
0.164142943670503,0.047741907691955604,-0.0718878210067749,0.111738045787811
0.164748637189582,-0.000158482933044421,0.0550482141494751,0.265019295787811
0.165354330708661,-0.117514439964294,0.0694183313369751,0.28417945203781103
0.165960024227741,0.07408712253570561,-0.201218875694275,0.226698983287811
0.16656571774682,-0.17978494777679402,-0.244329227256775,0.209933846569061
0.167171411265899,-0.040873814964294396,-0.0455426061630249,0.253044198131561
0.167777104784979,0.11480245456695601,0.0694183313369751,0.0542575770378114
0.168382798304058,0.11001241550445601,-0.0982330358505249,-0.07028343858718859
0.168988491823137,0.057321985816955606,-0.009617313194274899,0.231489022350311
0.169594185342217,0.0261867319107056,-0.035962528038024896,0.219513924694061
0.170199878861296,-0.0672190298080444,-0.220379031944275,0.159638436412811
0.170805572380376,-0.163019811058044,-0.0958380163192749,-0.0247780674934386
0.171411265899455,-0.107934361839294,-0.009617313194274899,0.16921851453781098
0.172016959418534,-0.191760045433044,-0.0886529577255249,0.13808326063156098
0.172622652937614,0.06929708347320561,-0.114998172569275,0.22430396375656098
0.173228346456693,0.00702657566070558,-0.0527276647567749,0.300944588756561
0.173834039975772,0.0261867319107056,-0.105418094444275,0.19316870985031098
0.174439733494852,-0.033688756370544394,-0.0575177038192749,0.32249976453781104
0.175045427013931,0.0309767709732056,-0.0335675085067749,0.245859139537811
0.17565112053301,-0.036083775901794395,-0.0982330358505249,0.298549569225311
0.17625681405209,-0.127094518089294,-0.0670977819442749,0.22909400281906098
0.176862507571169,-0.0312937368392944,-0.0623077428817749,0.18837867078781098
0.177468201090248,-0.0169236196517944,-0.0311724889755249,0.0901828700065614
0.178073894609328,-0.0720090688705444,-0.0647027624130249,-0.00322289171218863
0.178679588128407,-0.275585729026794,-0.146133426475525,0.320104745006561
0.179285281647486,-0.16062479152679401,-0.0670977819442749,-0.125368887805939
0.179890975166566,-0.136674596214294,-0.210798953819275,0.111738045787811
0.180496668685645,-0.117514439964294,-0.0120123327255249,0.0973679286003114
0.181102362204724,0.0884572397232056,0.215514522743225,0.0614426356315614
0.181708055723804,-0.0744040884017944,-0.0191973913192749,0.411115487194061
0.182313749242883,-0.033688756370544394,-0.028777469444274898,0.162033455944061
0.182919442761962,-0.163019811058044,0.0239129602432251,0.288969491100311
0.183525136281042,-0.177389928245544,0.0095428430557251,0.12371314344406101
0.184130829800121,0.15072774753570597,0.0191229211807251,0.257834237194061
0.1847365233192,0.0190016733169556,0.0813934289932251,0.130898202037811
0.18534221683828,-0.0959592641830444,-0.0503326452255249,-0.0774684971809386
0.185947910357359,0.050136927223205605,-0.028777469444274898,0.0662326746940614
0.186553603876439,-0.0839841665267944,0.0239129602432251,0.116528084850311
0.187159297395518,-0.30193094387054403,0.134083858680725,0.0806027918815614
0.187764990914597,0.0764821420669556,-0.268279422569275,0.150058358287811
0.188370684433677,0.05971700534820561,-0.141343387413025,0.13808326063156098
0.188976377952756,0.263293665504456,0.179589229774475,0.5620017176628109
0.189582071471835,-0.0217136587142944,-0.0263824499130249,0.0614426356315614
0.190187764990915,-0.12469949855804399,-0.0670977819442749,-0.477436758899689
0.190793458509994,0.047741907691955604,-0.0958380163192749,-0.18045433702468902
0.191399152029073,-0.103144322776794,-0.0431475866317749,0.114133065319061
0.192004845548153,-0.0241086782455444,0.0454681360244751,0.116528084850311
0.192610539067232,-0.033688756370544394,-0.217984012413025,0.159638436412811
0.193216232586311,0.0860622201919556,-0.0503326452255249,0.221908944225311
0.193821926105391,-0.0744040884017944,0.0837884485244751,-0.0918386143684386
0.19442761962447,-0.191760045433044,-0.0862579381942749,0.109343026256561
0.195033313143549,-0.12469949855804399,-0.129368289756775,0.027912362194061402
0.195639006662629,0.0908522592544556,-0.167688602256775,0.140478280162811
0.196244700181708,-0.110329381370544,-0.119788211631775,0.0327024012565614
0.196850393700787,-0.110329381370544,-0.198823856163025,0.0614426356315614
0.197456087219867,0.0812721811294556,-0.0527276647567749,0.018332284069061403
0.198061780738946,0.0213966928482056,-0.0263824499130249,0.0686276942253114
0.198667474258025,0.050136927223205605,-0.148528446006775,0.114133065319061
0.199273167777105,0.11001241550445601,-0.0431475866317749,0.140478280162811
0.199878861296184,0.00223653659820558,0.0670233118057251,0.200353768444061
0.200484554815263,-0.19894510402679402,0.0143328821182251,0.0470725184440614
0.201090248334343,-0.0839841665267944,-0.028777469444274898,0.253044198131561
0.201695941853422,0.052531946754455605,-0.0455426061630249,0.157243416881561
0.202301635372502,-0.258820592308044,0.181984249305725,0.176403573131561
0.202907328891581,-0.0576389516830444,0.129293819618225,0.221908944225311
0.20351302241066,0.11480245456695601,0.0837884485244751,0.102157967662811
0.20411871592974,-0.0815891469955444,0.0143328821182251,0.12371314344406101
0.204724409448819,0.0860622201919556,-0.186848758506775,0.23388404188156098
0.205330102967898,-0.15343973293304403,-0.0958380163192749,-0.0319631260871886
0.205935796486978,-0.127094518089294,-0.0311724889755249,0.135688241100311
0.206541490006057,0.0142116342544556,-0.0862579381942749,0.0446774989128114
0.207147183525136,-0.0696140493392944,-0.138948367881775,0.140478280162811
0.207752877044216,-0.136674596214294,-0.0239874303817749,0.324894784069061
0.208358570563295,0.0453468881607056,-0.0455426061630249,0.0327024012565614
0.208964264082374,0.181863001441956,-0.0072222936630249,0.265019295787811
0.209569957601454,-0.115119420433044,0.0670233118057251,0.26262427625656104
0.210175651120533,-0.0720090688705444,0.162824093055725,0.253044198131561
0.210781344639612,0.0213966928482056,0.0071478235244751,0.384770272350311
0.211387038158692,-0.0312937368392944,-0.170083621788025,0.27220435438156104
0.211992731677771,-0.062428990745544394,-0.141343387413025,-0.0583083409309386
0.21259842519685,0.0166066537857056,-0.08146789913177489,0.0758127528190614
0.21320411871593,-0.0265036977767944,-0.222774051475525,0.154848397350311
0.213809812235009,-0.043268834495544396,-0.251514285850525,-0.0463332432746886
0.214415505754088,-0.258820592308044,-0.174873660850525,-0.06788841905593859
0.215021199273168,-0.112724400901794,-0.160503543663025,0.20753882703781099
0.215626892792247,-0.201340123558044,-0.0239874303817749,0.40393042860031103
0.216232586311326,-0.0935642446517944,-0.239539188194275,0.111738045787811
0.216838279830406,0.141147669410706,-0.0024322546005249,-0.0391481846809386
0.217443973349485,0.153122767066956,0.004752803993225099,-0.0367531651496886
0.218049666868565,-0.038478795433044395,-0.179663699913025,0.039887459850311405
0.218655360387644,-0.13906961574554402,-0.0407525671005249,0.0422824793815614
0.219261053906723,0.054926966285705606,-0.124578250694275,0.0638376551628114
0.219866747425803,-0.040873814964294396,-0.0934429967880249,-0.197219473743439
0.220472440944882,0.0453468881607056,-0.035962528038024896,0.44225074110031104
0.221078134463961,-0.242055455589294,-0.0742828405380249,0.7607883387565609
0.221683827983041,-0.0672190298080444,-0.103023074913025,0.195563729381561
0.22228952150212,-0.036083775901794395,-0.0718878210067749,0.25543921766281097
0.222895215021199,-0.14864969387054403,0.122108761024475,0.102157967662811
0.223500908540279,-0.0720090688705444,0.0694183313369751,0.0806027918815614
0.224106602059358,0.047741907691955604,-0.100628055381775,0.19795874891281098
0.224712295578437,-0.0241086782455444,-0.028777469444274898,-0.0630983799934386
0.225317989097517,0.0333717905044556,-0.0431475866317749,0.114133065319061
0.225923682616596,0.18904806003570598,-0.0694928014755249,0.276994393444061
0.226529376135675,-0.122304479026794,-0.0527276647567749,0.030307381725311403
0.227135069654755,-0.13906961574554402,-0.177268680381775,0.219513924694061
0.227740763173834,0.102827356910706,-0.009617313194274899,0.260229256725311
0.228346456692913,-0.0265036977767944,-0.124578250694275,0.130898202037811
0.228952150211993,0.00223653659820558,-0.126973270225525,0.104552987194061
0.229557843731072,-0.155834752464294,0.0670233118057251,0.157243416881561
0.230163537250151,-0.0815891469955444,-0.256304324913025,-0.0463332432746886
0.230769230769231,0.0980373178482056,-0.194033817100525,-0.0104079503059386
0.23137492428831,-0.285165807151794,-0.215588992881775,-0.07028343858718859
0.231980617807389,-0.0504538930892944,-0.177268680381775,-0.242724844837189
0.232586311326469,0.0980373178482056,-0.225169071006775,-0.06788841905593859
0.233192004845548,0.124382532691956,-0.0575177038192749,-0.0990236729621886
0.233797698364627,-0.0528489126205444,-0.0575177038192749,0.035097420787811404
0.234403391883707,-0.0121335805892944,-0.206008914756775,0.135688241100311
0.235009085402786,0.050136927223205605,-0.0263824499130249,0.190773690319061
0.235614778921866,-0.151044713401794,-0.0239874303817749,0.23388404188156098
0.236220472440945,-0.036083775901794395,-0.0694928014755249,0.0925778895378114
0.236826165960024,0.19383809909820598,0.0071478235244751,-0.0942336338996886
0.237431859479104,0.00223653659820558,-0.0790728796005249,0.17879859266281098
0.238037552998183,-0.0288987173080444,-0.0790728796005249,0.116528084850311
0.238643246517262,0.050136927223205605,0.011937862586975101,0.0255173426628114
0.239248940036342,-0.00255350246429442,-0.0263824499130249,0.269809334850311
0.239854633555421,-0.0696140493392944,0.0430731164932251,0.27220435438156104
0.2404603270745,0.00942159519195558,0.0071478235244751,0.22430396375656098
0.24106602059358,0.342329310035706,0.134083858680725,0.154848397350311
0.241671714112659,-0.0648240102767944,0.0382830774307251,0.0782077723503114
0.242277407631738,-0.163019811058044,-0.100628055381775,0.0949729090690614
0.242883101150818,0.0285817514419556,-0.0311724889755249,0.231489022350311
0.243488794669897,0.0908522592544556,-0.112603153038025,-0.0870485753059386
0.244094488188976,0.0142116342544556,-0.0790728796005249,0.12850318250656098
0.244700181708056,0.121987513160706,0.227489620399475,0.231489022350311
0.245305875227135,0.172282923316956,-0.035962528038024896,0.0949729090690614
0.245911568746214,-0.100749303245544,-0.141343387413025,0.0973679286003114
0.246517262265294,-0.232475377464294,0.0766033899307251,0.0734177332878114
0.247122955784373,-0.289955846214294,-0.103023074913025,0.20274878797531098
0.247728649303452,-0.00973856105804442,-0.105418094444275,0.26262427625656104
0.248334342822532,0.07408712253570561,-0.184453738975525,0.356030037975311
0.248940036341611,-0.0193186391830444,-0.30180969600677504,-0.07028343858718859
0.24954572986069,-0.0576389516830444,-0.119788211631775,0.0159372645378114
0.25015142337977,0.00223653659820558,-0.0958380163192749,-0.0199880284309386
0.250757116898849,-0.038478795433044395,0.0478631555557251,-0.187639395618439
0.251362810417929,0.126777552223206,0.0526531946182251,0.0949729090690614
0.251968503937008,0.0237917123794556,-0.0527276647567749,0.0853928309440614
0.252574197456087,-0.033688756370544394,-0.232354129600525,0.0470725184440614
0.253179890975167,0.201023157691956,-0.31378479366302503,0.0159372645378114
0.253785584494246,-0.151044713401794,-0.0982330358505249,-0.0199880284309386
0.254391278013325,-0.0145286001205444,-0.177268680381775,0.296154549694061
0.254996971532405,0.0166066537857056,-3.72350692748983e-05,0.27459937391281103
0.255602665051484,0.0405568490982056,0.016727901649475102,-0.0583083409309386
0.256208358570563,0.105222376441956,-0.153318485069275,0.145268319225311
0.256814052089643,-0.131884557151794,-0.208403934288025,0.185983651256561
0.257419745608722,-0.15343973293304403,-0.206008914756775,0.00156714735031137
0.258025439127801,-0.19415506496429402,-0.0599127233505249,-0.233144766712189
0.258631132646881,0.0285817514419556,-0.170083621788025,0.0494675379753114
0.25923682616596,0.0908522592544556,-0.0383575475692749,0.0710227137565614
0.259842519685039,-0.043268834495544396,0.031098018836975102,0.22430396375656098
0.260448213204119,-0.043268834495544396,0.0406780969619751,0.356030037975311
0.261053906723198,-0.167809850120544,-0.170083621788025,0.0973679286003114
0.261659600242277,-0.0480588735580444,-0.0048272741317749,0.037492440319061404
0.262265293761357,0.11001241550445601,0.210724483680725,0.0997629481315614
0.262870987280436,-0.0887742055892944,0.0861834680557251,0.102157967662811
0.263476680799515,-0.12469949855804399,-0.0790728796005249,0.226698983287811
0.264082374318595,0.0357668100357056,-0.0335675085067749,0.152453377819061
0.264688067837674,0.052531946754455605,-0.0407525671005249,-0.000827872180938634
0.265293761356753,0.0980373178482056,-0.0910479772567749,0.159638436412811
0.265899454875833,0.06690206394195561,-0.0790728796005249,0.33207984266281104
0.266505148394912,-0.0145286001205444,-0.225169071006775,0.171613534069061
0.267110841913992,0.0190016733169556,0.0095428430557251,-0.0798635167121886
0.267716535433071,-0.0169236196517944,0.100553585243225,0.0566525965690614
0.26832222895215,0.052531946754455605,0.0742083703994751,0.0997629481315614
0.26892792247123,-0.131884557151794,0.0454681360244751,0.18358863172531098
0.269533615990309,0.0381618295669556,-0.0718878210067749,0.0806027918815614
0.270139309509388,0.07169210300445561,-0.0479376256942749,0.35363501844406103
0.270745003028468,-0.062428990745544394,0.114923702430725,0.12131812391281101
0.271350696547547,0.0621120248794556,0.0263079797744751,-0.103813712024689
0.271956390066626,-0.115119420433044,0.100553585243225,0.33447486219406103
0.272562083585706,0.18904806003570598,-0.0503326452255249,0.116528084850311
0.273167777104785,-0.040873814964294396,-0.0048272741317749,0.13808326063156098
0.273773470623864,-0.033688756370544394,-0.0934429967880249,-0.000827872180938634
0.274379164142944,-0.17499490871429402,-0.215588992881775,0.0710227137565614
0.274984857662023,-0.146254674339294,0.0143328821182251,0.0997629481315614
0.275590551181102,0.052531946754455605,-0.107813113975525,0.0255173426628114
0.276196244700182,-0.13906961574554402,-0.0718878210067749,0.200353768444061
0.276801938219261,0.196233118629456,-0.117393192100525,0.114133065319061
0.27740763173834,-0.13427957668304402,-0.0742828405380249,0.17400855360031098
0.27801332525742,0.0764821420669556,-0.206008914756775,0.346449959850311
0.278619018776499,0.0237917123794556,-0.253909305381775,0.205143807506561
0.279224712295578,-0.122304479026794,-0.256304324913025,-0.19482445421218902
0.279830405814658,0.0453468881607056,-0.105418094444275,0.0231223231315614
0.280436099333737,0.06690206394195561,0.0646282922744751,-0.13494896593093902
0.281041792852816,-0.131884557151794,-0.186848758506775,0.490151131725311
0.281647486371896,-0.177389928245544,0.0861834680557251,0.17879859266281098
0.282253179890975,0.141147669410706,0.0694183313369751,-0.00322289171218863
0.282858873410055,-0.0312937368392944,-0.0431475866317749,0.267414315319061
0.283464566929134,0.050136927223205605,0.100553585243225,0.00156714735031137
0.284070260448213,0.177072962379456,-0.0431475866317749,0.351239998912811
0.284675953967293,-0.0911692251205444,0.0550482141494751,0.23867408094406098
0.285281647486372,0.0357668100357056,-3.72350692748983e-05,0.20274878797531098
0.285887341005451,0.0980373178482056,0.0598382532119751,0.14766333875656099
0.286493034524531,-0.20852518215179403,-0.0599127233505249,0.26262427625656104
0.28709872804361,-0.0217136587142944,-0.34971008663177505,0.0614426356315614
0.287704421562689,-0.0672190298080444,-0.186848758506775,0.0973679286003114
0.288310115081769,-0.0696140493392944,-0.0168023717880249,0.0710227137565614
0.288915808600848,0.124382532691956,-0.143738406944275,0.0566525965690614
0.289521502119927,-0.0552439321517944,-0.0335675085067749,0.257834237194061
0.290127195639007,-0.23008035793304402,-0.0742828405380249,0.0877878504753114
0.290732889158086,-0.043268834495544396,-0.33054993038177505,-0.000827872180938634
0.291338582677165,0.0237917123794556,-0.0647027624130249,-0.0870485753059386
0.291944276196245,0.0142116342544556,0.0933685266494751,0.14287329969406098
0.292549969715324,0.100432337379456,0.189169307899475,0.22430396375656098
0.293155663234403,0.0405568490982056,-0.0455426061630249,0.0877878504753114
0.293761356753483,0.05971700534820561,-0.112603153038025,0.370400155162811
0.294367050272562,-0.00973856105804442,0.0909735071182251,0.324894784069061
0.294972743791641,-0.0312937368392944,-0.0479376256942749,0.265019295787811
0.295578437310721,0.0285817514419556,-0.191638797569275,0.23867408094406098
0.2961841308298,-0.103144322776794,-0.0934429967880249,0.12371314344406101
0.296789824348879,-0.036083775901794395,0.0215179407119751,0.0782077723503114
0.297395517867959,-0.19415506496429402,-0.0335675085067749,0.0973679286003114
0.298001211387038,-0.155834752464294,0.0263079797744751,0.104552987194061
0.298606904906118,0.00942159519195558,-0.138948367881775,-0.0128029698371886
0.299212598425197,-0.0911692251205444,-0.150923465538025,0.20274878797531098
0.299818291944276,-0.00973856105804442,0.0957635461807251,0.0207273036003114
0.300423985463356,-0.131884557151794,-0.0718878210067749,0.24825415906906098
0.301029678982435,0.00702657566070558,-0.196428836631775,0.217118905162811
0.301635372501514,0.17467794284820598,0.0813934289932251,-0.0559133213996886
0.302241066020594,0.0142116342544556,-0.0982330358505249,0.109343026256561
0.302846759539673,-0.00255350246429442,-0.134158328819275,0.13329322156906098
0.303452453058752,0.0884572397232056,0.141268917274475,0.329684823131561
0.304058146577832,-0.0648240102767944,-0.138948367881775,0.162033455944061
0.304663840096911,0.00702657566070558,-0.141343387413025,0.298549569225311
0.30526953361599,-0.0863791860580444,-0.0694928014755249,0.36321509656906104
0.30587522713507,-0.0815891469955444,-0.31138977413177504,0.162033455944061
0.306480920654149,0.301613978004456,-0.158108524131775,-0.005617911243438629
0.307086614173228,-0.0504538930892944,0.0334930383682251,-0.0726784581184386
0.307692307692308,-0.0839841665267944,-0.119788211631775,0.0853928309440614
0.308298001211387,0.0190016733169556,-0.0718878210067749,0.126108162975311
0.308903694730466,-0.17499490871429402,0.0071478235244751,0.459015877819061
0.309509388249546,0.07169210300445561,-0.206008914756775,-0.027173087024688597
0.310115081768625,0.107617395973206,-0.0263824499130249,-0.125368887805939
0.310720775287704,-0.13427957668304402,0.0885784875869751,0.506916268444061
0.311326468806784,-0.266005650901794,-0.297019656944275,0.111738045787811
0.311932162325863,-0.0049485219955444195,-0.100628055381775,-0.139739004993439
0.312537855844942,0.0237917123794556,0.09815856571197511,-0.0463332432746886
0.313143549364022,-0.201340123558044,0.0071478235244751,0.104552987194061
0.313749242883101,-0.163019811058044,0.0670233118057251,0.190773690319061
0.31435493640218,-0.0169236196517944,-0.222774051475525,0.291364510631561
0.31496062992126,-0.036083775901794395,-0.0024322546005249,0.0877878504753114
0.315566323440339,-0.16062479152679401,-0.0623077428817749,-0.11099877061843899
0.316172016959419,-0.100749303245544,-0.215588992881775,0.29375953016281103
0.316777710478498,-0.12948953762054402,-0.009617313194274899,0.219513924694061
0.317383403997577,-0.040873814964294396,-0.136553348350525,0.0662326746940614
0.317989097516657,-0.17020486965179402,-0.0838629186630249,0.296154549694061
0.318594791035736,0.06690206394195561,-0.0503326452255249,0.231489022350311
0.319200484554815,-0.0935642446517944,0.107738643836975,0.12850318250656098
0.319806178073895,-0.155834752464294,-0.194033817100525,0.162033455944061
0.320411871592974,0.0453468881607056,-0.170083621788025,0.195563729381561
0.321017565112053,0.217788294410706,0.0742083703994751,-0.0607033604621886
0.321623258631133,0.292033899879456,-0.114998172569275,0.0470725184440614
0.322228952150212,0.0237917123794556,0.193959346961975,-0.005617911243438629
0.322834645669291,0.06929708347320561,0.186774288368225,0.276994393444061
0.323440339188371,-0.14385965480804402,0.181984249305725,0.0949729090690614
0.32404603270745,-0.0887742055892944,0.0382830774307251,0.0614426356315614
0.324651726226529,0.157912806129456,-0.0575177038192749,0.140478280162811
0.325257419745609,0.126777552223206,-0.0694928014755249,0.0877878504753114
0.325863113264688,0.0357668100357056,-0.105418094444275,0.205143807506561
0.326468806783767,-0.107934361839294,0.179589229774475,-0.0774684971809386
0.327074500302847,0.0812721811294556,-0.0599127233505249,0.305734627819061
0.327680193821926,-0.000158482933044421,0.0239129602432251,0.38237525281906104
0.328285887341005,-0.32109110012054404,-0.0455426061630249,0.0590476161003114
0.328891580860085,-0.136674596214294,-0.134158328819275,0.109343026256561
0.329497274379164,-0.23966043605804402,0.0861834680557251,0.176403573131561
0.330102967898244,-0.0935642446517944,-0.0527276647567749,0.176403573131561
0.330708661417323,-0.0911692251205444,-0.0263824499130249,0.109343026256561
0.331314354936402,-0.112724400901794,-0.112603153038025,0.166823495006561
0.331920048455482,0.0621120248794556,-0.146133426475525,0.250649178600311
0.332525741974561,-0.000158482933044421,0.0789984094619751,0.0470725184440614
0.33313143549364,-0.0839841665267944,-0.141343387413025,0.219513924694061
0.33373712901272,-0.0959592641830444,-0.114998172569275,0.28417945203781103
0.334342822531799,-0.110329381370544,0.0239129602432251,0.159638436412811
0.334948516050878,-0.0312937368392944,-0.172478641319275,0.365610116100311
0.335554209569958,0.06450704441070561,-0.0144073522567749,0.0255173426628114
0.336159903089037,0.148332728004456,0.0143328821182251,-0.0128029698371886
0.336765596608116,0.0788771615982056,-0.028777469444274898,0.315314705944061
0.337371290127196,-0.0791941274642944,-0.146133426475525,0.037492440319061404
0.337976983646275,0.107617395973206,-0.146133426475525,-0.0319631260871886
0.338582677165354,-0.00734354152679442,-0.0431475866317749,0.0925778895378114
0.339188370684434,0.0381618295669556,0.136478878211975,0.459015877819061
0.339794064203513,-0.040873814964294396,0.229884639930725,0.118923104381561
0.340399757722592,-0.0911692251205444,0.0287029993057251,0.396745370006561
0.341005451241672,0.136357630348206,-0.0263824499130249,0.806293709850311
0.341611144760751,-0.21331522121429403,-0.158108524131775,0.379980233287811
0.34221683827983,-0.119909459495544,-0.227564090538025,0.0710227137565614
0.34282253179891,-0.000158482933044421,-0.112603153038025,0.111738045787811
0.343428225317989,-0.299535924339294,-0.0670977819442749,0.106948006725311
0.344033918837068,-0.16541483058929402,-0.107813113975525,0.030307381725311403
0.344639612356148,-0.0049485219955444195,-0.18205871944427499,0.219513924694061
0.345245305875227,-0.0456638540267944,-0.119788211631775,0.13808326063156098
0.345850999394306,0.07169210300445561,-0.0144073522567749,0.27220435438156104
0.346456692913386,0.15072774753570597,-0.258699344444275,0.336869881725311
0.347062386432465,-0.0863791860580444,-0.285044559288025,0.0207273036003114
0.347668079951545,0.00702657566070558,-0.141343387413025,0.12371314344406101
0.348273773470624,-0.12469949855804399,0.0550482141494751,0.17879859266281098
0.348879466989703,-0.112724400901794,0.239464718055725,0.231489022350311
0.349485160508783,0.0836672006607056,-0.136553348350525,0.329684823131561
0.350090854027862,-0.0049485219955444195,-0.0742828405380249,0.499731209850311
0.350696547546941,-0.0576389516830444,0.0095428430557251,0.29375953016281103
0.351302241066021,-0.237265416526794,-0.306599735069275,0.0734177332878114
0.3519079345851,-0.23008035793304402,0.0550482141494751,0.0877878504753114
0.352513628104179,-0.14385965480804402,0.0789984094619751,-0.0463332432746886
0.353119321623259,0.00223653659820558,-0.129368289756775,0.0566525965690614
0.353725015142338,0.0405568490982056,-0.0766778600692749,0.0662326746940614
0.354330708661417,0.0956422983169556,-0.0215924108505249,0.159638436412811
0.354936402180497,0.102827356910706,-0.174873660850525,0.140478280162811
0.355542095699576,-0.0169236196517944,-0.27306946163177503,0.0638376551628114
0.356147789218655,0.052531946754455605,-0.0575177038192749,-0.005617911243438629
0.356753482737735,0.07408712253570561,-0.035962528038024896,0.00635718641281137
0.357359176256814,0.15072774753570597,-0.141343387413025,-0.015197989368438601
0.357964869775893,0.00702657566070558,0.100553585243225,0.0111472254753114
0.358570563294973,-0.22529031887054402,0.0382830774307251,0.039887459850311405
0.359176256814052,0.13875264987945599,-0.167688602256775,0.111738045787811
0.359781950333131,0.19862813816070599,-0.141343387413025,0.0734177332878114
0.360387643852211,-0.0241086782455444,-0.035962528038024896,0.0422824793815614
0.36099333737129,-0.0887742055892944,-0.0958380163192749,0.0853928309440614
0.361599030890369,-0.0911692251205444,-0.155713504600525,0.205143807506561
0.362204724409449,0.0932472787857056,-0.0239874303817749,0.181193612194061
0.362810417928528,-0.17020486965179402,-0.0910479772567749,0.162033455944061
0.363416111447607,-0.333066197776794,-0.0910479772567749,0.106948006725311
0.364021804966687,-0.186970006370544,0.0095428430557251,0.0662326746940614
0.364627498485766,-0.25163553371429404,-0.0239874303817749,0.195563729381561
0.365233192004846,0.054926966285705606,-0.08146789913177489,0.0518625575065614
0.365838885523925,-0.0744040884017944,-0.0431475866317749,-0.0199880284309386
0.366444579043004,-0.033688756370544394,0.0550482141494751,0.106948006725311
0.367050272562084,0.143542688941956,0.0670233118057251,0.12371314344406101
0.367655966081163,-0.0911692251205444,-0.122183231163025,0.16921851453781098
0.368261659600242,-0.0576389516830444,-0.117393192100525,0.181193612194061
0.368867353119322,0.0333717905044556,-0.28983459835052505,0.636247323131561
0.369473046638401,-0.0169236196517944,-0.08146789913177489,0.0782077723503114
0.37007874015748,0.052531946754455605,0.239464718055725,-0.312180411243439
0.37068443367656,0.16509786472320598,-0.0790728796005249,0.236279061412811
0.371290127195639,-0.196550084495544,0.0023577844619751,0.0782077723503114
0.371895820714718,-0.349831334495544,-0.122183231163025,0.116528084850311
0.372501514233798,0.052531946754455605,-0.24193420772552499,0.0470725184440614
0.373107207752877,0.143542688941956,-0.08146789913177489,0.152453377819061
0.373712901271956,-0.0217136587142944,-0.0982330358505249,0.159638436412811
0.374318594791036,-0.0791941274642944,0.016727901649475102,0.0973679286003114
0.374924288310115,-0.177389928245544,-0.131763309288025,0.0925778895378114
0.375529981829194,0.00223653659820558,-0.0527276647567749,0.209933846569061
0.376135675348274,0.16509786472320598,0.0742083703994751,0.300944588756561
0.376741368867353,-0.000158482933044421,-0.136553348350525,0.250649178600311
0.377347062386432,-0.000158482933044421,-0.220379031944275,0.396745370006561
0.377952755905512,-0.036083775901794395,-0.028777469444274898,0.0255173426628114
0.378558449424591,-0.127094518089294,-0.100628055381775,0.118923104381561
0.379164142943671,-0.0983542837142944,-0.0623077428817749,0.16921851453781098
0.37976983646275,-0.117514439964294,-0.134158328819275,0.114133065319061
0.380375529981829,-0.13906961574554402,-0.198823856163025,0.34405494031906103
0.380981223500909,-0.000158482933044421,-0.107813113975525,0.185983651256561
0.381586917019988,0.143542688941956,-0.203613895225525,0.236279061412811
0.382192610539067,0.217788294410706,0.0071478235244751,0.135688241100311
0.382798304058147,-0.0839841665267944,-0.126973270225525,0.00156714735031137
0.383403997577226,-0.15343973293304403,-0.0239874303817749,0.0710227137565614
0.384009691096305,0.06450704441070561,0.0430731164932251,0.28417945203781103
0.384615384615385,-0.196550084495544,-0.148528446006775,0.17400855360031098
0.385221078134464,-0.0528489126205444,-0.0647027624130249,0.0877878504753114
0.385826771653543,0.0309767709732056,-0.0311724889755249,0.0542575770378114
0.386432465172623,0.167492884254456,-0.167688602256775,0.0207273036003114
0.387038158691702,0.11001241550445601,0.0263079797744751,0.0782077723503114
0.387643852210781,-0.112724400901794,0.0550482141494751,-0.0966286534309386
0.388249545729861,0.117197474098206,-0.009617313194274899,-0.0223830479621886
0.38885523924894,0.11001241550445601,-0.0479376256942749,0.0853928309440614
0.389460932768019,0.11480245456695601,0.0933685266494751,0.18358863172531098
0.390066626287099,0.0884572397232056,0.23706969852447501,0.00396216688156137
0.390672319806178,0.05971700534820561,0.114923702430725,-0.11339379014968899
0.391278013325257,0.19383809909820598,-0.0742828405380249,0.19316870985031098
0.391883706844337,-0.158229771995544,-0.0694928014755249,0.0422824793815614
0.392489400363416,-0.000158482933044421,0.0622332727432251,0.279389412975311
0.393095093882495,0.06450704441070561,-0.0503326452255249,0.231489022350311
0.393700787401575,-0.19415506496429402,0.105343624305725,0.0614426356315614
0.394306480920654,0.0836672006607056,-0.009617313194274899,0.267414315319061
0.394912174439733,-0.0959592641830444,-0.213193973350525,0.375190194225311
0.395517867958813,-0.268400670433044,-0.143738406944275,0.0853928309440614
0.396123561477892,-0.0480588735580444,-0.122183231163025,-0.0774684971809386
0.396729254996972,0.0405568490982056,-0.136553348350525,0.145268319225311
0.397334948516051,-0.0887742055892944,0.0287029993057251,0.241069100475311
0.39794064203513,-0.0480588735580444,-0.117393192100525,0.245859139537811
0.39854633555421,0.177072962379456,-0.165293582725525,0.130898202037811
0.399152029073289,0.17467794284820598,-0.0191973913192749,0.276994393444061
0.399757722592368,0.153122767066956,0.0191229211807251,0.336869881725311
0.400363416111448,0.052531946754455605,-0.0072222936630249,0.712887948131561
0.400969109630527,-0.0504538930892944,-0.0239874303817749,0.612297127819061
0.401574803149606,-0.0480588735580444,-0.08146789913177489,0.217118905162811
0.402180496668686,-0.0839841665267944,-0.0766778600692749,0.0925778895378114
0.402786190187765,-0.0480588735580444,0.124503780555725,0.40153540906906104
0.403391883706844,-0.105539342308044,-0.148528446006775,0.269809334850311
0.403997577225924,-0.16062479152679401,-0.155713504600525,-0.0343581456184386
0.404603270745003,-0.182179967308044,0.031098018836975102,-0.233144766712189
0.405208964264082,0.07169210300445561,-0.131763309288025,-0.029568106555938597
0.405814657783162,0.0142116342544556,-0.213193973350525,0.250649178600311
0.406420351302241,0.054926966285705606,-0.122183231163025,0.0829978114128114
0.40702604482132,-0.0648240102767944,-0.0838629186630249,0.18358863172531098
0.4076317383404,-0.15343973293304403,0.217909542274475,0.037492440319061404
0.408237431859479,0.16988790378570598,0.0478631555557251,0.0231223231315614
0.408843125378558,0.0166066537857056,0.004752803993225099,0.13329322156906098
0.409448818897638,0.00702657566070558,0.158034053993225,0.19316870985031098
0.410054512416717,0.0261867319107056,-0.136553348350525,0.17400855360031098
0.410660205935796,-0.0217136587142944,-0.253909305381775,0.176403573131561
0.411265899454876,-0.0241086782455444,-0.0623077428817749,0.140478280162811
0.411871592973955,-0.0456638540267944,0.0909735071182251,0.209933846569061
0.412477286493035,0.0166066537857056,-0.26348938350677503,0.288969491100311
0.413082980012114,0.0884572397232056,-0.112603153038025,-0.00322289171218863
0.413688673531193,-0.062428990745544394,0.011937862586975101,0.159638436412811
0.414294367050273,-0.0528489126205444,0.0287029993057251,0.209933846569061
0.414900060569352,-0.186970006370544,-0.174873660850525,-0.0367531651496886
0.415505754088431,-0.0720090688705444,-0.251514285850525,-0.0726784581184386
0.416111447607511,0.342329310035706,-0.143738406944275,0.212328866100311
0.41671714112659,0.0142116342544556,-0.229959110069275,0.0877878504753114
0.417322834645669,-0.0480588735580444,-0.0455426061630249,-0.168479239368439
0.417928528164749,0.11001241550445601,0.011937862586975101,0.0710227137565614
0.418534221683828,-0.0767991079330444,-0.153318485069275,0.17879859266281098
0.419139915202907,-0.110329381370544,-0.162898563194275,0.356030037975311
0.419745608721987,0.172282923316956,-0.0742828405380249,0.0446774989128114
0.420351302241066,0.07169210300445561,-0.124578250694275,0.0518625575065614
0.420956995760145,-0.110329381370544,-0.0910479772567749,0.317709725475311
0.421562689279225,-0.22529031887054402,-0.18205871944427499,0.0470725184440614
0.422168382798304,-0.13427957668304402,-0.0982330358505249,-0.005617911243438629
0.422774076317383,-0.117514439964294,-0.30420471553802503,0.0734177332878114
0.423379769836463,-0.0839841665267944,-0.220379031944275,-0.0607033604621886
0.423985463355542,0.0190016733169556,-0.138948367881775,0.30333960828781104
0.424591156874621,0.143542688941956,-0.0694928014755249,0.427880623912811
0.425196850393701,0.0932472787857056,0.0430731164932251,0.17400855360031098
0.42580254391278,-0.0887742055892944,-0.0670977819442749,0.111738045787811
0.426408237431859,0.124382532691956,0.0742083703994751,0.154848397350311
0.427013930950939,-0.13427957668304402,-0.0790728796005249,0.135688241100311
0.427619624470018,0.0190016733169556,-0.0766778600692749,-0.0319631260871886
0.428225317989098,-0.062428990745544394,0.0574432336807251,0.241069100475311
0.428831011508177,-0.0863791860580444,-0.114998172569275,0.7991086512565609
0.429436705027256,-0.0241086782455444,-0.122183231163025,0.0135422450065614
0.430042398546336,-0.258820592308044,-0.126973270225525,0.209933846569061
0.430648092065415,-0.100749303245544,-0.258699344444275,0.696122811412811
0.431253785584494,-0.0839841665267944,-0.0120123327255249,-0.053518301868438596
0.431859479103574,0.0190016733169556,-0.124578250694275,0.265019295787811
0.432465172622653,0.0166066537857056,0.0550482141494751,0.28417945203781103
0.433070866141732,0.11001241550445601,0.0813934289932251,0.0806027918815614
0.433676559660812,0.102827356910706,-0.117393192100525,0.19795874891281098
0.434282253179891,-0.131884557151794,-0.0862579381942749,0.17400855360031098
0.43488794669897,-0.14385965480804402,0.0382830774307251,0.22430396375656098
0.43549364021805,0.0812721811294556,-0.0120123327255249,0.13329322156906098
0.436099333737129,0.0429518686294556,-0.179663699913025,0.162033455944061
0.436705027256208,-0.00973856105804442,-0.155713504600525,0.118923104381561
0.437310720775288,0.0261867319107056,0.110133663368225,-0.0223830479621886
0.437916414294367,0.0453468881607056,-0.035962528038024896,0.16442847547531098
0.438522107813446,0.0118166147232056,-0.378450321006775,0.27459937391281103
0.439127801332526,-0.17020486965179402,-0.009617313194274899,0.0758127528190614
0.439733494851605,-0.115119420433044,-0.124578250694275,0.17879859266281098
0.440339188370684,-0.06003397121429439,-0.136553348350525,0.300944588756561
0.440944881889764,-0.040873814964294396,-0.174873660850525,0.14766333875656099
0.441550575408843,-0.122304479026794,0.0550482141494751,0.126108162975311
0.442156268927922,-0.0217136587142944,-0.100628055381775,-0.0487282628059386
0.442761962447002,0.0213966928482056,-0.189243778038025,0.34165992078781104
0.443367655966081,-0.0312937368392944,-0.0263824499130249,0.18837867078781098
0.44397334948516,-0.131884557151794,-0.158108524131775,0.30333960828781104
0.44457904300424,-0.0744040884017944,-0.0335675085067749,0.20274878797531098
0.445184736523319,-0.0552439321517944,-0.0718878210067749,0.0231223231315614
0.445790430042399,-0.17020486965179402,-0.126973270225525,0.348844979381561
0.446396123561478,-0.127094518089294,-0.249119266319275,0.0590476161003114
0.447001817080557,0.00223653659820558,0.0837884485244751,0.231489022350311
0.447607510599637,-0.00734354152679442,-0.0647027624130249,0.104552987194061
0.448213204118716,-0.033688756370544394,-0.0311724889755249,0.315314705944061
0.448818897637795,0.00942159519195558,-0.110208133506775,0.171613534069061
0.449424591156875,0.00223653659820558,-0.0335675085067749,0.157243416881561
0.450030284675954,0.00702657566070558,0.129293819618225,0.379980233287811
0.450635978195033,-0.0193186391830444,-0.0718878210067749,0.217118905162811
0.451241671714113,0.136357630348206,-0.103023074913025,0.23867408094406098
0.451847365233192,0.0309767709732056,0.0191229211807251,0.269809334850311
0.452453058752271,0.0429518686294556,0.0718133508682251,0.159638436412811
0.453058752271351,0.124382532691956,0.0478631555557251,0.200353768444061
0.45366444579043,-0.100749303245544,0.131688839149475,0.0925778895378114
0.454270139309509,-0.17499490871429402,-0.129368289756775,0.267414315319061
0.454875832828589,-0.0672190298080444,-0.131763309288025,0.375190194225311
0.455481526347668,-0.06003397121429439,0.0622332727432251,-0.0247780674934386
0.456087219866747,-0.27079568996429404,-0.035962528038024896,0.190773690319061
0.456692913385827,0.0190016733169556,-0.105418094444275,0.190773690319061
0.457298606904906,-0.0193186391830444,0.0670233118057251,0.166823495006561
0.457904300423985,-0.18457498683929402,-0.0503326452255249,0.250649178600311
0.458509993943065,0.0764821420669556,-0.0958380163192749,0.317709725475311
0.459115687462144,0.057321985816955606,-0.0982330358505249,0.23867408094406098
0.459721380981224,0.0357668100357056,0.105343624305725,0.145268319225311
0.460327074500303,0.119592493629456,-0.124578250694275,0.478176034069061
0.460932768019382,0.0166066537857056,-0.239539188194275,0.34405494031906103
0.461538461538462,0.11001241550445601,-0.0479376256942749,0.018332284069061403
0.462144155057541,0.0261867319107056,-0.201218875694275,0.205143807506561
0.46274984857662,0.00223653659820558,-0.0623077428817749,0.0542575770378114
0.4633555420957,0.052531946754455605,0.0813934289932251,0.260229256725311
0.463961235614779,-0.186970006370544,-0.0958380163192749,0.109343026256561
0.464566929133858,-0.13906961574554402,-0.112603153038025,0.130898202037811
0.465172622652938,0.0453468881607056,-0.0431475866317749,0.5236814051628109
0.465778316172017,0.102827356910706,-0.0335675085067749,0.0877878504753114
0.466384009691096,0.0190016733169556,0.174799190711975,0.0997629481315614
0.466989703210176,0.0190016733169556,0.0215179407119751,0.181193612194061
0.467595396729255,0.177072962379456,-0.100628055381775,0.126108162975311
0.468201090248334,0.217788294410706,-0.0168023717880249,0.130898202037811
0.468806783767414,-0.0839841665267944,-0.0191973913192749,-0.051123282337188596
0.469412477286493,0.11001241550445601,-0.165293582725525,0.118923104381561
0.470018170805572,-0.0217136587142944,-0.0647027624130249,0.0925778895378114
0.470623864324652,-0.127094518089294,0.105343624305725,0.200353768444061
0.471229557843731,-0.0887742055892944,0.0358880578994751,0.150058358287811
0.47183525136281,-0.17020486965179402,0.0598382532119751,0.0806027918815614
0.47244094488189,-0.172599889183044,-0.035962528038024896,0.162033455944061
0.473046638400969,-0.0696140493392944,-0.232354129600525,0.33207984266281104
0.473652331920048,0.0884572397232056,0.0023577844619751,-0.0104079503059386
0.474258025439128,-0.0528489126205444,-0.0551226842880249,0.0662326746940614
0.474863718958207,0.0333717905044556,-0.0934429967880249,0.308129647350311
0.475469412477286,-0.06003397121429439,-0.0790728796005249,-0.0822585362434386
0.476075105996366,0.047741907691955604,-0.100628055381775,0.217118905162811
0.476680799515445,-0.00255350246429442,0.141268917274475,0.329684823131561
0.477286493034525,-0.00255350246429442,0.110133663368225,0.298549569225311
0.477892186553604,-0.0145286001205444,-0.265884403038025,0.0829978114128114
0.478497880072683,-0.16541483058929402,-0.165293582725525,0.13808326063156098
0.479103573591763,0.07408712253570561,0.0837884485244751,-0.0343581456184386
0.479709267110842,-0.20373514308929402,-0.0407525671005249,0.0829978114128114
0.480314960629921,-0.0935642446517944,0.100553585243225,0.23867408094406098
0.480920654149001,0.12917257175445598,0.0837884485244751,-0.0128029698371886
0.48152634766808,-0.0911692251205444,0.016727901649475102,0.18358863172531098
0.482132041187159,-0.0672190298080444,0.0287029993057251,0.171613534069061
0.482737734706239,-0.107934361839294,-0.0479376256942749,0.00875220594406137
0.483343428225318,-0.0815891469955444,-0.0982330358505249,0.0422824793815614
0.483949121744397,-0.0648240102767944,-0.0982330358505249,0.130898202037811
0.484554815263477,0.0285817514419556,-0.0527276647567749,0.23867408094406098
0.485160508782556,0.181863001441956,-0.129368289756775,0.267414315319061
0.485766202301635,0.11240743503570601,0.0358880578994751,0.0925778895378114
0.486371895820715,0.00942159519195558,-0.0982330358505249,0.109343026256561
0.486977589339794,-0.19415506496429402,-0.143738406944275,0.356030037975311
0.487583282858873,0.0261867319107056,-0.0551226842880249,0.13329322156906098
0.488188976377953,-0.0672190298080444,0.0885784875869751,0.0925778895378114
0.488794669897032,-0.17499490871429402,0.0239129602432251,-0.197219473743439
0.489400363416111,0.00223653659820558,-0.249119266319275,0.0686276942253114
0.490006056935191,-0.20852518215179403,0.0263079797744751,0.126108162975311
0.49061175045427,-0.100749303245544,-0.126973270225525,0.571581795787811
0.491217443973349,0.0190016733169556,-0.136553348350525,0.5404465418815609
0.491823137492429,-0.107934361839294,0.0382830774307251,0.145268319225311
0.492428831011508,-0.0552439321517944,-0.249119266319275,0.377585213756561
0.493034524530587,0.0908522592544556,-0.0982330358505249,-0.005617911243438629
0.493640218049667,0.117197474098206,0.0478631555557251,0.324894784069061
0.494245911568746,0.212998255348206,-0.186848758506775,0.157243416881561
0.494851605087826,0.00942159519195558,-0.186848758506775,0.0662326746940614
0.495457298606905,0.0213966928482056,-0.117393192100525,-0.0990236729621886
0.496062992125984,-0.0887742055892944,0.0502581750869751,0.23867408094406098
0.496668685645064,-0.127094518089294,0.0382830774307251,0.348844979381561
0.497274379164143,-0.100749303245544,0.0239129602432251,0.26262427625656104
0.497880072683222,-0.17499490871429402,-0.0479376256942749,0.286574471569061
0.498485766202302,-0.00973856105804442,-0.0551226842880249,0.0446774989128114
0.499091459721381,-0.237265416526794,-0.0934429967880249,0.152453377819061
0.49969715324046,-0.06003397121429439,-3.72350692748983e-05,-0.0559133213996886
0.50030284675954,-0.00973856105804442,0.0837884485244751,-0.127763907337189
0.500908540278619,-0.215710240745544,-0.0527276647567749,-0.0128029698371886
0.501514233797698,0.0381618295669556,-0.232354129600525,0.327289803600311
0.502119927316778,-0.0648240102767944,-0.201218875694275,0.16442847547531098
0.502725620835857,-0.131884557151794,-0.143738406944275,0.0255173426628114
0.503331314354936,0.0405568490982056,-0.203613895225525,0.288969491100311
0.503937007874016,0.0956422983169556,-0.0479376256942749,0.0662326746940614
0.504542701393095,-0.0217136587142944,0.138873897743225,0.037492440319061404
0.505148394912174,-0.0456638540267944,-0.0215924108505249,0.14766333875656099
0.505754088431254,0.00463155612945558,-0.148528446006775,0.162033455944061
0.506359781950333,-0.0504538930892944,0.0287029993057251,0.039887459850311405
0.506965475469413,-0.0480588735580444,-0.035962528038024896,0.0111472254753114
0.507571168988492,-0.0839841665267944,-0.0838629186630249,0.130898202037811
0.508176862507571,0.06450704441070561,-0.028777469444274898,0.140478280162811
0.50878255602665,0.06690206394195561,0.0454681360244751,0.190773690319061
0.50938824954573,-0.0720090688705444,-0.129368289756775,0.0997629481315614
0.509993943064809,-0.00255350246429442,-0.122183231163025,0.185983651256561
0.510599636583889,-0.0935642446517944,-0.0934429967880249,0.250649178600311
0.511205330102968,-0.122304479026794,-0.170083621788025,0.126108162975311
0.511811023622047,0.0333717905044556,-0.0718878210067749,-0.07028343858718859
0.512416717141127,0.0860622201919556,-0.0599127233505249,0.176403573131561
0.513022410660206,-0.110329381370544,0.124503780555725,0.356030037975311
0.513628104179285,0.0812721811294556,0.124503780555725,0.0638376551628114
0.514233797698365,0.16988790378570598,-0.170083621788025,0.104552987194061
0.514839491217444,-0.0839841665267944,-0.117393192100525,0.111738045787811
0.515445184736523,-0.299535924339294,-0.0168023717880249,0.20753882703781099
0.516050878255603,-0.062428990745544394,-0.0407525671005249,0.0758127528190614
0.516656571774682,-0.0528489126205444,-0.138948367881775,0.17879859266281098
0.517262265293761,-0.263610631370544,0.0191229211807251,0.310524666881561
0.517867958812841,-0.0863791860580444,0.0263079797744751,0.039887459850311405
0.51847365233192,0.00942159519195558,-0.0790728796005249,0.24825415906906098
0.519079345850999,-0.00973856105804442,-0.110208133506775,0.118923104381561
0.519685039370079,-0.043268834495544396,-0.112603153038025,-0.23553978624343902
0.520290732889158,-0.0193186391830444,-0.0670977819442749,0.420695565319061
0.520896426408237,-0.06003397121429439,-0.0311724889755249,0.212328866100311
0.521502119927317,0.117197474098206,-0.009617313194274899,0.162033455944061
0.522107813446396,0.0908522592544556,-0.0575177038192749,0.298549569225311
0.522713506965475,0.0142116342544556,-0.206008914756775,0.171613534069061
0.523319200484555,0.00702657566070558,-0.126973270225525,0.200353768444061
0.523924894003634,-0.112724400901794,-3.72350692748983e-05,0.0255173426628114
0.524530587522714,-0.29235086574554403,-0.0072222936630249,0.324894784069061
0.525136281041793,0.0237917123794556,-0.0934429967880249,0.23388404188156098
0.525741974560872,0.15072774753570597,-0.136553348350525,0.305734627819061
0.526347668079951,0.0980373178482056,0.0622332727432251,0.166823495006561
0.526953361599031,0.06450704441070561,-0.29941467647552505,0.14766333875656099
0.52755905511811,-0.0145286001205444,-0.0407525671005249,0.22909400281906098
0.52816474863719,0.119592493629456,0.011937862586975101,-0.017593008899688598
0.528770442156269,0.143542688941956,-0.0934429967880249,0.20753882703781099
0.529376135675348,0.11480245456695601,-0.103023074913025,0.13329322156906098
0.529981829194428,0.0788771615982056,-0.29941467647552505,0.171613534069061
0.530587522713507,0.0908522592544556,0.0143328821182251,-0.247514883899689
0.531193216232586,0.172282923316956,-0.0407525671005249,0.0710227137565614
0.531798909751666,0.0261867319107056,-0.126973270225525,0.360820077037811
0.532404603270745,-0.182179967308044,0.0334930383682251,-0.005617911243438629
0.533010296789824,0.0405568490982056,0.004752803993225099,0.25543921766281097
0.533615990308904,0.0261867319107056,-0.100628055381775,0.17879859266281098
0.534221683827983,-0.158229771995544,-0.028777469444274898,0.20753882703781099
0.534827377347062,-0.033688756370544394,0.0239129602432251,0.279389412975311
0.535433070866142,0.0860622201919556,-0.0239874303817749,0.231489022350311
0.536038764385221,0.0860622201919556,-0.0144073522567749,0.17400855360031098
0.5366444579043,-0.0720090688705444,-0.009617313194274899,0.291364510631561
0.53725015142338,0.0357668100357056,0.0215179407119751,0.18837867078781098
0.537855844942459,-0.038478795433044395,0.0909735071182251,0.245859139537811
0.538461538461538,-0.0480588735580444,0.0334930383682251,0.162033455944061
0.539067231980618,0.280058802223206,-0.0072222936630249,0.231489022350311
0.539672925499697,0.0237917123794556,-0.0144073522567749,0.387165291881561
0.540278619018776,-0.0887742055892944,0.0358880578994751,0.190773690319061
0.540884312537856,-0.0576389516830444,0.0023577844619751,-0.0247780674934386
0.541490006056935,-0.100749303245544,-0.143738406944275,0.0542575770378114
0.542095699576015,-0.105539342308044,-0.0790728796005249,0.0901828700065614
0.542701393095094,-0.033688756370544394,0.0334930383682251,0.257834237194061
0.543307086614173,0.167492884254456,0.0143328821182251,0.379980233287811
0.543912780133253,0.00702657566070558,-0.129368289756775,0.0829978114128114
0.544518473652332,-0.24924051418304402,-0.0886529577255249,0.104552987194061
0.545124167171411,-0.0983542837142944,-0.0599127233505249,0.166823495006561
0.545729860690491,-0.0744040884017944,-0.0886529577255249,-0.13494896593093902
0.54633555420957,-0.0911692251205444,-0.0694928014755249,0.13808326063156098
0.546941247728649,0.06929708347320561,-0.0838629186630249,0.154848397350311
0.547546941247729,0.0860622201919556,0.0957635461807251,0.23388404188156098
0.548152634766808,0.0405568490982056,0.0406780969619751,0.317709725475311
0.548758328285887,-0.14385965480804402,-0.206008914756775,0.226698983287811
0.549364021804967,0.00463155612945558,-0.0048272741317749,0.118923104381561
0.549969715324046,0.153122767066956,0.165219112586975,0.485361092662811
0.550575408843125,-0.0265036977767944,-0.119788211631775,0.710492928600311
0.551181102362205,-0.17978494777679402,-0.253909305381775,0.377585213756561
0.551786795881284,0.0261867319107056,-0.0503326452255249,0.0853928309440614
0.552392489400363,-0.0217136587142944,-0.119788211631775,0.18358863172531098
0.552998182919443,-0.115119420433044,-0.141343387413025,0.18358863172531098
0.553603876438522,-0.210920201683044,-0.126973270225525,0.0135422450065614
0.554209569957601,-0.0528489126205444,-0.0551226842880249,0.20753882703781099
0.554815263476681,0.272873743629456,-0.160503543663025,0.379980233287811
0.55542095699576,0.232158411598206,-0.124578250694275,0.00396216688156137
0.556026650514839,0.0429518686294556,-0.0575177038192749,-0.146924063587189
0.556632344033919,-0.0911692251205444,-0.0910479772567749,0.406325448131561
0.557238037552998,0.19383809909820598,-0.0575177038192749,0.245859139537811
0.557843731072078,-0.0217136587142944,-0.08146789913177489,0.32249976453781104
0.558449424591157,-0.0217136587142944,0.0263079797744751,0.13329322156906098
0.559055118110236,0.16030782566070598,-0.136553348350525,0.035097420787811404
0.559660811629316,-0.00973856105804442,0.0071478235244751,0.339264901256561
0.560266505148395,-0.340251256370544,-0.0694928014755249,0.18837867078781098
0.560872198667474,-0.163019811058044,-0.117393192100525,0.0662326746940614
0.561477892186554,-0.146254674339294,-0.0838629186630249,0.217118905162811
0.562083585705633,-0.29235086574554403,-0.131763309288025,0.226698983287811
0.562689279224712,0.148332728004456,-0.100628055381775,0.16442847547531098
0.563294972743792,0.0884572397232056,-0.0311724889755249,0.18358863172531098
0.563900666262871,-0.0528489126205444,-0.0670977819442749,0.19316870985031098
0.56450635978195,-0.206130162620544,-0.119788211631775,0.209933846569061
0.56511205330103,-0.033688756370544394,-0.150923465538025,0.18837867078781098
0.565717746820109,0.0309767709732056,0.0287029993057251,0.22430396375656098
0.566323440339188,0.00942159519195558,0.031098018836975102,0.346449959850311
0.566929133858268,0.057321985816955606,0.016727901649475102,0.33207984266281104
0.567534827377347,-0.0217136587142944,0.0382830774307251,0.217118905162811
0.568140520896426,0.0453468881607056,-0.134158328819275,0.14766333875656099
0.568746214415506,0.16030782566070598,-0.107813113975525,0.27459937391281103
0.569351907934585,0.0357668100357056,-0.158108524131775,0.145268319225311
0.569957601453664,0.0285817514419556,-0.0790728796005249,-0.0726784581184386
0.570563294972744,-0.036083775901794395,0.148453975868225,-0.005617911243438629
0.571168988491823,-0.105539342308044,0.016727901649475102,0.152453377819061
0.571774682010902,0.148332728004456,-0.0742828405380249,0.28178443250656104
0.572380375529982,0.121987513160706,0.155639034461975,0.217118905162811
0.572986069049061,0.0357668100357056,0.0215179407119751,0.00156714735031137
0.57359176256814,-0.0504538930892944,-0.0551226842880249,0.00156714735031137
0.57419745608722,-0.275585729026794,0.0646282922744751,0.0590476161003114
0.574803149606299,-0.13427957668304402,-0.220379031944275,0.0638376551628114
0.575408843125379,-0.13906961574554402,0.031098018836975102,0.0494675379753114
0.576014536644458,0.0812721811294556,0.0622332727432251,0.0494675379753114
0.576620230163537,0.06690206394195561,-0.117393192100525,0.34165992078781104
0.577225923682617,-0.119909459495544,0.117318721961975,0.14287329969406098
0.577831617201696,0.06450704441070561,-0.0191973913192749,0.13329322156906098
0.578437310720775,-0.196550084495544,-0.0263824499130249,0.308129647350311
0.579043004239855,0.0142116342544556,-0.170083621788025,0.887724373912811
0.579648697758934,0.100432337379456,0.0287029993057251,0.0542575770378114
0.580254391278013,-0.117514439964294,-0.0479376256942749,0.339264901256561
0.580860084797093,0.06450704441070561,-0.107813113975525,0.7416281825065609
0.581465778316172,0.361489466285706,-0.227564090538025,-0.0966286534309386
0.582071471835251,-0.0576389516830444,-0.0790728796005249,-0.0894435948371886
0.582677165354331,-0.0911692251205444,0.0789984094619751,-0.11818382921218899
0.58328285887341,0.19383809909820598,-0.028777469444274898,0.18358863172531098
0.583888552392489,0.124382532691956,0.0023577844619751,0.0925778895378114
0.584494245911569,-0.033688756370544394,0.0382830774307251,-0.00322289171218863
0.585099939430648,-0.141464635276794,-0.0335675085067749,0.0853928309440614
0.585705632949727,-0.158229771995544,-0.0982330358505249,-0.0439382237434386
0.586311326468807,0.11480245456695601,-0.0982330358505249,0.0997629481315614
0.586917019987886,0.0429518686294556,-0.234749149131775,0.317709725475311
0.587522713506965,-0.19415506496429402,-0.0168023717880249,-0.101418692493439
0.588128407026045,0.057321985816955606,-0.0191973913192749,0.00396216688156137
0.588734100545124,0.0142116342544556,-0.0072222936630249,0.14766333875656099
0.589339794064203,-0.0935642446517944,0.0670233118057251,0.116528084850311
0.589945487583283,-0.0791941274642944,-0.0958380163192749,-0.146924063587189
0.590551181102362,0.17467794284820598,-0.34971008663177505,0.19316870985031098
0.591156874621442,-0.155834752464294,-0.198823856163025,0.25543921766281097
0.591762568140521,-0.24924051418304402,-0.0072222936630249,0.0542575770378114
0.5923682616596,-0.0265036977767944,0.0095428430557251,0.27220435438156104
0.59297395517868,-0.0552439321517944,-0.0575177038192749,0.17879859266281098
0.593579648697759,-0.0456638540267944,-0.08146789913177489,0.241069100475311
0.594185342216838,0.0166066537857056,0.160429073524475,0.130898202037811
0.594791035735918,-0.17499490871429402,-0.0263824499130249,-0.053518301868438596
0.595396729254997,-0.146254674339294,-0.249119266319275,0.106948006725311
0.596002422774076,-0.23487039699554402,-0.189243778038025,0.0877878504753114
0.596608116293156,-0.119909459495544,-0.0144073522567749,-0.0343581456184386
0.597213809812235,0.0884572397232056,-0.177268680381775,0.27459937391281103
0.597819503331314,-0.30193094387054403,-0.155713504600525,0.245859139537811
0.598425196850394,-0.0265036977767944,-0.035962528038024896,0.0494675379753114
0.599030890369473,0.196233118629456,-0.186848758506775,0.0470725184440614
0.599636583888552,0.0237917123794556,-0.0503326452255249,0.0494675379753114
0.600242277407632,-0.122304479026794,0.016727901649475102,0.308129647350311
0.600847970926711,-0.0456638540267944,0.016727901649475102,0.24346412000656098
0.60145366444579,-0.0169236196517944,0.0598382532119751,0.16442847547531098
0.60205935796487,-0.0959592641830444,0.0071478235244751,0.19795874891281098
0.602665051483949,-0.0312937368392944,-0.0479376256942749,0.027912362194061402
0.603270745003028,-0.0839841665267944,-0.0431475866317749,-0.00322289171218863
0.603876438522108,0.0764821420669556,-0.136553348350525,0.106948006725311
0.604482132041187,0.275268763160706,-0.107813113975525,0.109343026256561
0.605087825560267,-0.131884557151794,-0.0718878210067749,0.16442847547531098
0.605693519079346,-0.12948953762054402,0.0861834680557251,0.17400855360031098
0.606299212598425,-0.0288987173080444,-0.100628055381775,0.336869881725311
0.606904906117504,-0.0528489126205444,-0.107813113975525,0.12371314344406101
0.607510599636584,0.13396261081695598,0.0909735071182251,0.0997629481315614
0.608116293155663,-0.062428990745544394,0.011937862586975101,0.296154549694061
0.608721986674743,-0.167809850120544,-0.0838629186630249,0.365610116100311
0.609327680193822,0.33753927097320596,-0.110208133506775,0.171613534069061
0.609933373712901,0.0836672006607056,0.0885784875869751,-0.22595970811843902
0.610539067231981,-0.0839841665267944,-0.0910479772567749,0.494941170787811
0.61114476075106,0.121987513160706,-0.227564090538025,0.487756112194061
0.611750454270139,-0.17978494777679402,0.011937862586975101,-0.000827872180938634
0.612356147789219,0.0261867319107056,-0.0144073522567749,0.231489022350311
0.612961841308298,-0.0887742055892944,-0.0647027624130249,0.250649178600311
0.613567534827377,-0.215710240745544,0.0358880578994751,0.260229256725311
0.614173228346457,-0.0169236196517944,-0.0790728796005249,0.39195533094406104
0.614778921865536,-0.266005650901794,-0.191638797569275,0.22430396375656098
0.615384615384615,-0.0720090688705444,0.0334930383682251,0.200353768444061
0.615990308903695,-0.0552439321517944,0.0718133508682251,0.260229256725311
0.616596002422774,-0.112724400901794,-3.72350692748983e-05,0.12850318250656098
0.617201695941853,0.131567591285706,-0.0862579381942749,0.162033455944061
0.617807389460933,-0.0217136587142944,-0.0263824499130249,0.25543921766281097
0.618413082980012,0.057321985816955606,0.114923702430725,0.0446774989128114
0.619018776499091,0.047741907691955604,-0.0503326452255249,0.253044198131561
0.619624470018171,-0.036083775901794395,-0.0503326452255249,0.315314705944061
0.62023016353725,-0.0480588735580444,0.0526531946182251,0.116528084850311
0.620835857056329,-0.0169236196517944,0.150848995399475,0.195563729381561
0.621441550575409,0.0190016733169556,0.0382830774307251,0.0853928309440614
0.622047244094488,-0.0839841665267944,0.0358880578994751,0.27220435438156104
0.622652937613568,0.06450704441070561,-0.0862579381942749,0.111738045787811
0.623258631132647,0.054926966285705606,-0.244329227256775,0.219513924694061
0.623864324651726,-0.040873814964294396,-0.114998172569275,0.111738045787811
0.624470018170806,0.0932472787857056,0.0382830774307251,0.16442847547531098
0.625075711689885,-0.0767991079330444,-0.0886529577255249,0.22909400281906098
0.625681405208964,-0.0863791860580444,-0.184453738975525,0.195563729381561
0.626287098728044,-0.036083775901794395,-0.0623077428817749,0.231489022350311
0.626892792247123,0.0309767709732056,-0.203613895225525,0.13808326063156098
0.627498485766202,0.0190016733169556,-0.119788211631775,0.111738045787811
0.628104179285282,-0.119909459495544,0.0861834680557251,-0.0607033604621886
0.628709872804361,-0.000158482933044421,0.0598382532119751,0.0901828700065614
0.62931556632344,-0.172599889183044,-0.0599127233505249,0.0877878504753114
0.62992125984252,-0.0887742055892944,-0.0910479772567749,-0.247514883899689
0.630526953361599,-0.00973856105804442,0.122108761024475,0.0494675379753114
0.631132646880678,0.0142116342544556,0.0885784875869751,0.26262427625656104
0.631738340399758,0.00942159519195558,-0.0335675085067749,0.0494675379753114
0.632344033918837,-0.043268834495544396,-0.174873660850525,0.320104745006561
0.632949727437916,-0.0193186391830444,-0.0790728796005249,0.0566525965690614
0.633555420956996,-0.105539342308044,0.0023577844619751,0.12371314344406101
0.634161114476075,-0.13906961574554402,-0.165293582725525,0.315314705944061
0.634766807995154,-0.0696140493392944,-0.0742828405380249,0.0590476161003114
0.635372501514234,0.0788771615982056,0.0095428430557251,0.0734177332878114
0.635978195033313,-0.23966043605804402,-0.162898563194275,0.109343026256561
0.636583888552392,-0.036083775901794395,-0.124578250694275,-0.00322289171218863
0.637189582071472,0.0860622201919556,0.0095428430557251,0.185983651256561
0.637795275590551,-0.0648240102767944,0.0095428430557251,0.190773690319061
0.638400969109631,-0.15343973293304403,-0.08146789913177489,0.130898202037811
0.63900666262871,-0.297140904808044,-0.0982330358505249,-0.10860375108718899
0.639612356147789,0.0621120248794556,-0.131763309288025,0.0758127528190614
0.640218049666869,-0.17020486965179402,-0.213193973350525,0.693727791881561
0.640823743185948,-0.0480588735580444,-0.0215924108505249,0.736838143444061
0.641429436705027,0.313589075660706,-0.0599127233505249,0.360820077037811
0.642035130224107,-0.00973856105804442,-0.0455426061630249,0.0758127528190614
0.642640823743186,-0.14385965480804402,-0.213193973350525,0.17879859266281098
0.643246517262265,0.0142116342544556,-0.167688602256775,0.185983651256561
0.643852210781345,0.054926966285705606,0.186774288368225,0.12371314344406101
0.644457904300424,0.0285817514419556,-0.009617313194274899,0.0207273036003114
0.645063597819503,-0.0217136587142944,-0.0120123327255249,0.157243416881561
0.645669291338583,-0.0121335805892944,-0.112603153038025,-0.0607033604621886
0.646274984857662,-0.246845494651794,0.102948604774475,0.200353768444061
0.646880678376741,-0.349831334495544,-0.009617313194274899,0.45183081922531104
0.647486371895821,0.0405568490982056,-0.215588992881775,0.269809334850311
0.6480920654149,0.0836672006607056,0.0598382532119751,0.111738045787811
0.648697758933979,-0.036083775901794395,-0.275464481163025,-0.0607033604621886
0.649303452453059,0.0118166147232056,-0.103023074913025,0.14766333875656099
0.649909145972138,-0.0552439321517944,-0.0048272741317749,0.219513924694061
0.650514839491217,-0.0672190298080444,-0.0024322546005249,0.260229256725311
0.651120533010297,-0.0720090688705444,-0.0623077428817749,0.039887459850311405
0.651726226529376,0.21539327487945598,-0.146133426475525,0.22430396375656098
0.652331920048455,0.0333717905044556,-0.0431475866317749,0.30333960828781104
0.652937613567535,-0.0839841665267944,0.136478878211975,0.339264901256561
0.653543307086614,0.15551778659820598,-0.155713504600525,0.415905526256561
0.654149000605693,0.12917257175445598,-0.0479376256942749,-0.00801293077468863
0.654754694124773,0.167492884254456,0.0622332727432251,0.300944588756561
0.655360387643852,0.00463155612945558,0.0646282922744751,0.360820077037811
0.655966081162932,-0.22529031887054402,-0.028777469444274898,0.185983651256561
0.656571774682011,-0.000158482933044421,-0.158108524131775,0.317709725475311
0.65717746820109,0.052531946754455605,0.0885784875869751,0.18358863172531098
0.65778316172017,0.07408712253570561,-0.170083621788025,0.0806027918815614
0.658388855239249,0.07169210300445561,-0.0862579381942749,0.13808326063156098
0.658994548758328,0.0285817514419556,-0.208403934288025,-0.07028343858718859
0.659600242277408,-0.0576389516830444,-0.146133426475525,0.0590476161003114
0.660205935796487,-0.0456638540267944,0.0837884485244751,0.118923104381561
0.660811629315566,-0.0887742055892944,0.016727901649475102,0.126108162975311
0.661417322834646,0.100432337379456,-0.0623077428817749,0.288969491100311
0.662023016353725,0.11001241550445601,-0.122183231163025,0.109343026256561
0.662628709872804,-0.158229771995544,-0.105418094444275,0.16442847547531098
0.663234403391884,0.308799036598206,0.0861834680557251,0.22909400281906098
0.663840096910963,-0.043268834495544396,0.0694183313369751,0.17400855360031098
0.664445790430042,-0.191760045433044,-0.179663699913025,0.358425057506561
0.665051483949122,-0.112724400901794,-0.112603153038025,0.16442847547531098
0.665657177468201,-0.0169236196517944,-0.122183231163025,0.12850318250656098
0.66626287098728,-0.22050027980804401,-0.136553348350525,0.130898202037811
0.66686856450636,-0.105539342308044,-0.26348938350677503,-0.0415432042121886
0.667474258025439,0.054926966285705606,-0.155713504600525,0.109343026256561
0.668079951544518,-0.00973856105804442,-0.0144073522567749,-0.206799551868439
0.668685645063598,0.344724329566956,-0.0551226842880249,0.49254615125656104
0.669291338582677,0.241738489723206,0.0287029993057251,0.40153540906906104
0.669897032101756,0.07169210300445561,-0.105418094444275,-0.302600333118439
0.670502725620836,0.050136927223205605,-0.0144073522567749,0.480571053600311
0.671108419139915,0.06450704441070561,0.0023577844619751,0.43267066297531104
0.671714112658994,-0.0480588735580444,-0.0431475866317749,0.329684823131561
0.672319806178074,-0.062428990745544394,-0.112603153038025,0.399140389537811
0.672925499697153,-0.0528489126205444,-0.134158328819275,0.250649178600311
0.673531193216233,-0.0480588735580444,0.129293819618225,0.162033455944061
0.674136886735312,-0.062428990745544394,-0.08146789913177489,0.154848397350311
0.674742580254391,-0.155834752464294,-0.0647027624130249,0.035097420787811404
0.675348273773471,-0.136674596214294,-0.124578250694275,0.116528084850311
0.67595396729255,-0.19415506496429402,-0.265884403038025,0.276994393444061
0.676559660811629,0.00463155612945558,-0.122183231163025,-0.0607033604621886
0.677165354330709,0.050136927223205605,-0.0383575475692749,0.0782077723503114
0.677771047849788,0.13396261081695598,-0.0048272741317749,0.16442847547531098
0.678376741368867,0.0764821420669556,-0.126973270225525,0.037492440319061404
0.678982434887947,0.0333717905044556,-0.0551226842880249,0.0111472254753114
0.679588128407026,0.16509786472320598,0.143663936805725,0.16442847547531098
0.680193821926105,-0.0959592641830444,-0.0144073522567749,0.104552987194061
0.680799515445185,0.0261867319107056,-0.0191973913192749,0.0662326746940614
0.681405208964264,0.0453468881607056,0.0837884485244751,-0.0199880284309386
0.682010902483343,-0.263610631370544,0.0478631555557251,-0.0966286534309386
0.682616596002423,-0.0288987173080444,-0.0527276647567749,-0.053518301868438596
0.683222289521502,-0.131884557151794,-0.0862579381942749,0.19795874891281098
0.683827983040581,-0.119909459495544,-0.0838629186630249,-0.00801293077468863
0.684433676559661,0.14593770847320597,-0.131763309288025,0.030307381725311403
0.68503937007874,-0.0576389516830444,-0.167688602256775,0.116528084850311
0.68564506359782,-0.0552439321517944,-0.277859500694275,-0.21158959093093901
0.686250757116899,0.0453468881607056,-0.134158328819275,-0.0104079503059386
0.686856450635978,0.100432337379456,-0.0742828405380249,0.0111472254753114
0.687462144155058,0.177072962379456,-0.0479376256942749,-0.015197989368438601
0.688067837674137,-0.000158482933044421,-0.0311724889755249,0.22909400281906098
0.688673531193216,0.23455343112945598,0.126898800086975,0.16442847547531098
0.689279224712296,-0.06003397121429439,0.0095428430557251,0.027912362194061402
0.689884918231375,-0.18936502590179402,0.0334930383682251,0.23388404188156098
0.690490611750454,0.385439661598206,-0.198823856163025,0.308129647350311
0.691096305269534,0.0621120248794556,-0.244329227256775,-0.139739004993439
0.691701998788613,-0.18457498683929402,0.0933685266494751,-0.0846535557746886
0.692307692307692,-0.22050027980804401,-0.0120123327255249,0.19316870985031098
0.692913385826772,-0.172599889183044,-0.0790728796005249,0.152453377819061
0.693519079345851,-0.033688756370544394,-0.136553348350525,0.181193612194061
0.69412477286493,0.00942159519195558,0.0622332727432251,0.150058358287811
0.69473046638401,-0.0217136587142944,-0.0718878210067749,0.104552987194061
0.695336159903089,-0.0696140493392944,0.0191229211807251,0.135688241100311
0.695941853422168,-0.18457498683929402,0.0143328821182251,0.157243416881561
0.696547546941248,-0.0265036977767944,-0.232354129600525,0.030307381725311403
0.697153240460327,0.0357668100357056,-0.009617313194274899,0.116528084850311
0.697758933979406,-0.0744040884017944,0.0550482141494751,0.171613534069061
0.698364627498486,0.0357668100357056,-0.0670977819442749,0.0327024012565614
0.698970321017565,0.0621120248794556,-0.28983459835052505,0.5452365809440609
0.699576014536644,0.0429518686294556,-0.0479376256942749,0.027912362194061402
0.700181708055724,-0.0911692251205444,-0.0766778600692749,0.154848397350311
0.700787401574803,0.102827356910706,-0.203613895225525,0.631457284069061
0.701393095093882,-0.0193186391830444,0.0071478235244751,-0.19003441514968902
0.701998788612962,-0.0049485219955444195,0.0215179407119751,-0.0726784581184386
0.702604482132041,0.00942159519195558,-0.179663699913025,0.16442847547531098
0.703210175651121,-0.0217136587142944,-0.30420471553802503,-0.10860375108718899
0.7038158691702,-0.033688756370544394,-0.0168023717880249,-0.07028343858718859
0.704421562689279,-0.196550084495544,-0.0527276647567749,0.32249976453781104
0.705027256208359,-0.00734354152679442,-0.028777469444274898,0.20274878797531098
0.705632949727438,0.057321985816955606,0.011937862586975101,0.171613534069061
0.706238643246517,0.253713587379456,-0.0718878210067749,0.205143807506561
0.706844336765597,-0.0265036977767944,0.143663936805725,0.102157967662811
0.707450030284676,0.0956422983169556,0.0406780969619751,0.14766333875656099
0.708055723803755,0.0788771615982056,-0.206008914756775,0.365610116100311
0.708661417322835,-0.0696140493392944,-0.105418094444275,-0.0990236729621886
0.709267110841914,0.100432337379456,0.0526531946182251,0.104552987194061
0.709872804360993,-0.151044713401794,-0.0311724889755249,0.305734627819061
0.710478497880073,-0.105539342308044,-0.119788211631775,0.12131812391281101
0.711084191399152,0.157912806129456,-0.0934429967880249,0.0207273036003114
0.711689884918231,0.05971700534820561,-0.124578250694275,0.269809334850311
0.712295578437311,-0.122304479026794,-0.0024322546005249,0.181193612194061
0.71290127195639,-0.20373514308929402,0.129293819618225,0.037492440319061404
0.713506965475469,-0.0456638540267944,-0.0742828405380249,0.17879859266281098
0.714112658994549,0.131567591285706,-0.220379031944275,0.140478280162811
0.714718352513628,-0.036083775901794395,-0.198823856163025,0.17879859266281098
0.715324046032707,0.054926966285705606,0.0263079797744751,0.0518625575065614
0.715929739551787,-0.00734354152679442,-0.0239874303817749,0.22909400281906098
0.716535433070866,-0.0217136587142944,-0.148528446006775,0.0734177332878114
0.717141126589945,-0.0911692251205444,-0.0886529577255249,0.12131812391281101
0.717746820109025,-0.13427957668304402,-0.0718878210067749,0.0111472254753114
0.718352513628104,0.270478724098206,-0.196428836631775,0.0758127528190614
0.718958207147184,0.0381618295669556,-0.158108524131775,0.0542575770378114
0.719563900666263,0.117197474098206,0.0550482141494751,0.111738045787811
0.720169594185342,0.054926966285705606,-0.0575177038192749,0.037492440319061404
0.720775287704422,0.0285817514419556,0.0646282922744751,0.0662326746940614
0.721380981223501,0.0333717905044556,-0.143738406944275,0.22909400281906098
0.72198667474258,-0.062428990745544394,-0.035962528038024896,-0.0630983799934386
0.72259236826166,0.117197474098206,0.0861834680557251,0.0542575770378114
0.723198061780739,-0.0720090688705444,-0.165293582725525,0.17879859266281098
0.723803755299818,-0.103144322776794,0.004752803993225099,-0.051123282337188596
0.724409448818898,-0.287560826683044,0.0454681360244751,0.0829978114128114
0.725015142337977,0.0333717905044556,0.0957635461807251,0.0710227137565614
0.725620835857056,-0.00255350246429442,-0.0718878210067749,0.0111472254753114
0.726226529376136,-0.0815891469955444,-0.0239874303817749,0.0949729090690614
0.726832222895215,0.07408712253570561,-0.0910479772567749,0.12850318250656098
0.727437916414294,-0.0217136587142944,0.0334930383682251,0.0734177332878114
0.728043609933374,-0.263610631370544,0.208329464149475,0.12371314344406101
0.728649303452453,-0.0744040884017944,0.0550482141494751,0.17879859266281098
0.729254996971532,0.126777552223206,-0.0335675085067749,0.499731209850311
0.729860690490612,-0.00973856105804442,0.107738643836975,0.45183081922531104
0.730466384009691,0.141147669410706,-3.72350692748983e-05,0.475781014537811
0.73107207752877,-0.122304479026794,-0.119788211631775,0.358425057506561
0.73167777104785,0.11240743503570601,0.0191229211807251,-0.015197989368438601
0.732283464566929,0.06690206394195561,-0.234749149131775,0.159638436412811
0.732889158086008,-0.277980748558044,-0.232354129600525,-0.0607033604621886
0.733494851605088,-0.0217136587142944,0.0382830774307251,-0.0128029698371886
0.734100545124167,0.054926966285705606,-0.158108524131775,0.135688241100311
0.734706238643246,0.25610860691070597,-0.160503543663025,0.0470725184440614
0.735311932162326,-0.040873814964294396,0.102948604774475,0.16442847547531098
0.735917625681405,-0.0456638540267944,0.0023577844619751,0.0734177332878114
0.736523319200485,-0.043268834495544396,0.0478631555557251,-0.00322289171218863
0.737129012719564,-0.112724400901794,0.0861834680557251,0.17400855360031098
0.737734706238643,0.153122767066956,-0.0311724889755249,0.145268319225311
0.738340399757723,0.0190016733169556,-0.189243778038025,0.152453377819061
0.738946093276802,-0.0839841665267944,-0.0263824499130249,0.135688241100311
0.739551786795881,0.0309767709732056,0.0885784875869751,-0.0223830479621886
0.740157480314961,0.0213966928482056,-0.0120123327255249,0.0734177332878114
0.74076317383404,-0.15343973293304403,0.0334930383682251,0.166823495006561
0.741368867353119,-0.0815891469955444,-0.0191973913192749,0.171613534069061
0.741974560872199,-0.0169236196517944,-0.107813113975525,0.30333960828781104
0.742580254391278,-0.0265036977767944,0.0550482141494751,0.336869881725311
0.743185947910357,-0.0552439321517944,-0.179663699913025,0.20274878797531098
0.743791641429437,-0.0576389516830444,-0.0670977819442749,0.0231223231315614
0.744397334948516,-0.340251256370544,-0.153318485069275,0.269809334850311
0.745003028467595,-0.112724400901794,-0.117393192100525,-0.0774684971809386
0.745608721986675,0.0166066537857056,0.0143328821182251,0.0422824793815614
0.746214415505754,0.143542688941956,-0.165293582725525,0.118923104381561
0.746820109024833,0.06929708347320561,0.004752803993225099,0.19316870985031098
0.747425802543913,-0.30193094387054403,0.0694183313369751,0.33447486219406103
0.748031496062992,-0.105539342308044,0.136478878211975,-0.00801293077468863
0.748637189582071,-0.0241086782455444,0.0358880578994751,0.30333960828781104
0.749242883101151,-0.112724400901794,0.160429073524475,0.384770272350311
0.74984857662023,0.11001241550445601,0.0646282922744751,0.181193612194061
0.75045427013931,-0.00734354152679442,0.016727901649475102,0.126108162975311
0.751059963658389,-0.0648240102767944,0.0837884485244751,0.118923104381561
0.751665657177468,0.0190016733169556,-0.0862579381942749,-0.192429434680939
0.752271350696547,0.0405568490982056,-0.220379031944275,0.145268319225311
0.752877044215627,0.0381618295669556,-0.0263824499130249,0.24346412000656098
0.753482737734706,-0.107934361839294,0.203539425086975,-0.027173087024688597
0.754088431253786,-0.0312937368392944,-0.100628055381775,0.20274878797531098
0.754694124772865,-0.062428990745544394,-0.186848758506775,0.27220435438156104
0.755299818291944,-0.201340123558044,-0.0958380163192749,0.157243416881561
0.755905511811024,-0.0720090688705444,-0.0120123327255249,0.145268319225311
0.756511205330103,0.11240743503570601,-0.0335675085067749,0.300944588756561
0.757116898849182,-0.14864969387054403,-0.0623077428817749,0.171613534069061
0.757722592368262,0.00702657566070558,-0.122183231163025,0.415905526256561
0.758328285887341,-0.0528489126205444,-0.0263824499130249,0.126108162975311
0.75893397940642,-0.18457498683929402,0.0789984094619751,0.0853928309440614
0.7595396729255,0.06450704441070561,-0.0168023717880249,0.126108162975311
0.760145366444579,-0.16062479152679401,-0.0766778600692749,0.154848397350311
0.760751059963658,-0.122304479026794,-0.0120123327255249,0.698517830944061
0.761356753482738,0.06690206394195561,0.0574432336807251,0.150058358287811
0.761962447001817,-0.12948953762054402,-0.0024322546005249,0.150058358287811
0.762568140520896,0.0166066537857056,-0.028777469444274898,0.296154549694061
0.763173834039976,0.0309767709732056,-0.158108524131775,-0.11818382921218899
0.763779527559055,0.17946798191070598,0.0430731164932251,-0.0726784581184386
0.764385221078134,0.19383809909820598,0.0095428430557251,0.212328866100311
0.764990914597214,-0.0887742055892944,-0.0239874303817749,0.19795874891281098
0.765596608116293,-0.136674596214294,-0.285044559288025,0.0949729090690614
0.766202301635373,-0.0576389516830444,-0.162898563194275,0.0758127528190614
0.766807995154452,-0.0552439321517944,0.0598382532119751,0.0327024012565614
0.767413688673531,-0.103144322776794,-0.308994754600525,0.241069100475311
0.768019382192611,0.0884572397232056,-0.0910479772567749,0.16442847547531098
0.76862507571169,0.153122767066956,0.146058956336975,0.305734627819061
0.769230769230769,0.00702657566070558,0.0287029993057251,0.018332284069061403
0.769836462749849,-0.043268834495544396,-0.28983459835052505,-0.0104079503059386
0.770442156268928,0.126777552223206,-0.229959110069275,0.269809334850311
0.771047849788007,0.06690206394195561,-0.0647027624130249,-0.0104079503059386
0.771653543307087,0.0309767709732056,0.150848995399475,0.0662326746940614
0.772259236826166,-0.136674596214294,0.129293819618225,0.159638436412811
0.772864930345245,0.0213966928482056,-0.0479376256942749,0.185983651256561
0.773470623864325,0.117197474098206,-0.110208133506775,0.22430396375656098
0.774076317383404,-0.107934361839294,-0.112603153038025,0.030307381725311403
0.774682010902483,-0.24924051418304402,-0.0191973913192749,0.152453377819061
0.775287704421563,-0.0049485219955444195,0.0526531946182251,0.317709725475311
0.775893397940642,-0.0576389516830444,0.0813934289932251,0.159638436412811
0.776499091459721,-0.000158482933044421,-0.119788211631775,0.288969491100311
0.777104784978801,-0.0049485219955444195,-0.0599127233505249,0.166823495006561
0.77771047849788,-0.0121335805892944,-0.0790728796005249,0.0231223231315614
0.778316172016959,0.17467794284820598,-0.0670977819442749,0.346449959850311
0.778921865536039,0.047741907691955604,0.0837884485244751,0.0829978114128114
0.779527559055118,-0.117514439964294,-0.143738406944275,-0.0630983799934386
0.780133252574197,-0.0839841665267944,-0.27067444210052505,0.28417945203781103
0.780738946093277,-0.06003397121429439,0.0526531946182251,0.104552987194061
0.781344639612356,-0.167809850120544,-0.225169071006775,-0.213984610462189
0.781950333131435,0.054926966285705606,-0.0694928014755249,0.114133065319061
0.782556026650515,0.07408712253570561,0.0742083703994751,0.296154549694061
0.783161720169594,0.047741907691955604,-0.160503543663025,0.159638436412811
0.783767413688674,0.0788771615982056,-0.0120123327255249,0.0614426356315614
0.784373107207753,0.00223653659820558,-0.28264953975677504,-0.0966286534309386
0.784978800726832,-0.287560826683044,-0.155713504600525,0.0231223231315614
0.785584494245912,-0.036083775901794395,-0.0934429967880249,0.0446774989128114
0.786190187764991,-0.18457498683929402,-0.112603153038025,0.039887459850311405
0.78679588128407,-0.232475377464294,-0.179663699913025,-0.0247780674934386
0.78740157480315,0.16509786472320598,-0.0886529577255249,-0.0918386143684386
0.788007268322229,0.14593770847320597,0.165219112586975,0.0542575770378114
0.788612961841308,0.0237917123794556,-0.131763309288025,0.6410373621940609
0.789218655360388,-0.0983542837142944,-0.416770633506775,-0.027173087024688597
0.789824348879467,-0.14385965480804402,-0.210798953819275,0.279389412975311
0.790430042398546,-0.17978494777679402,0.0239129602432251,0.736838143444061
0.791035735917626,-0.0049485219955444195,-0.0670977819442749,0.145268319225311
0.791641429436705,-0.0791941274642944,-0.0838629186630249,0.140478280162811
0.792247122955784,0.0956422983169556,-0.0072222936630249,0.0997629481315614
0.792852816474864,-0.0911692251205444,-0.0934429967880249,0.037492440319061404
0.793458509993943,0.047741907691955604,0.136478878211975,0.0231223231315614
0.794064203513022,0.0309767709732056,-0.009617313194274899,0.279389412975311
0.794669897032102,0.0429518686294556,-0.318574832725525,0.12850318250656098
0.795275590551181,0.18425802097320598,0.0502581750869751,-0.027173087024688597
0.79588128407026,-0.163019811058044,0.0957635461807251,-0.0247780674934386
0.79648697758934,-0.00734354152679442,-0.251514285850525,0.267414315319061
0.797092671108419,-0.0552439321517944,-0.210798953819275,-0.0439382237434386
0.797698364627498,-0.16062479152679401,0.0430731164932251,-0.0798635167121886
0.798304058146578,-0.0552439321517944,-0.0718878210067749,-0.11099877061843899
0.798909751665657,0.06929708347320561,-0.105418094444275,-0.0343581456184386
0.799515445184736,-0.062428990745544394,-0.0048272741317749,0.150058358287811
0.800121138703816,0.0142116342544556,-0.129368289756775,0.159638436412811
0.800726832222895,0.13396261081695598,0.0718133508682251,0.25543921766281097
0.801332525741975,0.0190016733169556,-0.0527276647567749,0.035097420787811404
0.801938219261054,-0.17499490871429402,-0.206008914756775,0.250649178600311
0.802543912780133,0.0932472787857056,0.0095428430557251,0.035097420787811404
0.803149606299213,0.102827356910706,0.0550482141494751,0.250649178600311
0.803755299818292,-0.0744040884017944,0.0813934289932251,0.260229256725311
0.804360993337371,-0.00973856105804442,0.174799190711975,0.219513924694061
0.804966686856451,0.00223653659820558,0.0095428430557251,0.327289803600311
0.80557238037553,-0.18936502590179402,-0.27306946163177503,0.185983651256561
0.806178073894609,-0.273190709495544,-0.0479376256942749,0.157243416881561
0.806783767413689,-0.136674596214294,-0.0431475866317749,0.18837867078781098
0.807389460932768,-0.036083775901794395,0.0454681360244751,0.13329322156906098
0.807995154451847,-0.036083775901794395,0.0191229211807251,0.0470725184440614
0.808600847970927,0.100432337379456,-0.143738406944275,0.308129647350311
0.809206541490006,-0.0480588735580444,-0.0790728796005249,0.209933846569061
0.809812235009085,-0.00255350246429442,-0.258699344444275,0.152453377819061
0.810417928528165,0.24892354831695598,-0.27306946163177503,-0.0439382237434386
0.811023622047244,-0.0839841665267944,-0.0934429967880249,0.0446774989128114
0.811629315566323,-0.0504538930892944,-0.170083621788025,0.209933846569061
0.812235009085403,0.0980373178482056,0.0287029993057251,-0.0726784581184386
0.812840702604482,-0.00255350246429442,0.09815856571197511,0.106948006725311
0.813446396123562,-0.0935642446517944,-0.0168023717880249,0.288969491100311
0.814052089642641,-0.258820592308044,-0.107813113975525,0.33447486219406103
0.81465778316172,-0.227685338401794,-0.0575177038192749,0.384770272350311
0.815263476680799,-0.158229771995544,-3.72350692748983e-05,0.102157967662811
0.815869170199879,0.0357668100357056,-0.107813113975525,0.226698983287811
0.816474863718958,-0.0959592641830444,0.0215179407119751,0.154848397350311
0.817080557238038,-0.131884557151794,-0.0886529577255249,-0.101418692493439
0.817686250757117,0.131567591285706,-0.172478641319275,0.00396216688156137
0.818291944276196,0.054926966285705606,0.0742083703994751,0.145268319225311
0.818897637795276,0.153122767066956,-0.0144073522567749,0.499731209850311
0.819503331314355,0.201023157691956,-0.213193973350525,0.16921851453781098
0.820109024833434,0.0190016733169556,0.0574432336807251,-0.271465079212189
0.820714718352514,-0.24445047512054402,0.134083858680725,-0.139739004993439
0.821320411871593,-0.167809850120544,-0.225169071006775,0.111738045787811
0.821926105390672,-0.19894510402679402,-0.126973270225525,0.0853928309440614
0.822531798909752,-0.107934361839294,0.158034053993225,-0.0104079503059386
0.823137492428831,0.162702845191956,0.0430731164932251,0.145268319225311
0.82374318594791,-0.043268834495544396,-0.217984012413025,0.162033455944061
0.82434887946699,-0.0983542837142944,-0.153318485069275,0.12850318250656098
0.824954572986069,-0.0863791860580444,-0.105418094444275,-0.11818382921218899
0.825560266505148,-0.0935642446517944,-0.0479376256942749,0.17400855360031098
0.826165960024228,-0.043268834495544396,-0.155713504600525,0.17879859266281098
0.826771653543307,0.00223653659820558,0.131688839149475,-0.11578880968093899
0.827377347062386,-0.0959592641830444,0.126898800086975,0.0494675379753114
0.827983040581466,-0.0767991079330444,-0.196428836631775,0.116528084850311
0.828588734100545,-0.00973856105804442,0.0143328821182251,-0.144529044055939
0.829194427619624,-0.0193186391830444,-0.0838629186630249,0.111738045787811
0.829800121138704,-0.0935642446517944,0.0263079797744751,0.276994393444061
0.830405814657783,-0.27079568996429404,-0.117393192100525,0.130898202037811
0.831011508176863,-0.0815891469955444,-0.244329227256775,0.037492440319061404
0.831617201695942,0.0405568490982056,0.0574432336807251,-0.11339379014968899
0.832222895215021,-0.00734354152679442,-0.138948367881775,-0.0439382237434386
0.8328285887341,0.0932472787857056,-0.141343387413025,0.214723885631561
0.83343428225318,0.11480245456695601,0.0670233118057251,0.265019295787811
0.834039975772259,0.06690206394195561,0.0718133508682251,-0.029568106555938597
0.834645669291339,0.124382532691956,0.158034053993225,0.0231223231315614
0.835251362810418,0.186653040504456,-0.0479376256942749,0.0662326746940614
0.835857056329497,0.16509786472320598,0.0598382532119751,0.0135422450065614
0.836462749848577,0.0190016733169556,0.0215179407119751,0.140478280162811
0.837068443367656,-0.0528489126205444,0.011937862586975101,0.12131812391281101
0.837674136886735,-0.196550084495544,-0.0383575475692749,0.22430396375656098
0.838279830405815,0.0166066537857056,-0.105418094444275,0.14287329969406098
0.838885523924894,0.14593770847320597,-0.0383575475692749,0.265019295787811
0.839491217443973,-0.35222635402679403,-0.0718878210067749,0.36321509656906104
0.840096910963053,-0.0935642446517944,-0.105418094444275,0.0135422450065614
0.840702604482132,0.162702845191956,-0.160503543663025,0.286574471569061
0.841308298001211,-0.206130162620544,0.0358880578994751,0.0686276942253114
0.841913991520291,0.13396261081695598,-0.0886529577255249,0.0901828700065614
0.84251968503937,0.246528528785706,0.0646282922744751,0.200353768444061
0.843125378558449,0.16988790378570598,0.0502581750869751,0.20753882703781099
0.843731072077529,0.0381618295669556,-0.0647027624130249,0.166823495006561
0.844336765596608,-0.146254674339294,-0.110208133506775,0.114133065319061
0.844942459115687,-0.122304479026794,-0.112603153038025,0.219513924694061
0.845548152634767,-0.115119420433044,0.150848995399475,0.159638436412811
0.846153846153846,0.143542688941956,-0.0982330358505249,0.31291968641281104
0.846759539672925,0.0237917123794556,-0.179663699913025,0.0614426356315614
0.847365233192005,-0.158229771995544,-0.0431475866317749,-0.163689200305939
0.847970926711084,0.0118166147232056,0.011937862586975101,0.12371314344406101
0.848576620230164,0.06690206394195561,-0.0503326452255249,0.221908944225311
0.849182313749243,0.00702657566070558,0.0478631555557251,-0.16129418077468902
0.849788007268322,-0.0312937368392944,-0.143738406944275,-0.158899161243439
0.850393700787402,0.0405568490982056,-0.0575177038192749,0.573976815319061
0.850999394306481,0.0956422983169556,0.167614132118225,0.878144295787811
0.85160508782556,0.0812721811294556,0.0358880578994751,0.152453377819061
0.85221078134464,-0.127094518089294,0.0239129602432251,-0.053518301868438596
0.852816474863719,-0.110329381370544,-0.148528446006775,0.0973679286003114
0.853422168382798,0.0142116342544556,-0.189243778038025,-0.027173087024688597
0.854027861901878,-0.0241086782455444,0.0191229211807251,0.0111472254753114
0.854633555420957,0.00223653659820558,0.0694183313369751,0.118923104381561
0.855239248940036,-0.22050027980804401,0.0574432336807251,0.205143807506561
0.855844942459116,-0.297140904808044,-0.0239874303817749,0.384770272350311
0.856450635978195,0.050136927223205605,-0.103023074913025,0.0590476161003114
0.857056329497274,-0.0265036977767944,0.0071478235244751,0.22430396375656098
0.857662023016354,0.11480245456695601,0.0095428430557251,0.346449959850311
0.858267716535433,0.0764821420669556,-0.138948367881775,0.150058358287811
0.858873410054512,0.0357668100357056,-0.0263824499130249,0.375190194225311
0.859479103573592,0.177072962379456,-0.112603153038025,0.0758127528190614
0.860084797092671,0.00223653659820558,0.114923702430725,0.0422824793815614
0.86069049061175,0.0309767709732056,0.0837884485244751,0.200353768444061
0.86129618413083,-0.000158482933044421,-0.210798953819275,0.0925778895378114
0.861901877649909,0.0980373178482056,0.0574432336807251,-0.0822585362434386
0.862507571168988,-0.127094518089294,-0.249119266319275,0.17400855360031098
0.863113264688068,0.141147669410706,-0.141343387413025,0.0327024012565614
0.863718958207147,-0.0887742055892944,0.0215179407119751,-0.0870485753059386
0.864324651726227,-0.218105260276794,-0.158108524131775,0.152453377819061
0.864930345245306,0.052531946754455605,-0.0910479772567749,0.19316870985031098
0.865536038764385,-0.0959592641830444,-0.172478641319275,0.16442847547531098
0.866141732283465,-0.210920201683044,-0.129368289756775,-0.0415432042121886
0.866747425802544,0.050136927223205605,-0.009617313194274899,0.0782077723503114
0.867353119321623,0.00702657566070558,-0.103023074913025,0.25543921766281097
0.867958812840703,-0.318696080589294,-0.028777469444274898,0.291364510631561
0.868564506359782,-0.062428990745544394,-0.146133426475525,0.13329322156906098
0.869170199878861,0.0621120248794556,-0.213193973350525,0.27459937391281103
0.869775893397941,0.0453468881607056,-0.167688602256775,0.030307381725311403
0.87038158691702,-0.182179967308044,-0.0742828405380249,-0.163689200305939
0.870987280436099,0.0285817514419556,0.122108761024475,0.375190194225311
0.871592973955179,-0.196550084495544,-0.0455426061630249,0.0327024012565614
0.872198667474258,-0.0983542837142944,-0.246724246788025,0.0614426356315614
0.872804360993337,0.0980373178482056,-0.0191973913192749,-0.0966286534309386
0.873410054512417,0.00942159519195558,-0.0048272741317749,0.12371314344406101
0.874015748031496,-0.000158482933044421,-0.129368289756775,0.46141089735031104
0.874621441550575,-0.15343973293304403,-0.0215924108505249,0.16442847547531098
0.875227135069655,-0.13906961574554402,0.0430731164932251,0.26262427625656104
0.875832828588734,-0.206130162620544,-0.0575177038192749,0.104552987194061
0.876438522107813,0.0237917123794556,-0.126973270225525,0.20274878797531098
0.877044215626893,0.00463155612945558,0.158034053993225,0.217118905162811
0.877649909145972,-0.0169236196517944,-0.0024322546005249,0.18358863172531098
0.878255602665051,-0.0241086782455444,-0.198823856163025,0.205143807506561
0.878861296184131,0.13875264987945599,-0.0407525671005249,0.0327024012565614
0.87946698970321,0.0956422983169556,-0.148528446006775,0.22909400281906098
0.880072683222289,-0.0456638540267944,-0.0431475866317749,0.140478280162811
0.880678376741369,0.0621120248794556,-0.239539188194275,0.425485604381561
0.881284070260448,-0.100749303245544,-0.0718878210067749,0.231489022350311
0.881889763779528,-0.0815891469955444,0.0861834680557251,0.0829978114128114
0.882495457298607,-0.062428990745544394,-0.146133426475525,0.377585213756561
0.883101150817686,0.00463155612945558,0.160429073524475,0.154848397350311
0.883706844336766,0.22018331394195598,-0.035962528038024896,-0.000827872180938634
0.884312537855845,-0.0049485219955444195,-0.0263824499130249,0.135688241100311
0.884918231374924,0.0453468881607056,0.011937862586975101,0.358425057506561
0.885523924894004,-0.036083775901794395,0.0430731164932251,0.265019295787811
0.886129618413083,-0.13906961574554402,-0.0455426061630249,0.205143807506561
0.886735311932162,-0.0456638540267944,-0.213193973350525,0.0422824793815614
0.887341005451242,-0.131884557151794,0.270599971961975,-0.015197989368438601
0.887946698970321,0.0980373178482056,0.0789984094619751,0.205143807506561
0.8885523924894,-0.000158482933044421,-0.196428836631775,0.145268319225311
0.88915808600848,-0.036083775901794395,-0.0910479772567749,0.039887459850311405
0.889763779527559,-0.13906961574554402,0.031098018836975102,0.166823495006561
0.890369473046638,-0.06003397121429439,-0.0263824499130249,0.126108162975311
0.890975166565718,0.18425802097320598,-0.0766778600692749,0.166823495006561
0.891580860084797,-0.13906961574554402,-0.100628055381775,0.162033455944061
0.892186553603876,-0.158229771995544,-0.153318485069275,0.17400855360031098
0.892792247122956,-0.043268834495544396,-0.162898563194275,0.0518625575065614
0.893397940642035,-0.167809850120544,-0.213193973350525,0.19316870985031098
0.894003634161115,0.052531946754455605,-0.0670977819442749,-0.015197989368438601
0.894609327680194,-0.0288987173080444,0.0023577844619751,0.102157967662811
0.895215021199273,-0.18936502590179402,0.0813934289932251,0.236279061412811
0.895820714718352,-0.0911692251205444,-0.0168023717880249,0.0111472254753114
0.896426408237432,0.0118166147232056,-0.0407525671005249,0.40153540906906104
0.897032101756511,-0.0696140493392944,0.0071478235244751,0.351239998912811
0.897637795275591,-0.036083775901794395,0.0215179407119751,0.205143807506561
0.89824348879467,-0.0145286001205444,-0.179663699913025,0.166823495006561
0.898849182313749,0.107617395973206,-0.0982330358505249,-0.11099877061843899
0.899454875832829,-0.0528489126205444,-0.0742828405380249,-0.0439382237434386
0.900060569351908,-0.103144322776794,-0.150923465538025,0.0662326746940614
0.900666262870987,-0.172599889183044,-0.167688602256775,0.159638436412811
0.901271956390067,-0.285165807151794,0.0263079797744751,-0.015197989368438601
0.901877649909146,0.11001241550445601,-0.0718878210067749,0.104552987194061
0.902483343428225,0.19383809909820598,-0.0838629186630249,0.27220435438156104
0.903089036947305,-0.0552439321517944,0.117318721961975,0.19316870985031098
0.903694730466384,0.057321985816955606,-0.0886529577255249,0.14287329969406098
0.904300423985463,0.28724386081695596,-0.129368289756775,0.106948006725311
0.904906117504543,0.0285817514419556,-0.110208133506775,-0.015197989368438601
0.905511811023622,-0.17020486965179402,-0.0551226842880249,-0.06549339952468859
0.906117504542701,-0.0696140493392944,-0.162898563194275,0.0829978114128114
0.906723198061781,-0.0815891469955444,-0.009617313194274899,0.13808326063156098
0.90732889158086,-0.24445047512054402,-0.124578250694275,0.13329322156906098
0.907934585099939,-0.0648240102767944,-0.285044559288025,0.13808326063156098
0.908540278619019,-0.24445047512054402,0.0287029993057251,0.0566525965690614
0.909145972138098,-0.110329381370544,-0.0024322546005249,-0.0247780674934386
0.909751665657177,0.117197474098206,-0.117393192100525,-0.11578880968093899
0.910357359176257,0.0309767709732056,0.004752803993225099,0.7823435145378109
0.910963052695336,-0.14864969387054403,-3.72350692748983e-05,0.296154549694061
0.911568746214416,0.143542688941956,-0.0527276647567749,-0.027173087024688597
0.912174439733495,0.16030782566070598,-0.117393192100525,0.24825415906906098
0.912780133252574,-0.0552439321517944,-0.141343387413025,-0.199614493274689
0.913385826771653,-0.00973856105804442,-0.148528446006775,0.22909400281906098
0.913991520290733,-0.062428990745544394,0.0263079797744751,0.0734177332878114
0.914597213809812,-0.038478795433044395,-0.035962528038024896,0.22430396375656098
0.915202907328892,-0.0672190298080444,-0.0838629186630249,0.14287329969406098
0.915808600847971,0.143542688941956,0.174799190711975,0.0949729090690614
0.91641429436705,0.0453468881607056,0.0550482141494751,0.162033455944061
0.91701998788613,-0.19415506496429402,-0.0215924108505249,0.00396216688156137
0.917625681405209,-0.146254674339294,0.0430731164932251,0.145268319225311
0.918231374924288,-0.167809850120544,-0.172478641319275,0.19795874891281098
0.918837068443368,-0.0959592641830444,-0.0599127233505249,0.162033455944061
0.919442761962447,0.050136927223205605,-0.112603153038025,0.176403573131561
0.920048455481526,0.0764821420669556,-0.158108524131775,0.245859139537811
0.920654149000606,-0.100749303245544,0.0191229211807251,-0.027173087024688597
0.921259842519685,-0.24445047512054402,-0.0886529577255249,0.12371314344406101
0.921865536038764,0.11480245456695601,-0.0263824499130249,0.212328866100311
0.922471229557844,-0.036083775901794395,-0.172478641319275,-0.029568106555938597
0.923076923076923,-0.105539342308044,-0.0934429967880249,0.0446774989128114
0.923682616596002,0.148332728004456,-0.0215924108505249,0.0973679286003114
0.924288310115082,0.11240743503570601,-0.174873660850525,0.265019295787811
0.924894003634161,-0.0696140493392944,-0.0024322546005249,0.0949729090690614
0.92549969715324,-0.117514439964294,-0.0742828405380249,0.221908944225311
0.92610539067232,-0.062428990745544394,-0.184453738975525,0.38237525281906104
0.926711084191399,-0.210920201683044,-0.0982330358505249,-0.0199880284309386
0.927316777710478,-0.155834752464294,-0.0886529577255249,-0.051123282337188596
0.927922471229558,-0.0911692251205444,-0.08146789913177489,0.20753882703781099
0.928528164748637,-0.0767991079330444,0.0598382532119751,0.22430396375656098
0.929133858267717,-0.0528489126205444,-0.126973270225525,0.18837867078781098
0.929739551786796,0.0908522592544556,0.0813934289932251,0.23388404188156098
0.930345245305875,0.0142116342544556,0.165219112586975,0.29375953016281103
0.930950938824954,-0.0720090688705444,-0.028777469444274898,0.185983651256561
0.931556632344034,-0.033688756370544394,-0.009617313194274899,0.159638436412811
0.932162325863113,-0.0815891469955444,-3.72350692748983e-05,0.200353768444061
0.932768019382193,-0.107934361839294,-0.153318485069275,0.27220435438156104
0.933373712901272,-0.0552439321517944,-0.162898563194275,0.0327024012565614
0.933979406420351,-0.136674596214294,0.0478631555557251,0.140478280162811
0.934585099939431,-0.06003397121429439,0.0071478235244751,0.166823495006561
0.93519079345851,-0.0887742055892944,-0.0455426061630249,-0.06549339952468859
0.935796486977589,0.0213966928482056,-0.191638797569275,-0.0319631260871886
0.936402180496669,0.0836672006607056,-0.08146789913177489,-0.0439382237434386
0.937007874015748,-0.117514439964294,0.263414913368225,0.12371314344406101
0.937613567534827,-0.186970006370544,0.0191229211807251,0.16921851453781098
0.938219261053907,0.00942159519195558,-0.0311724889755249,0.14766333875656099
0.938824954572986,-0.12469949855804399,0.102948604774475,0.116528084850311
0.939430648092065,-0.215710240745544,-0.009617313194274899,-0.0990236729621886
0.940036341611145,-0.062428990745544394,0.102948604774475,0.0806027918815614
0.940642035130224,0.0381618295669556,0.193959346961975,0.511706307506561
0.941247728649303,0.153122767066956,-0.0383575475692749,0.19795874891281098
0.941853422168383,0.21060323581695597,-0.105418094444275,0.219513924694061
0.942459115687462,-0.033688756370544394,-0.126973270225525,0.181193612194061
0.943064809206541,-0.0839841665267944,-0.0335675085067749,0.00396216688156137
0.943670502725621,-0.105539342308044,0.0287029993057251,0.135688241100311
0.9442761962447,-0.100749303245544,-0.196428836631775,0.16921851453781098
0.94488188976378,0.06690206394195561,-0.0910479772567749,0.12371314344406101
0.945487583282859,-0.00255350246429442,0.0191229211807251,-0.0343581456184386
0.946093276801938,-0.0935642446517944,-0.009617313194274899,0.039887459850311405
0.946698970321018,0.0261867319107056,-0.0455426061630249,0.13329322156906098
0.947304663840097,-0.0312937368392944,-0.009617313194274899,0.317709725475311
0.947910357359176,-0.17499490871429402,-0.114998172569275,0.260229256725311
0.948516050878256,0.263293665504456,0.0023577844619751,-0.0630983799934386
0.949121744397335,-0.0911692251205444,0.0478631555557251,0.269809334850311
0.949727437916414,-0.100749303245544,0.0861834680557251,0.22430396375656098
0.950333131435494,0.0764821420669556,-0.0647027624130249,0.0422824793815614
