Time (s),Accel X (m/s^2),Accel Y (m/s^2),Accel Z (m/s^2),CI Value
10.18375,0.136817361831665,-0.0988831526756287,-0.18076110534668002,0.4883365257217764
10.18435606060606,0.227828104019165,-0.165943699550629,0.0635308868408201,0.4883365257217764
10.184962121212122,0.144002420425415,-0.13241342611312898,0.14496155090332,0.4883365257217764
10.185568181818182,0.189507791519165,0.0256578629493713,-0.10172546081542999,0.4883365257217764
10.186174242424242,0.227828104019165,-0.0390076643943787,0.010840457153320101,0.4883365257217764
10.186780303030304,-0.07154933738708501,-0.050982762050628704,-0.13286071472168,0.4883365257217764
10.187386363636364,-0.061969259262085,0.016077784824371298,-0.0586151092529299,0.4883365257217764
10.187992424242424,-0.021253927230835,-0.07493295736312869,0.09466614074707,0.4883365257217764
10.188598484848484,-0.27752101707458504,-0.15157358236312898,0.0467657501220701,0.4883365257217764
10.189204545454546,-0.08112941551208501,-0.0988831526756287,-0.09933044128417999,0.4883365257217764
10.189810606060606,-0.15777004051208499,0.116668605136871,-0.06819518737793,0.4883365257217764
10.190416666666666,-0.08112941551208501,-0.15636362142562898,-0.046640011596679895,0.4883365257217764
10.191022727272728,0.014671365737915,-0.050982762050628704,-0.0610101287841799,0.4883365257217764
10.191628787878788,-0.119449728012085,0.0711632340431213,-0.09454040222168,0.4883365257217764
10.192234848484848,0.029041482925415,-0.0557728011131287,0.039580691528320104,0.4883365257217764
10.19284090909091,0.15597751808166502,0.0639781754493713,0.23118225402832,0.4883365257217764
10.19344696969697,-0.023648946762085,-0.029427586269378702,0.38446350402832,0.4883365257217764
10.19405303030303,0.017066385269165,-0.103673191738129,-0.20471130065918,0.4883365257217764
10.194659090909092,0.00269626808166501,-0.0533777815818787,0.60241028137207,0.4883365257217764
10.195265151515152,-0.215250509262085,0.0591881363868713,0.20962707824707,0.4883365257217764
10.195871212121212,-0.124239767074585,-0.0270325667381287,-0.23584655456543002,0.4883365257217764
10.196477272727273,0.076941873550415,-0.12522836751937902,0.36051330871582,0.4883365257217764
10.197083333333333,-0.253570821762085,-0.0366126448631287,0.00126037902832005,0.4883365257217764
10.197689393939394,-0.222435567855835,0.0711632340431213,0.0539508087158201,0.4883365257217764
10.198295454545454,-0.07394435691833501,-0.0246375472068787,-0.08256530456543,0.4883365257217764
10.198901515151515,-0.20806545066833498,0.0543980973243713,0.21441711730957,0.4883365257217764
10.199507575757575,0.064966775894165,-0.07972299642562869,0.23836731262206998,0.4883365257217764
10.200113636363636,-0.00688381004333499,-0.21623910970687898,0.0180255157470701,0.4883365257217764
10.200719696969697,-0.038019063949585,0.09271840982437131,-0.12567565612793,0.4883365257217764
10.201325757575757,0.0050912876129150094,0.200494288730621,-0.07298522644043,0.4883365257217764
10.201931818181817,0.055386697769165,-0.0414026839256287,0.21681213684081999,0.4883365257217764
10.20253787878788,0.17034763526916502,-0.0485877425193787,0.29105774230957004,0.4883365257217764
10.20314393939394,-0.100289571762085,-0.0653528792381287,0.27429260559082,0.4883365257217764
10.20375,-0.00927882957458499,-0.280904637050629,0.17370178527831998,0.4883365257217764
10.204356060606061,0.17992771339416502,-0.08930307455062869,0.13059143371582,0.4883365257217764
10.204962121212121,-0.15298000144958498,-0.0605628401756287,0.19286194152831998,0.4883365257217764
10.205568181818181,-0.18890529441833498,-0.13720346517562898,0.11622131652832,0.4883365257217764
10.206174242424241,-0.061969259262085,-0.27850961751937897,-0.12567565612793,0.4883365257217764
10.206780303030303,-0.14818996238708498,-0.182708836269379,-0.30051208190918,0.4883365257217764
10.207386363636363,-0.030834005355835,-0.134808445644379,-0.0346649139404299,0.4883365257217764
10.207992424242423,0.014671365737915,-0.08930307455062869,-0.18076110534668002,0.4883365257217764
10.208598484848485,-0.00688381004333499,-0.050982762050628704,-0.0035296600341799497,0.4883365257217764
10.209204545454545,0.110472146987915,-0.08690805501937869,0.37248840637207004,0.4883365257217764
10.209810606060605,-0.105079610824585,0.09750844888687131,0.16172668762207,0.4883365257217764
10.210416666666667,-0.038019063949585,-0.08451303548812869,-0.044244992065429894,0.4883365257217764
10.211022727272727,0.223038064956665,-0.13241342611312898,-0.20710632019043002,0.4883365257217764
10.211628787878787,0.012276346206665,0.14780385904312102,-0.0394549530029299,0.4883365257217764
10.212234848484849,0.064966775894165,0.13822378091812101,0.21920715637207,0.4883365257217764
10.21284090909091,0.017066385269165,0.0328429215431213,-0.09454040222168,0.4883365257217764
10.21344696969697,-0.07394435691833501,-0.0557728011131287,0.015630496215820102,0.4883365257217764
10.214053030303031,-0.093104513168335,-0.0390076643943787,0.06592590637207,0.4883365257217764
10.214659090909091,-0.114659688949585,-0.185103855800629,0.19046692199707,0.4883365257217764
10.215265151515151,0.139212381362915,-0.153968601894379,0.10664123840332,0.4883365257217764
10.215871212121211,-0.102684591293335,0.08553335123062131,-0.051430050659179896,0.4883365257217764
10.216477272727273,0.017066385269165,-0.010267430019378701,-0.00113464050292995,0.4883365257217764
10.217083333333333,0.208667947769165,-0.09169809408187869,0.14496155090332,0.4883365257217764
10.217689393939393,-0.105079610824585,-0.08211801595687869,0.12340637512207,0.4883365257217764
10.218295454545455,0.09610202980041499,-0.07732797689437869,0.0491607696533201,0.4883365257217764
10.218901515151515,0.074546854019165,-0.0342176253318787,0.26950256652832,0.4883365257217764
10.219507575757575,-0.093104513168335,-0.0629578597068787,0.22160217590332,0.4883365257217764
10.220113636363637,0.021856424331665,0.111878566074371,0.07550598449707001,0.4883365257217764
10.220719696969697,0.012276346206665,0.0280528824806213,0.21920715637207,0.4883365257217764
10.221325757575757,0.177532693862915,-0.07253793783187869,0.32458801574707,0.4883365257217764
10.221931818181819,0.00748630714416501,-0.0964881331443787,0.0491607696533201,0.4883365257217764
10.222537878787879,-0.105079610824585,-0.0222425276756287,-0.046640011596679895,0.4883365257217764
10.223143939393939,-0.049994161605834996,0.0639781754493713,-0.21908141784668,0.4883365257217764
10.223749999999999,-0.18890529441833498,-0.07493295736312869,-0.14723083190918002,0.4883365257217764
10.22435606060606,-0.119449728012085,-0.185103855800629,0.10903625793457,0.4883365257217764
10.224962121212121,0.0050912876129150094,-0.08690805501937869,0.0132354766845701,0.4883365257217764
10.225568181818181,0.036226541519165004,0.107088527011871,0.19286194152831998,0.4883365257217764
10.226174242424243,-0.121844747543335,-0.127623387050629,-0.07538024597168,0.4883365257217764
10.226780303030303,-0.016463888168335,-0.0246375472068787,-0.11849059753418,0.4883365257217764
10.227386363636363,-0.030834005355835,0.0184728043556213,0.23836731262206998,0.4883365257217764
10.227992424242425,-0.13381984519958498,-0.0461927229881287,-0.00592467956542995,0.4883365257217764
10.228598484848485,-0.018858907699585,-0.103673191738129,0.0587408477783201,0.4883365257217764
10.229204545454545,0.14160740089416501,-0.029427586269378702,0.0036553985595700503,0.4883365257217764
10.229810606060607,-0.0020937709808349896,0.011287745761871299,-0.08256530456543,0.4883365257217764
10.230416666666667,-0.109869649887085,-0.0270325667381287,0.09945617980957,0.4883365257217764
10.231022727272727,0.019461404800415,-0.0342176253318787,0.010840457153320101,0.4883365257217764
10.231628787878789,0.057781717300415,0.0711632340431213,-0.020294796752929903,0.4883365257217764
10.232234848484849,0.134422342300415,0.0783482926368713,0.12340637512207,0.4883365257217764
10.232840909090909,-0.030834005355835,0.0520030777931213,-0.017899777221679902,0.4883365257217764
10.233446969696969,0.081731912612915,-0.15636362142562898,0.0347906524658201,0.4883365257217764
10.23405303030303,0.038621561050415004,-0.118043308925629,0.00844543762207005,0.4883365257217764
10.23465909090909,-0.057179220199585,0.0591881363868713,0.0611358673095701,0.4883365257217764
10.23526515151515,0.055386697769165,-0.07014291830062869,0.17130676574707,0.4883365257217764
10.235871212121213,-0.112264669418335,-0.029427586269378702,0.0060504180908200495,0.4883365257217764
10.236477272727273,0.057781717300415,-0.0581678206443787,0.0180255157470701,0.4883365257217764
10.237083333333333,-0.126634786605835,-0.0246375472068787,-0.0250848358154299,0.4883365257217764
10.237689393939394,-0.13860988426208498,-0.0366126448631287,0.14017151184082,0.4883365257217764
10.238295454545455,-0.038019063949585,0.0136827652931213,0.15214660949706998,0.4883365257217764
10.238901515151515,0.110472146987915,-0.07732797689437869,-0.0370599334716799,0.4883365257217764
10.239507575757576,0.17992771339416502,-0.19707895345687898,0.09227112121582,0.4883365257217764
10.240113636363636,-0.07154933738708501,-0.09409311361312869,0.18567688293457,0.4883365257217764
10.240719696969697,-0.07154933738708501,0.0184728043556213,0.10903625793457,0.4883365257217764
10.241325757575757,-0.141004903793335,-0.0581678206443787,-0.0298748748779299,0.4883365257217764
10.241931818181818,0.031436502456665,-0.0964881331443787,0.13298645324706998,0.4883365257217764
10.242537878787878,-0.085919454574585,0.0448180191993713,0.19046692199707,0.4883365257217764
10.243143939393939,0.144002420425415,0.0735582535743713,0.17370178527831998,0.4883365257217764
10.24375,0.021856424331665,-0.194683933925629,0.027605593872070098,0.4883365257217764
10.24435606060606,-0.07873439598083501,-0.000687351894378656,-0.30290710144043,0.4883365257217764
10.24496212121212,-0.069154317855835,0.0591881363868713,-0.17836608581543,0.4883365257217764
10.245568181818182,-0.028438985824585,0.0520030777931213,0.00844543762207005,0.4883365257217764
10.246174242424242,-0.042809103012084994,0.011287745761871299,0.23118225402832,0.4883365257217764
10.246780303030302,-0.14818996238708498,-0.130018406581879,0.0563458282470701,0.4883365257217764
10.247386363636364,0.10568210792541499,0.135828761386871,-0.18794616394043,0.4883365257217764
10.247992424242424,0.069756814956665,-0.0461927229881287,0.00126037902832005,0.4883365257217764
10.248598484848484,0.218248025894165,-0.194683933925629,0.0635308868408201,0.4883365257217764
10.249204545454546,-0.191300313949585,-0.08211801595687869,0.0323956329345701,0.4883365257217764
10.249810606060606,-0.13860988426208498,-0.0437977034568787,0.06592590637207,0.4883365257217764
10.250416666666666,0.064966775894165,-0.0342176253318787,0.20244201965331998,0.4883365257217764
10.251022727272726,-0.14339992332458498,0.0831383316993713,0.041975711059570105,0.4883365257217764
10.251628787878788,0.134422342300415,-0.122833347988129,0.0132354766845701,0.4883365257217764
10.252234848484848,-0.00927882957458499,-0.0414026839256287,-0.0346649139404299,0.4883365257217764
10.252840909090908,-0.275125997543335,-0.0485877425193787,0.30542785949707,0.4883365257217764
10.25344696969697,-0.047599142074584995,-0.0533777815818787,0.79640686340332,0.4883365257217764
10.25405303030303,0.148792459487915,0.0831383316993713,0.22399719543457,0.4883365257217764
10.25465909090909,0.00269626808166501,-0.010267430019378701,0.53534973449707,0.4883365257217764
10.255265151515152,-0.136214864730835,-0.07014291830062869,0.20004700012207,0.4883365257217764
10.255871212121212,0.038621561050415004,-0.14199350423812898,-0.10412048034667999,0.4883365257217764
10.256477272727272,-0.08112941551208501,-0.127623387050629,0.00126037902832005,0.4883365257217764
10.257083333333334,-0.191300313949585,0.09990346841812131,-0.18315612487793,0.4883365257217764
10.257689393939394,0.033831521987915,0.0352379410743713,0.12101135559082,0.4883365257217764
10.258295454545454,-0.25836086082458504,-0.204264012050629,0.07071594543457001,0.4883365257217764
10.258901515151514,-0.24399074363708498,-0.08451303548812869,-0.17597106628418002,0.4883365257217764
10.259507575757576,-0.026043966293335,-0.07493295736312869,-0.10891051940917999,0.4883365257217764
10.260113636363636,0.064966775894165,-0.163548680019379,0.17370178527831998,0.4883365257217764
10.260719696969696,0.093707010269165,0.169359034824371,-0.051430050659179896,0.4883365257217764
10.261325757575758,-0.105079610824585,0.0807433121681213,0.15693664855956999,0.4883365257217764
10.261931818181818,-0.07154933738708501,-0.266534519863129,-0.00592467956542995,0.4883365257217764
10.262537878787878,-0.00448879051208499,-0.0198475081443787,-0.0298748748779299,0.4883365257217764
10.26314393939394,0.00748630714416501,0.016077784824371298,0.32458801574707,0.4883365257217764
10.26375,-0.0020937709808349896,-0.256954441738129,0.24076233215332,0.4883365257217764
10.26435606060606,-0.109869649887085,-0.15157358236312898,0.14017151184082,0.4883365257217764
10.264962121212122,0.112867166519165,-0.007872410488128659,0.11861633605957,0.4883365257217764
10.265568181818182,-0.016463888168335,-0.0246375472068787,0.32458801574707,0.4883365257217764
10.266174242424242,-0.294286153793335,-0.08211801595687869,0.027605593872070098,0.4883365257217764
10.266780303030302,-0.011673849105835,-0.08930307455062869,-0.0418499725341799,0.4883365257217764
10.267386363636364,-0.191300313949585,0.0496080582618713,0.08269104309082,0.4883365257217764
10.267992424242424,-0.172140157699585,0.10229848794937099,0.0323956329345701,0.4883365257217764
10.268598484848484,0.031436502456665,-0.0246375472068787,0.07790100402832001,0.4883365257217764
10.269204545454546,0.017066385269165,-0.14199350423812898,0.0587408477783201,0.4883365257217764
10.269810606060606,0.014671365737915,-0.106068211269379,-0.008319699096679949,0.4883365257217764
10.270416666666666,0.05059665870666501,0.0280528824806213,-0.0418499725341799,0.4883365257217764
10.271022727272728,0.0050912876129150094,-0.0174524886131287,-0.0634051483154299,0.4883365257217764
10.271628787878788,0.069756814956665,0.037632960605621296,0.0539508087158201,0.4883365257217764
10.272234848484848,0.139212381362915,-0.0222425276756287,0.25513244934081997,0.4883365257217764
10.27284090909091,-0.033229024887085,-0.118043308925629,0.0611358673095701,0.4883365257217764
10.27344696969697,0.129632303237915,0.0280528824806213,0.10185119934082,0.4883365257217764
10.27405303030303,0.110472146987915,-0.0366126448631287,0.18807190246581998,0.4883365257217764
10.274659090909092,-0.232015645980835,0.09750844888687131,-0.08256530456543,0.4883365257217764
10.275265151515152,-0.284706075668335,-0.175523777675629,-0.046640011596679895,0.4883365257217764
10.275871212121212,-0.112264669418335,-0.106068211269379,-0.10651549987792999,0.4883365257217764
10.276477272727272,0.043411600112915005,0.0735582535743713,-0.17836608581543,0.4883365257217764
10.277083333333334,-0.038019063949585,-0.0366126448631287,0.027605593872070098,0.4883365257217764
10.277689393939394,-0.19848537254333498,-0.0318226058006287,0.20483703918457,0.4883365257217764
10.278295454545454,0.117657205581665,0.011287745761871299,0.13059143371582,0.4883365257217764
10.278901515151516,0.22064304542541502,0.15259389810562102,0.06832092590332,0.4883365257217764
10.279507575757576,0.033831521987915,0.123853663730621,0.09945617980957,0.4883365257217764
10.280113636363636,0.072151834487915,-0.0366126448631287,0.14735657043456998,0.4883365257217764
10.280719696969697,0.045806619644165006,-0.00547739095687866,0.20483703918457,0.4883365257217764
10.281325757575758,-0.04041408348083499,0.0735582535743713,0.09706116027832,0.4883365257217764
10.281931818181818,-0.028438985824585,0.0543980973243713,0.09227112121582,0.4883365257217764
10.28253787878788,0.134422342300415,0.011287745761871299,0.21920715637207,0.4883365257217764
10.28314393939394,0.084126932144165,-0.050982762050628704,0.23357727355956998,0.4883365257217764
10.28375,-0.085919454574585,0.116668605136871,-0.32925231628418,0.4883365257217764
10.284356060606061,-0.028438985824585,0.10469350748062099,0.39164856262207004,0.4883365257217764
10.284962121212121,-0.069154317855835,0.00889272623062134,0.31740295715332,0.4883365257217764
10.285568181818181,0.05059665870666501,-0.050982762050628704,0.14256653137206998,0.4883365257217764
10.286174242424241,0.14160740089416501,-0.101278172206879,0.22878723449707,0.4883365257217764
10.286780303030303,0.14639743995666502,0.10469350748062099,-0.0346649139404299,0.4883365257217764
10.287386363636363,-0.14339992332458498,0.0232628434181213,0.17849182434081998,0.4883365257217764
10.287992424242423,-0.08112941551208501,0.0328429215431213,-0.0538250701904299,0.4883365257217764
10.288598484848485,0.024251443862915,-0.0414026839256287,0.09227112121582,0.4883365257217764
10.289204545454545,-0.014068868637085,-0.103673191738129,0.21920715637207,0.4883365257217764
10.289810606060605,-0.066759298324585,-0.209054051113129,0.07790100402832001,0.4883365257217764
10.290416666666667,-0.167350118637085,-0.0485877425193787,0.12580139465332,0.4883365257217764
10.291022727272727,-0.085919454574585,0.0232628434181213,0.11622131652832,0.4883365257217764
10.291628787878787,-0.119449728012085,-0.182708836269379,-0.046640011596679895,0.4883365257217764
10.292234848484847,0.026646463394165,-0.07732797689437869,-0.20950133972168,0.4883365257217764
10.29284090909091,-0.107474630355835,-0.0581678206443787,0.0036553985595700503,0.4883365257217764
10.29344696969697,-0.17453517723083498,0.00649770669937134,0.26710754699707,0.4883365257217764
10.29405303030303,-0.117054708480835,-0.0390076643943787,0.26710754699707,0.4883365257217764
10.294659090909091,0.15118747901916502,-0.14199350423812898,0.31261291809082004,0.4883365257217764
10.295265151515151,-0.121844747543335,-0.127623387050629,0.08029602355957001,0.4883365257217764
10.295871212121211,-0.18890529441833498,-0.07972299642562869,-0.11130553894043,0.4883365257217764
10.296477272727273,-0.028438985824585,0.011287745761871299,0.19765198059081998,0.4883365257217764
10.297083333333333,-0.057179220199585,-0.0174524886131287,0.11143127746582,0.4883365257217764
10.297689393939393,0.09849704933166499,-0.0198475081443787,0.00126037902832005,0.4883365257217764
10.298295454545455,0.0050912876129150094,-0.08690805501937869,0.10903625793457,0.4883365257217764
10.298901515151515,0.194297830581665,-0.0629578597068787,-0.0538250701904299,0.4883365257217764
10.299507575757575,-0.186510274887085,-0.0437977034568787,-0.008319699096679949,0.4883365257217764
10.300113636363635,-0.291891134262085,-0.08211801595687869,-0.18555114440918002,0.4883365257217764
10.300719696969697,0.064966775894165,-0.06774789876937869,-0.19034118347168,0.4883365257217764
10.301325757575757,-0.14339992332458498,0.0256578629493713,-0.16399596862793,0.4883365257217764
10.301931818181817,-0.059574239730835,-0.00308237142562866,-0.0562200897216799,0.4883365257217764
10.302537878787879,0.055386697769165,0.0280528824806213,0.23118225402832,0.4883365257217764
10.303143939393939,0.10328708839416499,-0.00547739095687866,0.010840457153320101,0.4883365257217764
10.303749999999999,0.036226541519165004,-0.0964881331443787,0.025210574340820097,0.4883365257217764
10.304356060606061,0.048201639175415006,-0.237794285488129,0.18567688293457,0.4883365257217764
10.304962121212121,0.086521951675415,-0.130018406581879,-0.14723083190918002,0.4883365257217764
10.305568181818181,0.014671365737915,0.0472130387306213,-0.13765075378418,0.4883365257217764
10.306174242424241,-0.15298000144958498,0.0280528824806213,-0.06580016784668,0.4883365257217764
10.306780303030303,-0.155375020980835,-0.106068211269379,-0.0586151092529299,0.4883365257217764
10.307386363636365,-0.119449728012085,-0.15157358236312898,0.08269104309082,0.4883365257217764
10.307992424242423,0.017066385269165,-0.029427586269378702,-0.08017028503418,0.4883365257217764
10.308598484848485,0.117657205581665,-0.0222425276756287,0.14496155090332,0.4883365257217764
10.309204545454545,-0.018858907699585,0.0735582535743713,0.19525696105957,0.4883365257217764
10.309810606060607,0.029041482925415,-0.07014291830062869,0.0228155548095701,0.4883365257217764
10.310416666666667,0.223038064956665,-0.050982762050628704,0.015630496215820102,0.4883365257217764
10.311022727272727,0.067361795425415,-0.0533777815818787,0.08029602355957001,0.4883365257217764
10.311628787878789,0.093707010269165,-0.08690805501937869,0.19286194152831998,0.4883365257217764
10.312234848484849,0.144002420425415,-0.0988831526756287,0.15933166809082,0.4883365257217764
10.312840909090909,-0.028438985824585,0.00170766763687134,0.11382629699707,0.4883365257217764
10.31344696969697,-0.08112941551208501,-0.122833347988129,0.20244201965331998,0.4883365257217764
10.31405303030303,-0.121844747543335,-0.0485877425193787,0.83233215637207,0.4883365257217764
10.31465909090909,0.213457986831665,0.09271840982437131,0.64073059387207,0.4883365257217764
10.315265151515153,0.041016580581665005,-0.0270325667381287,0.21920715637207,0.4883365257217764
10.315871212121213,0.055386697769165,0.0328429215431213,0.00844543762207005,0.4883365257217764
10.316477272727273,0.009881326675415011,-0.0988831526756287,0.0036553985595700503,0.4883365257217764
10.317083333333333,-0.07154933738708501,0.0256578629493713,0.10903625793457,0.4883365257217764
10.317689393939395,-0.13860988426208498,0.09990346841812131,0.26231750793457004,0.4883365257217764
10.318295454545455,-0.105079610824585,-0.15636362142562898,0.23836731262206998,0.4883365257217764
10.318901515151515,0.052991678237915,0.09511342935562131,-0.19513122253418,0.4883365257217764
10.319507575757576,-0.042809103012084994,0.0496080582618713,0.0515557891845701,0.4883365257217764
10.320113636363637,0.045806619644165006,0.0711632340431213,0.039580691528320104,0.4883365257217764
10.320719696969697,-0.162560079574585,0.011287745761871299,-0.17597106628418002,0.4883365257217764
10.321325757575758,-0.114659688949585,0.0615831559181213,-0.051430050659179896,0.4883365257217764
10.321931818181818,-0.090709493637085,0.09511342935562131,0.044370730590820105,0.4883365257217764
10.322537878787879,-0.038019063949585,0.00649770669937134,0.19525696105957,0.4883365257217764
10.323143939393939,-0.016463888168335,0.133433741855621,0.24076233215332,0.4883365257217764
10.32375,-0.14339992332458498,-0.12522836751937902,0.0635308868408201,0.4883365257217764
10.32435606060606,-0.23920070457458498,-0.0270325667381287,-0.15441589050293,0.4883365257217764
10.32496212121212,0.167952615737915,0.00889272623062134,-0.008319699096679949,0.4883365257217764
10.325568181818182,0.038621561050415004,-0.00547739095687866,0.0611358673095701,0.4883365257217764
10.326174242424242,0.00030124855041501196,0.0831383316993713,0.07071594543457001,0.4883365257217764
10.326780303030302,0.060176736831665,0.181334132480621,0.16412170715332,0.4883365257217764
10.327386363636364,-0.014068868637085,0.114273585605621,-0.09214538269043,0.4883365257217764
10.327992424242424,-0.054784200668335,-0.07732797689437869,-0.008319699096679949,0.4883365257217764
10.328598484848484,-0.323026388168335,-0.0126624495506287,-0.14244079284668001,0.4883365257217764
10.329204545454544,-0.141004903793335,-0.07732797689437869,-0.19752624206543,0.4883365257217764
10.329810606060606,-0.141004903793335,-0.07972299642562869,0.09945617980957,0.4883365257217764
10.330416666666666,0.110472146987915,-0.182708836269379,-0.00113464050292995,0.4883365257217764
10.331022727272726,0.00748630714416501,-0.0557728011131287,-0.12328063659668,0.4883365257217764
10.331628787878788,0.14639743995666502,-0.242584324550629,0.0036553985595700503,0.4883365257217764
10.332234848484848,-0.095499532699585,-0.12522836751937902,-0.16399596862793,0.4883365257217764
10.332840909090908,-0.21764552879333499,0.0663731949806213,-0.16160094909668002,0.4883365257217764
10.33344696969697,-0.145794942855835,-0.213844090175629,0.18567688293457,0.4883365257217764
10.33405303030303,-0.011673849105835,-0.0222425276756287,-0.11609557800293,0.4883365257217764
10.33465909090909,0.17034763526916502,-0.173128758144379,-0.00113464050292995,0.4883365257217764
10.335265151515152,0.012276346206665,-0.173128758144379,-0.0586151092529299,0.4883365257217764
10.335871212121212,-0.049994161605834996,-0.0366126448631287,-0.18794616394043,0.4883365257217764
10.336477272727272,0.026646463394165,-0.108463230800629,0.0563458282470701,0.4883365257217764
10.337083333333332,0.055386697769165,-0.106068211269379,0.0491607696533201,0.4883365257217764
10.337689393939394,-0.284706075668335,0.0184728043556213,0.044370730590820105,0.4883365257217764
10.338295454545454,-0.066759298324585,-0.07732797689437869,-0.24542663269043002,0.4883365257217764
10.338901515151514,0.048201639175415006,-0.14678354330062898,-0.0370599334716799,0.4883365257217764
10.339507575757576,-0.200880392074585,0.126248683261871,-0.16639098815918002,0.4883365257217764
10.340113636363636,-0.121844747543335,-0.0605628401756287,0.010840457153320101,0.4883365257217764
10.340719696969696,-0.07394435691833501,-0.127623387050629,0.20483703918457,0.4883365257217764
10.341325757575758,-0.12902980613708498,-0.00308237142562866,-0.10651549987792999,0.4883365257217764
10.341931818181818,0.136817361831665,-0.00547739095687866,0.10424621887207,0.4883365257217764
10.342537878787878,0.012276346206665,0.09750844888687131,-0.14004577331543,0.4883365257217764
10.343143939393938,-0.08352443504333501,-0.08690805501937869,-0.15441589050293,0.4883365257217764
10.34375,-0.109869649887085,0.016077784824371298,-0.0322698944091799,0.4883365257217764
10.34435606060606,-0.023648946762085,-0.0533777815818787,0.12340637512207,0.4883365257217764
10.34496212121212,-0.035624044418335,-0.118043308925629,0.23357727355956998,0.4883365257217764
10.345568181818182,-0.095499532699585,0.0256578629493713,0.0563458282470701,0.4883365257217764
10.346174242424242,0.036226541519165004,-0.07253793783187869,0.0611358673095701,0.4883365257217764
10.346780303030302,-0.00927882957458499,0.0639781754493713,-0.06580016784668,0.4883365257217764
10.347386363636364,-0.035624044418335,0.037632960605621296,0.12340637512207,0.4883365257217764
10.347992424242424,-0.00688381004333499,0.0328429215431213,0.09466614074707,0.4883365257217764
10.348598484848484,-0.08352443504333501,0.0711632340431213,-0.22387145690918,0.4883365257217764
10.349204545454544,-0.07633937644958501,-0.13720346517562898,0.18567688293457,0.4883365257217764
10.349810606060606,-0.0020937709808349896,0.0711632340431213,-0.049035031127929896,0.4883365257217764
10.350416666666668,0.117657205581665,-0.0246375472068787,0.14256653137206998,0.4883365257217764
10.351022727272726,-0.112264669418335,-0.173128758144379,0.06832092590332,0.4883365257217764
10.351628787878788,-0.045204122543334994,0.0735582535743713,-0.0274798553466799,0.4883365257217764
10.352234848484848,0.012276346206665,-0.0366126448631287,0.28866272277832,0.4883365257217764
10.35284090909091,0.019461404800415,0.0400279801368713,0.00844543762207005,0.4883365257217764
10.35344696969697,0.218248025894165,0.0543980973243713,0.25513244934081997,0.4883365257217764
10.35405303030303,-0.100289571762085,0.00889272623062134,0.26710754699707,0.4883365257217764
10.354659090909092,-0.00688381004333499,-0.08451303548812869,0.07790100402832001,0.4883365257217764
10.355265151515152,0.17992771339416502,0.0615831559181213,0.0132354766845701,0.4883365257217764
10.355871212121212,0.10807712745666499,0.0639781754493713,0.06592590637207,0.4883365257217764
10.356477272727274,-0.21764552879333499,0.0400279801368713,0.0539508087158201,0.4883365257217764
10.357083333333334,-0.00688381004333499,0.09032339029312131,0.039580691528320104,0.4883365257217764
10.357689393939394,0.134422342300415,0.00889272623062134,0.18567688293457,0.4883365257217764
10.358295454545456,0.038621561050415004,0.0520030777931213,-0.07059020690918,0.4883365257217764
10.358901515151516,0.093707010269165,-0.204264012050629,-0.044244992065429894,0.4883365257217764
10.359507575757576,0.009881326675415011,-0.14199350423812898,-0.0274798553466799,0.4883365257217764
10.360113636363636,-0.105079610824585,0.0208678238868713,-0.0370599334716799,0.4883365257217764
10.360719696969698,-0.117054708480835,0.14780385904312102,0.0587408477783201,0.4883365257217764
10.361325757575758,0.017066385269165,-0.029427586269378702,0.10664123840332,0.4883365257217764
10.361931818181818,0.038621561050415004,0.011287745761871299,0.32219299621582004,0.4883365257217764
10.36253787878788,0.172742654800415,0.0184728043556213,0.10664123840332,0.4883365257217764
10.36314393939394,0.12723728370666498,-0.0198475081443787,0.28866272277832,0.4883365257217764
10.36375,-0.038019063949585,0.0496080582618713,0.09706116027832,0.4883365257217764
10.364356060606061,-0.119449728012085,-0.101278172206879,0.22639221496582,0.4883365257217764
10.364962121212121,-0.07394435691833501,0.0687682145118713,0.29584778137207,0.4883365257217764
10.365568181818182,0.122447244644165,-0.13720346517562898,0.0323956329345701,0.4883365257217764
10.366174242424242,-0.023648946762085,-0.14199350423812898,0.14496155090332,0.4883365257217764
10.366780303030303,-0.095499532699585,0.0208678238868713,-0.09933044128417999,0.4883365257217764
10.367386363636363,-0.114659688949585,0.0567931168556213,-0.046640011596679895,0.4883365257217764
10.367992424242424,-0.021253927230835,0.121458644199371,0.0515557891845701,0.4883365257217764
10.368598484848485,0.10807712745666499,-0.264139500331879,0.0180255157470701,0.4883365257217764
10.369204545454545,0.021856424331665,-0.283299656581879,0.0539508087158201,0.4883365257217764
10.369810606060605,-0.090709493637085,-0.0414026839256287,0.08508606262207,0.4883365257217764
10.370416666666667,0.074546854019165,-0.185103855800629,-0.049035031127929896,0.4883365257217764
10.371022727272727,0.088916971206665,0.0041026871681213405,-0.046640011596679895,0.4883365257217764
10.371628787878787,-0.069154317855835,0.114273585605621,0.0635308868408201,0.4883365257217764
10.372234848484847,-0.097894552230835,-0.029427586269378702,0.13538147277832,0.4883365257217764
10.37284090909091,-0.167350118637085,0.0687682145118713,-0.10412048034667999,0.4883365257217764
10.37344696969697,-0.042809103012084994,0.0352379410743713,-0.0538250701904299,0.4883365257217764
10.37405303030303,-0.093104513168335,0.0352379410743713,-0.31488219909667997,0.4883365257217764
10.374659090909091,-0.045204122543334994,-0.010267430019378701,0.54013977355957,0.4883365257217764
10.375265151515151,0.115262186050415,-0.103673191738129,0.61438537902832,0.4883365257217764
10.375871212121211,0.187112771987915,-0.029427586269378702,-0.010714718627929899,0.4883365257217764
10.376477272727273,-0.136214864730835,-0.09169809408187869,0.18807190246581998,0.4883365257217764
10.377083333333333,0.0050912876129150094,-0.0270325667381287,-0.14962585144043,0.4883365257217764
10.377689393939393,-0.14818996238708498,-0.0366126448631287,0.08987610168457,0.4883365257217764
10.378295454545455,-0.272730978012085,0.0615831559181213,0.14017151184082,0.4883365257217764
10.378901515151515,0.144002420425415,0.016077784824371298,-0.07538024597168,0.4883365257217764
10.379507575757575,0.122447244644165,-0.0318226058006287,-0.020294796752929903,0.4883365257217764
10.380113636363635,-0.023648946762085,-0.007872410488128659,0.16891174621582,0.4883365257217764
10.380719696969697,-0.047599142074584995,0.0448180191993713,-0.09454040222168,0.4883365257217764
10.381325757575757,-0.064364278793335,-0.09409311361312869,-0.017899777221679902,0.4883365257217764
10.381931818181817,-0.270335958480835,-0.12522836751937902,0.28147766418457004,0.4883365257217764
10.382537878787879,-0.085919454574585,0.145408839511871,0.0228155548095701,0.4883365257217764
10.383143939393939,-0.14339992332458498,-0.108463230800629,0.0635308868408201,0.4883365257217764
10.38375,0.17992771339416502,-0.00308237142562866,0.17130676574707,0.4883365257217764
10.384356060606061,0.177532693862915,0.150198878574371,0.19765198059081998,0.4883365257217764
10.384962121212121,-0.105079610824585,-0.225819187831879,0.19046692199707,0.4883365257217764
10.385568181818181,0.09849704933166499,-0.15157358236312898,-0.22387145690918,0.4883365257217764
10.386174242424241,-0.141004903793335,0.0472130387306213,0.025210574340820097,0.4883365257217764
10.386780303030303,-0.057179220199585,-0.029427586269378702,0.015630496215820102,0.4883365257217764
10.387386363636363,0.191902811050415,-0.149178562831879,0.08987610168457,0.4883365257217764
10.387992424242423,-0.08112941551208501,-0.09169809408187869,0.027605593872070098,0.4883365257217764
10.388598484848485,-0.042809103012084994,-0.00547739095687866,-0.09933044128417999,0.4883365257217764
10.389204545454545,0.021856424331665,-0.0174524886131287,0.0539508087158201,0.4883365257217764
10.389810606060605,-0.14818996238708498,-0.144388523769379,0.0300006134033201,0.4883365257217764
10.390416666666667,-0.033229024887085,-0.113253269863129,-0.09933044128417999,0.4883365257217764
10.391022727272727,0.036226541519165004,0.0567931168556213,-0.13765075378418,0.4883365257217764
10.391628787878787,-0.14818996238708498,-0.00308237142562866,0.09227112121582,0.4883365257217764
10.392234848484847,-0.215250509262085,0.016077784824371298,0.07071594543457001,0.4883365257217764
10.392840909090909,-0.112264669418335,-0.08690805501937869,0.027605593872070098,0.4883365257217764
10.39344696969697,-0.069154317855835,-0.00547739095687866,0.0132354766845701,0.4883365257217764
10.39405303030303,0.10807712745666499,-0.0174524886131287,0.22639221496582,0.4883365257217764
10.39465909090909,0.134422342300415,0.0256578629493713,-0.008319699096679949,0.4883365257217764
10.395265151515153,-0.042809103012084994,-0.0246375472068787,0.015630496215820102,0.4883365257217764
10.395871212121213,-0.172140157699585,-0.09409311361312869,-0.010714718627929899,0.4883365257217764
10.396477272727273,-0.117054708480835,0.0208678238868713,-0.20710632019043002,0.4883365257217764
10.397083333333333,0.072151834487915,-0.010267430019378701,0.0491607696533201,0.4883365257217764
10.397689393939395,0.17034763526916502,-0.12522836751937902,0.12340637512207,0.4883365257217764
10.398295454545455,0.014671365737915,-0.00308237142562866,-0.0610101287841799,0.4883365257217764
10.398901515151515,0.120052225112915,0.210074366855621,0.22160217590332,0.4883365257217764
10.399507575757577,0.057781717300415,-0.0390076643943787,0.23118225402832,0.4883365257217764
10.400113636363637,0.158372537612915,-0.00547739095687866,0.22399719543457,0.4883365257217764
10.400719696969697,-0.057179220199585,-0.09409311361312869,0.25034241027832,0.4883365257217764
10.401325757575759,-0.114659688949585,-0.113253269863129,0.0300006134033201,0.4883365257217764
10.401931818181819,0.060176736831665,-0.0437977034568787,0.12580139465332,0.4883365257217764
10.402537878787879,-0.038019063949585,-0.13720346517562898,-0.0394549530029299,0.4883365257217764
10.403143939393939,-0.038019063949585,-0.08690805501937869,0.33177307434082004,0.4883365257217764
10.40375,-0.255965841293335,-0.0533777815818787,-0.10172546081542999,0.4883365257217764
10.40435606060606,-0.085919454574585,-0.223424168300629,0.13538147277832,0.4883365257217764
10.40496212121212,-0.23441066551208498,-0.07253793783187869,0.58325012512207,0.4883365257217764
10.405568181818182,0.00269626808166501,0.0424229996681213,0.15454162902832,0.4883365257217764
10.406174242424242,-0.021253927230835,0.08792837076187131,0.13059143371582,0.4883365257217764
10.406780303030303,-0.085919454574585,0.133433741855621,0.06832092590332,0.4883365257217764
10.407386363636364,0.208667947769165,0.14780385904312102,0.14496155090332,0.4883365257217764
10.407992424242424,-0.047599142074584995,0.219654444980621,0.22878723449707,0.4883365257217764
10.408598484848484,-0.090709493637085,-0.0318226058006287,-0.010714718627929899,0.4883365257217764
10.409204545454545,0.041016580581665005,0.195704249668121,0.07311096496582001,0.4883365257217764
10.409810606060606,-0.035624044418335,0.0735582535743713,0.19765198059081998,0.4883365257217764
10.410416666666666,-0.14339992332458498,0.00889272623062134,0.044370730590820105,0.4883365257217764
10.411022727272726,0.294888650894165,-0.0150574690818787,0.20483703918457,0.4883365257217764
10.411628787878788,-0.162560079574585,-0.101278172206879,0.28866272277832,0.4883365257217764
10.412234848484848,-0.066759298324585,0.0136827652931213,0.07311096496582001,0.4883365257217764
10.412840909090908,-0.052389181137084996,0.0136827652931213,-0.017899777221679902,0.4883365257217764
10.41344696969697,-0.061969259262085,0.0041026871681213405,-0.15920592956543,0.4883365257217764
10.41405303030303,0.060176736831665,-0.19228891439437898,0.15214660949706998,0.4883365257217764
10.41465909090909,-0.241595724105835,0.131038722324371,0.22160217590332,0.4883365257217764
10.415265151515152,0.064966775894165,0.0591881363868713,0.027605593872070098,0.4883365257217764
10.415871212121212,-0.176930196762085,-0.08211801595687869,0.26231750793457004,0.4883365257217764
10.416477272727272,-0.023648946762085,-0.0198475081443787,0.11382629699707,0.4883365257217764
10.417083333333332,-0.026043966293335,-0.153968601894379,0.0467657501220701,0.4883365257217764
10.417689393939394,-0.059574239730835,-0.00547739095687866,-0.12088561706543,0.4883365257217764
10.418295454545454,0.134422342300415,-0.08451303548812869,-0.14483581237793,0.4883365257217764
10.418901515151514,-0.00927882957458499,0.116668605136871,-0.00592467956542995,0.4883365257217764
10.419507575757576,0.019461404800415,-0.010267430019378701,0.10185119934082,0.4883365257217764
10.420113636363636,-0.00927882957458499,-0.15157358236312898,0.24315735168456998,0.4883365257217764
10.420719696969696,-0.21764552879333499,0.0591881363868713,-0.06580016784668,0.4883365257217764
10.421325757575758,-0.25836086082458504,0.08792837076187131,0.0323956329345701,0.4883365257217764
10.421931818181818,-0.049994161605834996,-0.0461927229881287,-0.08017028503418,0.4883365257217764
10.422537878787878,-0.066759298324585,-0.000687351894378656,-0.0610101287841799,0.4883365257217764
10.423143939393938,-0.00927882957458499,0.016077784824371298,0.09466614074707,0.4883365257217764
10.42375,0.031436502456665,-0.0414026839256287,-0.08975036315918,0.4883365257217764
10.42435606060606,-0.064364278793335,-0.0150574690818787,0.28626770324707,0.4883365257217764
10.42496212121212,0.048201639175415006,0.0687682145118713,0.32219299621582004,0.4883365257217764
10.425568181818182,0.10807712745666499,0.00170766763687134,0.10424621887207,0.4883365257217764
10.426174242424242,0.203877908706665,0.0136827652931213,0.039580691528320104,0.4883365257217764
10.426780303030302,0.036226541519165004,-0.13241342611312898,0.10664123840332,0.4883365257217764
10.427386363636364,-0.20327541160583498,-0.14678354330062898,-0.051430050659179896,0.4883365257217764
10.427992424242424,-0.061969259262085,0.126248683261871,-0.18076110534668002,0.4883365257217764
10.428598484848484,0.093707010269165,0.030447902011871298,0.08748108215332,0.4883365257217764
10.429204545454544,-0.17453517723083498,0.0136827652931213,0.35572326965332,0.4883365257217764
10.429810606060606,-0.026043966293335,-0.0437977034568787,0.07071594543457001,0.4883365257217764
10.430416666666666,-0.263150899887085,-0.103673191738129,0.039580691528320104,0.4883365257217764
10.431022727272726,-0.296681173324585,0.0639781754493713,0.0180255157470701,0.4883365257217764
10.431628787878788,-0.057179220199585,0.0831383316993713,-0.11370055847168,0.4883365257217764
10.432234848484848,0.15597751808166502,0.0352379410743713,0.13298645324706998,0.4883365257217764
10.432840909090908,0.182322732925415,-0.09169809408187869,-0.0346649139404299,0.4883365257217764
10.43344696969697,-0.085919454574585,-0.00547739095687866,-0.35080749206543,0.4883365257217764
10.43405303030303,-0.052389181137084996,0.119063624668121,0.33895813293457,0.4883365257217764
10.434659090909092,-0.097894552230835,-0.134808445644379,0.89699768371582,0.4883365257217764
10.435265151515152,-0.066759298324585,-0.0629578597068787,0.0539508087158201,0.4883365257217764
10.435871212121212,-0.17932521629333498,0.00170766763687134,-0.15202087097168002,0.4883365257217764
10.436477272727274,-0.090709493637085,-0.07732797689437869,0.14496155090332,0.4883365257217764
10.437083333333334,0.031436502456665,-0.158758640956879,0.0467657501220701,0.4883365257217764
10.437689393939394,0.029041482925415,-0.115648289394379,-0.16878600769043,0.4883365257217764
10.438295454545456,-0.08352443504333501,-0.06774789876937869,0.22399719543457,0.4883365257217764
10.438901515151516,-0.052389181137084996,-0.08690805501937869,0.23836731262206998,0.4883365257217764
10.439507575757576,-0.164955099105835,-0.199473972988129,-0.008319699096679949,0.4883365257217764
10.440113636363636,-0.282311056137085,-0.0318226058006287,-0.06580016784668,0.4883365257217764
10.440719696969698,0.18471775245666502,-0.0653528792381287,0.00844543762207005,0.4883365257217764
10.441325757575758,0.093707010269165,-0.134808445644379,0.30782287902832,0.4883365257217764
10.441931818181818,-0.059574239730835,0.0256578629493713,-0.09933044128417999,0.4883365257217764
10.44253787878788,-0.011673849105835,-0.07253793783187869,-0.046640011596679895,0.4883365257217764
10.44314393939394,-0.07873439598083501,0.0520030777931213,-0.0250848358154299,0.4883365257217764
10.44375,0.057781717300415,-0.0557728011131287,0.015630496215820102,0.4883365257217764
10.444356060606061,0.079336893081665,0.15259389810562102,0.15933166809082,0.4883365257217764
10.444962121212122,-0.095499532699585,0.26036977701187103,0.11861633605957,0.4883365257217764
10.445568181818182,-0.191300313949585,0.0735582535743713,0.00844543762207005,0.4883365257217764
10.446174242424242,-0.13860988426208498,-0.0485877425193787,0.07071594543457001,0.4883365257217764
10.446780303030303,-0.131424825668335,-0.113253269863129,0.09706116027832,0.4883365257217764
10.447386363636364,0.048201639175415006,-0.0222425276756287,0.0563458282470701,0.4883365257217764
10.447992424242424,0.00748630714416501,-0.106068211269379,0.34374817199707003,0.4883365257217764
10.448598484848485,0.043411600112915005,0.0400279801368713,0.17130676574707,0.4883365257217764
10.449204545454545,-0.15298000144958498,0.00889272623062134,-0.00592467956542995,0.4883365257217764
10.449810606060606,-0.14339992332458498,-0.19707895345687898,-0.0538250701904299,0.4883365257217764
10.450416666666667,0.158372537612915,-0.000687351894378656,0.0347906524658201,0.4883365257217764
10.451022727272727,-0.102684591293335,0.17175405435562102,0.041975711059570105,0.4883365257217764
10.451628787878787,0.052991678237915,-0.07014291830062869,0.07071594543457001,0.4883365257217764
10.452234848484848,0.10568210792541499,-0.177918797206879,0.22160217590332,0.4883365257217764
10.45284090909091,0.10328708839416499,-0.21623910970687898,-0.17357604675293,0.4883365257217764
10.45344696969697,0.024251443862915,-0.27850961751937897,-0.07538024597168,0.4883365257217764
10.45405303030303,-0.035624044418335,0.0352379410743713,0.07311096496582001,0.4883365257217764
10.454659090909091,0.278123514175415,0.10469350748062099,0.17609680480957,0.4883365257217764
10.455265151515151,0.052991678237915,0.0448180191993713,0.49942444152832,0.4883365257217764
10.455871212121211,-0.033229024887085,-0.15157358236312898,0.21202209777831998,0.4883365257217764
10.456477272727273,0.024251443862915,-0.07493295736312869,-0.020294796752929903,0.4883365257217764
10.457083333333333,0.009881326675415011,0.133433741855621,0.12819641418456998,0.4883365257217764
10.457689393939393,-0.014068868637085,-0.13241342611312898,0.11622131652832,0.4883365257217764
10.458295454545455,-0.057179220199585,0.09271840982437131,-0.14723083190918002,0.4883365257217764
10.458901515151515,0.20148288917541501,0.0735582535743713,0.07550598449707001,0.4883365257217764
10.459507575757575,0.093707010269165,-0.0485877425193787,0.025210574340820097,0.4883365257217764
10.460113636363635,-0.186510274887085,0.0136827652931213,0.015630496215820102,0.4883365257217764
10.460719696969697,-0.200880392074585,0.0831383316993713,0.0467657501220701,0.4883365257217764
10.461325757575757,-0.100289571762085,0.09271840982437131,-0.16878600769043,0.4883365257217764
10.461931818181817,-0.088314474105835,0.176544093418121,0.32458801574707,0.4883365257217764
10.462537878787879,-0.00448879051208499,0.0735582535743713,0.28387268371582003,0.4883365257217764
10.46314393939394,0.041016580581665005,0.190914210605621,-0.16160094909668002,0.4883365257217764
10.46375,-0.014068868637085,0.0639781754493713,-0.27416686706543,0.4883365257217764
10.464356060606061,-0.057179220199585,0.0041026871681213405,0.30063782043457,0.4883365257217764
10.464962121212121,-0.220040548324585,0.09271840982437131,0.82275207824707,0.4883365257217764
10.465568181818181,0.06257175636291501,-0.16115366048812899,0.13777649230956998,0.4883365257217764
10.466174242424241,0.029041482925415,0.0663731949806213,0.027605593872070098,0.4883365257217764
10.466780303030303,-0.00448879051208499,-0.0198475081443787,0.15933166809082,0.4883365257217764
10.467386363636363,0.043411600112915005,0.107088527011871,-0.09933044128417999,0.4883365257217764
10.467992424242423,-0.045204122543334994,0.08792837076187131,0.16891174621582,0.4883365257217764
10.468598484848485,0.069756814956665,-0.0366126448631287,0.00844543762207005,0.4883365257217764
10.469204545454545,-0.102684591293335,0.183729152011871,-0.07538024597168,0.4883365257217764
10.469810606060605,0.00269626808166501,-0.180313816738129,0.14017151184082,0.4883365257217764
10.470416666666667,-0.07873439598083501,-0.249769383144379,-0.00592467956542995,0.4883365257217764
10.471022727272727,-0.114659688949585,-0.010267430019378701,-0.051430050659179896,0.4883365257217764
10.471628787878787,0.00030124855041501196,0.0208678238868713,0.23836731262206998,0.4883365257217764
10.472234848484849,0.026646463394165,0.0208678238868713,0.18807190246581998,0.4883365257217764
10.472840909090909,0.031436502456665,-0.113253269863129,0.30063782043457,0.4883365257217764
10.473446969696969,-0.131424825668335,0.0591881363868713,0.22399719543457,0.4883365257217764
10.474053030303029,0.115262186050415,0.0208678238868713,-0.10651549987792999,0.4883365257217764
10.47465909090909,0.10568210792541499,0.0352379410743713,0.24076233215332,0.4883365257217764
10.475265151515153,-0.14818996238708498,-0.010267430019378701,0.28626770324707,0.4883365257217764
10.475871212121213,-0.20327541160583498,-0.273719578456879,0.0515557891845701,0.4883365257217764
10.476477272727273,-0.016463888168335,-0.139598484706879,-0.0250848358154299,0.4883365257217764
10.477083333333333,-0.085919454574585,-0.08211801595687869,0.0611358673095701,0.4883365257217764
10.477689393939395,-0.064364278793335,-0.168338719081879,-0.044244992065429894,0.4883365257217764
10.478295454545455,0.249383279800415,0.00170766763687134,0.16412170715332,0.4883365257217764
10.478901515151515,0.00269626808166501,-0.0342176253318787,0.18088684387207,0.4883365257217764
10.479507575757577,-0.021253927230835,-0.07732797689437869,0.08987610168457,0.4883365257217764
10.480113636363637,-0.164955099105835,-0.149178562831879,0.07311096496582001,0.4883365257217764
10.480719696969697,-0.191300313949585,-0.165943699550629,-0.28614196472167996,0.4883365257217764
10.481325757575759,0.043411600112915005,0.186124171543121,-0.12088561706543,0.4883365257217764
10.481931818181819,-0.093104513168335,0.011287745761871299,0.09227112121582,0.4883365257217764
10.482537878787879,-0.08112941551208501,-0.0174524886131287,0.14975158996582,0.4883365257217764
10.483143939393939,-0.042809103012084994,0.183729152011871,0.06592590637207,0.4883365257217764
10.48375,-0.057179220199585,-0.0198475081443787,0.22639221496582,0.8958683455673108
10.48435606060606,-0.18411525535583498,0.0520030777931213,-0.00592467956542995,0.8958683455673108
10.48496212121212,-0.14339992332458498,-0.010267430019378701,0.0611358673095701,0.8958683455673108
10.485568181818183,0.00030124855041501196,-0.149178562831879,0.17130676574707,0.8958683455673108
10.486174242424243,-0.18890529441833498,-0.0318226058006287,-0.18555114440918002,0.8958683455673108
10.486780303030303,-0.17453517723083498,-0.249769383144379,-0.0418499725341799,0.8958683455673108
10.487386363636364,-0.026043966293335,-0.08930307455062869,-0.0394549530029299,0.8958683455673108
10.487992424242425,0.009881326675415011,0.00649770669937134,0.18328186340331998,0.8958683455673108
10.488598484848485,-0.095499532699585,0.0663731949806213,0.044370730590820105,0.8958683455673108
10.489204545454545,-0.093104513168335,0.0591881363868713,0.21681213684081999,0.8958683455673108
10.489810606060606,-0.196090353012085,-0.0390076643943787,0.22160217590332,0.8958683455673108
10.490416666666667,-0.272730978012085,-0.120438328456879,-0.10891051940917999,0.8958683455673108
10.491022727272727,-0.059574239730835,-0.0533777815818787,-0.0634051483154299,0.8958683455673108
10.491628787878788,0.009881326675415011,-0.00547739095687866,0.16651672668457,0.8958683455673108
10.492234848484848,-0.105079610824585,-0.0150574690818787,0.0323956329345701,0.8958683455673108
10.492840909090908,-0.00448879051208499,-0.07972299642562869,0.43715393371582,0.8958683455673108
10.49344696969697,0.06257175636291501,-0.103673191738129,0.43236389465332004,0.8958683455673108
10.49405303030303,-0.026043966293335,0.0496080582618713,-0.20471130065918,0.8958683455673108
10.49465909090909,0.10328708839416499,-0.0318226058006287,0.53295471496582,0.8958683455673108
10.495265151515152,0.036226541519165004,-0.0318226058006287,0.27908264465332,0.8958683455673108
10.495871212121212,-0.07873439598083501,-0.110858250331879,-0.0562200897216799,0.8958683455673108
10.496477272727272,-0.102684591293335,0.0543980973243713,0.17130676574707,0.8958683455673108
10.497083333333332,0.09610202980041499,0.0232628434181213,0.09706116027832,0.8958683455673108
10.497689393939394,0.144002420425415,-0.06774789876937869,0.13777649230956998,0.8958683455673108
10.498295454545454,-0.047599142074584995,-0.07493295736312869,0.08508606262207,0.8958683455673108
10.498901515151514,-0.112264669418335,0.0208678238868713,0.039580691528320104,0.8958683455673108
10.499507575757576,0.14639743995666502,0.0567931168556213,0.21920715637207,0.8958683455673108
10.500113636363636,0.084126932144165,0.178939112949371,0.20962707824707,0.8958683455673108
10.500719696969696,-0.00927882957458499,0.301085109043121,-0.10172546081542999,0.8958683455673108
10.501325757575758,0.14639743995666502,-0.07732797689437869,-0.08017028503418,0.8958683455673108
10.501931818181818,-0.038019063949585,-0.0461927229881287,0.17609680480957,0.8958683455673108
10.502537878787878,-0.08352443504333501,0.011287745761871299,-0.13286071472168,0.8958683455673108
10.503143939393938,0.038621561050415004,0.09511342935562131,0.17849182434081998,0.8958683455673108
10.50375,-0.011673849105835,0.0256578629493713,0.21441711730957,0.8958683455673108
10.50435606060606,0.227828104019165,0.0184728043556213,-0.00113464050292995,0.8958683455673108
10.50496212121212,0.009881326675415011,0.00170766763687134,0.16651672668457,0.8958683455673108
10.505568181818182,-0.162560079574585,-0.19228891439437898,0.07550598449707001,0.8958683455673108
10.506174242424242,-0.033229024887085,-0.0485877425193787,-0.0418499725341799,0.8958683455673108
10.506780303030302,0.05059665870666501,-0.110858250331879,-0.10891051940917999,0.8958683455673108
10.507386363636364,-0.224830587387085,-0.283299656581879,0.0491607696533201,0.8958683455673108
10.507992424242424,-0.150584981918335,0.016077784824371298,-0.06819518737793,0.8958683455673108
10.508598484848484,0.10568210792541499,0.15259389810562102,0.06832092590332,0.8958683455673108
10.509204545454544,-0.023648946762085,-0.180313816738129,0.08748108215332,0.8958683455673108
10.509810606060606,0.031436502456665,0.0208678238868713,0.18807190246581998,0.8958683455673108
10.510416666666666,-0.061969259262085,0.111878566074371,0.12101135559082,0.8958683455673108
10.511022727272726,-0.169745138168335,-0.0270325667381287,-0.049035031127929896,0.8958683455673108
10.511628787878788,0.05059665870666501,-0.240189305019379,0.06592590637207,0.8958683455673108
10.512234848484848,-0.042809103012084994,-0.175523777675629,0.0347906524658201,0.8958683455673108
10.512840909090908,-0.114659688949585,-0.0485877425193787,-0.0346649139404299,0.8958683455673108
10.51344696969697,0.081731912612915,-0.06774789876937869,-0.07777526550293,0.8958683455673108
10.51405303030303,-0.07633937644958501,-0.0557728011131287,0.15454162902832,0.8958683455673108
10.51465909090909,-0.150584981918335,-0.050982762050628704,0.08508606262207,0.8958683455673108
10.515265151515152,-0.191300313949585,-0.0533777815818787,-0.00113464050292995,0.8958683455673108
10.515871212121212,0.041016580581665005,-0.0653528792381287,0.13538147277832,0.8958683455673108
10.516477272727272,0.019461404800415,0.0328429215431213,0.14256653137206998,0.8958683455673108
10.517083333333332,-0.07873439598083501,-0.0342176253318787,0.17370178527831998,0.8958683455673108
10.517689393939394,-0.023648946762085,-0.101278172206879,-0.0035296600341799497,0.8958683455673108
10.518295454545456,0.052991678237915,-0.07732797689437869,-0.0322698944091799,0.8958683455673108
10.518901515151516,0.036226541519165004,0.133433741855621,0.10903625793457,0.8958683455673108
10.519507575757576,0.072151834487915,-0.0653528792381287,0.17130676574707,0.8958683455673108
10.520113636363636,-0.17932521629333498,-0.010267430019378701,0.19765198059081998,0.8958683455673108
10.520719696969698,-0.181720235824585,0.0759532731056213,0.13538147277832,0.8958683455673108
10.521325757575758,-0.145794942855835,0.0735582535743713,-0.0035296600341799497,0.8958683455673108
10.521931818181818,0.024251443862915,0.09750844888687131,0.0563458282470701,0.8958683455673108
10.52253787878788,-0.057179220199585,-0.0198475081443787,-0.09693542175293,0.8958683455673108
10.52314393939394,-0.035624044418335,-0.108463230800629,-0.34362243347168,0.8958683455673108
10.52375,0.14160740089416501,-0.07014291830062869,-0.15441589050293,0.8958683455673108
10.524356060606062,0.088916971206665,0.219654444980621,0.39643860168457,0.8958683455673108
10.524962121212122,0.10328708839416499,-0.0581678206443787,0.79161682434082,0.8958683455673108
10.525568181818182,0.048201639175415006,0.030447902011871298,0.30782287902832,0.8958683455673108
10.526174242424242,0.153582498550415,-0.175523777675629,0.09466614074707,0.8958683455673108
10.526780303030304,0.081731912612915,-0.16115366048812899,0.11382629699707,0.8958683455673108
10.527386363636364,0.017066385269165,0.0567931168556213,-0.14723083190918002,0.8958683455673108
10.527992424242424,0.00269626808166501,-0.173128758144379,0.11143127746582,0.8958683455673108
10.528598484848485,-0.00927882957458499,-0.153968601894379,0.15933166809082,0.8958683455673108
10.529204545454546,-0.023648946762085,-0.050982762050628704,0.0132354766845701,0.8958683455673108
10.529810606060606,0.088916971206665,-0.07493295736312869,0.0467657501220701,0.8958683455673108
10.530416666666667,0.10328708839416499,-0.09169809408187869,0.32937805480957,0.8958683455673108
10.531022727272727,-0.15777004051208499,0.0663731949806213,0.25992248840332,0.8958683455673108
10.531628787878788,-0.241595724105835,0.0472130387306213,0.11622131652832,0.8958683455673108
10.53223484848485,0.249383279800415,-0.0988831526756287,0.26950256652832,0.8958683455673108
10.53284090909091,0.052991678237915,-0.0318226058006287,0.15214660949706998,0.8958683455673108
10.53344696969697,-0.042809103012084994,0.0591881363868713,-0.08496032409668,0.8958683455673108
10.53405303030303,0.17992771339416502,-0.15157358236312898,0.00844543762207005,0.8958683455673108
10.534659090909091,0.041016580581665005,-0.0653528792381287,-0.07538024597168,0.8958683455673108
10.535265151515151,0.021856424331665,0.0328429215431213,-0.24303161315918,0.8958683455673108
10.535871212121211,-0.021253927230835,-0.189893894863129,0.18567688293457,0.8958683455673108
10.536477272727273,-0.12902980613708498,0.16696401529312102,0.13059143371582,0.8958683455673108
10.537083333333333,-0.169745138168335,0.13822378091812101,-0.10172546081542999,0.8958683455673108
10.537689393939393,0.06257175636291501,-0.240189305019379,0.13538147277832,0.8958683455673108
10.538295454545455,-0.14339992332458498,-0.0150574690818787,0.0635308868408201,0.8958683455673108
10.538901515151515,-0.20806545066833498,-0.06774789876937869,0.06832092590332,0.8958683455673108
10.539507575757575,-0.13860988426208498,-0.0222425276756287,0.0539508087158201,0.8958683455673108
10.540113636363635,0.019461404800415,0.016077784824371298,0.16412170715332,0.8958683455673108
10.540719696969697,0.115262186050415,-0.010267430019378701,0.16891174621582,0.8958683455673108
10.541325757575757,-0.07394435691833501,0.0759532731056213,-0.0370599334716799,0.8958683455673108
10.541931818181817,0.249383279800415,0.00889272623062134,0.10185119934082,0.8958683455673108
10.54253787878788,-0.00448879051208499,-0.139598484706879,0.0635308868408201,0.8958683455673108
10.54314393939394,-0.186510274887085,-0.0629578597068787,-0.26937682800293,0.8958683455673108
10.54375,0.10807712745666499,0.0232628434181213,0.0467657501220701,0.8958683455673108
10.544356060606061,-0.093104513168335,0.169359034824371,0.36051330871582,0.8958683455673108
10.544962121212121,-0.0020937709808349896,0.0687682145118713,0.0563458282470701,0.8958683455673108
10.545568181818181,-0.030834005355835,-0.14678354330062898,0.21920715637207,0.8958683455673108
10.546174242424241,-0.114659688949585,0.0232628434181213,0.09945617980957,0.8958683455673108
10.546780303030303,0.057781717300415,0.133433741855621,-0.0346649139404299,0.8958683455673108
10.547386363636363,0.10089206886291499,-0.07732797689437869,0.08987610168457,0.8958683455673108
10.547992424242423,-0.097894552230835,0.111878566074371,0.07311096496582001,0.8958683455673108
10.548598484848485,-0.088314474105835,0.0400279801368713,0.29824280090332,0.8958683455673108
10.549204545454545,-0.028438985824585,-0.113253269863129,0.26950256652832,0.8958683455673108
10.549810606060605,-0.13860988426208498,-0.15636362142562898,-0.0035296600341799497,0.8958683455673108
10.550416666666667,-0.186510274887085,0.0184728043556213,-0.0322698944091799,0.8958683455673108
10.551022727272727,0.00748630714416501,0.10229848794937099,-0.0586151092529299,0.8958683455673108
10.551628787878787,0.033831521987915,0.0352379410743713,0.08269104309082,0.8958683455673108
10.552234848484847,0.084126932144165,0.09032339029312131,0.22399719543457,0.8958683455673108
10.552840909090909,-0.052389181137084996,0.121458644199371,0.16412170715332,0.8958683455673108
10.553446969696969,0.029041482925415,0.0448180191993713,0.037185671997070104,0.8958683455673108
10.554053030303029,0.189507791519165,-0.153968601894379,-0.07059020690918,0.8958683455673108
10.554659090909091,0.136817361831665,-0.165943699550629,0.30542785949707,0.8958683455673108
10.555265151515151,-0.033229024887085,-0.07732797689437869,0.29824280090332,0.8958683455673108
10.555871212121211,-0.00927882957458499,0.0567931168556213,-0.0250848358154299,0.8958683455673108
10.556477272727273,0.134422342300415,-0.07972299642562869,0.09227112121582,0.8958683455673108
10.557083333333333,-0.018858907699585,-0.06774789876937869,-0.0322698944091799,0.8958683455673108
10.557689393939395,-0.131424825668335,-0.0198475081443787,-0.0586151092529299,0.8958683455673108
10.558295454545455,-0.088314474105835,-0.235399265956879,0.09466614074707,0.8958683455673108
10.558901515151515,-0.141004903793335,-0.180313816738129,0.12580139465332,0.8958683455673108
10.559507575757577,-0.08352443504333501,-0.0366126448631287,-0.07538024597168,0.8958683455673108
10.560113636363635,0.048201639175415006,-0.07732797689437869,0.09466614074707,0.8958683455673108
10.560719696969697,0.129632303237915,0.109483546543121,0.09227112121582,0.8958683455673108
10.561325757575759,0.086521951675415,-0.07253793783187869,0.0587408477783201,0.8958683455673108
10.561931818181819,-0.100289571762085,0.0735582535743713,0.037185671997070104,0.8958683455673108
10.562537878787879,0.10568210792541499,0.00889272623062134,0.13298645324706998,0.8958683455673108
10.563143939393939,-0.057179220199585,0.0759532731056213,-0.21429137878418,0.8958683455673108
10.56375,-0.07154933738708501,-0.0270325667381287,-0.14962585144043,0.8958683455673108
10.56435606060606,-0.164955099105835,-0.07014291830062869,0.08748108215332,0.8958683455673108
10.56496212121212,-0.07873439598083501,-0.029427586269378702,-0.07298522644043,0.8958683455673108
10.565568181818183,-0.102684591293335,-0.149178562831879,0.13777649230956998,0.8958683455673108
10.566174242424243,-0.00688381004333499,-0.0222425276756287,-0.0610101287841799,0.8958683455673108
10.566780303030303,0.110472146987915,-0.0270325667381287,0.26471252746582,0.8958683455673108
10.567386363636365,-0.162560079574585,0.0328429215431213,0.07790100402832001,0.8958683455673108
10.567992424242425,-0.069154317855835,0.00170766763687134,0.0587408477783201,0.8958683455673108
10.568598484848485,-0.054784200668335,-0.0222425276756287,0.31979797668457,0.8958683455673108
10.569204545454545,-0.107474630355835,0.0400279801368713,0.18807190246581998,0.8958683455673108
10.569810606060607,-0.023648946762085,-0.139598484706879,0.11861633605957,0.8958683455673108
10.570416666666667,0.043411600112915005,-0.130018406581879,-0.19513122253418,0.8958683455673108
10.571022727272727,0.213457986831665,0.126248683261871,-0.08256530456543,0.8958683455673108
10.571628787878788,-0.162560079574585,0.0184728043556213,0.22639221496582,0.8958683455673108
10.572234848484849,-0.23920070457458498,-0.07972299642562869,0.0036553985595700503,0.8958683455673108
10.572840909090909,0.086521951675415,-0.0437977034568787,0.10903625793457,0.8958683455673108
10.57344696969697,-0.236805685043335,-0.0126624495506287,0.12819641418456998,0.8958683455673108
10.57405303030303,0.129632303237915,-0.0581678206443787,-0.0538250701904299,0.8958683455673108
10.57465909090909,-0.052389181137084996,-0.19707895345687898,0.18088684387207,0.8958683455673108
10.575265151515152,-0.303866231918335,-0.0222425276756287,-0.13525573425293,0.8958683455673108
10.575871212121212,0.05059665870666501,-0.0390076643943787,0.10185119934082,0.8958683455673108
10.576477272727272,0.048201639175415006,-0.175523777675629,0.27908264465332,0.8958683455673108
10.577083333333333,-0.018858907699585,0.109483546543121,-0.24782165222168,0.8958683455673108
10.577689393939394,0.017066385269165,-0.14199350423812898,-0.27416686706543,0.8958683455673108
10.578295454545454,0.09610202980041499,-0.18749887533187898,-0.0634051483154299,0.8958683455673108
10.578901515151514,-0.08352443504333501,0.0256578629493713,-0.14962585144043,0.8958683455673108
10.579507575757576,-0.13381984519958498,0.0400279801368713,-0.0250848358154299,0.8958683455673108
10.580113636363636,-0.054784200668335,-0.00308237142562866,0.12819641418456998,0.8958683455673108
10.580719696969696,0.120052225112915,-0.0988831526756287,-0.0322698944091799,0.8958683455673108
10.581325757575758,0.024251443862915,-0.0222425276756287,0.0323956329345701,0.8958683455673108
10.581931818181818,-0.0020937709808349896,0.176544093418121,-0.0346649139404299,0.8958683455673108
10.582537878787878,0.177532693862915,-0.08451303548812869,-0.10172546081542999,0.8958683455673108
10.583143939393938,0.043411600112915005,-0.19228891439437898,0.16891174621582,1.0120124646694086
10.58375,-0.014068868637085,-0.0150574690818787,-0.10651549987792999,1.0120124646694086
10.58435606060606,-0.066759298324585,-0.20186899251937898,0.26231750793457004,1.0120124646694086
10.58496212121212,0.048201639175415006,-0.08690805501937869,0.12580139465332,1.0120124646694086
10.585568181818182,-0.085919454574585,-0.050982762050628704,-0.08735534362793,1.0120124646694086
10.586174242424242,-0.14339992332458498,-0.165943699550629,0.14735657043456998,1.0120124646694086
10.586780303030302,-0.13860988426208498,0.114273585605621,-0.11370055847168,1.0120124646694086
10.587386363636364,-0.255965841293335,0.0472130387306213,0.0180255157470701,1.0120124646694086
10.587992424242424,0.14160740089416501,-0.165943699550629,-0.21668639831543002,1.0120124646694086
10.588598484848484,-0.047599142074584995,0.0256578629493713,-0.09214538269043,1.0120124646694086
10.589204545454544,0.012276346206665,-0.0485877425193787,0.13777649230956998,1.0120124646694086
10.589810606060606,0.038621561050415004,-0.07972299642562869,-0.14004577331543,1.0120124646694086
10.590416666666666,-0.057179220199585,-0.0222425276756287,-0.20950133972168,1.0120124646694086
10.591022727272726,0.021856424331665,0.200494288730621,0.015630496215820102,1.0120124646694086
10.591628787878788,0.012276346206665,-0.007872410488128659,-0.0035296600341799497,1.0120124646694086
10.592234848484848,-0.176930196762085,-0.170733738613129,-0.13525573425293,1.0120124646694086
10.592840909090908,-0.047599142074584995,0.0735582535743713,-0.0322698944091799,1.0120124646694086
10.59344696969697,-0.169745138168335,-0.0581678206443787,0.06592590637207,1.0120124646694086
10.59405303030303,-0.14339992332458498,-0.0461927229881287,-0.18315612487793,1.0120124646694086
10.59465909090909,0.17992771339416502,0.14780385904312102,-0.09214538269043,1.0120124646694086
10.595265151515152,-0.131424825668335,0.21725942544937102,0.26471252746582,1.0120124646694086
10.595871212121212,-0.19369533348083498,-0.101278172206879,0.27189758605957004,1.0120124646694086
10.596477272727272,0.043411600112915005,0.0136827652931213,0.20962707824707,1.0120124646694086
10.597083333333332,-0.126634786605835,-0.177918797206879,0.18328186340331998,1.0120124646694086
10.597689393939394,-0.011673849105835,-0.31922494955062897,-0.10412048034667999,1.0120124646694086
10.598295454545454,0.115262186050415,-0.0318226058006287,-0.19034118347168,1.0120124646694086
10.598901515151514,0.132027322769165,-0.13720346517562898,0.09466614074707,1.0120124646694086
10.599507575757576,-0.061969259262085,-0.07493295736312869,0.08269104309082,1.0120124646694086
10.600113636363636,-0.294286153793335,-0.0270325667381287,0.12340637512207,1.0120124646694086
10.600719696969698,0.079336893081665,0.030447902011871298,0.07071594543457001,1.0120124646694086
10.601325757575758,-0.17453517723083498,-0.0414026839256287,0.039580691528320104,1.0120124646694086
10.601931818181818,-0.253570821762085,-0.22102914876937899,-0.0610101287841799,1.0120124646694086
10.60253787878788,0.05059665870666501,-0.050982762050628704,-0.14004577331543,1.0120124646694086
10.603143939393938,-0.04041408348083499,-0.029427586269378702,0.18328186340331998,1.0120124646694086
10.60375,-0.19369533348083498,-0.149178562831879,0.12101135559082,1.0120124646694086
10.604356060606062,0.091311990737915,-0.113253269863129,-0.32206725769043,1.0120124646694086
10.604962121212122,-0.047599142074584995,-0.0126624495506287,-0.06580016784668,1.0120124646694086
10.605568181818182,-0.17932521629333498,-0.115648289394379,0.07550598449707001,1.0120124646694086
10.606174242424242,0.081731912612915,-0.101278172206879,0.015630496215820102,1.0120124646694086
10.606780303030304,0.153582498550415,0.0472130387306213,0.25034241027832,1.0120124646694086
10.607386363636364,-0.121844747543335,0.0136827652931213,-0.00113464050292995,1.0120124646694086
10.607992424242424,0.00748630714416501,0.0256578629493713,-0.11370055847168,1.0120124646694086
10.608598484848486,0.14639743995666502,0.0400279801368713,0.07550598449707001,1.0120124646694086
10.609204545454546,-0.095499532699585,0.00889272623062134,0.10664123840332,1.0120124646694086
10.609810606060606,0.012276346206665,0.030447902011871298,-0.14004577331543,1.0120124646694086
10.610416666666667,-0.07394435691833501,-0.120438328456879,0.0611358673095701,1.0120124646694086
10.611022727272728,0.076941873550415,-0.0964881331443787,-0.06580016784668,1.0120124646694086
10.611628787878788,-0.126634786605835,0.0352379410743713,-0.0250848358154299,1.0120124646694086
10.612234848484848,0.009881326675415011,0.0567931168556213,0.11622131652832,1.0120124646694086
10.61284090909091,-0.028438985824585,-0.00308237142562866,0.12340637512207,1.0120124646694086
10.61344696969697,-0.13860988426208498,-0.007872410488128659,0.36769836730957,1.0120124646694086
10.61405303030303,0.086521951675415,0.140618800449371,-0.049035031127929896,1.0120124646694086
10.614659090909091,0.091311990737915,-0.0390076643943787,0.42517883605957,1.0120124646694086
10.615265151515151,0.00748630714416501,-0.00547739095687866,0.55690491027832,1.0120124646694086
10.615871212121212,-0.241595724105835,0.0615831559181213,-0.0610101287841799,1.0120124646694086
10.616477272727273,0.029041482925415,-0.0174524886131287,0.24555237121582,1.0120124646694086
10.617083333333333,0.06257175636291501,0.0256578629493713,0.11622131652832,1.0120124646694086
10.617689393939393,-0.038019063949585,0.0639781754493713,0.0563458282470701,1.0120124646694086
10.618295454545455,-0.107474630355835,-0.0988831526756287,0.16412170715332,1.0120124646694086
10.618901515151515,0.019461404800415,-0.249769383144379,0.31740295715332,1.0120124646694086
10.619507575757575,0.16076755714416502,-0.07732797689437869,0.0539508087158201,1.0120124646694086
10.620113636363635,0.019461404800415,-0.149178562831879,0.0515557891845701,1.0120124646694086
10.620719696969697,-0.100289571762085,0.0807433121681213,-0.046640011596679895,1.0120124646694086
10.621325757575757,-0.00927882957458499,0.15259389810562102,-0.17118102722168002,1.0120124646694086
10.621931818181817,-0.035624044418335,-0.168338719081879,-0.008319699096679949,1.0120124646694086
10.62253787878788,-0.04041408348083499,0.037632960605621296,-0.18794616394043,1.0120124646694086
10.62314393939394,0.00748630714416501,-0.06774789876937869,-0.07777526550293,1.0120124646694086
10.62375,0.20148288917541501,-0.08690805501937869,-0.0274798553466799,1.0120124646694086
10.624356060606061,0.39068943214416496,-0.007872410488128659,0.027605593872070098,1.0120124646694086
10.624962121212121,-0.20327541160583498,-0.19707895345687898,0.08987610168457,1.0120124646694086
10.625568181818181,0.00748630714416501,-0.06774789876937869,0.037185671997070104,1.0120124646694086
10.626174242424241,-0.057179220199585,0.0807433121681213,0.039580691528320104,1.0120124646694086
10.626780303030303,0.088916971206665,-0.07732797689437869,0.08508606262207,1.0120124646694086
10.627386363636363,0.093707010269165,0.030447902011871298,0.0204205352783201,1.0120124646694086
10.627992424242423,-0.13860988426208498,-0.0533777815818787,-0.0394549530029299,1.0120124646694086
10.628598484848485,0.223038064956665,0.0615831559181213,0.0132354766845701,1.0120124646694086
10.629204545454545,0.036226541519165004,-0.00547739095687866,0.19286194152831998,1.0120124646694086
10.629810606060605,-0.00688381004333499,-0.0174524886131287,-0.008319699096679949,1.0120124646694086
10.630416666666667,0.055386697769165,0.09271840982437131,-0.0298748748779299,1.0120124646694086
10.631022727272727,-0.066759298324585,-0.139598484706879,0.26710754699707,1.0120124646694086
10.631628787878787,-0.246385763168335,-0.0270325667381287,0.0323956329345701,1.0120124646694086
10.632234848484847,0.16076755714416502,-0.240189305019379,0.09945617980957,1.0120124646694086
10.632840909090909,0.15597751808166502,-0.130018406581879,0.20004700012207,1.0120124646694086
10.63344696969697,0.009881326675415011,-0.0222425276756287,-0.17118102722168002,1.0120124646694086
10.63405303030303,-0.13860988426208498,0.030447902011871298,-0.08975036315918,1.0120124646694086
10.634659090909091,-0.229620626449585,-0.13241342611312898,0.21681213684081999,1.0120124646694086
10.635265151515151,0.079336893081665,-0.213844090175629,0.20244201965331998,1.0120124646694086
10.635871212121211,0.041016580581665005,-0.237794285488129,-0.08017028503418,1.0120124646694086
10.636477272727273,-0.07873439598083501,-0.233004246425629,0.15454162902832,1.0120124646694086
10.637083333333333,-0.00927882957458499,0.159778956699371,0.18567688293457,1.0120124646694086
10.637689393939393,-0.090709493637085,-0.0174524886131287,0.24315735168456998,1.0120124646694086
10.638295454545455,0.14639743995666502,-0.08690805501937869,0.14735657043456998,1.0120124646694086
10.638901515151515,0.28051853370666496,0.00649770669937134,0.13538147277832,1.0120124646694086
10.639507575757575,-0.107474630355835,-0.194683933925629,0.13298645324706998,1.0120124646694086
10.640113636363635,-0.014068868637085,-0.149178562831879,-0.0586151092529299,1.0120124646694086
10.640719696969697,0.048201639175415006,0.114273585605621,0.11622131652832,1.0120124646694086
10.641325757575759,-0.049994161605834996,0.0831383316993713,-0.0226898162841799,1.0120124646694086
10.641931818181817,0.05059665870666501,-0.199473972988129,0.015630496215820102,1.0120124646694086
10.642537878787879,0.026646463394165,-0.0533777815818787,-0.044244992065429894,1.0120124646694086
10.643143939393939,-0.186510274887085,0.119063624668121,0.22160217590332,1.0120124646694086
10.64375,0.093707010269165,0.09271840982437131,-0.0155047576904299,1.0120124646694086
10.64435606060606,-0.016463888168335,0.030447902011871298,-0.33883239440918,1.0120124646694086
10.64496212121212,-0.236805685043335,-0.0174524886131287,0.25273742980957,1.0120124646694086
10.645568181818183,-0.07394435691833501,-0.029427586269378702,0.14256653137206998,1.0120124646694086
10.646174242424243,-0.026043966293335,-0.204264012050629,0.08269104309082,1.0120124646694086
10.646780303030303,0.076941873550415,-0.029427586269378702,0.06592590637207,1.0120124646694086
10.647386363636365,-0.047599142074584995,0.0807433121681213,-0.0370599334716799,1.0120124646694086
10.647992424242425,-0.021253927230835,0.0280528824806213,0.20483703918457,1.0120124646694086
10.648598484848485,0.06257175636291501,-0.130018406581879,0.19765198059081998,1.0120124646694086
10.649204545454545,-0.095499532699585,-0.0222425276756287,-0.11370055847168,1.0120124646694086
10.649810606060607,0.10328708839416499,0.0735582535743713,0.22399719543457,1.0120124646694086
10.650416666666667,0.036226541519165004,-0.20665903158187898,0.24315735168456998,1.0120124646694086
10.651022727272727,-0.00927882957458499,-0.130018406581879,-0.25740173034667996,1.0120124646694086
10.651628787878789,0.088916971206665,-0.149178562831879,-0.0418499725341799,1.0120124646694086
10.652234848484849,-0.102684591293335,0.0232628434181213,0.14017151184082,1.0120124646694086
10.652840909090909,-0.109869649887085,0.08792837076187131,0.23118225402832,1.0120124646694086
10.65344696969697,-0.047599142074584995,-0.09169809408187869,-0.06819518737793,1.0120124646694086
10.65405303030303,-0.112264669418335,-0.09409311361312869,-0.0586151092529299,1.0120124646694086
10.65465909090909,-0.23920070457458498,-0.00308237142562866,0.08269104309082,1.0120124646694086
10.65526515151515,-0.15298000144958498,-0.0318226058006287,0.010840457153320101,1.0120124646694086
10.655871212121212,-0.121844747543335,-0.12522836751937902,0.24076233215332,1.0120124646694086
10.656477272727273,0.21106296730041502,-0.0605628401756287,0.0491607696533201,1.0120124646694086
10.657083333333333,0.167952615737915,0.09032339029312131,0.0323956329345701,1.0120124646694086
10.657689393939394,-0.100289571762085,-0.08211801595687869,-0.14962585144043,1.0120124646694086
10.658295454545454,-0.07633937644958501,-0.0126624495506287,0.09945617980957,1.0120124646694086
10.658901515151515,-0.08112941551208501,0.0424229996681213,0.07790100402832001,1.0120124646694086
10.659507575757576,-0.054784200668335,-0.0270325667381287,-0.020294796752929903,1.0120124646694086
10.660113636363636,0.052991678237915,0.123853663730621,0.41799377746582,1.0120124646694086
10.660719696969696,-0.17932521629333498,0.135828761386871,0.0180255157470701,1.0120124646694086
10.661325757575758,-0.227225606918335,-0.101278172206879,-0.11370055847168,1.0120124646694086
10.661931818181818,-0.07154933738708501,-0.25934946126937897,0.0539508087158201,1.0120124646694086
10.662537878787878,-0.028438985824585,-0.0390076643943787,0.11861633605957,1.0120124646694086
10.663143939393938,0.00030124855041501196,0.0496080582618713,0.21202209777831998,1.0120124646694086
10.66375,-0.030834005355835,-0.07732797689437869,0.08269104309082,1.0120124646694086
10.66435606060606,-0.021253927230835,-0.12522836751937902,0.0563458282470701,1.0120124646694086
10.66496212121212,-0.038019063949585,0.08792837076187131,0.10664123840332,1.0120124646694086
10.665568181818182,-0.141004903793335,0.111878566074371,0.12819641418456998,1.0120124646694086
10.666174242424242,-0.105079610824585,-0.0533777815818787,0.08029602355957001,1.0120124646694086
10.666780303030302,-0.12902980613708498,-0.007872410488128659,0.06832092590332,1.0120124646694086
10.667386363636364,-0.181720235824585,0.08553335123062131,-0.10412048034667999,1.0120124646694086
10.667992424242424,-0.042809103012084994,0.0807433121681213,-0.0538250701904299,1.0120124646694086
10.668598484848484,-0.011673849105835,0.0496080582618713,0.32937805480957,1.0120124646694086
10.669204545454544,-0.19369533348083498,-0.25934946126937897,0.07790100402832001,1.0120124646694086
10.669810606060606,-0.105079610824585,-0.08211801595687869,0.0347906524658201,1.0120124646694086
10.670416666666666,-0.085919454574585,-0.0437977034568787,0.00844543762207005,1.0120124646694086
10.671022727272726,-0.042809103012084994,0.0663731949806213,-0.08496032409668,1.0120124646694086
10.671628787878788,0.17992771339416502,0.037632960605621296,-0.11130553894043,1.0120124646694086
10.672234848484848,0.041016580581665005,-0.08930307455062869,-0.07298522644043,1.0120124646694086
10.672840909090908,0.134422342300415,0.09750844888687131,0.0587408477783201,1.0120124646694086
10.67344696969697,0.093707010269165,-0.07732797689437869,-0.10891051940917999,1.0120124646694086
10.67405303030303,0.00748630714416501,-0.185103855800629,-0.08496032409668,1.0120124646694086
10.67465909090909,0.167952615737915,-0.233004246425629,-0.20471130065918,1.0120124646694086
10.675265151515152,0.12723728370666498,0.0041026871681213405,0.31740295715332,1.0120124646694086
10.675871212121212,-0.038019063949585,-0.0222425276756287,0.16651672668457,1.0120124646694086
10.676477272727272,-0.049994161605834996,0.00649770669937134,-0.13765075378418,1.0120124646694086
10.677083333333332,-0.088314474105835,-0.0366126448631287,-0.0538250701904299,1.0120124646694086
10.677689393939394,-0.08352443504333501,-0.0964881331443787,0.11382629699707,1.0120124646694086
10.678295454545454,-0.121844747543335,0.0807433121681213,0.22639221496582,1.0120124646694086
10.678901515151514,0.09610202980041499,-0.144388523769379,-0.0634051483154299,1.0120124646694086
10.679507575757576,0.09610202980041499,-0.0270325667381287,-0.12807067565918,1.0120124646694086
10.680113636363636,-0.26794093894958504,0.109483546543121,-0.0298748748779299,1.0120124646694086
10.680719696969696,0.036226541519165004,-0.0270325667381287,0.14017151184082,1.0120124646694086
10.681325757575758,-0.07873439598083501,0.109483546543121,0.14975158996582,1.0120124646694086
10.681931818181818,0.079336893081665,-0.050982762050628704,0.26710754699707,1.0120124646694086
10.68253787878788,0.153582498550415,-0.26892953939437897,0.18807190246581998,1.0120124646694086
10.683143939393938,-0.181720235824585,-0.21144907064437898,-0.00592467956542995,1.0120124646694086
10.68375,0.081731912612915,0.0448180191993713,-0.13286071472168,0.4216643797606651
10.684356060606062,-0.028438985824585,0.188519191074371,0.23597229309082,0.4216643797606651
10.68496212121212,-0.090709493637085,0.0232628434181213,0.041975711059570105,0.4216643797606651
10.685568181818182,0.14639743995666502,-0.0246375472068787,0.08269104309082,0.4216643797606651
10.686174242424242,-0.00448879051208499,0.154988917636871,-0.0586151092529299,0.4216643797606651
10.686780303030304,0.05059665870666501,-0.000687351894378656,0.10664123840332,0.4216643797606651
10.687386363636364,0.038621561050415004,-0.0988831526756287,0.17609680480957,0.4216643797606651
10.687992424242424,-0.00927882957458499,0.17175405435562102,-0.06580016784668,0.4216643797606651
10.688598484848486,0.091311990737915,-0.158758640956879,0.09945617980957,0.4216643797606651
10.689204545454546,-0.069154317855835,-0.12522836751937902,-0.14723083190918002,0.4216643797606651
10.689810606060606,0.014671365737915,0.123853663730621,-0.16160094909668002,0.4216643797606651
10.690416666666668,-0.030834005355835,0.09990346841812131,0.25513244934081997,0.4216643797606651
10.691022727272728,0.060176736831665,0.09271840982437131,0.27908264465332,0.4216643797606651
10.691628787878788,-0.0020937709808349896,-0.15157358236312898,0.025210574340820097,0.4216643797606651
10.69223484848485,0.014671365737915,-0.20186899251937898,-0.09693542175293,0.4216643797606651
10.69284090909091,0.072151834487915,-0.134808445644379,-0.19273620300293,0.4216643797606651
10.69344696969697,0.124842264175415,-0.134808445644379,-0.18315612487793,0.4216643797606651
10.69405303030303,-0.014068868637085,-0.15636362142562898,-0.0226898162841799,0.4216643797606651
10.694659090909092,-0.15777004051208499,-0.118043308925629,-0.06580016784668,0.4216643797606651
10.695265151515152,0.088916971206665,-0.15636362142562898,-0.0131097381591799,0.4216643797606651
10.695871212121212,-0.23920070457458498,0.140618800449371,0.15454162902832,0.4216643797606651
10.696477272727273,0.086521951675415,-0.0485877425193787,0.09706116027832,0.4216643797606651
10.697083333333333,-0.021253927230835,-0.08930307455062869,0.0132354766845701,0.4216643797606651
10.697689393939394,-0.232015645980835,-0.0605628401756287,0.0228155548095701,0.4216643797606651
10.698295454545455,0.115262186050415,0.0448180191993713,0.11622131652832,0.4216643797606651
10.698901515151515,-0.07394435691833501,0.14301381998062102,-0.11609557800293,0.4216643797606651
10.699507575757575,-0.035624044418335,-0.07014291830062869,-0.07059020690918,0.4216643797606651
10.700113636363636,0.177532693862915,0.15259389810562102,0.26231750793457004,0.4216643797606651
10.700719696969697,0.122447244644165,-0.09169809408187869,-0.06580016784668,0.4216643797606651
10.701325757575757,-0.126634786605835,-0.115648289394379,-0.0586151092529299,0.4216643797606651
10.701931818181817,-0.18411525535583498,0.0831383316993713,0.015630496215820102,0.4216643797606651
10.70253787878788,0.0050912876129150094,0.0591881363868713,0.12340637512207,0.4216643797606651
10.70314393939394,0.036226541519165004,-0.209054051113129,0.56888000793457,0.4216643797606651
10.70375,-0.145794942855835,0.00889272623062134,0.66228576965332,0.4216643797606651
10.704356060606061,0.112867166519165,-0.08451303548812869,0.06832092590332,0.4216643797606651
10.704962121212121,0.029041482925415,-0.122833347988129,-0.09214538269043,0.4216643797606651
10.705568181818181,-0.119449728012085,0.016077784824371298,0.0515557891845701,0.4216643797606651
10.706174242424241,0.14160740089416501,-0.113253269863129,-0.21429137878418,0.4216643797606651
10.706780303030303,0.112867166519165,0.0328429215431213,0.23597229309082,0.4216643797606651
10.707386363636363,-0.186510274887085,-0.110858250331879,0.09945617980957,0.4216643797606651
10.707992424242423,-0.15298000144958498,-0.149178562831879,-0.00113464050292995,0.4216643797606651
10.708598484848485,0.00748630714416501,-0.0437977034568787,0.12340637512207,0.4216643797606651
10.709204545454545,-0.08112941551208501,-0.07972299642562869,0.11861633605957,0.4216643797606651
10.709810606060605,0.069756814956665,0.011287745761871299,0.12101135559082,0.4216643797606651
10.710416666666667,-0.215250509262085,0.0041026871681213405,0.20962707824707,0.4216643797606651
10.711022727272727,-0.07873439598083501,-0.09169809408187869,0.12580139465332,0.4216643797606651
10.711628787878787,0.194297830581665,0.121458644199371,0.32937805480957,0.4216643797606651
10.712234848484847,-0.0020937709808349896,0.0352379410743713,0.27189758605957004,0.4216643797606651
10.71284090909091,-0.27991603660583503,-0.110858250331879,-0.0394549530029299,0.4216643797606651
10.71344696969697,-0.215250509262085,-0.00308237142562866,0.0036553985595700503,0.4216643797606651
10.71405303030303,0.093707010269165,-0.007872410488128659,-0.0370599334716799,0.4216643797606651
10.714659090909091,0.167952615737915,-0.0605628401756287,-0.11130553894043,0.4216643797606651
10.715265151515151,-0.054784200668335,-0.16115366048812899,-0.0394549530029299,0.4216643797606651
10.715871212121211,-0.016463888168335,-0.0126624495506287,-0.0322698944091799,0.4216643797606651
10.716477272727273,0.084126932144165,-0.000687351894378656,-0.10412048034667999,0.4216643797606651
10.717083333333333,0.014671365737915,-0.144388523769379,-0.008319699096679949,0.4216643797606651
10.717689393939393,0.302073709487915,-0.149178562831879,-0.11849059753418,0.4216643797606651
10.718295454545455,0.017066385269165,-0.0342176253318787,-0.0131097381591799,0.4216643797606651
10.718901515151515,-0.061969259262085,0.0352379410743713,0.13059143371582,0.4216643797606651
10.719507575757575,-0.033229024887085,-0.0461927229881287,0.06832092590332,0.4216643797606651
10.720113636363635,-0.066759298324585,-0.0246375472068787,0.13298645324706998,0.4216643797606651
10.720719696969697,0.048201639175415006,-0.209054051113129,0.26950256652832,0.4216643797606651
10.721325757575759,-0.14339992332458498,-0.139598484706879,0.12101135559082,0.4216643797606651
10.721931818181817,0.043411600112915005,0.00649770669937134,-0.09454040222168,0.4216643797606651
10.722537878787879,0.043411600112915005,-0.0485877425193787,0.10903625793457,0.4216643797606651
10.723143939393939,-0.18411525535583498,-0.12522836751937902,0.16172668762207,0.4216643797606651
10.723749999999999,0.18471775245666502,-0.130018406581879,-0.16878600769043,0.4216643797606651
10.72435606060606,0.072151834487915,0.169359034824371,-0.044244992065429894,0.4216643797606651
10.724962121212121,-0.17932521629333498,-0.010267430019378701,-0.049035031127929896,0.4216643797606651
10.725568181818183,0.00030124855041501196,-0.00308237142562866,0.010840457153320101,0.4216643797606651
10.726174242424243,0.026646463394165,-0.029427586269378702,-0.19992126159668,0.4216643797606651
10.726780303030303,0.10089206886291499,-0.158758640956879,-0.23824157409668,0.4216643797606651
10.727386363636365,0.05059665870666501,-0.0605628401756287,-0.020294796752929903,0.4216643797606651
10.727992424242423,-0.064364278793335,-0.0150574690818787,-0.0226898162841799,0.4216643797606651
10.728598484848485,-0.15777004051208499,0.169359034824371,0.0587408477783201,0.4216643797606651
10.729204545454545,-0.014068868637085,-0.0126624495506287,-0.051430050659179896,0.4216643797606651
10.729810606060607,0.012276346206665,-0.103673191738129,0.19286194152831998,0.4216643797606651
10.730416666666667,-0.24399074363708498,-0.029427586269378702,0.13777649230956998,0.4216643797606651
10.731022727272727,0.079336893081665,0.0807433121681213,0.0060504180908200495,0.4216643797606651
10.731628787878789,-0.08352443504333501,0.0400279801368713,0.09706116027832,0.4216643797606651
10.732234848484849,-0.121844747543335,0.0328429215431213,0.35093323059082004,0.4216643797606651
10.732840909090909,0.223038064956665,-0.07493295736312869,0.07790100402832001,0.4216643797606651
10.73344696969697,0.091311990737915,0.0543980973243713,-0.39152282409668,0.4216643797606651
10.73405303030303,0.055386697769165,0.0328429215431213,-0.25500671081543,0.4216643797606651
10.73465909090909,-0.13860988426208498,-0.122833347988129,0.54492981262207,0.4216643797606651
10.735265151515152,0.017066385269165,0.0280528824806213,0.35093323059082004,0.4216643797606651
10.735871212121213,0.09610202980041499,-0.0414026839256287,-0.09454040222168,0.4216643797606651
10.736477272727273,0.076941873550415,0.00649770669937134,0.21920715637207,0.4216643797606651
10.737083333333333,-0.0020937709808349896,-0.0246375472068787,0.18567688293457,0.4216643797606651
10.737689393939394,-0.14339992332458498,-0.115648289394379,-0.0035296600341799497,0.4216643797606651
10.738295454545455,0.088916971206665,-0.0414026839256287,0.18088684387207,0.4216643797606651
10.738901515151515,0.079336893081665,-0.0485877425193787,0.29345276184082003,0.4216643797606651
10.739507575757576,-0.049994161605834996,-0.15636362142562898,0.18328186340331998,0.4216643797606651
10.740113636363636,0.017066385269165,-0.127623387050629,0.0204205352783201,0.4216643797606651
10.740719696969697,0.05059665870666501,-0.0557728011131287,-0.0035296600341799497,0.4216643797606651
10.741325757575758,0.05059665870666501,-0.0150574690818787,0.22639221496582,0.4216643797606651
10.741931818181818,0.129632303237915,-0.158758640956879,-0.06580016784668,0.4216643797606651
10.742537878787878,0.122447244644165,-0.0605628401756287,-0.07059020690918,0.4216643797606651
10.743143939393939,-0.112264669418335,-0.158758640956879,0.23597229309082,0.4216643797606651
10.74375,-0.227225606918335,0.0208678238868713,0.0180255157470701,0.4216643797606651
10.74435606060606,-0.011673849105835,0.15738393716812102,0.0204205352783201,0.4216643797606651
10.74496212121212,0.081731912612915,-0.0605628401756287,0.0060504180908200495,0.4216643797606651
10.745568181818182,0.064966775894165,0.16696401529312102,0.027605593872070098,0.4216643797606651
10.746174242424242,0.074546854019165,0.0807433121681213,0.09227112121582,0.4216643797606651
10.746780303030302,-0.011673849105835,-0.050982762050628704,-0.16639098815918002,0.4216643797606651
10.747386363636364,-0.14818996238708498,0.0615831559181213,0.13298645324706998,0.4216643797606651
10.747992424242424,0.045806619644165006,0.00649770669937134,0.0323956329345701,0.4216643797606651
10.748598484848484,0.09849704933166499,0.0663731949806213,0.0563458282470701,0.4216643797606651
10.749204545454544,0.074546854019165,0.150198878574371,0.19765198059081998,0.4216643797606651
10.749810606060606,-0.102684591293335,0.0472130387306213,0.06832092590332,0.4216643797606651
10.750416666666666,0.052991678237915,-0.189893894863129,0.29345276184082003,0.4216643797606651
10.751022727272726,-0.018858907699585,-0.18749887533187898,-0.008319699096679949,0.4216643797606651
10.751628787878788,-0.038019063949585,0.0280528824806213,-0.14483581237793,0.4216643797606651
10.752234848484848,0.09849704933166499,-0.22102914876937899,0.28626770324707,0.4216643797606651
10.752840909090908,-0.064364278793335,-0.120438328456879,0.039580691528320104,0.4216643797606651
10.75344696969697,-0.124239767074585,0.0831383316993713,-0.10651549987792999,0.4216643797606651
10.75405303030303,-0.141004903793335,-0.189893894863129,0.0491607696533201,0.4216643797606651
10.75465909090909,0.064966775894165,-0.130018406581879,0.20244201965331998,0.4216643797606651
10.755265151515152,-0.097894552230835,-0.0581678206443787,-0.0035296600341799497,0.4216643797606651
10.755871212121212,-0.272730978012085,0.0759532731056213,-0.020294796752929903,0.4216643797606651
10.756477272727272,-0.07154933738708501,0.09750844888687131,-0.0322698944091799,0.4216643797606651
10.757083333333332,0.052991678237915,-0.029427586269378702,0.0539508087158201,0.4216643797606651
10.757689393939394,-0.100289571762085,0.10229848794937099,0.20962707824707,0.4216643797606651
10.758295454545454,-0.00688381004333499,0.0807433121681213,-0.06580016784668,0.4216643797606651
10.758901515151514,-0.0020937709808349896,0.0041026871681213405,-0.10172546081542999,0.4216643797606651
10.759507575757576,0.052991678237915,-0.14678354330062898,0.08029602355957001,0.4216643797606651
10.760113636363636,-0.088314474105835,-0.08930307455062869,-0.044244992065429894,0.4216643797606651
10.760719696969696,0.09849704933166499,-0.07253793783187869,0.10903625793457,0.4216643797606651
10.761325757575758,0.05059665870666501,-0.07253793783187869,0.09466614074707,0.4216643797606651
10.761931818181818,0.18471775245666502,0.0615831559181213,0.025210574340820097,0.4216643797606651
10.762537878787878,-0.155375020980835,0.23162954263687102,0.17370178527831998,0.4216643797606651
10.763143939393938,-0.095499532699585,0.16217397623062102,0.08269104309082,0.4216643797606651
10.76375,0.091311990737915,-0.0629578597068787,0.5281646759033201,0.4216643797606651
10.764356060606062,-0.014068868637085,-0.194683933925629,-0.08975036315918,0.4216643797606651
10.76496212121212,0.057781717300415,-0.0246375472068787,0.17130676574707,0.4216643797606651
10.765568181818182,-0.205670431137085,0.09750844888687131,0.17370178527831998,0.4216643797606651
10.766174242424242,-0.107474630355835,-0.213844090175629,-0.08735534362793,0.4216643797606651
10.766780303030302,-0.038019063949585,-0.101278172206879,0.22639221496582,0.4216643797606651
10.767386363636364,0.15597751808166502,-0.13241342611312898,-0.12088561706543,0.4216643797606651
10.767992424242424,-0.045204122543334994,-0.0342176253318787,-0.0538250701904299,0.4216643797606651
10.768598484848486,0.033831521987915,0.0232628434181213,-0.0322698944091799,0.4216643797606651
10.769204545454546,0.048201639175415006,-0.139598484706879,0.32458801574707,0.4216643797606651
10.769810606060606,-0.00688381004333499,-0.00547739095687866,-0.020294796752929903,0.4216643797606651
10.770416666666668,-0.049994161605834996,-0.106068211269379,0.0563458282470701,0.4216643797606651
10.771022727272726,0.218248025894165,0.030447902011871298,0.09466614074707,0.4216643797606651
10.771628787878788,0.057781717300415,0.0831383316993713,0.07071594543457001,0.4216643797606651
10.772234848484848,-0.014068868637085,-0.0318226058006287,0.30063782043457,0.4216643797606651
10.77284090909091,0.10328708839416499,0.0232628434181213,0.17849182434081998,0.4216643797606651
10.77344696969697,0.17034763526916502,-0.194683933925629,-0.07538024597168,0.4216643797606651
10.77405303030303,-0.011673849105835,-0.0581678206443787,-0.09693542175293,0.4216643797606651
10.774659090909092,0.112867166519165,0.164568995761871,0.13298645324706998,0.4216643797606651
10.775265151515152,0.00748630714416501,-0.0653528792381287,0.0323956329345701,0.4216643797606651
10.775871212121212,-0.136214864730835,-0.0557728011131287,-0.0131097381591799,0.4216643797606651
10.776477272727274,0.120052225112915,0.0280528824806213,0.07550598449707001,0.4216643797606651
10.777083333333334,-0.07873439598083501,-0.08690805501937869,0.0467657501220701,0.4216643797606651
10.777689393939394,0.091311990737915,-0.007872410488128659,0.0563458282470701,0.4216643797606651
10.778295454545455,-0.011673849105835,-0.139598484706879,-0.0634051483154299,0.4216643797606651
10.778901515151516,-0.066759298324585,-0.0390076643943787,-0.11849059753418,0.4216643797606651
10.779507575757576,-0.064364278793335,0.0280528824806213,0.0323956329345701,0.4216643797606651
10.780113636363636,-0.124239767074585,-0.233004246425629,-0.18315612487793,0.4216643797606651
10.780719696969697,-0.0020937709808349896,-0.110858250331879,-0.09214538269043,0.4216643797606651
10.781325757575758,0.10807712745666499,0.111878566074371,0.15214660949706998,0.4216643797606651
10.781931818181818,0.033831521987915,0.16217397623062102,0.13298645324706998,0.4216643797606651
10.78253787878788,0.199087869644165,-0.0533777815818787,0.041975711059570105,0.4216643797606651
10.78314393939394,0.129632303237915,0.037632960605621296,0.0467657501220701,0.4216643797606651
10.78375,-0.04041408348083499,-0.127623387050629,0.24794739074706998,0.8301966412858139
10.784356060606061,0.15597751808166502,-0.115648289394379,0.13298645324706998,0.8301966412858139
10.784962121212121,0.091311990737915,-0.0318226058006287,0.11143127746582,0.8301966412858139
10.785568181818181,-0.090709493637085,0.00170766763687134,0.16172668762207,0.8301966412858139
10.786174242424241,-0.263150899887085,-0.010267430019378701,0.10424621887207,0.8301966412858139
10.786780303030303,-0.136214864730835,-0.149178562831879,0.09706116027832,0.8301966412858139
10.787386363636363,0.072151834487915,0.00170766763687134,-0.20231628112793001,0.8301966412858139
10.787992424242423,-0.126634786605835,-0.010267430019378701,0.10185119934082,0.8301966412858139
10.788598484848485,0.009881326675415011,-0.09169809408187869,0.041975711059570105,0.8301966412858139
10.789204545454545,0.064966775894165,-0.115648289394379,-0.008319699096679949,0.8301966412858139
10.789810606060605,0.117657205581665,-0.144388523769379,0.17370178527831998,0.8301966412858139
10.790416666666667,0.12723728370666498,-0.07972299642562869,-0.24303161315918,0.8301966412858139
10.791022727272727,-0.141004903793335,0.0567931168556213,0.027605593872070098,0.8301966412858139
10.791628787878787,-0.049994161605834996,0.0424229996681213,0.14735657043456998,0.8301966412858139
10.79223484848485,0.148792459487915,-0.185103855800629,-0.0346649139404299,0.8301966412858139
10.79284090909091,-0.00688381004333499,-0.029427586269378702,-0.11370055847168,0.8301966412858139
10.79344696969697,0.10089206886291499,0.0208678238868713,-0.0035296600341799497,0.8301966412858139
10.79405303030303,0.069756814956665,-0.0366126448631287,-0.06580016784668,0.8301966412858139
10.794659090909091,-0.069154317855835,0.286714991855621,0.39164856262207004,0.8301966412858139
10.795265151515151,-0.17932521629333498,0.0208678238868713,0.41799377746582,0.8301966412858139
10.795871212121211,-0.102684591293335,-0.149178562831879,-0.14962585144043,0.8301966412858139
10.796477272727273,0.187112771987915,0.114273585605621,0.0323956329345701,0.8301966412858139
10.797083333333333,-0.090709493637085,0.14780385904312102,0.21202209777831998,0.8301966412858139
10.797689393939393,-0.07154933738708501,-0.177918797206879,0.12580139465332,0.8301966412858139
10.798295454545455,-0.016463888168335,-0.103673191738129,-0.08735534362793,0.8301966412858139
10.798901515151515,-0.167350118637085,0.116668605136871,0.10185119934082,0.8301966412858139
10.799507575757575,-0.052389181137084996,-0.0988831526756287,-0.21668639831543002,0.8301966412858139
10.800113636363635,0.144002420425415,-0.110858250331879,0.010840457153320101,0.8301966412858139
10.800719696969697,0.021856424331665,-0.0366126448631287,0.25034241027832,0.8301966412858139
10.801325757575757,0.12723728370666498,-0.08690805501937869,0.0539508087158201,0.8301966412858139
10.801931818181817,-0.0020937709808349896,-0.165943699550629,-0.0610101287841799,0.8301966412858139
10.802537878787879,-0.030834005355835,0.0352379410743713,-0.13046569519043,0.8301966412858139
10.803143939393939,0.285308572769165,0.0687682145118713,0.21202209777831998,0.8301966412858139
10.803749999999999,-0.13381984519958498,-0.0222425276756287,-0.07777526550293,0.8301966412858139
10.804356060606061,-0.155375020980835,-0.050982762050628704,-0.15202087097168002,0.8301966412858139
10.804962121212121,-0.038019063949585,-0.122833347988129,0.34853821105957,0.8301966412858139
10.805568181818181,0.029041482925415,0.016077784824371298,-0.0131097381591799,0.8301966412858139
10.806174242424241,-0.095499532699585,0.0591881363868713,-0.21668639831543002,0.8301966412858139
10.806780303030303,-0.25117580223083497,-0.15157358236312898,0.06832092590332,0.8301966412858139
10.807386363636365,-0.00688381004333499,-0.180313816738129,-0.0226898162841799,0.8301966412858139
10.807992424242425,-0.059574239730835,-0.07972299642562869,0.015630496215820102,0.8301966412858139
10.808598484848485,-0.023648946762085,-0.09169809408187869,0.12340637512207,0.8301966412858139
10.809204545454545,0.00030124855041501196,0.0520030777931213,0.07311096496582001,0.8301966412858139
10.809810606060605,-0.15298000144958498,-0.0126624495506287,-0.11849059753418,0.8301966412858139
10.810416666666667,0.052991678237915,-0.149178562831879,0.11143127746582,0.8301966412858139
10.811022727272727,0.072151834487915,-0.08930307455062869,0.06832092590332,0.8301966412858139
10.811628787878789,0.10328708839416499,-0.14199350423812898,-0.22866149597168,0.8301966412858139
10.812234848484849,0.00030124855041501196,0.109483546543121,0.0180255157470701,0.8301966412858139
10.812840909090909,-0.169745138168335,0.176544093418121,0.0300006134033201,0.8301966412858139
10.81344696969697,0.0050912876129150094,0.08553335123062131,0.22399719543457,0.8301966412858139
10.81405303030303,0.00030124855041501196,-0.0461927229881287,0.09227112121582,0.8301966412858139
10.81465909090909,-0.00927882957458499,-0.0126624495506287,-0.16878600769043,0.8301966412858139
10.81526515151515,-0.18411525535583498,0.09032339029312131,0.0323956329345701,0.8301966412858139
10.815871212121213,-0.145794942855835,0.0759532731056213,0.044370730590820105,0.8301966412858139
10.816477272727273,0.203877908706665,-0.0270325667381287,-0.0538250701904299,0.8301966412858139
10.817083333333333,0.045806619644165006,0.0543980973243713,-0.0538250701904299,0.8301966412858139
10.817689393939395,0.017066385269165,-0.0485877425193787,0.11622131652832,0.8301966412858139
10.818295454545455,0.17513767433166502,0.10229848794937099,-0.0346649139404299,0.8301966412858139
10.818901515151515,-0.181720235824585,0.0687682145118713,-0.0346649139404299,0.8301966412858139
10.819507575757576,0.129632303237915,-0.261744480800629,0.07790100402832001,0.8301966412858139
10.820113636363637,0.23501316261291502,-0.00308237142562866,-0.13286071472168,0.8301966412858139
10.820719696969697,0.026646463394165,0.0831383316993713,0.20244201965331998,0.8301966412858139
10.821325757575758,-0.059574239730835,0.0136827652931213,0.0635308868408201,0.8301966412858139
10.821931818181818,0.182322732925415,-0.120438328456879,0.010840457153320101,0.8301966412858139
10.822537878787879,0.0050912876129150094,-0.0174524886131287,-0.0538250701904299,0.8301966412858139
10.823143939393939,-0.181720235824585,0.0591881363868713,-0.31488219909667997,0.8301966412858139
10.82375,0.081731912612915,-0.0485877425193787,0.27908264465332,0.8301966412858139
10.82435606060606,-0.052389181137084996,-0.0533777815818787,-0.08017028503418,0.8301966412858139
10.82496212121212,0.09849704933166499,0.08553335123062131,0.0515557891845701,0.8301966412858139
10.825568181818182,-0.049994161605834996,-0.08930307455062869,0.13059143371582,0.8301966412858139
10.826174242424242,-0.167350118637085,0.08553335123062131,-0.046640011596679895,0.8301966412858139
10.826780303030302,-0.07633937644958501,0.011287745761871299,0.09706116027832,0.8301966412858139
10.827386363636364,0.021856424331665,0.030447902011871298,-0.00113464050292995,0.8301966412858139
10.827992424242424,0.136817361831665,0.0400279801368713,0.09945617980957,0.8301966412858139
10.828598484848484,0.139212381362915,-0.12522836751937902,0.14496155090332,0.8301966412858139
10.829204545454546,0.10328708839416499,-0.115648289394379,-0.12328063659668,0.8301966412858139
10.829810606060606,0.115262186050415,-0.113253269863129,0.14017151184082,0.8301966412858139
10.830416666666666,0.026646463394165,-0.12522836751937902,0.32219299621582004,0.8301966412858139
10.831022727272726,0.052991678237915,-0.240189305019379,-0.16399596862793,0.8301966412858139
10.831628787878788,-0.066759298324585,-0.15157358236312898,-0.10412048034667999,0.8301966412858139
10.832234848484848,-0.109869649887085,-0.15636362142562898,0.17130676574707,0.8301966412858139
10.832840909090908,0.112867166519165,-0.153968601894379,0.10664123840332,0.8301966412858139
10.83344696969697,0.110472146987915,-0.0964881331443787,-0.14244079284668001,0.8301966412858139
10.83405303030303,0.17992771339416502,0.011287745761871299,-0.19752624206543,0.8301966412858139
10.83465909090909,0.20148288917541501,0.107088527011871,-0.08017028503418,0.8301966412858139
10.83526515151515,0.10568210792541499,-0.09409311361312869,0.06592590637207,0.8301966412858139
10.835871212121212,0.009881326675415011,-0.09169809408187869,0.044370730590820105,0.8301966412858139
10.836477272727272,-0.038019063949585,0.133433741855621,0.08029602355957001,0.8301966412858139
10.837083333333332,0.00748630714416501,0.0807433121681213,0.08987610168457,0.8301966412858139
10.837689393939394,-0.14818996238708498,-0.0653528792381287,-0.10651549987792999,0.8301966412858139
10.838295454545454,0.12723728370666498,-0.283299656581879,-0.08496032409668,0.8301966412858139
10.838901515151514,0.191902811050415,-0.0653528792381287,0.025210574340820097,0.8301966412858139
10.839507575757576,-0.035624044418335,0.0256578629493713,0.037185671997070104,0.8301966412858139
10.840113636363636,-0.097894552230835,-0.09409311361312869,0.08508606262207,0.8301966412858139
10.840719696969696,-0.167350118637085,-0.0246375472068787,0.08748108215332,0.8301966412858139
10.841325757575758,0.06257175636291501,0.030447902011871298,-0.049035031127929896,0.8301966412858139
10.841931818181818,0.043411600112915005,0.016077784824371298,-0.046640011596679895,0.8301966412858139
10.842537878787878,-0.08112941551208501,0.0615831559181213,0.039580691528320104,0.8301966412858139
10.843143939393938,-0.064364278793335,0.15259389810562102,0.0060504180908200495,0.8301966412858139
10.84375,0.036226541519165004,-0.0581678206443787,-0.20710632019043002,0.8301966412858139
10.84435606060606,0.00030124855041501196,-0.0366126448631287,0.07071594543457001,0.8301966412858139
10.84496212121212,-0.121844747543335,0.09750844888687131,0.15214660949706998,0.8301966412858139
10.845568181818182,-0.016463888168335,-0.00547739095687866,0.08508606262207,0.8301966412858139
10.846174242424242,0.060176736831665,-0.130018406581879,0.31261291809082004,0.8301966412858139
10.846780303030302,0.076941873550415,0.0448180191993713,-0.14483581237793,0.8301966412858139
10.847386363636364,-0.038019063949585,-0.029427586269378702,0.0060504180908200495,0.8301966412858139
10.847992424242424,-0.176930196762085,-0.14678354330062898,0.34374817199707003,0.8301966412858139
10.848598484848484,-0.20806545066833498,-0.007872410488128659,0.09227112121582,0.8301966412858139
10.849204545454544,-0.220040548324585,-0.08211801595687869,0.0611358673095701,0.8301966412858139
10.849810606060606,0.029041482925415,-0.19228891439437898,0.037185671997070104,0.8301966412858139
10.850416666666668,0.019461404800415,-0.173128758144379,-0.10651549987792999,0.8301966412858139
10.851022727272728,0.00269626808166501,-0.050982762050628704,-0.08735534362793,0.8301966412858139
10.851628787878788,-0.033229024887085,-0.010267430019378701,-0.09933044128417999,0.8301966412858139
10.852234848484848,0.069756814956665,0.121458644199371,0.26950256652832,0.8301966412858139
10.852840909090908,0.115262186050415,0.0448180191993713,0.29105774230957004,0.8301966412858139
10.85344696969697,-0.00688381004333499,-0.14199350423812898,-0.22147643737793002,0.8301966412858139
10.85405303030303,0.031436502456665,0.00649770669937134,-0.30290710144043,0.8301966412858139
10.854659090909092,0.074546854019165,0.030447902011871298,0.26231750793457004,0.8301966412858139
10.855265151515152,-0.011673849105835,0.0041026871681213405,0.0132354766845701,0.8301966412858139
10.855871212121212,0.060176736831665,0.10229848794937099,-0.12328063659668,0.8301966412858139
10.856477272727274,0.122447244644165,-0.06774789876937869,0.07071594543457001,0.8301966412858139
10.857083333333334,0.088916971206665,-0.122833347988129,0.07550598449707001,0.8301966412858139
10.857689393939394,0.136817361831665,0.08553335123062131,-0.0418499725341799,0.8301966412858139
10.858295454545456,-0.021253927230835,-0.07732797689437869,-0.12088561706543,0.8301966412858139
10.858901515151516,-0.119449728012085,0.0663731949806213,0.11382629699707,0.8301966412858139
10.859507575757576,0.029041482925415,0.0687682145118713,0.10185119934082,0.8301966412858139
10.860113636363636,-0.162560079574585,0.10229848794937099,0.18807190246581998,0.8301966412858139
10.860719696969698,-0.181720235824585,0.09032339029312131,0.0036553985595700503,0.8301966412858139
10.861325757575758,0.026646463394165,-0.0150574690818787,0.09706116027832,0.8301966412858139
10.861931818181818,0.088916971206665,-0.0222425276756287,0.09227112121582,0.8301966412858139
10.86253787878788,-0.21764552879333499,-0.108463230800629,0.0491607696533201,0.8301966412858139
10.86314393939394,-0.15777004051208499,-0.0366126448631287,0.0539508087158201,0.8301966412858139
10.86375,0.20148288917541501,-0.0390076643943787,0.20962707824707,0.8301966412858139
10.864356060606061,-0.145794942855835,-0.0174524886131287,0.0491607696533201,0.8301966412858139
10.864962121212121,-0.25117580223083497,-0.0222425276756287,0.0323956329345701,0.8301966412858139
10.865568181818182,-0.119449728012085,0.0735582535743713,0.0323956329345701,0.8301966412858139
10.866174242424242,0.064966775894165,-0.16115366048812899,-0.10172546081542999,0.8301966412858139
10.866780303030303,0.029041482925415,-0.115648289394379,-0.010714718627929899,0.8301966412858139
10.867386363636363,-0.08352443504333501,-0.07732797689437869,-0.0155047576904299,0.8301966412858139
10.867992424242424,-0.121844747543335,-0.158758640956879,0.15693664855956999,0.8301966412858139
10.868598484848485,0.16555759620666502,0.00889272623062134,-0.32206725769043,0.8301966412858139
10.869204545454545,0.038621561050415004,0.0639781754493713,-0.0418499725341799,0.8301966412858139
10.869810606060605,-0.033229024887085,0.126248683261871,0.0611358673095701,0.8301966412858139
10.870416666666667,0.014671365737915,-0.007872410488128659,0.037185671997070104,0.8301966412858139
10.871022727272727,0.0050912876129150094,-0.050982762050628704,0.07550598449707001,0.8301966412858139
10.871628787878787,-0.066759298324585,0.126248683261871,0.11622131652832,0.8301966412858139
10.872234848484847,-0.109869649887085,-0.0270325667381287,0.12101135559082,0.8301966412858139
10.87284090909091,0.055386697769165,-0.12522836751937902,0.09466614074707,0.8301966412858139
10.87344696969697,-0.069154317855835,0.030447902011871298,0.0228155548095701,0.8301966412858139
10.87405303030303,-0.07633937644958501,-0.07732797689437869,-0.07538024597168,0.8301966412858139
10.874659090909091,-0.047599142074584995,-0.00308237142562866,0.15214660949706998,0.8301966412858139
10.875265151515151,0.012276346206665,0.0591881363868713,0.17849182434081998,0.8301966412858139
10.875871212121211,0.05059665870666501,0.107088527011871,0.13538147277832,0.8301966412858139
10.876477272727273,-0.100289571762085,-0.0485877425193787,0.07550598449707001,0.8301966412858139
10.877083333333333,-0.200880392074585,-0.235399265956879,0.10664123840332,0.8301966412858139
10.877689393939393,-0.00688381004333499,-0.13241342611312898,-0.10651549987792999,0.8301966412858139
10.878295454545455,-0.117054708480835,-0.21623910970687898,-0.13046569519043,0.8301966412858139
10.878901515151515,-0.21285548973083498,-0.07732797689437869,-0.10412048034667999,0.8301966412858139
10.879507575757575,-0.054784200668335,-0.180313816738129,0.08987610168457,0.8301966412858139
10.880113636363635,-0.08352443504333501,0.00170766763687134,0.015630496215820102,0.8301966412858139
10.880719696969697,-0.17932521629333498,0.0256578629493713,-0.06819518737793,0.8301966412858139
10.881325757575757,-0.045204122543334994,-0.0461927229881287,-0.0226898162841799,0.8301966412858139
10.881931818181817,-0.124239767074585,-0.0437977034568787,-0.09693542175293,0.8301966412858139
10.882537878787879,-0.014068868637085,0.0783482926368713,-0.08017028503418,0.8301966412858139
10.883143939393939,0.024251443862915,0.00649770669937134,-0.25021667175293,0.6638375302515231
10.88375,-0.275125997543335,-0.422210789394379,-0.22626647644043002,0.6638375302515231
10.884356060606061,0.09849704933166499,-0.177918797206879,-0.18555114440918002,0.6638375302515231
10.884962121212121,-0.030834005355835,-0.08211801595687869,0.08987610168457,0.6638375302515231
10.885568181818181,-0.088314474105835,-0.07732797689437869,0.24076233215332,0.6638375302515231
10.886174242424241,-0.105079610824585,-0.0581678206443787,0.015630496215820102,0.6638375302515231
10.886780303030303,-0.15298000144958498,-0.07014291830062869,-0.0226898162841799,0.6638375302515231
10.887386363636363,0.072151834487915,0.016077784824371298,-0.0418499725341799,0.6638375302515231
10.887992424242423,-0.021253927230835,0.0472130387306213,0.11861633605957,0.6638375302515231
10.888598484848485,-0.150584981918335,-0.120438328456879,0.21202209777831998,0.6638375302515231
10.889204545454545,-0.23441066551208498,0.00649770669937134,0.0132354766845701,0.6638375302515231
10.889810606060607,-0.109869649887085,0.0232628434181213,-0.008319699096679949,0.6638375302515231
10.890416666666667,-0.117054708480835,-0.09169809408187869,0.15214660949706998,0.6638375302515231
10.891022727272727,-0.064364278793335,-0.16115366048812899,0.19046692199707,0.6638375302515231
10.891628787878787,-0.054784200668335,-0.0126624495506287,-0.14004577331543,0.6638375302515231
10.892234848484847,0.017066385269165,-0.000687351894378656,-0.0634051483154299,0.6638375302515231
10.892840909090909,-0.030834005355835,-0.0198475081443787,0.20004700012207,0.6638375302515231
10.89344696969697,-0.136214864730835,-0.0414026839256287,-0.08017028503418,0.6638375302515231
10.89405303030303,-0.17932521629333498,-0.16115366048812899,0.09945617980957,0.6638375302515231
10.89465909090909,-0.090709493637085,0.0328429215431213,-0.20471130065918,0.6638375302515231
10.895265151515153,0.167952615737915,-0.113253269863129,0.00126037902832005,0.6638375302515231
10.895871212121213,-0.13381984519958498,-0.170733738613129,0.15454162902832,0.6638375302515231
10.896477272727273,-0.018858907699585,-0.07493295736312869,-0.14244079284668001,0.6638375302515231
10.897083333333333,-0.18890529441833498,-0.163548680019379,0.20723205871581998,0.6638375302515231
10.897689393939395,-0.164955099105835,-0.115648289394379,-0.0298748748779299,0.6638375302515231
10.898295454545455,0.057781717300415,0.09271840982437131,-0.0250848358154299,0.6638375302515231
10.898901515151515,-0.13860988426208498,0.15738393716812102,0.22160217590332,0.6638375302515231
10.899507575757577,0.304468729019165,0.09990346841812131,0.25513244934081997,0.6638375302515231
10.900113636363637,0.024251443862915,-0.0318226058006287,0.11861633605957,0.6638375302515231
10.900719696969697,-0.17453517723083498,-0.08930307455062869,-0.08256530456543,0.6638375302515231
10.901325757575759,-0.08352443504333501,0.0400279801368713,0.17849182434081998,0.6638375302515231
10.901931818181819,-0.030834005355835,-0.0485877425193787,0.10185119934082,0.6638375302515231
10.902537878787879,0.069756814956665,-0.113253269863129,0.0539508087158201,0.6638375302515231
10.903143939393939,0.012276346206665,0.181334132480621,0.27908264465332,0.6638375302515231
10.90375,-0.00448879051208499,-0.050982762050628704,-0.18076110534668002,0.6638375302515231
10.90435606060606,-0.026043966293335,-0.029427586269378702,0.0635308868408201,0.6638375302515231
10.90496212121212,0.021856424331665,0.011287745761871299,0.17849182434081998,0.6638375302515231
10.905568181818182,-0.057179220199585,-0.130018406581879,-0.18076110534668002,0.6638375302515231
10.906174242424242,-0.049994161605834996,-0.010267430019378701,0.15454162902832,0.6638375302515231
10.906780303030303,-0.00927882957458499,0.0543980973243713,0.35572326965332,0.6638375302515231
10.907386363636364,-0.14818996238708498,0.0663731949806213,0.09706116027832,0.6638375302515231
10.907992424242424,-0.112264669418335,-0.180313816738129,-0.09933044128417999,0.6638375302515231
10.908598484848484,0.067361795425415,-0.0461927229881287,-0.0346649139404299,0.6638375302515231
10.909204545454545,0.038621561050415004,-0.101278172206879,-0.044244992065429894,0.6638375302515231
10.909810606060606,0.045806619644165006,-0.153968601894379,0.0060504180908200495,0.6638375302515231
10.910416666666666,-0.016463888168335,0.0280528824806213,0.0491607696533201,0.6638375302515231
10.911022727272726,-0.382901876449585,-0.0390076643943787,0.09945617980957,0.6638375302515231
10.911628787878788,0.10328708839416499,-0.288089695644379,0.17849182434081998,0.6638375302515231
10.912234848484848,0.306863748550415,-0.09409311361312869,0.0228155548095701,0.6638375302515231
10.912840909090908,-0.045204122543334994,0.0687682145118713,0.23118225402832,0.6638375302515231
10.91344696969697,-0.054784200668335,-0.07732797689437869,-0.06819518737793,0.6638375302515231
10.91405303030303,-0.141004903793335,-0.06774789876937869,-0.28135192565918,0.6638375302515231
10.91465909090909,0.029041482925415,-0.177918797206879,0.63115051574707,0.6638375302515231
10.915265151515152,0.302073709487915,-0.09409311361312869,0.42757385559082,0.6638375302515231
10.915871212121212,0.10807712745666499,-0.0366126448631287,0.010840457153320101,0.6638375302515231
10.916477272727272,-0.205670431137085,-0.029427586269378702,0.025210574340820097,0.6638375302515231
10.917083333333332,-0.141004903793335,-0.113253269863129,0.10664123840332,0.6638375302515231
10.917689393939394,-0.117054708480835,-0.158758640956879,-0.0394549530029299,0.6638375302515231
10.918295454545454,-0.042809103012084994,-0.240189305019379,-0.17836608581543,0.6638375302515231
10.918901515151514,0.043411600112915005,0.0424229996681213,0.0515557891845701,0.6638375302515231
10.919507575757576,0.076941873550415,0.178939112949371,-0.14962585144043,0.6638375302515231
10.920113636363636,0.043411600112915005,-0.0605628401756287,0.13298645324706998,0.6638375302515231
10.920719696969696,0.052991678237915,-0.07972299642562869,0.27908264465332,0.6638375302515231
10.921325757575758,0.00269626808166501,-0.19228891439437898,0.22639221496582,0.6638375302515231
10.921931818181818,-0.112264669418335,-0.08211801595687869,-0.00592467956542995,0.6638375302515231
10.922537878787878,-0.102684591293335,0.114273585605621,-0.0634051483154299,0.6638375302515231
10.923143939393938,-0.07394435691833501,0.0711632340431213,0.14256653137206998,0.6638375302515231
10.92375,-0.12902980613708498,-0.0461927229881287,0.015630496215820102,0.6638375302515231
10.92435606060606,-0.114659688949585,-0.000687351894378656,0.23597229309082,0.6638375302515231
10.92496212121212,-0.045204122543334994,-0.237794285488129,0.41080871887207004,0.6638375302515231
10.925568181818182,0.009881326675415011,-0.0414026839256287,0.010840457153320101,0.6638375302515231
10.926174242424242,0.064966775894165,0.0424229996681213,-0.08735534362793,0.6638375302515231
10.926780303030302,-0.00688381004333499,-0.130018406581879,0.037185671997070104,0.6638375302515231
10.927386363636364,-0.196090353012085,-0.0485877425193787,-0.0370599334716799,0.6638375302515231
10.927992424242424,-0.15777004051208499,-0.0342176253318787,0.06832092590332,0.6638375302515231
10.928598484848484,-0.093104513168335,-0.122833347988129,-0.12807067565918,0.6638375302515231
10.929204545454544,0.00030124855041501196,-0.14199350423812898,0.08508606262207,0.6638375302515231
10.929810606060606,-0.052389181137084996,-0.0581678206443787,0.0180255157470701,0.6638375302515231
10.930416666666666,-0.028438985824585,-0.0150574690818787,0.08508606262207,0.6638375302515231
10.931022727272726,-0.112264669418335,-0.0581678206443787,-0.049035031127929896,0.6638375302515231
10.931628787878788,0.196692850112915,-0.175523777675629,0.010840457153320101,0.6638375302515231
10.93223484848485,0.076941873550415,-0.163548680019379,0.10424621887207,0.6638375302515231
10.93284090909091,-0.141004903793335,0.09990346841812131,-0.18555114440918002,0.6638375302515231
10.93344696969697,0.074546854019165,0.21725942544937102,0.22639221496582,0.6638375302515231
10.93405303030303,-0.114659688949585,-0.20186899251937898,0.17370178527831998,0.6638375302515231
10.93465909090909,0.139212381362915,0.128643702793121,-0.10651549987792999,0.6638375302515231
10.93526515151515,-0.023648946762085,0.28911001138687104,0.025210574340820097,0.6638375302515231
10.935871212121212,0.031436502456665,0.0663731949806213,0.14975158996582,0.6638375302515231
10.936477272727274,0.09610202980041499,0.150198878574371,0.15454162902832,0.6638375302515231
10.937083333333334,0.09849704933166499,-0.110858250331879,0.14017151184082,0.6638375302515231
10.937689393939394,-0.095499532699585,-0.194683933925629,0.19765198059081998,0.6638375302515231
10.938295454545456,0.10328708839416499,0.0328429215431213,0.12340637512207,0.6638375302515231
10.938901515151516,0.069756814956665,0.0472130387306213,0.11622131652832,0.6638375302515231
10.939507575757576,-0.090709493637085,-0.0988831526756287,0.08987610168457,0.6638375302515231
10.940113636363636,-0.00448879051208499,-0.158758640956879,0.09706116027832,0.6638375302515231
10.940719696969698,0.052991678237915,-0.050982762050628704,-0.08975036315918,0.6638375302515231
10.941325757575758,0.072151834487915,0.308270167636871,0.17130676574707,0.6638375302515231
