Time (s),Accel X (m/s^2),Accel Y (m/s^2),Accel Z (m/s^2),CI Value
9.5,-0.09143819704055789,-0.0848216749191284,-0.030509367942809798,1.3645962811308372
9.50060606060606,0.12171854124069201,-0.0249461866378784,-0.00895419216155984,1.3645962811308372
9.50121212121212,-0.021982630634307897,0.181025493049622,0.23533780002593999,1.3645962811308372
9.501818181818182,-0.0626979626655579,0.06366953601837161,0.012600983619690202,1.3645962811308372
9.502424242424242,-0.160893763446808,-0.0608714796066284,-0.13828524684906,1.3645962811308372
9.503030303030304,0.0666330920219421,0.0109791063308716,-0.0927798757553098,1.3645962811308372
9.503636363636364,0.0714231310844421,-0.115956928825378,-0.0688296804428098,1.3645962811308372
9.504242424242424,0.07860818967819211,-0.0944017530441284,0.060501374244690195,1.3645962811308372
9.504848484848484,0.17680399045944198,0.137915141487122,-0.0257193288803098,1.3645962811308372
9.505454545454546,-0.0483278454780579,-0.168647358512878,0.15630215549469,1.3645962811308372
9.506060606060606,-0.031562708759307896,-0.13990712413787798,0.09882168674469019,1.3645962811308372
9.506666666666668,0.0594480334281921,0.157075297737122,-0.19816073513031,1.3645962811308372
9.507272727272728,0.054657994365692096,0.135520121955872,-0.0400894460678098,1.3645962811308372
9.507878787878788,-0.18244893922805802,-0.041711323356628395,-0.035299407005309806,1.3645962811308372
9.508484848484848,0.126508580303192,-0.0129710889816284,-0.016139250755309798,1.3645962811308372
9.509090909090908,0.0402878771781921,0.0253492235183716,-0.27719637966156,1.3645962811308372
9.50969696969697,0.0307077990531921,-0.0896117139816284,-0.5502286062240599,1.3645962811308372
9.510303030303032,-0.201609095478058,0.0205591844558716,0.12995694065094,1.3645962811308372
9.510909090909092,-0.09862325563430789,-0.168647358512878,0.6161459054946901,1.3645962811308372
9.511515151515152,-0.043537806415557906,-0.17583241710662798,-0.0640396413803098,1.3645962811308372
9.512121212121212,-0.175263880634308,0.044509379768371604,-0.28198641872406,1.3645962811308372
9.512727272727272,-0.0267726696968079,0.245691020393372,0.11558682346344,1.3645962811308372
9.513333333333334,0.112138463115692,-0.13990712413787798,0.00541592502594016,1.3645962811308372
9.513939393939394,0.0402878771781921,0.13312510242462203,0.0461312570571902,1.3645962811308372
9.514545454545456,0.100163365459442,0.252876078987122,0.0269711008071902,1.3645962811308372
9.515151515151516,0.126508580303192,-0.19020253429412798,-0.0376944265365598,1.3645962811308372
9.515757575757576,-0.0722780407905579,-0.0560814405441284,-0.18379061794281001,1.3645962811308372
9.516363636363636,-0.09622823610305789,-0.238102924919128,0.0149960031509402,1.3645962811308372
9.516969696969696,0.0331028185844421,0.008584086799621589,0.19462246799469,1.3645962811308372
9.517575757575758,0.0594480334281921,0.00139902820587159,0.23294278049469,1.3645962811308372
9.51818181818182,-0.129758509540558,-0.17583241710662798,-0.13110018825531,1.3645962811308372
9.51878787878788,-0.024377650165557898,-0.111166889762878,-0.12152011013031,1.3645962811308372
9.51939393939394,0.167223912334442,-0.0536864210128784,0.0748714914321902,1.3645962811308372
9.52,-0.0195876111030579,0.0205591844558716,0.0676864328384402,1.3645962811308372
9.52060606060606,0.049867955303192095,-0.0656615186691284,0.060501374244690195,1.3645962811308372
9.521212121212121,0.104953404521942,0.0373243211746216,0.0748714914321902,1.3645962811308372
9.521818181818182,0.217519322490692,0.0588794969558716,0.0772665109634402,1.3645962811308372
9.522424242424243,0.198359166240692,-0.0800316358566284,0.19941250705719,1.3645962811308372
9.523030303030303,0.210334263896942,-0.017761128044128403,0.18504238986969,1.3645962811308372
9.523636363636363,0.0307077990531921,0.008584086799621589,0.15151211643219,1.3645962811308372
9.524242424242424,-0.16807882204055802,0.181025493049622,-0.00655917263030984,1.3645962811308372
9.524848484848484,0.17201395139694198,0.16426035633087202,-0.07122469997405981,1.3645962811308372
9.525454545454545,-0.0579079236030579,-0.0824266553878784,0.0173910226821902,1.3645962811308372
9.526060606060607,0.0307077990531921,0.030139262580871597,-0.13110018825531,1.3645962811308372
9.526666666666667,-0.00761251344680788,0.0205591844558716,0.25210293674469,1.3645962811308372
9.527272727272727,0.07381815061569211,-0.00818104991912841,0.20420254611969,1.3645962811308372
9.527878787878787,-0.0603029431343079,0.23850596179962202,0.0796615304946902,1.3645962811308372
9.528484848484847,-0.148918665790558,-0.101586811637878,0.0389461984634402,1.3645962811308372
9.52909090909091,0.104953404521942,-0.276423237419128,-0.0233243093490598,1.3645962811308372
9.52969696969697,0.227099400615692,-0.041711323356628395,-0.18379061794281001,1.3645962811308372
9.530303030303031,0.054657994365692096,0.113964946174622,0.0509212961196902,1.3645962811308372
9.530909090909091,-0.18244893922805802,0.030139262580871597,0.0485262765884402,1.3645962811308372
9.531515151515151,0.0570530138969421,-0.14948720226287798,-0.18858065700531002,1.3645962811308372
9.532121212121211,-0.0483278454780579,-0.0393163038253784,0.10840176486969,1.3645962811308372
9.532727272727271,-0.18244893922805802,0.0780396532058716,0.09882168674469019,1.3645962811308372
9.533333333333333,-0.215979212665558,-0.0249461866378784,0.19462246799469,1.3645962811308372
9.533939393939395,0.047472935771942094,-0.0345262647628784,0.20899258518219,1.3645962811308372
9.534545454545455,0.0618430529594421,0.130730082893372,0.14432705783844,1.3645962811308372
9.535151515151515,-0.175263880634308,-0.173437397575378,0.00781094455719016,1.3645962811308372
9.535757575757575,-0.11538839235305799,-0.183017475700378,-0.11194003200531,1.3645962811308372
9.536363636363635,0.0019675646781921203,0.106779887580872,-0.10954501247406,1.3645962811308372
9.536969696969697,0.169618931865692,0.0349293016433716,0.10121670627594,1.3645962811308372
9.537575757575759,-0.0124025525093079,-0.00818104991912841,0.19462246799469,1.3645962811308372
9.538181818181819,-0.127363490009308,-0.0680565382003784,0.12995694065094,1.3645962811308372
9.538787878787879,0.054657994365692096,-0.103981831169128,0.0940316476821902,1.3645962811308372
9.539393939393939,0.13608865842819198,-0.0105760694503784,-0.07122469997405981,1.3645962811308372
9.54,0.114533482646942,-0.19978261241912798,-0.34186190700531,1.3645962811308372
9.540606060606061,0.0378928576469421,-0.23091786632537797,-0.24845614528656002,1.3645962811308372
9.541212121212121,0.0115476428031921,-0.197387592887878,0.00302090549469016,1.3645962811308372
9.541818181818183,0.14566873655319199,-0.120746967887878,-0.14547030544281,1.3645962811308372
9.542424242424243,0.054657994365692096,-0.0153661085128784,-0.12391512966156,1.3645962811308372
9.543030303030303,-0.0124025525093079,0.0852247117996216,0.0197860422134402,1.3645962811308372
9.543636363636363,-0.0124025525093079,0.106779887580872,0.14672207736969,1.3645962811308372
9.544242424242423,0.13608865842819198,-0.0560814405441284,0.17546231174468999,1.3645962811308372
9.544848484848485,0.0354978381156921,-0.101586811637878,0.11319180393219,1.3645962811308372
9.545454545454547,-0.0674880017280579,-0.115956928825378,0.22096768283844,1.3645962811308372
9.546060606060607,-0.156103724384308,0.185815532112122,0.0676864328384402,1.3645962811308372
9.546666666666667,-0.254299525165558,0.14031016101837201,-0.0185342702865598,1.3645962811308372
9.547272727272727,0.00436258420944212,0.0588794969558716,-0.016139250755309798,1.3645962811308372
9.547878787878787,0.09058328733444211,-0.113561909294128,-0.11912509059906,1.3645962811308372
9.548484848484849,0.08818826780319211,-0.202177631950378,0.10840176486969,1.3645962811308372
9.549090909090909,-0.127363490009308,0.0732496141433716,-0.0137442312240598,1.3645962811308372
9.54969696969697,-0.036352747821807904,0.19300059070587203,-0.11194003200531,1.3645962811308372
9.55030303030303,0.0283127795219421,0.0780396532058716,0.0676864328384402,1.3645962811308372
9.55090909090909,-0.0722780407905579,-0.14948720226287798,0.24012783908844,1.3645962811308372
9.55151515151515,-0.0267726696968079,-0.027341206169128402,-0.0688296804428098,1.3645962811308372
9.552121212121211,-0.139338587665558,-0.0872166944503784,-0.0855948171615598,1.3645962811308372
9.552727272727273,-0.165683802509308,-0.0704515577316284,0.21857266330719,1.3645962811308372
9.553333333333335,-0.021982630634307897,-0.0369212842941284,0.0700814523696902,1.3645962811308372
9.553939393939395,0.0283127795219421,0.111569926643372,0.012600983619690202,1.3645962811308372
9.554545454545455,-0.09622823610305789,-0.0345262647628784,-0.061644621849059805,1.3645962811308372
9.555151515151515,-0.0124025525093079,-0.173437397575378,0.17067227268218998,1.3645962811308372
9.555757575757575,0.09058328733444211,-0.0776366163253784,-0.23408602809906,1.3645962811308372
9.556363636363637,-0.036352747821807904,-0.029736225700378403,-0.0951748952865598,1.3645962811308372
9.556969696969697,0.116928502178192,0.027744243049621597,0.058106354713440195,1.3645962811308372
9.557575757575759,0.183989049053192,-0.0920067335128784,-0.0472745046615598,1.3645962811308372
9.558181818181819,-0.041142786884307905,-0.15906728038787799,0.11319180393219,1.3645962811308372
9.558787878787879,0.0450779162406921,-0.101586811637878,0.060501374244690195,1.3645962811308372
9.559393939393939,-0.0483278454780579,-0.00339101085662841,0.34550869846344,1.3645962811308372
9.559999999999999,-0.0770680798530579,-0.24049794445037798,-0.0376944265365598,1.3645962811308372
9.56060606060606,-0.206399134540558,-0.0920067335128784,-0.0257193288803098,1.3645962811308372
9.561212121212122,-0.0507228650093079,-0.101586811637878,0.14432705783844,1.3645962811308372
9.561818181818182,0.217519322490692,-0.0704515577316284,0.0628963937759402,1.3645962811308372
9.562424242424242,-0.11299337282180799,-0.0584764600753784,0.00541592502594016,1.3645962811308372
9.563030303030303,-0.024377650165557898,-0.0680565382003784,0.10121670627594,1.3645962811308372
9.563636363636363,0.08818826780319211,-0.106376850700378,0.0485262765884402,1.3645962811308372
9.564242424242424,-0.0674880017280579,0.0205591844558716,0.00541592502594016,1.3645962811308372
9.564848484848484,0.0714231310844421,0.0804346727371216,0.23773281955719,1.3645962811308372
9.565454545454546,0.07860818967819211,0.0397193407058716,0.27126309299469,1.3645962811308372
9.566060606060606,0.0402878771781921,-0.0680565382003784,-0.11433505153656,1.3645962811308372
9.566666666666666,0.0570530138969421,-0.0944017530441284,-0.032904387474059806,1.3645962811308372
9.567272727272726,-0.0818581189155579,0.116359965705872,0.18264737033844,1.3645962811308372
9.567878787878788,0.102558384990692,-0.0728465772628784,-0.030509367942809798,1.3645962811308372
9.568484848484848,0.0450779162406921,0.0804346727371216,0.29521328830719,1.3645962811308372
9.56909090909091,-0.0746730603218079,-0.00339101085662841,0.00781094455719016,1.3645962811308372
9.56969696969697,-0.0603029431343079,-0.17583241710662798,-0.0448794851303098,1.3645962811308372
9.57030303030303,0.0426828967094421,-0.13511708507537798,0.5538753976821901,1.3645962811308372
9.57090909090909,-0.0267726696968079,0.042114360237121604,0.62093594455719,1.3645962811308372
9.57151515151515,-0.024377650165557898,-0.0225511671066284,0.11319180393219,1.3645962811308372
9.572121212121212,0.143273717021942,-0.161462299919128,-0.11673007106781,1.3645962811308372
9.572727272727272,-0.038747767353057905,0.0708545946121216,-0.0185342702865598,1.3645962811308372
9.573333333333334,0.07621317014694211,-0.005786030387878409,-0.10714999294281,1.3645962811308372
9.573939393939394,0.100163365459442,-0.0009959913253784099,0.14672207736969,1.3645962811308372
9.574545454545454,-0.132153529071808,0.121150004768372,0.34550869846344,1.3645962811308372
9.575151515151514,-0.00761251344680788,-0.017761128044128403,-0.0951748952865598,1.3645962811308372
9.575757575757576,0.0426828967094421,-0.0393163038253784,0.21378262424469,1.3645962811308372
9.576363636363636,0.0977683459281921,0.13312510242462203,0.22815274143219,1.3645962811308372
9.576969696969698,0.107348424053192,-0.0632664991378784,-0.0281143484115598,1.3645962811308372
9.577575757575758,-0.151313685321808,0.0588794969558716,0.12516690158844,1.3645962811308372
9.578181818181818,-0.033957728290557904,0.0325342821121216,0.12037686252594,1.3645962811308372
9.578787878787878,-0.0674880017280579,-0.0728465772628784,0.13474697971344,1.3645962811308372
9.579393939393938,-0.043537806415557906,-0.125537006950378,0.0820565500259402,1.3645962811308372
9.58,0.021127720928192102,-0.125537006950378,0.0628963937759402,1.3645962811308372
9.580606060606062,-0.10101827516555799,0.0684595750808716,-0.17181552028656,1.3645962811308372
9.581212121212122,-0.0866481579780579,-0.029736225700378403,-0.11433505153656,1.3645962811308372
9.581818181818182,0.0402878771781921,0.0373243211746216,0.0485262765884402,1.3645962811308372
9.582424242424242,-0.127363490009308,-0.24528798351287798,-0.0855948171615598,1.3645962811308372
9.583030303030302,-0.10580831422805799,0.00139902820587159,-0.20774081325531,1.3645962811308372
9.583636363636364,0.00436258420944212,0.0157691453933716,0.0317611398696902,1.3645962811308372
9.584242424242424,0.133693638896942,-0.0608714796066284,0.17306729221344,1.3645962811308372
9.584848484848486,0.0450779162406921,-0.0201561475753784,0.15630215549469,1.3645962811308372
9.585454545454546,-0.09862325563430789,0.0876197313308716,-0.011349211692809799,1.3645962811308372
9.586060606060606,-0.09143819704055789,0.0828296922683716,-0.13349520778656,1.3645962811308372
9.586666666666666,-0.0267726696968079,0.00618906726837159,0.0628963937759402,1.3645962811308372
9.587272727272726,-0.0698830212593079,0.0708545946121216,0.28802822971344,1.3645962811308372
9.587878787878788,-0.0866481579780579,-0.0991917921066284,0.0437362375259402,1.3645962811308372
9.58848484848485,0.301345006084442,-0.0656615186691284,0.00781094455719016,1.3645962811308372
9.58909090909091,0.23188943967819198,-0.0967967725753784,0.26886807346344,1.3645962811308372
9.58969696969697,-0.0866481579780579,0.21934580554962202,-0.00895419216155984,1.3645962811308372
9.59030303030303,-0.268669642353058,-0.00818104991912841,-0.16942050075531,1.3645962811308372
9.59090909090909,0.14087869749069198,-0.123141987419128,0.18743740940094,1.3645962811308372
9.591515151515152,0.0666330920219421,0.101989848518372,0.058106354713440195,1.3645962811308372
9.592121212121212,0.0259177599906921,-0.041711323356628395,-0.0233243093490598,1.3645962811308372
9.592727272727274,0.0426828967094421,0.0205591844558716,0.30000332736969,1.3645962811308372
9.593333333333334,-0.18723897829055802,0.0924097703933716,0.16109219455719,1.3645962811308372
9.593939393939394,-0.010007532978057902,0.0684595750808716,0.0317611398696902,1.3645962811308372
9.594545454545454,0.054657994365692096,0.106779887580872,-0.0281143484115598,1.3645962811308372
9.595151515151514,-0.148918665790558,-0.0896117139816284,-0.14547030544281,1.3645962811308372
9.595757575757576,-0.021982630634307897,-0.15906728038787799,0.0700814523696902,1.3645962811308372
9.596363636363638,0.052262974834442096,-0.0560814405441284,-0.0664346609115598,1.3645962811308372
9.596969696969698,0.0354978381156921,-0.0345262647628784,-0.0640396413803098,1.3645962811308372
9.597575757575758,-0.09143819704055789,0.0876197313308716,0.058106354713440195,1.3645962811308372
9.598181818181818,-0.0626979626655579,-0.0872166944503784,0.0437362375259402,1.3645962811308372
9.598787878787878,0.19117410764694198,0.008584086799621589,0.0197860422134402,1.3645962811308372
9.59939393939394,-0.220769251728058,0.044509379768371604,-0.16702548122406,1.3645962811308372
9.6,-0.256694544696808,0.042114360237121604,0.13953701877594,1.3645962811308372
9.600606060606061,-0.244719447040558,0.044509379768371604,-0.26282626247406,1.3645962811308372
9.601212121212122,-0.24232442750930802,-0.15906728038787799,-0.056854582786559804,1.3645962811308372
9.601818181818182,-0.0603029431343079,-0.0991917921066284,-0.15026034450531,1.3645962811308372
9.602424242424242,-0.014797572040557901,-0.300373432731628,-0.0975699148178098,1.3645962811308372
9.603030303030302,-0.127363490009308,-0.300373432731628,0.058106354713440195,1.3645962811308372
9.603636363636365,-0.127363490009308,0.0157691453933716,-0.32988680934906,1.3645962811308372
9.604242424242424,0.0450779162406921,-0.0848216749191284,0.0796615304946902,1.3645962811308372
9.604848484848485,0.0283127795219421,-0.115956928825378,0.12995694065094,1.3645962811308372
9.605454545454545,-0.141733607196808,0.20976572742462202,0.0173910226821902,1.3645962811308372
9.606060606060606,-0.0722780407905579,-0.0249461866378784,0.11558682346344,1.3645962811308372
9.606666666666667,0.00675760374069212,-0.0920067335128784,0.0940316476821902,1.3645962811308372
9.607272727272727,-0.09383321657180789,0.111569926643372,0.0652914133071902,1.3645962811308372
9.60787878787879,-0.0267726696968079,-0.0249461866378784,-0.00655917263030984,1.3645962811308372
9.60848484848485,0.100163365459442,-0.0896117139816284,0.0748714914321902,1.3645962811308372
9.60909090909091,-0.00761251344680788,-0.0584764600753784,0.16588223361969,1.3645962811308372
9.60969696969697,-0.09383321657180789,-0.0249461866378784,0.00302090549469016,1.3645962811308372
9.61030303030303,0.054657994365692096,0.190605571174622,0.0916366281509402,1.3645962811308372
9.610909090909091,0.306135045146942,0.044509379768371604,0.0772665109634402,1.3645962811308372
9.611515151515153,-0.024377650165557898,-0.173437397575378,0.17785733127594,1.3645962811308372
9.612121212121213,-0.357285365009308,-0.0680565382003784,-0.059249602317809805,1.3645962811308372
9.612727272727273,-0.0507228650093079,-0.276423237419128,0.15869717502594,1.3645962811308372
9.613333333333333,-0.122573450946808,-0.0345262647628784,0.0317611398696902,1.3645962811308372
9.613939393939393,-0.18723897829055802,0.0157691453933716,0.0724764719009402,1.3645962811308372
9.614545454545455,0.07381815061569211,-0.16625233898162797,0.12277188205719,1.3645962811308372
9.615151515151515,0.102558384990692,-0.017761128044128403,0.09882168674469019,1.3645962811308372
9.615757575757577,-0.010007532978057902,-0.0608714796066284,0.33113858127594,1.3645962811308372
9.616363636363637,-0.036352747821807904,-0.0896117139816284,0.0844515695571902,1.3645962811308372
9.616969696969697,0.116928502178192,0.0325342821121216,0.12756192111969,1.3645962811308372
9.617575757575757,0.227099400615692,0.030139262580871597,0.23294278049469,1.3645962811308372
9.618181818181817,-0.10820333375930799,0.008584086799621589,-0.0640396413803098,1.3645962811308372
9.618787878787879,-0.0722780407905579,0.101989848518372,0.00302090549469016,1.3645962811308372
9.61939393939394,-0.0507228650093079,-0.120746967887878,0.22575772190094,1.3645962811308372
9.620000000000001,0.18638406858444198,0.0995948289871216,0.0509212961196902,1.3645962811308372
9.620606060606061,0.102558384990692,-0.0393163038253784,0.13953701877594,1.3645962811308372
9.621212121212121,-0.136943568134308,-0.319533588981628,0.10121670627594,1.3645962811308372
9.621818181818181,-0.0866481579780579,-0.0153661085128784,-0.054459563255309804,1.3645962811308372
9.622424242424241,-0.10820333375930799,0.0612745164871216,0.0652914133071902,1.3645962811308372
9.623030303030303,0.224704381084442,0.16905039539337202,0.26407803440094,1.3645962811308372
9.623636363636365,0.157643834209442,-0.0632664991378784,-0.16463046169281,1.3645962811308372
9.624242424242425,-0.0459328259468079,0.0373243211746216,-0.054459563255309804,1.3645962811308372
9.624848484848485,-0.0555129040718079,0.0588794969558716,0.20899258518219,1.3645962811308372
9.625454545454545,0.12171854124069201,-0.046501362419128396,0.22336270236969,1.3645962811308372
9.626060606060605,0.0115476428031921,0.0612745164871216,0.26886807346344,1.3645962811308372
9.626666666666667,0.07381815061569211,-0.0369212842941284,-0.07840975856780981,1.3645962811308372
9.627272727272727,0.0426828967094421,0.00618906726837159,-0.011349211692809799,1.3645962811308372
9.627878787878789,-0.0052174939155578805,0.00139902820587159,0.0892416086196902,1.3645962811308372
9.628484848484849,0.0953733263969421,0.00618906726837159,0.12516690158844,1.3645962811308372
9.629090909090909,0.07381815061569211,-0.029736225700378403,-0.035299407005309806,1.3645962811308372
9.629696969696969,0.179199009990692,-0.108771870231628,-0.13110018825531,1.3645962811308372
9.630303030303029,0.346850377178192,0.39657725086212203,-0.30354159450531,1.3645962811308372
9.63090909090909,0.243864537334442,0.13312510242462203,0.55866543674469,1.3645962811308372
9.631515151515153,-1.65538595094681,-0.8655980421066279,0.8867831125259401,1.3645962811308372
9.632121212121213,-0.5225417126655579,-0.029736225700378403,-0.40652743434906,1.3645962811308372
9.632727272727273,1.96588358030319,0.580993754768372,-0.056854582786559804,1.3645962811308372
9.633333333333333,0.8545945178031921,2.45150400867462,-1.3214248952865602,1.3645962811308372
9.633939393939393,-0.201609095478058,-1.1386302686691299,-0.26043124294281,1.3645962811308372
9.634545454545455,-2.1032546032905604,-2.28584462413788,-0.08080477809905981,1.3645962811308372
9.635151515151515,-1.87093770875931,-1.73499013195038,1.52385830783844,1.3645962811308372
9.635757575757577,1.64016092405319,2.29343271961212,1.24603604221344,1.3645962811308372
9.636363636363637,3.1729734240531897,4.80580820789337,-1.17053866481781,1.3645962811308372
9.636969696969697,1.89163797483444,-1.5409935499191298,-1.72857821559906,1.3645962811308372
9.637575757575757,-1.90925802125931,-2.8630443311691303,0.0700814523696902,1.3645962811308372
9.638181818181817,-5.19282979860306,-3.63903065929413,1.25082608127594,1.3645962811308372
9.638787878787879,-2.01703390016556,2.36528330554962,0.28084317111969,1.3645962811308372
9.639393939393939,4.97163309202194,4.73395762195587,-0.15265536403656,1.3645962811308372
9.64,5.14407449827194,2.69579600086212,-1.41483065700531,1.3645962811308372
9.64060606060606,-0.6015773571968079,-3.81626210460663,-1.5393716726303102,1.3645962811308372
9.64121212121212,-4.4192384900093105,-5.67000722179413,0.010205964088440201,1.3645962811308372
9.64181818181818,-5.33413595094681,-1.46914296398163,2.54653164768219,1.3645962811308372
9.64242424242424,1.16594705686569,6.3003003953933705,0.37185391330719,1.3645962811308372
9.643030303030303,6.22901834592819,6.71224375476837,-1.45794100856781,1.3645962811308372
9.643636363636364,3.28793436155319,-3.63903065929413,-2.05190585231781,1.3645962811308372
9.644242424242425,-1.25302266969681,-6.94655263195038,-1.09389803981781,1.3645962811308372
9.644848484848485,-7.72436544313431,-3.55759999523163,1.3130965890884398,1.3645962811308372
9.645454545454545,-4.48869405641556,4.19747324695587,2.83632901096344,1.3645962811308372
9.646060606060606,6.25536356077194,9.36113535633087,-1.02204745388031,1.3645962811308372
9.646666666666668,7.40736795530319,1.34740000476837,-2.73209139919281,1.3645962811308372
9.647272727272727,0.480971470928192,-8.469785053825381,-2.6410806570053103,1.3645962811308372
9.647878787878788,-6.05743184938431,-7.7369090772628795,1.21250576877594,1.3645962811308372
9.648484848484848,-8.92666524782181,0.478007914924622,3.69374600315094,1.3645962811308372
9.649090909090908,2.9837668810844398,10.7239014696121,3.06864590549469,1.3645962811308372
9.64969696969697,9.97243387327194,7.504995219612121,-3.12966464138031,1.3645962811308372
9.65030303030303,3.3525998888969397,-5.4688255811691295,-5.46241366481781,1.3645962811308372
9.650909090909092,-3.3366896618843103,-11.9377733350754,-1.17053866481781,1.3645962811308372
9.651515151515152,-8.598547572040559,-2.7432933546066303,2.57048184299469,1.3645962811308372
9.652121212121212,-3.68875753297806,7.02838633289337,5.97619961643219,1.3645962811308372
9.652727272727272,6.26973367795944,12.2782691453934,-0.97654208278656,1.3645962811308372
9.653333333333332,8.10431863889694,-0.927868549919128,-4.28406405544281,1.3645962811308372
9.653939393939394,0.727658482646942,-9.533173725700381,-5.26362704372406,1.3645962811308372
9.654545454545456,-5.00362325563431,-8.845803120231631,2.11303311252594,1.3645962811308372
9.655151515151516,-10.4498976696968,3.1771949266433697,5.59539151096344,1.3645962811308372
9.655757575757576,1.20187234983444,13.5404444383621,1.76336026096344,1.3645962811308372
9.656363636363636,11.0909079943657,4.48248057117462,-3.35000643825531,1.3645962811308372
9.656969696969696,4.33695291624069,-5.97177968273163,-4.09485751247406,1.3645962811308372
9.657575757575758,-2.94630147829056,-12.2179906202316,-1.30944979763031,1.3645962811308372
9.658181818181818,-10.9839870251656,-1.40926747570038,2.28068447971344,1.3645962811308372
9.65878787878788,-3.83485372438431,7.8307178758621205,5.32475430393219,1.3645962811308372
9.65939393939394,9.843102818584441,11.5166529344559,-1.92257479763031,1.3645962811308372
9.66,8.13545389280319,-0.853622944450378,-3.57513827419281,1.3645962811308372
9.66060606060606,-1.47096944704056,-9.145180561637881,-2.12615145778656,1.3645962811308372
9.66121212121212,-7.0537599743843105,-10.8624095655441,1.13107510471344,1.3645962811308372
9.661818181818182,-9.50146993532181,3.24904551258087,5.20260830783844,1.3645962811308372
9.662424242424242,3.3382297717094396,13.933227641487099,1.71306485080719,1.3645962811308372
9.663030303030304,9.843102818584441,5.73268076648712,-3.8218252859115602,1.3645962811308372
9.663636363636364,4.63633035764694,-6.086740620231629,-3.3428213796615602,1.3645962811308372
9.664242424242424,-2.57986349000931,-13.7244579053879,-1.45794100856781,1.3645962811308372
9.664848484848484,-12.3611232556343,-1.2679613233566298,2.38127530002594,1.3645962811308372
9.665454545454544,-3.99052999391556,9.035412700080869,4.49847256565094,1.3645962811308372
9.666060606060606,10.2574411974907,11.3897168992996,-0.0640396413803098,1.3645962811308372
9.666666666666668,9.138967076396941,-1.26556630382538,-4.72474764919281,1.3645962811308372
9.667272727272728,-0.649477747821808,-9.839736225700381,-3.84817050075531,1.3645962811308372
9.667878787878788,-9.61403585329056,-9.272116596794131,2.28068447971344,1.3645962811308372
9.668484848484848,-10.3924172009468,3.8190601610183696,4.91760098361969,1.3645962811308372
9.669090909090908,5.10575418577194,11.5861085008621,0.92510342502594,1.3645962811308372
9.66969696969697,11.7423533068657,7.57445078601837,-2.60036532497406,1.3645962811308372
9.67030303030303,4.29144754514694,-5.978964741325379,-3.83619540309906,1.3645962811308372
9.670909090909092,-5.8562502087593105,-14.1914867139816,-1.59685214138031,1.3645962811308372
9.671515151515152,-11.7192580212593,-3.11212636241913,3.32251797580719,1.3645962811308372
9.672121212121212,-2.1727101696968103,9.22461924304962,4.81940518283844,1.3645962811308372
9.672727272727272,9.064721470928191,12.7668531297684,-0.032904387474059806,1.3645962811308372
9.673333333333332,8.82042947874069,-0.580590717887878,-5.87435702419281,1.3645962811308372
9.673939393939394,-0.491406458759308,-10.0768431592941,-3.83380038356781,1.3645962811308372
9.674545454545456,-9.38171895875931,-11.1905272413254,2.54174160861969,1.3645962811308372
9.675151515151516,-10.5959938611031,3.41430186023712,4.31166104221344,1.3645962811308372
9.675757575757576,4.6746506701469395,13.3560279344559,1.66516446018219,1.3645962811308372
9.676363636363636,13.095539342021901,7.44751475086212,-2.70814120388031,1.3645962811308372
9.676969696969696,4.2627073107719395,-7.0255882764816295,-5.16303622341156,1.3645962811308372
9.677575757575758,-6.65618673219681,-13.5615965772629,0.57782559299469,1.3645962811308372
9.678181818181818,-12.4401589001656,-3.13368153820038,3.85181729221344,1.3645962811308372
9.67878787878788,-2.59423360719681,9.44496103992462,3.1500765695571897,1.3645962811308372
9.67939393939394,11.8022287951469,11.3490015672684,-0.8615811452865599,1.3645962811308372
9.68,9.821547642803191,0.197790629768372,-5.38816805934906,1.3645962811308372
9.68060606060606,-2.60381368532181,-8.955974018669131,-2.6841910085678102,1.3645962811308372
9.68121212121212,-10.5888088025093,-11.942563374137901,2.87704434299469,1.3645962811308372
9.681818181818182,-8.63926290407181,1.88627939929962,4.17274990940094,1.3645962811308372
9.682424242424242,4.75608133420944,13.3512378953934,0.7311068429946901,1.3645962811308372
9.683030303030304,12.391403599834401,8.93242686023712,-3.40509188747406,1.3645962811308372
9.683636363636364,4.72973611936569,-5.840053608512879,-5.16303622341156,1.3645962811308372
9.684242424242424,-6.19873800172806,-15.0345335889816,0.6688363351821901,1.3645962811308372
9.684848484848484,-13.4556471814156,-4.66649403820038,3.26024746799469,1.3645962811308372
9.685454545454544,-3.3845900525093104,11.3466065477371,3.28180264377594,1.3645962811308372
9.686060606060606,12.4536741076469,11.6531690477371,0.41496426486969,1.3645962811308372
9.686666666666667,10.302946568584401,-0.719501850700378,-5.34266268825531,1.3645962811308372
9.687272727272727,-1.89488790407181,-9.34875722179413,-3.54160800075531,1.3645962811308372
9.687878787878788,-12.1527565564156,-10.4408861280441,3.10936123752594,1.3645962811308372
9.688484848484848,-9.30507833375931,2.2024219774246196,4.80743008518219,1.3645962811308372
9.68909090909091,6.09968729124069,12.709372661018401,-0.49753817653656,1.3645962811308372
9.689696969696971,13.9385862170219,7.684621684455871,-3.14403475856781,1.3645962811308372
9.690303030303031,3.97290994749069,-4.14198476085663,-3.16079989528656,1.3645962811308372
9.690909090909091,-8.39497091188431,-12.838300678825401,0.41735928440094,1.3645962811308372
9.691515151515151,-12.7251662243843,-7.56207265148163,2.35014004611969,1.3645962811308372
9.692121212121211,-1.79429708375931,9.93115000476837,3.49495938205719,1.3645962811308372
9.692727272727273,11.5220115099907,12.8195435594559,0.87720303440094,1.3645962811308372
9.693333333333333,11.0382175646782,0.580993754768372,-4.70079745388031,1.3645962811308372
9.693939393939395,-1.20033224000931,-9.578679096794131,-3.69488925075531,1.3645962811308372
9.694545454545455,-12.763486536884301,-11.9281932569504,2.17530362033844,1.3645962811308372
9.695151515151515,-9.95173360719681,1.61803721179962,3.52130459690094,1.3645962811308372
9.695757575757575,5.67097879514694,14.134409282112099,1.01611416721344,1.3645962811308372
9.696363636363635,13.9553513537407,8.19476084461212,-2.01837557888031,1.3645962811308372
9.696969696969697,5.51051248655319,-5.06646229991913,-4.71756259059906,1.3645962811308372
9.697575757575759,-9.43919942750931,-12.1653001905441,-0.9885171804428099,1.3645962811308372
9.69818181818182,-13.8508254040718,-6.96810780773163,3.23629727268219,1.3645962811308372
9.69878787878788,-0.7261183728218079,9.559921977424619,3.53567471408844,1.3645962811308372
9.69939393939394,11.9435349474907,11.3825318407059,0.060501374244690195,1.3645962811308372
9.7,11.5603318224907,1.1270582078933702,-3.03865389919281,1.3645962811308372
9.700606060606061,-2.5918385876655603,-8.13687733898163,-3.50328768825531,1.3645962811308372
9.701212121212121,-13.9705763806343,-12.146140034294099,1.32507168674469,1.3645962811308372
9.701818181818183,-8.05966817750931,0.489983012580872,3.34407315158844,1.3645962811308372
9.702424242424243,5.74282938108444,13.2266968797684,0.74308194065094,1.3645962811308372
9.703030303030303,13.155414830303199,8.302536723518369,-1.73097323513031,1.3645962811308372
9.703636363636363,5.97514627561569,-3.28456776866913,-4.57386141872406,1.3645962811308372
9.704242424242423,-8.90990011110306,-13.7364330030441,-0.97175204372406,1.3645962811308372
9.704848484848485,-14.7441676892281,-7.763254292106629,2.22080899143219,1.3645962811308372
9.705454545454545,-1.04944600954056,9.08570811023712,3.08541104221344,1.3645962811308372
9.706060606060607,11.9962253771782,12.1489380907059,1.85676602268219,1.3645962811308372
9.706666666666667,12.309972935771901,2.76764658679962,-2.93806307888031,1.3645962811308372
9.707272727272727,-2.7379347790718103,-9.818181049919131,-3.63980380153656,1.3645962811308372
9.707878787878787,-15.0914455212593,-10.7785838819504,0.92270840549469,1.3645962811308372
9.708484848484847,-8.210554407978059,1.77610850086212,2.93212979221344,1.3645962811308372
9.709090909090909,6.8373533068656895,11.6387989305496,1.44242764377594,1.3645962811308372
9.70969696969697,14.4630954943657,7.22238291492462,-2.76801669216156,1.3645962811308372
9.71030303030303,4.5620847521781895,-1.84755604991913,-4.20502841091156,1.3645962811308372
9.710909090909091,-9.55895040407181,-11.6383958936691,1.20292569065094,1.3645962811308372
9.711515151515151,-13.5203127087593,-8.12969228038788,2.18488369846344,1.3645962811308372
9.712121212121211,-0.299804896259308,5.69915049304962,2.60161709690094,1.3645962811308372
9.712727272727273,11.074142857646901,12.6614722703934,-0.47837802028656,1.3645962811308372
9.713333333333333,12.2764426623344,4.48966562976837,-3.30450106716156,1.3645962811308372
9.713939393939395,-2.4625075329780604,-9.92595692882538,-1.1801187429428102,1.3645962811308372
9.714545454545455,-14.3298293103218,-11.080356342887901,-0.0975699148178098,1.3645962811308372
9.715151515151515,-9.101501673603059,0.6696094774246221,1.96454190158844,1.3645962811308372
9.715757575757575,6.403854771709439,11.408877055549599,3.16923672580719,1.3645962811308372
9.716363636363635,14.6187717638969,8.623469340705869,-3.34521639919281,1.3645962811308372
9.716969696969697,5.03629861936569,-3.1528416944503803,-4.03737704372406,1.3645962811308372
9.717575757575759,-9.97089376344681,-10.6037474561691,0.5706405344009401,1.3645962811308372
9.718181818181819,-14.0017116345406,-7.2914354444503795,2.9872152414321897,1.3645962811308372
9.718787878787879,-0.40518575563430803,5.30157725086212,3.4662191476821897,1.3645962811308372
9.719393939393939,12.4680442248344,11.9046460985184,-3.10810946559906,1.3645962811308372
9.719999999999999,12.4345139513969,3.7496045946121197,-1.9800552663803102,1.3645962811308372
9.72060606060606,-3.5594264782905602,-7.3513109327316295,1.14544522190094,1.3645962811308372
9.72121212121212,-14.3489894665718,-10.2852098585129,-1.60882723903656,1.3645962811308372
9.721818181818183,-8.67039815797806,-2.1349583936691303,1.35620694065094,1.3645962811308372
9.722424242424243,7.44329324827194,10.6664210008621,3.46861416721344,1.3645962811308372
9.723030303030303,13.9146360217094,9.73715342273712,-4.71277255153656,1.3645962811308372
9.723636363636363,5.00276834592819,-1.97449208507538,-2.83986727809906,1.3645962811308372
9.724242424242423,-9.47033468141556,-10.2852098585129,0.99695401096344,1.3645962811308372
9.724848484848485,-13.4987575329781,-9.47808827648163,2.29265957736969,1.3645962811308372
9.725454545454545,-0.917719935321808,5.49796885242462,3.37520840549469,1.3645962811308372
9.726060606060607,12.0201755724907,13.1165259813309,-2.3249380788803102,1.3645962811308372
9.726666666666667,12.5806101428032,3.08378916492462,-1.79084872341156,1.3645962811308372
9.727272727272727,-3.6025368298530602,-7.42076649913788,-1.91538973903656,1.3645962811308372
9.727878787878787,-15.2303566540718,-9.854106342887881,0.27844815158844,1.3645962811308372
9.728484848484847,-8.330305384540559,-0.810512592887878,2.7477132883071897,1.3645962811308372
9.729090909090909,7.68040018186569,8.90608164539337,0.16827725315094,1.3645962811308372
9.72969696969697,14.2523337756157,7.212802836799621,-3.14403475856781,1.3645962811308372
9.73030303030303,4.91175760374069,0.873186137580872,-0.6460293874740599,1.3645962811308372
9.73090909090909,-10.8307057751656,-9.765490620231631,-0.8448160085678099,1.3645962811308372
9.731515151515152,-13.5203127087593,-9.62657948741913,2.0890829172134397,1.3645962811308372
9.732121212121212,0.440256138896942,4.48966562976837,4.75473965549469,1.3645962811308372
9.732727272727274,11.447765904521901,11.581318461799599,-4.15233798122406,1.3645962811308372
9.733333333333334,11.0980930529594,4.37470469226837,-2.18363192653656,1.3645962811308372
9.733939393939394,-2.41460714235306,-5.4688255811691295,-0.10235995388031,1.3645962811308372
9.734545454545454,-14.4783205212593,-11.6192357374191,-1.36932528591156,1.3645962811308372
9.735151515151514,-8.51232686891556,-2.55169179210663,2.95607998752594,1.3645962811308372
9.735757575757576,7.56543924436569,10.2592676805496,1.32507168674469,1.3645962811308372
9.736363636363636,14.1158176623344,7.97920908679962,-3.12966464138031,1.3645962811308372
9.736969696969698,5.27580057249069,0.29598643054962204,-1.43399081325531,1.3645962811308372
9.737575757575758,-11.3887453259468,-9.98104237804413,-1.03881259059906,1.3645962811308372
9.738181818181818,-13.7334694470406,-7.98599110851288,2.4483358469009397,1.3645962811308372
9.738787878787878,1.22342752561569,4.68605723133087,3.29138272190094,1.3645962811308372
9.739393939393938,11.7591184435844,9.27970469226837,-3.53202792263031,1.3645962811308372
9.74,11.3208298693657,5.02615000476837,-1.8052188405990601,1.3645962811308372
9.740606060606062,-3.51152608766556,-3.73962147960663,0.034156159400940196,1.3645962811308372
9.741212121212122,-15.053125208759301,-10.893544819450401,-0.50232821559906,1.3645962811308372
9.741818181818182,-7.04896993532181,-2.90854970226288,3.02074551486969,1.3645962811308372
9.742424242424242,7.57262430295944,7.78760752429962,0.80535244846344,1.3645962811308372
9.743030303030302,12.8105320178032,8.166020610237121,-3.91762606716156,1.3645962811308372
9.743636363636364,5.13688943967819,2.02519053211212,-0.34665194606781,1.3645962811308372
9.744242424242424,-10.861841029071801,-9.743935444450381,0.49878994846344,1.3645962811308372
9.744848484848486,-12.6006252087593,-9.427792866325381,0.72392178440094,1.3645962811308372
9.745454545454546,0.545636998271942,4.398654887580871,3.24587735080719,1.3645962811308372
9.746060606060606,11.0933030138969,10.0964063524246,-2.1788418874740603,1.3645962811308372
9.746666666666666,11.7734885607719,4.99980478992462,-3.06260409450531,1.3645962811308372
9.747272727272726,-3.68157247438431,-4.59464345226288,0.0197860422134402,1.3645962811308372
9.747878787878788,-15.165691126728099,-10.1558788038254,0.26168301486969,1.3645962811308372
9.748484848484848,-6.256218470478061,-2.2906346632003802,2.29505459690094,1.3645962811308372
9.74909090909091,7.53430399045944,6.415261332893371,1.38734219455719,1.3645962811308372
9.74969696969697,13.2919309435844,7.98878916492462,-4.26729891872406,1.3645962811308372
9.75030303030303,4.4686789904594395,1.9533399461746201,0.68320645236969,1.3645962811308372
9.75090909090909,-12.1359914196968,-7.94048573741913,2.02441738986969,1.3645962811308372
9.751515151515152,-12.059350794696801,-8.31171376476288,-0.00655917263030984,1.3645962811308372
9.752121212121212,1.10367654905319,1.69467783679962,1.31788662815094,1.3645962811308372
9.752727272727274,10.9184665881157,9.61500742664337,-1.95131503200531,1.3645962811308372
9.753333333333334,10.8106907092094,6.24521494617462,-2.13333651638031,1.3645962811308372
9.753939393939394,-3.5043410290718104,-3.7180663038253803,0.20180752658844,1.3645962811308372
9.754545454545454,-14.341804407978099,-10.7402635694504,0.44370449924469,1.3645962811308372
9.755151515151514,-5.71254903688431,-3.91924794445038,0.60656582736969,1.3645962811308372
9.755757575757576,6.51642068967819,6.33622568836212,1.89269131565094,1.3645962811308372
9.756363636363636,13.176970006084401,9.76349863758087,-2.27464266872406,1.3645962811308372
9.756969696969698,5.17520975217819,1.22046396961212,-0.24366610622406001,1.3645962811308372
9.757575757575758,-12.583860072040599,-7.73930409679413,0.74547696018219,1.3645962811308372
9.758181818181818,-12.112041224384301,-7.06869862804413,-0.24127108669281,1.3645962811308372
9.758787878787878,1.17073709592819,1.1102930711746202,0.77900723361969,1.3645962811308372
9.759393939393938,11.328014927959401,9.289284770393369,-1.44836093044281,1.3645962811308372
9.76,10.805900670146901,5.2225416063308705,-1.8986246023178102,1.3645962811308372
9.760606060606062,-4.65155538454056,-1.8020506788253798,0.60656582736969,1.3645962811308372
9.761212121212122,-14.313064173603099,-9.67687489757538,0.51795010471344,1.3645962811308372
9.761818181818182,-5.51376241579056,-5.919089253044129,0.86043789768219,1.3645962811308372
9.762424242424242,7.5558591662406895,5.87159189929962,1.07838467502594,1.3645962811308372
9.763030303030302,11.9100046740532,9.63656260242462,-2.53330477809906,1.3645962811308372
9.763636363636364,4.461493931865689,1.87430430164337,0.0461312570571902,1.3645962811308372
9.764242424242424,-11.2330690564156,-7.2315599561691295,0.9897689523696901,1.3645962811308372
9.764848484848486,-11.879724329853099,-8.261418354606631,-1.81719393825531,1.3645962811308372
9.765454545454546,1.24019266233444,0.552253520393372,0.74308194065094,1.3645962811308372
9.766060606060606,10.2789963732719,10.436499125862099,-1.21364901638031,1.3645962811308372
9.766666666666666,11.553146763896901,5.109975688362121,-2.30817294216156,1.3645962811308372
9.767272727272726,-4.15818136110306,-2.50618642101288,1.22448086643219,1.3645962811308372
9.767878787878788,-15.1489259900093,-8.553610737419131,1.30591153049469,1.3645962811308372
9.768484848484848,-4.87668722047806,-5.73227772960663,-0.26282626247406,1.3645962811308372
9.76909090909091,7.54388406858444,5.33989756336212,0.28323819065094,1.3645962811308372
9.76969696969697,12.4872043810844,8.89171152820587,-1.65672762966156,1.3645962811308372
9.77030303030303,3.8076535998344396,2.07548594226837,0.48441983127594,1.3645962811308372
9.770909090909091,-12.0066603650093,-5.2293236280441295,0.80056240940094,1.3645962811308372
9.77151515151515,-11.3647951306343,-8.52487050304413,-1.2064639577865601,1.3645962811308372
9.772121212121212,1.76949197874069,-0.32192860851287797,1.39931729221344,1.3645962811308372
9.772727272727273,10.2957615099907,9.39945566883087,-2.78717684841156,1.3645962811308372
9.773333333333333,10.288576451396901,5.10039561023712,-1.42920077419281,1.3645962811308372
9.773939393939393,-3.09239766969681,-0.36264394054412796,2.81477383518219,1.3645962811308372
9.774545454545455,-14.2555837048531,-10.2492845655441,0.7095516672134401,1.3645962811308372
9.775151515151515,-5.58800802125931,-6.50347401866913,-0.69153475856781,1.3645962811308372
9.775757575757577,7.12715067014694,5.91949228992462,1.1502352609634399,1.3645962811308372
9.776363636363637,12.010595494365699,9.320420024299619,-2.21237216091156,1.3645962811308372
9.776969696969697,4.38485330686569,1.8383790086746201,-0.44484774684906,1.3645962811308372
9.777575757575757,-11.8414040173531,-4.99940175304413,1.19813565158844,1.3645962811308372
9.778181818181817,-11.012727259540599,-8.29255360851288,-0.0640396413803098,1.3645962811308372
9.77878787878788,1.01506082639694,-0.0369212842941284,-0.29875155544281,1.3645962811308372
9.77939393939394,10.9352317248344,8.05105967273712,-1.17772372341156,1.3645962811308372
9.780000000000001,10.355636998271901,5.109975688362121,-1.0436026296615601,1.3645962811308372
9.780606060606061,-4.33541280641556,0.22892588367462202,2.29265957736969,1.3645962811308372
9.781212121212121,-13.752629603290599,-9.70082509288788,1.53583340549469,1.3645962811308372
9.781818181818181,-5.14253438844681,-6.199306538200379,0.26886807346344,1.3645962811308372
9.782424242424241,7.45047830686569,5.06686533679962,-0.7418301687240599,1.3645962811308372
9.783030303030303,11.1388083849907,8.27379648914337,-1.8387491140365602,1.3645962811308372
9.783636363636365,4.940497838115689,3.33287119617462,0.44130947971344,1.3645962811308372
9.784242424242425,-11.2642043103218,-4.51321278820038,-0.31791171169281,1.3645962811308372
9.784848484848485,-11.5180763806343,-9.61220937023163,0.54669033908844,1.3645962811308372
9.785454545454545,1.02943094358444,0.700744731330872,0.12756192111969,1.3645962811308372
9.786060606060605,9.96764383420944,7.38284922351837,-1.09868807888031,1.3645962811308372
9.786666666666667,10.3053415881157,5.72549570789337,-1.81000887966156,1.3645962811308372
9.787272727272727,-3.1402980603218102,-0.594960835075378,1.9118514719009398,1.3645962811308372
9.787878787878789,-14.5310109509468,-8.60869618663788,1.58373379611969,1.3645962811308372
9.788484848484849,-5.45628194704056,-5.19818837413788,0.84606778049469,1.3645962811308372
9.789090909090909,7.68519022092819,4.16154795398712,-2.19800204372406,1.3645962811308372
9.78969696969697,11.4214206896782,7.55529062976837,-1.77408358669281,1.3645962811308372
9.79030303030303,4.06392068967819,3.18917002429962,0.8963631906509401,1.3645962811308372
9.790909090909091,-10.8714211071968,-4.163539936637879,-0.061644621849059805,1.3645962811308372
9.791515151515153,-11.041467493915599,-8.97752919445038,0.7694271554946901,1.3645962811308372
9.792121212121213,1.25216775999069,0.236110942268372,0.28323819065094,1.3645962811308372
9.792727272727273,9.938903599834441,6.2404249071121205,-2.20758212184906,1.3645962811308372
9.793333333333333,9.093461705303191,6.18533945789337,-2.00400546169281,1.3645962811308372
9.793939393939393,-2.32838643922806,0.21455576648712202,2.82195889377594,1.3645962811308372
9.794545454545455,-13.2281203259468,-8.99908437023163,1.23406094455719,1.3645962811308372
9.795151515151515,-5.72931417360306,-5.77059804210663,1.29872647190094,1.3645962811308372
9.795757575757577,7.00500467405319,4.13041270008087,-1.5992471609115602,1.3645962811308372
9.796363636363637,11.1914988146782,8.45581797351837,-3.26378573513031,1.3645962811308372
9.796969696969697,4.44951883420944,2.77722666492462,1.47835293674469,1.3645962811308372
9.797575757575757,-10.9624318493843,-4.08929433116913,0.33113858127594,1.3645962811308372
9.798181818181817,-11.1276881970406,-7.4447166944503795,0.91791836643219,1.3645962811308372
9.798787878787879,1.64255594358444,-0.276423237419128,-0.79931063747406,1.3645962811308372
9.799393939393939,10.1784055529594,4.944719340705871,-2.63389559841156,1.3645962811308372
9.8,8.73899881467819,5.921887309455871,-0.8687662038803099,0.39508334420412744
9.80060606060606,-3.1115578259468104,0.7294849657058721,1.77773037815094,0.39508334420412744
9.80121212121212,-12.8736574353218,-7.9500658155441295,2.01004727268219,0.39508334420412744
9.80181818181818,-5.40838155641556,-5.8280785108566295,0.8939681711196901,0.39508334420412744
9.802424242424241,6.65293680295944,2.1329664110183697,-2.17165682888031,0.39508334420412744
9.803030303030303,10.5783738146782,7.5840308641433705,-2.27703768825531,0.39508334420412744
9.803636363636365,4.93570779905319,4.286088969612121,1.0209042062759401,0.39508334420412744
9.804242424242425,-9.743366907978059,-4.242575581169129,0.33592862033844,0.39508334420412744
9.804848484848485,-10.6247340954781,-8.25662831554413,1.10472988986969,0.39508334420412744
9.805454545454545,0.718078404521942,0.12833506336212203,-0.49993319606781,0.39508334420412744
9.806060606060605,9.220397740459441,4.705217387580871,-2.55485995388031,0.39508334420412744
9.806666666666667,9.71856180295944,6.2667701219558705,-1.4411758718490602,0.39508334420412744
9.807272727272727,-2.2062404431343103,0.19300059070587203,2.25912930393219,0.39508334420412744
9.807878787878789,-13.2975758923531,-6.936972553825379,3.07104092502594,0.39508334420412744
9.808484848484849,-5.56645284547806,-4.85330556163788,0.82451260471344,0.39508334420412744
9.809090909090909,6.3248191271781895,1.48391611804962,-3.39072177028656,0.39508334420412744
9.80969696969697,10.4107224474907,7.09784189929962,-2.60994540309906,0.39508334420412744
9.810303030303029,4.81835184202194,4.48008555164337,2.02681240940094,0.39508334420412744
9.81090909090909,-10.1768654431343,-3.1288914991378802,0.7358968820571901,0.39508334420412744
9.811515151515152,-10.248716029071801,-7.303410542106629,0.32874356174469,0.39508334420412744
9.812121212121212,0.940815220928192,-0.688366596794128,0.14193203830719,0.39508334420412744
9.812727272727273,8.63601297483444,3.2011451219558698,-3.63501376247406,0.39508334420412744
9.813333333333333,9.08148660764694,6.69068857898712,-0.83044589138031,0.39508334420412744
9.813939393939394,-1.40630391969681,0.9689869188308721,1.66276944065094,0.39508334420412744
9.814545454545456,-12.2796925915718,-7.250720112419129,3.4662191476821897,0.39508334420412744
9.815151515151516,-5.77960958375931,-4.788640034294129,1.3729720773696898,0.39508334420412744
9.815757575757576,5.04587869749069,1.60845713367462,-4.40381503200531,0.39508334420412744
9.816363636363636,10.0730246935844,7.36368906726837,-1.62798739528656,0.39508334420412744
9.816969696969696,5.72366922483444,4.43458018054962,1.03287930393219,0.39508334420412744
9.817575757575758,-9.810427454853059,-3.3157030225753803,0.7358968820571901,0.39508334420412744
9.818181818181818,-10.212790736103099,-6.850751850700379,1.1286800851821899,0.39508334420412744
9.81878787878788,0.8138791857719421,-1.00690419445038,-0.38018221950531,0.39508334420412744
9.81939393939394,8.494706822490691,3.1676148485183697,-3.57513827419281,0.39508334420412744
9.82,8.81324442014694,5.99852793445587,-0.0927798757553098,0.39508334420412744
9.82060606060606,-1.61227559938431,0.815705668830872,1.21969082736969,0.39508334420412744
9.82121212121212,-12.164731654071801,-5.87837392101288,3.33928311252594,0.39508334420412744
9.821818181818182,-5.777214564228061,-4.6904442335128795,0.20420254611969,0.39508334420412744
9.822424242424242,5.32849100217819,0.727089946174622,-4.87563387966156,0.39508334420412744
9.823030303030304,9.251532994365691,6.606862895393371,-1.0603677663803102,0.39508334420412744
9.823636363636364,5.2207151232719395,4.6573169969558705,0.9298934640884401,0.39508334420412744
9.824242424242424,-8.636867884540559,-3.0259056592941302,0.62572598361969,0.39508334420412744
9.824848484848484,-9.520630091571809,-7.6243431592941295,2.27589444065094,0.39508334420412744
9.825454545454544,0.330085240459442,-0.604540913200378,-0.93343173122406,0.39508334420412744
9.826060606060606,7.23971658811569,2.87302744617462,-3.52484286403656,0.39508334420412744
9.826666666666668,9.356913853740691,6.39131113758087,-0.0017691335678098402,0.39508334420412744
9.827272727272728,-1.12848165407181,0.7294849657058721,1.9453817453384399,0.39508334420412744
9.827878787878788,-11.9012795056343,-5.23171864757538,3.47579922580719,0.39508334420412744
9.828484848484848,-5.55926778688431,-4.39346181163788,-0.9022964773178099,0.39508334420412744
9.829090909090908,4.80398172483444,-0.290793354606628,-4.30082919216156,0.39508334420412744
9.82969696969697,9.25632303342819,7.03796641101837,-1.0100723562240599,0.39508334420412744
9.83030303030303,5.479377232646939,3.7663697313308697,1.96454190158844,0.39508334420412744
9.830909090909092,-8.576992396259309,-2.2714745069503803,0.46286465549469,0.39508334420412744
9.831515151515152,-8.90032003297806,-6.64238515148163,1.6292391672134399,0.39508334420412744
9.832121212121212,0.207939244365692,-1.61284413585663,-1.2615494070053102,0.39508334420412744
9.832727272727272,7.05051004514694,1.99405527820587,-2.69137606716156,0.39508334420412744
9.833333333333332,8.346215611553191,6.9325855516433705,0.11798184299469,0.39508334420412744
9.833939393939394,-0.7261183728218079,1.4479908250808702,0.6568612375259401,0.39508334420412744
9.834545454545456,-10.5912038220406,-5.27961903820038,3.82307705783844,0.39508334420412744
9.835151515151516,-5.17366964235306,-4.6904442335128795,-0.95738192653656,0.39508334420412744
9.835757575757576,3.9848850451469398,-0.47281483898162796,-5.23488680934906,0.39508334420412744
9.836363636363636,8.71025858030319,7.059521586799621,0.029366120338440202,0.39508334420412744
9.836969696969696,5.87455545530319,3.54602793445587,2.23996914768219,0.39508334420412744
9.837575757575758,-8.58178243532181,-2.4175706983566303,0.81732754611969,0.39508334420412744
9.838181818181818,-8.770988978290559,-5.61731679210663,1.27717129611969,0.39508334420412744
9.83878787878788,0.155248814678192,-2.60438222179413,-1.2016739187240602,0.39508334420412744
9.83939393939394,7.44089822874069,2.9879883836746197,-2.86860751247406,0.39508334420412744
9.84,7.89834695920944,6.8128345750808705,0.0820565500259402,0.39508334420412744
9.84060606060606,-0.694983118915558,0.806125590705872,1.9118514719009398,0.39508334420412744
9.84121212121212,-10.1648903454781,-4.455732319450379,3.74643643283844,0.39508334420412744
9.841818181818182,-5.38203634157181,-4.829355366325379,-1.62798739528656,0.39508334420412744
9.842424242424242,3.8411838732719397,-0.20936269054412798,-5.06963046169281,0.39508334420412744
9.843030303030304,8.31747537717819,6.19012949695587,0.35987881565094,0.39508334420412744
9.843636363636364,5.33088602170944,3.71846934070587,2.03878750705719,0.39508334420412744
9.844242424242424,-7.56389913454056,-2.3409300733566303,0.9322884836196901,0.39508334420412744
9.844848484848484,-8.16504903688431,-5.46403554210663,1.50469815158844,0.39508334420412744
9.845454545454544,-0.498591517353058,-2.91094472179413,-1.8866495046615601,0.39508334420412744
9.846060606060606,5.94880106077194,2.93529795398712,-2.99075350856781,0.39508334420412744
9.846666666666668,8.413276158428191,7.1649024461746205,0.60417080783844,0.39508334420412744
9.847272727272728,-0.6470827282905579,-0.0105760694503784,1.70348477268219,0.39508334420412744
9.847878787878788,-10.622339075946801,-3.12410146007538,2.16332852268219,0.39508334420412744
9.848484848484848,-4.82160177125931,-5.29638417491913,-1.93933993434906,0.39508334420412744
9.849090909090908,3.72382791624069,-0.638071186637878,-3.80027011013031,0.39508334420412744
9.84969696969697,8.444411412334441,6.83199473133087,0.47483975315094,0.39508334420412744
9.85030303030303,4.90457254514694,2.59041514148712,2.13937832736969,0.39508334420412744
9.850909090909092,-7.3531374157905605,-1.28233144054413,0.7502669992446901,0.39508334420412744
9.851515151515152,-8.06685323610306,-5.48319569835663,0.9730038156509401,0.39508334420412744
9.852121212121212,-0.539306849384308,-3.2055321241378802,-1.9417349538803101,0.39508334420412744
9.852727272727273,6.30565897092819,3.14366465320587,-2.42073886013031,0.39508334420412744
9.853333333333332,7.4959836779594395,6.24281992664337,0.40777920627594,0.39508334420412744
9.853939393939394,-0.479431361103058,0.616919047737122,1.14784024143219,0.39508334420412744
9.854545454545455,-9.42482931032181,-3.28696278820038,1.85437100315094,0.39508334420412744
9.855151515151515,-4.7784914196968105,-4.9562914014816295,-1.6040371999740601,0.39508334420412744
9.855757575757575,3.41008035764694,-0.338693745231628,-3.57753329372406,0.39508334420412744
9.856363636363636,8.09713358030319,6.59249277820587,0.39101406955719,0.39508334420412744
9.856969696969697,5.34525613889694,2.9017676805496198,2.01723233127594,0.39508334420412744
9.85757575757576,-7.03699483766556,-1.51225331554413,1.57894375705719,0.39508334420412744
9.85818181818182,-8.42131612672806,-4.702419331169129,0.0485262765884402,0.39508334420412744
9.85878787878788,-0.472246302509308,-3.4857494092941304,-1.93454989528656,0.39508334420412744
9.85939393939394,5.64463358030319,4.252558696174621,-1.07234286403656,0.39508334420412744
9.86,7.49119363889694,5.28481211414337,0.0892416086196902,0.39508334420412744
9.860606060606061,-0.520146693134308,0.216950786018372,0.66404629611969,0.39508334420412744
9.861212121212121,-9.22604268922806,-2.4271507764816302,2.48665615940094,0.39508334420412744
9.861818181818183,-4.79046651735306,-4.64733388195038,-1.72857821559906,0.39508334420412744
9.862424242424243,3.5082761584281896,-1.28233144054413,-2.13573153591156,0.39508334420412744
9.863030303030303,7.42652811155319,5.86680186023712,0.012600983619690202,0.39508334420412744
9.863636363636363,5.03629861936569,3.1340845750808697,0.7167367258071901,0.39508334420412744
9.864242424242423,-5.79158468141556,-1.31107167491913,1.63642422580719,0.39508334420412744
9.864848484848485,-8.217739466571809,-4.975451557731629,-1.16574862575531,0.39508334420412744
9.865454545454545,-0.996755579853058,-3.37797353038788,-1.61840731716156,0.39508334420412744
9.866060606060607,5.48895731077194,4.70042734851837,-0.77057040309906,0.39508334420412744
9.866666666666667,7.66363504514694,4.245373637580871,-0.0041641530990598405,0.39508334420412744
9.867272727272727,0.021127720928192102,1.02407236804962,0.8748080148696901,0.39508334420412744
9.867878787878787,-8.82128438844681,-2.50139638195038,1.19095059299469,0.39508334420412744
9.868484848484847,-5.02038839235306,-5.44487538585663,-1.35735018825531,0.39508334420412744
9.86909090909091,3.7453830920219398,-0.458444721794128,-0.45921786403656,0.39508334420412744
9.869696969696971,6.7774778185844395,5.802136332893371,0.0461312570571902,0.39508334420412744
9.870303030303031,4.78482156858444,2.81554697742462,0.92031338596344,0.39508334420412744
9.870909090909091,-5.41317159547806,-0.30276845226287796,1.4879330148696899,0.39508334420412744
9.871515151515151,-7.38187765016556,-5.50475087413788,-0.8831363210678099,0.39508334420412744
9.872121212121211,-1.49970968141556,-3.1887669874191302,-0.79452059841156,0.39508334420412744
9.872727272727273,5.18957986936569,4.61660166492462,0.29521328830719,0.39508334420412744
9.873333333333333,6.89962381467819,3.1580347703933698,-0.8639761648178099,0.39508334420412744
9.873939393939395,-0.347705286884308,0.992937114143372,0.30958340549469,0.39508334420412744
9.874545454545455,-7.39624776735306,-3.43066396007538,1.87113613986969,0.39508334420412744
9.875151515151515,-5.4969972790718105,-4.575483296012879,-1.66151766872406,0.39508334420412744
9.875757575757575,3.3861301623344398,0.0732496141433716,0.16109219455719,0.39508334420412744
9.876363636363635,6.5643210803031895,5.648855082893371,-0.61489413356781,0.39508334420412744
9.876969696969697,4.813561802959439,2.57125498523712,-0.31072665309906,0.39508334420412744
9.877575757575759,-5.2646803845405605,-0.338693745231628,0.17067227268218998,0.39508334420412744
9.878181818181819,-7.73394552125931,-5.26524892101288,-0.38257723903656,0.39508334420412744
9.878787878787879,-1.01831075563431,-2.96842519054413,-0.27959139919281,0.39508334420412744
9.879393939393939,4.9213376818656895,4.37709971179962,-0.20295077419281,0.39508334420412744
9.879999999999999,6.4110398303031895,3.6729639696121197,-0.6819546804428099,0.39508334420412744
9.88060606060606,0.270209752178192,1.21088389148712,0.58261563205719,0.39508334420412744
9.881212121212121,-6.948379115009311,-3.4857494092941304,1.42566250705719,0.39508334420412744
9.881818181818183,-5.185644740009311,-3.39713368663788,-2.13812655544281,0.39508334420412744
9.882424242424243,2.61493387327194,-0.458444721794128,0.64488613986969,0.39508334420412744
9.883030303030303,5.98233133420944,4.71958750476837,-1.0436026296615601,0.39508334420412744
9.883636363636363,4.58363992795944,2.1401514696121198,-0.5502286062240599,0.39508334420412744
9.884242424242423,-4.49108907594681,-0.28121327648162797,0.8293026437759401,0.39508334420412744
9.884848484848485,-6.28735372438431,-4.848515522575379,-0.55980868434906,0.39508334420412744
9.885454545454545,-1.52365987672806,-2.3912254835128803,-0.31551669216156,0.39508334420412744
9.886060606060607,4.6483054553031895,3.71128428211212,-0.13110018825531,0.39508334420412744
9.886666666666667,6.2984739123344395,3.50291758289337,-1.4627310476303101,0.39508334420412744
9.887272727272727,0.301345006084442,1.45038584461212,0.63770108127594,0.39508334420412744
9.887878787878787,-7.09687032594681,-3.24145741710663,1.39931729221344,0.39508334420412744
9.888484848484847,-4.75693624391556,-3.65100575695038,-0.93582675075531,0.39508334420412744
9.889090909090909,3.13465311155319,0.506748149299622,0.10840176486969,0.39508334420412744
9.88969696969697,5.3332810412406895,4.19747324695587,-0.6101040945053099,0.39508334420412744
9.89030303030303,4.03278543577194,1.81442881336212,-0.42808261013031,0.39508334420412744
9.89090909090909,-3.6959425915718103,0.06366953601837161,0.0796615304946902,0.39508334420412744
9.89151515151515,-6.2490334118843105,-4.93713124523163,1.2268758859634399,0.39508334420412744
9.89212121212121,-2.06493429079056,-1.9002464796066298,-0.22929598903656,0.39508334420412744
9.892727272727273,4.10463602170944,3.0742090867996197,-1.57769198513031,0.39508334420412744
9.893333333333333,5.92964090452194,3.35921641101837,-1.47470614528656,0.39508334420412744
9.893939393939394,0.404330845928192,1.11747812976837,0.75745205783844,0.39508334420412744
9.894545454545455,-6.13886251344681,-3.13128651866913,0.82211758518219,0.39508334420412744
9.895151515151515,-4.60844503297806,-2.9492650342941302,-1.0268374929428101,0.39508334420412744
9.895757575757576,2.7706101428031897,-0.537480366325378,1.0735946359634398,0.39508334420412744
9.896363636363635,5.46979715452194,4.0705372117996195,-1.13221835231781,0.39508334420412744
9.896969696969697,4.09026590452194,1.8120337938308702,-0.8855313405990599,0.39508334420412744
9.897575757575758,-4.34978292360306,0.0780396532058716,0.38143399143219,0.39508334420412744
9.898181818181818,-6.49811544313431,-4.436572163200379,0.6496761789321901,0.39508334420412744
9.898787878787878,-0.9249049939155579,-1.48351308116913,0.80535244846344,0.39508334420412744
9.899393939393939,4.48304910764694,2.99277842273712,-0.8256558523178099,0.11024577624285492
9.9,5.7859397326469395,2.3628882860183698,-2.34649325466156,0.11024577624285492
9.900606060606062,-0.18244893922805802,1.68270273914337,0.7526620187759401,0.11024577624285492
9.901212121212122,-5.42275167360306,-2.85825429210663,2.03160244846344,0.11024577624285492
9.901818181818182,-4.97009298219681,-3.22469228038788,0.11319180393219,0.11024577624285492
9.902424242424242,2.5047629748344398,-0.168647358512878,0.9753988351821901,0.11024577624285492
9.903030303030302,5.45542703733444,3.3903516649246197,-1.92257479763031,0.11024577624285492
9.903636363636364,4.23396707639694,1.23243906726837,-1.06994784450531,0.11024577624285492
9.904242424242424,-3.4229103650093102,0.561833598518372,-0.15984042263031,0.11024577624285492
9.904848484848486,-6.52446065797806,-3.92643300304413,0.39580410861969,0.11024577624285492
9.905454545454546,-1.56916524782181,-1.6008690382003798,1.84479092502594,0.11024577624285492
9.906060606060606,4.37287820920944,2.0108204149246203,-1.39806552028656,0.11024577624285492
9.906666666666666,5.75719949827194,3.1771949266433697,-3.05062899684906,0.11024577624285492
9.907272727272726,0.488156529521942,1.83119395008087,0.22815274143219,0.11024577624285492
9.907878787878788,-6.04545675172806,-3.0163255811691303,2.00286221408844,0.11024577624285492
9.90848484848485,-4.6587404431343105,-2.51816151866913,0.39101406955719,0.11024577624285492
9.90909090909091,2.58858865842819,-0.42251942882537796,0.18025235080719,0.11024577624285492
9.90969696969697,4.9213376818656895,3.1005543016433696,-1.04120761013031,0.11024577624285492
9.91030303030303,4.3824582873344395,1.9269947313308702,-1.24957430934906,0.11024577624285492
9.91090909090909,-3.52589620485306,0.26724619617462203,-0.44245272731781,0.11024577624285492
9.911515151515152,-6.33046407594681,-3.59352528820038,1.34423184299469,0.11024577624285492
9.912121212121212,-1.89249288454056,-1.81642079601288,2.1920687570571897,0.11024577624285492
9.912727272727274,3.9776999865531897,1.6371973680496201,-1.69025790309906,0.11024577624285492
9.913333333333334,5.53446268186569,2.68382090320587,-2.77520175075531,0.11024577624285492
9.913939393939394,0.9096799670219421,1.6324073289871202,0.34311367893219,0.11024577624285492
9.914545454545454,-5.93768087282181,-2.7001830030441303,1.66516446018219,0.11024577624285492
9.915151515151514,-5.08744893922806,-2.8893895460128802,-0.40652743434906,0.11024577624285492
9.915757575757576,2.12634988889694,-0.37222401866912797,0.30239834690094,0.11024577624285492
9.916363636363636,5.27819559202194,3.1580347703933698,-0.7897305593490599,0.11024577624285492
9.916969696969698,4.514184361553189,1.96771006336212,-1.1082681570053101,0.11024577624285492
9.917575757575758,-3.99052999391556,0.216950786018372,0.034156159400940196,0.11024577624285492
9.918181818181818,-6.263403529071811,-3.83302724132538,1.60528897190094,0.11024577624285492
9.918787878787878,-1.40390890016556,-1.63200429210663,1.20292569065094,0.11024577624285492
9.919393939393938,4.06631570920944,2.2694825242996197,-1.4244107351303101,0.11024577624285492
9.92,5.81707498655319,2.7053760789871197,-2.07346102809906,0.11024577624285492
9.920606060606062,0.7300535021781921,1.94615488758087,-0.26761630153656,0.11024577624285492
9.921212121212122,-6.24663839235306,-2.78879872570038,1.22448086643219,0.11024577624285492
9.921818181818182,-5.18324972047806,-3.19116200695038,1.00174405002594,0.11024577624285492
9.922424242424242,2.2149656115531897,0.432502543830872,0.5538753976821901,0.11024577624285492
9.923030303030302,5.412316685771939,2.67663584461212,-2.41355380153656,0.11024577624285492
9.923636363636364,4.90217752561569,1.8982544969558701,-0.45442782497406,0.11024577624285492
9.924242424242424,-3.5474513806343104,0.887556254768372,0.10840176486969,0.11024577624285492
9.924848484848486,-6.349624232196811,-4.28568593273163,1.46398281955719,0.11024577624285492
9.925454545454546,-1.72244649782181,-1.35897206554413,1.37776211643219,0.11024577624285492
9.926060606060606,3.9082444201469397,2.04914072742462,-1.6208023366928102,0.11024577624285492
9.926666666666666,6.31284402952194,2.68621592273712,-2.33451815700531,0.11024577624285492
9.927272727272726,1.03182596311569,2.12817637195587,0.20420254611969,0.11024577624285492
9.927878787878788,-6.9076637829780605,-2.5277415967941304,1.50230313205719,0.11024577624285492
9.928484848484848,-4.61084005250931,-2.67862782726288,0.14432705783844,0.11024577624285492
9.92909090909091,2.33950662717819,-0.221337788200378,1.1119149484634399,0.11024577624285492
9.92969696969697,5.05545877561569,2.53053965320587,-1.9034146413803101,0.11024577624285492
9.93030303030303,5.0075583849906895,2.6981910203933697,-0.9478018484115599,0.11024577624285492
9.93090909090909,-3.5737965954780604,-0.0512914014816284,0.5562704172134401,0.11024577624285492
9.931515151515152,-6.54601583375931,-3.94319813976288,1.89269131565094,0.11024577624285492
9.932121212121212,-1.88291280641556,-1.3661571241378798,1.2915414133071899,0.11024577624285492
9.932727272727274,3.6855076037406898,1.38572031726837,-2.20279208278656,0.11024577624285492
9.933333333333334,6.1451926623344395,2.9113477586746197,-2.41355380153656,0.11024577624285492
9.933939393939394,0.943210240459442,2.0108204149246203,0.6951815500259401,0.11024577624285492
9.934545454545455,-6.62984151735306,-2.7073680616378804,0.6927865304946901,0.11024577624285492
9.935151515151514,-4.766516322040561,-3.51688466320038,-0.38736727809906,0.11024577624285492
9.935757575757576,1.63537088499069,0.360651957893372,0.79816738986969,0.11024577624285492
9.936363636363636,5.37399637327194,2.83710215320587,-1.63277743434906,0.11024577624285492
9.936969696969697,5.532067662334439,2.31738291492462,-1.09868807888031,0.11024577624285492
9.937575757575758,-3.4037502087593103,-0.13511708507537798,-0.12870516872406002,0.11024577624285492
9.938181818181818,-7.48246847047806,-4.02462880382538,2.47228604221344,0.11024577624285492
9.93878787878788,-1.59072042360306,-1.14102528820038,1.1670003976821899,0.11024577624285492
9.93939393939394,3.7717283068656897,1.0983179735183701,-2.35607333278656,0.11024577624285492
9.940000000000001,6.26973367795944,2.5856251024246197,-1.5657168874740601,0.11024577624285492
9.940606060606061,1.17552713499069,2.4586890672683697,-0.44484774684906,0.11024577624285492
9.941212121212121,-6.75677755250931,-3.05704091320038,1.08556973361969,0.11024577624285492
9.941818181818181,-4.66832052125931,-3.2127171827316303,1.19574063205719,0.11024577624285492
9.942424242424241,1.72877664670944,0.753435161018372,-0.00895419216155984,0.11024577624285492
9.943030303030303,4.95726297483444,2.35809824695587,-2.12375643825531,0.11024577624285492
9.943636363636365,5.053063756084439,2.3293580125808697,-0.23648104763031,0.11024577624285492
9.944242424242425,-2.75948995485306,-0.0512914014816284,0.00541592502594016,0.11024577624285492
9.944848484848485,-7.02022970094681,-4.72397450695038,1.34183682346344,0.11024577624285492
9.945454545454545,-1.89249288454056,-1.2080858350753798,1.69629971408844,0.11024577624285492
9.946060606060605,3.5082761584281896,1.82161387195587,-2.24350741481781,0.11024577624285492
9.946666666666667,6.81100809202194,2.83949717273712,-1.60643221950531,0.11024577624285492
9.947272727272727,1.42460916624069,2.59999521961212,0.8724129953384401,0.11024577624285492
9.947878787878789,-7.0609450329780605,-2.9732152296066303,0.9682137765884401,0.11024577624285492
9.94848484848485,-5.28384054079056,-3.44024403820038,0.000625885963440159,0.11024577624285492
9.94909090909091,2.23652078733444,0.545068461799622,-0.21013583278656,0.11024577624285492
9.94969696969697,5.23748025999069,2.11380625476837,-1.6471475515365601,0.11024577624285492
9.95030303030303,4.83990701780319,2.7652515672683697,-0.0041641530990598405,0.11024577624285492
9.950909090909091,-2.9343263806343103,0.116359965705872,-0.30833163356781,0.11024577624285492
9.951515151515153,-7.08489522829056,-4.93952626476288,1.71545987033844,0.11024577624285492
9.952121212121213,-1.49252462282181,-0.518320210075378,1.49032803440094,0.11024577624285492
9.952727272727273,3.85555399045944,0.935456645393372,-2.61234042263031,0.11024577624285492
9.953333333333333,5.75480447874069,3.0813941453933698,-2.43031893825531,0.11024577624285492
9.953939393939393,1.60184061155319,2.71974619617462,1.18137051486969,0.11024577624285492
9.954545454545455,-6.56757100954056,-3.41629384288788,1.15263028049469,0.11024577624285492
9.955151515151515,-5.15929952516556,-3.15044667491913,-0.35144198513031,0.11024577624285492
9.955757575757577,1.48208963499069,0.8109156297683721,-0.00655917263030984,0.11024577624285492
9.956363636363637,5.591943150615689,2.05872080554962,-1.5273965749740601,0.11024577624285492
9.956969696969697,5.17760477170944,2.83949717273712,-0.36820712184906,0.11024577624285492
9.957575757575757,-3.65522725954056,0.135520121955872,0.19701748752594,0.11024577624285492
9.958181818181817,-6.84539327516556,-4.81738026866913,2.66628262424469,0.11024577624285492
9.958787878787879,-1.70328634157181,-0.477604878044128,0.7526620187759401,0.11024577624285492
9.959393939393939,4.30342264280319,0.952221782112122,-3.12487460231781,0.11024577624285492
9.96,5.97514627561569,3.4765723680496197,-2.43031893825531,0.11024577624285492
9.960606060606061,0.907284947490692,2.50658945789337,0.8316976633071901,0.11024577624285492
9.961212121212121,-6.77833272829056,-3.28456776866913,2.02202237033844,0.11024577624285492
9.961818181818181,-5.10900411500931,-2.93489491710663,0.7718221750259401,0.11024577624285492
9.962424242424241,2.04970926389694,0.391787211799622,-0.8831363210678099,0.11024577624285492
9.963030303030303,5.9919114123344395,1.81921885242462,-1.3597452077865602,0.11024577624285492
9.963636363636365,4.5884299670219395,2.9544581102371197,0.21617764377594,0.11024577624285492
9.964242424242425,-3.28639425172806,0.157075297737122,-0.0424844655990598,0.11024577624285492
9.964848484848485,-6.18436788454056,-5.001796772575379,2.4483358469009397,0.11024577624285492
9.965454545454545,-2.49364278688431,-0.46323476085662796,0.69997158908844,0.11024577624285492
9.966060606060605,4.0232053576469395,0.954616801643372,-2.14052157497406,0.11024577624285492
9.966666666666667,6.497260533428189,3.89330576648712,-2.92848300075531,0.11024577624285492
9.967272727272727,1.04380106077194,2.50658945789337,0.5730355539321901,0.11024577624285492
9.967878787878789,-6.92682393922806,-3.56718007335663,0.76463711643219,0.11024577624285492
9.968484848484849,-5.417961634540561,-2.86543935070038,0.46525967502594,0.11024577624285492
9.969090909090909,2.41854227170944,0.585783793830872,0.13953701877594,0.11024577624285492
9.969696969696969,5.94401102170944,1.68030771961212,-1.48907626247406,0.11024577624285492
9.970303030303029,4.78003152952194,2.77962168445587,0.29521328830719,0.11024577624285492
9.97090909090909,-3.21214864625931,0.468427836799622,0.20899258518219,0.11024577624285492
9.97151515151515,-6.87173849000931,-5.13352284679413,2.0723177804946897,0.11024577624285492
9.972121212121213,-2.56070333375931,-0.36264394054412796,0.9873739328384401,0.11024577624285492
9.972727272727273,4.43275369749069,1.1917237352371202,-2.49498446559906,0.11024577624285492
9.973333333333333,6.01346658811569,3.2706006883621197,-2.78957186794281,0.11024577624285492
9.973939393939393,1.32641336545944,2.78441172351837,1.51667324924469,0.11024577624285492
9.974545454545455,-5.86822530641556,-3.65340077648163,0.51795010471344,0.11024577624285492
9.975151515151515,-5.63830343141556,-2.9995604444503803,0.37424893283844,0.11024577624285492
9.975757575757576,1.56591531858444,0.765410258674622,0.6544662179946901,0.11024577624285492
9.976363636363637,6.4709153185844395,1.4312256883621202,-2.52611971950531,0.11024577624285492
9.976969696969697,5.17760477170944,3.41190684070587,0.19701748752594,0.11024577624285492
9.977575757575758,-3.1402980603218102,-0.027341206169128402,0.9873739328384401,0.11024577624285492
9.978181818181817,-7.33158224000931,-4.85330556163788,0.30239834690094,0.11024577624285492
9.978787878787879,-2.39784200563431,-0.27163319835662797,1.55738858127594,0.11024577624285492
9.979393939393939,4.9476828967094395,1.11747812976837,-2.29619784450531,0.11024577624285492
9.98,5.891320592021939,3.1939600633621197,-3.61345858669281,0.11024577624285492
9.98060606060606,1.27372293577194,2.6191553758621198,1.0735946359634398,0.11024577624285492
9.98121212121212,-5.88738546266556,-3.30372792491913,0.9322884836196901,0.11024577624285492
9.981818181818182,-5.65985860719681,-3.20313710460663,1.49032803440094,0.11024577624285492
9.982424242424242,1.72638162717819,0.135520121955872,1.19095059299469,0.11024577624285492
9.983030303030304,5.72127420530319,1.46475596179962,-3.39072177028656,0.11024577624285492
9.983636363636364,4.75129129514694,3.38795664539337,0.11798184299469,0.11024577624285492
9.984242424242424,-2.7379347790718103,-0.20457265148162798,1.6723495187759398,0.11024577624285492
9.984848484848484,-6.83102315797806,-5.13831288585663,-0.12870516872406002,0.11024577624285492
9.985454545454544,-2.9439064587593102,0.207370707893372,0.7119466867446901,0.11024577624285492
9.986060606060606,4.48544412717819,0.739065043830872,-1.06755282497406,0.11024577624285492
9.986666666666668,6.46612527952194,2.9544581102371197,-2.99314852809906,0.11024577624285492
9.987272727272728,1.46292947874069,2.89697764148712,0.82211758518219,0.11024577624285492
9.987878787878788,-6.34483419313431,-3.56957509288788,0.77900723361969,0.11024577624285492
9.988484848484848,-5.81313985719681,-3.29414784679413,1.47356289768219,0.11024577624285492
9.989090909090908,1.76709695920944,0.480402934455872,0.62572598361969,0.11024577624285492
9.98969696969697,5.88892557249069,2.13536143054962,-3.67333407497406,0.11024577624285492
9.99030303030303,4.8279319201469395,3.6561988328933697,0.52513516330719,0.11024577624285492
9.990909090909092,-2.75709493532181,-0.0824266553878784,1.36099697971344,0.11024577624285492
9.991515151515152,-7.1471657361030605,-5.21255849132538,0.0485262765884402,0.11024577624285492
9.992121212121212,-2.8744508923530603,0.008584086799621589,0.9753988351821901,0.11024577624285492
9.992727272727272,4.72494608030319,0.703139750862122,-1.21125399684906,0.11024577624285492
9.993333333333332,5.73564432249069,2.96882822742462,-2.66982089138031,0.11024577624285492
9.993939393939394,1.68806131467819,3.23946543445587,1.22208584690094,0.11024577624285492
9.994545454545456,-5.8035597790718105,-3.50969960460663,1.30591153049469,0.11024577624285492
9.995151515151516,-5.77242452516556,-3.61987050304413,0.84367276096344,0.11024577624285492
9.995757575757576,1.21145242795944,0.14510020008087202,-0.12631014919281,0.11024577624285492
9.996363636363636,5.75001443967819,2.28385264148712,-3.52005282497406,0.11024577624285492
9.996969696969696,5.206345006084439,4.21423838367462,0.93947354221344,0.11024577624285492
9.997575757575758,-2.7283547009468103,-0.719501850700378,1.61965908908844,0.11024577624285492
9.998181818181818,-7.71478536500931,-5.207768452262879,-0.0831997976303098,0.11024577624285492
9.99878787878788,-2.0936745251655604,0.207370707893372,1.0304842844009399,0.11024577624285492
9.99939393939394,4.83032693967819,0.906716411018372,-1.16095858669281,0.2966512952271014
10.0,5.958381138896939,2.44431895008087,-2.16447177028656,0.2966512952271014
10.00060606060606,1.62579080686569,3.15324473133087,0.7311068429946901,0.2966512952271014
10.00121212121212,-6.17239278688431,-2.8271190382003804,0.7933773508071901,0.2966512952271014
10.001818181818182,-5.76044942750931,-3.61747548351288,1.34902188205719,0.2966512952271014
10.002424242424242,1.12762674436569,-0.444074604606628,0.24970791721344,0.2966512952271014
10.003030303030304,5.59433817014694,2.13057139148712,-3.76434481716156,0.2966512952271014
10.003636363636364,4.61956522092819,4.08969736804962,-0.47358798122406,0.2966512952271014
10.004242424242424,-2.4553224743843103,-0.5470604444503779,1.5525985422134398,0.2966512952271014
10.004848484848484,-7.3531374157905605,-5.21255849132538,-0.17181552028656,0.2966512952271014
10.005454545454544,-2.4050270642280602,0.0612745164871216,0.6520711984634401,0.2966512952271014
10.006060606060606,4.1094260607719395,1.43362070789337,-0.22450594997406,0.2966512952271014
10.006666666666668,6.403854771709439,2.39162852039337,-2.31535800075531,0.2966512952271014
10.007272727272728,2.2580759631156897,2.2958277391433697,0.6951815500259401,0.2966512952271014
10.007878787878788,-6.682531947040561,-2.69778798351288,0.45567959690094,0.2966512952271014
10.008484848484848,-5.61914327516556,-3.25343251476288,2.27828946018219,0.2966512952271014
10.009090909090908,1.65692606077194,0.0900147508621216,0.46525967502594,0.2966512952271014
10.00969696969697,5.326095982646939,2.04914072742462,-3.87691073513031,0.2966512952271014
10.01030303030303,4.87104227170944,4.06574717273712,-0.9837271413803099,0.2966512952271014
10.010909090909092,-1.95476339235306,-0.496765034294128,1.3945272531509398,0.2966512952271014
10.011515151515152,-7.8992018689155605,-4.91797108898163,0.81732754611969,0.2966512952271014
10.012121212121212,-2.3188063611030603,0.0684595750808716,1.28914639377594,0.2966512952271014
10.012727272727272,4.60998514280319,0.626499125862122,-1.69504794216156,0.2966512952271014
10.013333333333332,6.00628152952194,2.2622974657058696,-3.39072177028656,0.2966512952271014
10.013939393939394,1.81020731077194,2.5425147508621198,1.72264492893219,0.2966512952271014
10.014545454545456,-6.19394796266556,-2.87741444835663,0.24491787815094,0.2966512952271014
10.015151515151516,-5.30060567750931,-3.62945058116913,1.94777676486969,0.2966512952271014
10.015757575757576,1.60184061155319,0.288801371955872,0.66644131565094,0.2966512952271014
10.016363636363636,5.1009641467094395,1.94615488758087,-3.63022372341156,0.2966512952271014
10.016969696969696,5.12491434202194,3.87414561023712,-0.8232608327865599,0.2966512952271014
10.017575757575758,-2.39784200563431,-0.13990712413787798,1.07119961643219,0.2966512952271014
10.018181818181818,-8.04050802125931,-5.035327046012879,1.72503994846344,0.2966512952271014
10.01878787878788,-2.1104396618843104,0.38699717273712203,0.94186856174469,0.2966512952271014
10.01939393939394,4.38724832639694,0.36544199695587204,-2.33930819606781,0.2966512952271014
10.02,6.011071568584439,2.22158213367462,-1.72139315700531,0.2966512952271014
10.020606060606061,1.58028543577194,3.3472413133621197,1.66037442111969,0.2966512952271014
10.021212121212121,-6.10772725954056,-3.44742909679413,1.26759121799469,0.2966512952271014
10.021818181818182,-6.02150655641556,-3.1959520460128803,2.9105746164321897,0.2966512952271014
10.022424242424242,1.62339578733444,-0.39138417491912797,0.25928799533844,0.2966512952271014
10.023030303030303,4.74410623655319,2.37486338367462,-4.88760897731781,0.2966512952271014
10.023636363636363,5.0937790881156895,3.41430186023712,-0.51190829372406,0.2966512952271014
10.024242424242424,-2.35473165407181,-0.31234853038787797,2.24715420627594,0.2966512952271014
10.024848484848485,-7.79621602907181,-4.455732319450379,0.41975430393219,0.2966512952271014
10.025454545454547,-2.1727101696968103,-0.475209858512878,1.49032803440094,0.2966512952271014
10.026060606060607,4.06392068967819,0.585783793830872,-1.69744296169281,0.2966512952271014
10.026666666666667,6.50205057249069,2.58083506336212,-2.72251132106781,0.2966512952271014
10.027272727272727,1.68806131467819,3.59153330554962,0.6927865304946901,0.2966512952271014
10.027878787878787,-6.03348165407181,-3.3420482374191303,1.7106698312759399,0.2966512952271014
10.028484848484847,-5.97839620485306,-2.81514394054413,1.9669369211196899,0.2966512952271014
10.02909090909091,1.89163797483444,-0.659626362419128,0.010205964088440201,0.2966512952271014
10.029696969696971,5.15604959592819,2.60478525867462,-4.7319327077865605,0.2966512952271014
10.030303030303031,5.21592508420944,3.71128428211212,-0.61728915309906,0.2966512952271014
10.030909090909091,-2.4361623181343104,-0.0512914014816284,2.83872403049469,0.2966512952271014
10.031515151515151,-7.547133997821811,-4.35993153820038,0.48920987033844,0.2966512952271014
10.032121212121211,-2.59423360719681,-1.08114979991913,1.44242764377594,0.2966512952271014
10.032727272727273,4.07829080686569,0.557043559455872,-2.28422274684906,0.2966512952271014
10.033333333333333,6.2649436388969395,2.5688599657058697,-2.41355380153656,0.2966512952271014
10.033939393939395,1.46292947874069,3.40951182117462,0.44849453830719,0.2966512952271014
10.034545454545455,-5.70775899782181,-3.25103749523163,1.97891201877594,0.2966512952271014
10.035151515151515,-5.74607931032181,-3.13847157726288,2.01004727268219,0.2966512952271014
10.035757575757575,1.73117166624069,-0.29318837413787796,-0.5262784109115599,0.2966512952271014
10.036363636363635,5.06982889280319,2.57125498523712,-3.87930575466156,0.2966512952271014
10.036969696969697,5.46740213499069,3.47417734851837,-1.15137850856781,0.2966512952271014
10.037575757575759,-2.8481056775093103,0.25766611804962203,2.23996914768219,0.2966512952271014
10.038181818181819,-7.906386927509311,-4.20904530773163,1.66276944065094,0.2966512952271014
10.038787878787879,-1.99308370485306,-1.15060536632538,0.82451260471344,0.2966512952271014
10.039393939393939,4.49262918577194,0.197790629768372,-2.49977450466156,0.2966512952271014
10.04,5.72127420530319,3.33287119617462,-2.31535800075531,0.2966512952271014
10.040606060606061,1.84373758420944,3.6130884813308697,0.60656582736969,0.2966512952271014
10.041212121212121,-5.92091573610306,-3.5384398389816303,1.2149007883071898,0.2966512952271014
10.041818181818183,-5.90894063844681,-3.62226552257538,2.2687093820571897,0.2966512952271014
10.042424242424243,1.92037820920944,-0.46323476085662796,-0.51190829372406,0.2966512952271014
10.043030303030303,4.873437291240689,3.12689951648712,-4.35351962184906,0.2966512952271014
10.043636363636363,5.625473424053189,2.70058603992462,0.12995694065094,0.2966512952271014
10.044242424242423,-2.5319630993843103,0.37502207508087204,1.49511807346344,0.2966512952271014
10.044848484848485,-7.20943624391556,-4.26652577648163,1.48074795627594,0.2966512952271014
10.045454545454545,-2.04577413454056,-0.9063133741378779,1.06161953830719,0.2966512952271014
10.046060606060607,4.02560037717819,1.04083750476837,-2.32972811794281,0.2966512952271014
10.046666666666667,5.91287576780319,3.17958994617462,-2.20279208278656,0.2966512952271014
10.047272727272727,1.75991190061569,3.2179102586746198,0.38382901096344,0.2966512952271014
10.047878787878787,-6.09335714235306,-3.44982411632538,2.69981289768219,0.2966512952271014
10.048484848484847,-5.690993861103061,-3.2725926710128803,1.55499356174469,0.2966512952271014
10.049090909090909,2.01138895139694,-0.575800678825378,-1.32381991481781,0.2966512952271014
10.04969696969697,5.232690220928189,3.4502271532058697,-3.42904208278656,0.2966512952271014
10.05030303030303,5.685348912334439,1.9581299852371201,0.71913174533844,0.2966512952271014
10.05090909090909,-2.9750417126655604,1.16298350086212,1.97412197971344,0.2966512952271014
10.05151515151515,-7.786635950946811,-3.6246605421066302,1.22448086643219,0.2966512952271014
10.052121212121211,-2.23737569704056,-2.18285878429413,0.38861905002594,0.2966512952271014
10.052727272727273,4.3824582873344395,1.01209727039337,-2.14770663356781,0.2966512952271014
10.053333333333333,5.92245584592819,3.2203052782058696,-2.50935458278656,0.2966512952271014
10.053939393939395,1.49166971311569,3.15563975086212,-0.15265536403656,0.2966512952271014
10.054545454545455,-6.11491231813431,-3.4091087842941303,3.04230069065094,0.2966512952271014
10.055151515151515,-5.64069845094681,-3.38276356945038,0.5323202219009401,0.2966512952271014
10.055757575757575,1.73835672483444,-0.18541249523162798,-0.8208658132553099,0.2966512952271014
10.056363636363635,5.4530320178031895,3.12929453601837,-3.20630526638031,0.2966512952271014
10.056969696969697,5.45782205686569,1.6922828172683702,0.38861905002594,0.2966512952271014
10.057575757575759,-3.14987813844681,0.712719828987122,2.21122891330719,0.2966512952271014
10.058181818181819,-7.393852747821811,-3.87374257335663,1.11910000705719,0.2966512952271014
10.058787878787879,-1.84219747438431,-2.11340321788788,0.13474697971344,0.2966512952271014
10.059393939393939,3.2160837756156897,2.12099131336212,-1.99442538356781,0.2966512952271014
10.06,5.99670145139694,3.15563975086212,-2.30817294216156,0.2966512952271014
10.06060606060606,2.96460672483444,2.4059986375808697,0.8149325265884401,0.2966512952271014
10.06121212121212,-6.52446065797806,-3.04506581554413,2.33576992893219,0.2966512952271014
10.061818181818182,-6.03348165407181,-3.42347890148163,-0.36581210231781003,0.2966512952271014
10.062424242424242,1.80062723264694,0.578598735237122,-0.8639761648178099,0.2966512952271014
10.063030303030303,5.32849100217819,2.49700937976837,-2.43271395778656,0.2966512952271014
10.063636363636364,4.90217752561569,1.81442881336212,0.87720303440094,0.2966512952271014
10.064242424242424,-3.22891378297806,1.27075937976837,1.1670003976821899,0.2966512952271014
10.064848484848486,-6.25861349000931,-4.549138081169129,1.32028164768219,0.2966512952271014
10.065454545454545,-1.64580587282181,-1.5409935499191298,0.16588223361969,0.2966512952271014
10.066060606060606,3.13704813108444,1.75455332508087,-2.17405184841156,0.2966512952271014
10.066666666666666,4.933312779521939,2.94248301258087,-2.20758212184906,0.2966512952271014
10.067272727272726,2.1742502795219396,2.31498789539337,1.32267666721344,0.2966512952271014
10.067878787878788,-5.74847432985306,-3.24385243663788,2.00286221408844,0.2966512952271014
10.068484848484848,-5.03475850954056,-2.9133397413253803,-0.0376944265365598,0.2966512952271014
10.06909090909091,1.53238504514694,1.26357432117462,-0.24127108669281,0.2966512952271014
10.06969696969697,5.12251932249069,1.98926523914337,-2.00879550075531,0.2966512952271014
10.07030303030303,5.5200925646781895,0.815705668830872,0.18504238986969,0.2966512952271014
10.07090909090909,-3.3175295056343104,1.28273447742462,0.9274984445571901,0.2966512952271014
10.071515151515152,-6.50530050172806,-4.09168935070038,1.41368740940094,0.2966512952271014
10.072121212121212,-2.33078145875931,-1.4212425733566298,0.6544662179946901,0.2966512952271014
10.072727272727274,4.07110574827194,1.32344980945587,-2.13333651638031,0.2966512952271014
10.073333333333334,5.40273660764694,2.8418921922683698,-2.51653964138031,0.2966512952271014
10.073939393939394,1.54675516233444,2.5089844774246197,0.95863369846344,0.2966512952271014
10.074545454545454,-5.65267354860306,-2.96842519054413,1.15742031955719,0.2966512952271014
10.075151515151514,-5.09942403688431,-3.2390623975753803,-0.48077303981781,0.2966512952271014
10.075757575757576,1.47490457639694,0.363046977424622,0.7358968820571901,0.2966512952271014
10.076363636363636,5.1536545763969395,1.97729014148712,-1.51063143825531,0.2966512952271014
10.076969696969698,4.7944016467094395,1.60366709461212,0.0149960031509402,0.2966512952271014
10.077575757575758,-2.6181838025093103,1.4863111375808702,0.62572598361969,0.2966512952271014
10.078181818181818,-5.88499044313431,-4.35274647960663,1.23645596408844,0.2966512952271014
10.078787878787878,-3.03970724000931,-1.47153798351288,-0.43047762966156,0.2966512952271014
10.079393939393938,3.09154275999069,2.52335459461212,-1.66630770778656,0.2966512952271014
10.08,6.78705789670944,2.83949717273712,-1.1202432546615602,0.2966512952271014
10.080606060606062,2.0784494982719397,1.4144605516433701,1.0472494211196899,0.2966512952271014
10.081212121212122,-5.85146016969681,-2.39362050304413,2.01004727268219,0.2966512952271014
10.081818181818182,-5.80595479860306,-3.0426707960128803,-0.83284091091156,0.2966512952271014
10.082424242424242,1.01027078733444,-0.156672260856628,1.12149502658844,0.2966512952271014
10.083030303030302,6.06136697874069,2.70058603992462,-1.85311923122406,0.2966512952271014
10.083636363636364,4.667465611553189,1.62043223133087,-1.1633536062240601,0.2966512952271014
10.084242424242424,-2.68045431032181,1.16777353992462,1.20053067111969,0.2966512952271014
10.084848484848486,-5.34132100954056,-4.24018056163788,1.52385830783844,0.2966512952271014
10.085454545454546,-2.89600606813431,-1.96730702648163,-0.0496695241928098,0.2966512952271014
10.086060606060606,2.6532541857719396,1.81921885242462,-2.70335116481781,0.2966512952271014
10.086666666666666,5.93443094358444,3.0813941453933698,-1.24957430934906,0.2966512952271014
10.087272727272726,1.82457742795944,2.2790626024246197,1.5094881906509399,0.2966512952271014
10.087878787878788,-5.48741720094681,-3.07141103038788,1.1670003976821899,0.2966512952271014
10.088484848484848,-5.42993673219681,-3.23666737804413,-0.22690096950531,0.2966512952271014
10.08909090909091,0.478576451396942,0.509143168830872,-0.38497225856781,0.2966512952271014
10.08969696969697,5.26143045530319,2.53293467273712,-1.74294833278656,0.2966512952271014
10.09030303030303,5.62307840452194,2.18805186023712,-0.67237460231781,0.2966512952271014
10.09090909090909,-3.0085719861030604,1.1318482469558702,1.3083065500259399,0.2966512952271014
10.091515151515152,-6.51967061891556,-4.56829823741913,1.20292569065094,0.2966512952271014
10.092121212121212,-2.73314474000931,-2.41278065929413,0.34790371799469,0.2966512952271014
10.092727272727274,3.54659647092819,2.25511240711212,-2.15010165309906,0.2966512952271014
10.093333333333334,5.94161600217819,2.87302744617462,-1.1633536062240601,0.2966512952271014
10.093939393939394,1.23779764280319,2.04674570789337,0.9298934640884401,0.2966512952271014
10.094545454545454,-5.31497579469681,-3.10494130382538,0.8939681711196901,0.2966512952271014
10.095151515151514,-5.18085470094681,-3.2127171827316303,-1.12263827419281,0.2966512952271014
10.095757575757576,1.22103250608444,0.343886821174622,0.49639492893219,0.2966512952271014
10.096363636363636,5.10814920530319,2.1593116258621197,-0.7609903249740599,0.2966512952271014
10.096969696969698,4.85906717405319,2.28385264148712,-1.04599764919281,0.2966512952271014
10.097575757575758,-2.73074972047806,1.4958912157058701,1.35860196018219,0.2966512952271014
10.098181818181818,-6.3687843884468105,-5.140707905387879,1.33704678440094,0.2966512952271014
10.098787878787878,-3.10916280641556,-2.47505116710663,-0.13828524684906,0.2966512952271014
10.099393939393938,3.46037576780319,2.90655771961212,-2.20279208278656,0.2966512952271014
10.1,6.92596902952194,3.22270029773712,-1.2064639577865601,0.4223089569022483
10.100606060606061,1.82457742795944,1.95573496570587,1.45679776096344,0.4223089569022483
10.101212121212122,-5.99995138063431,-2.6834178663253803,1.41608242893219,0.4223089569022483
10.101818181818182,-6.52685567750931,-3.27498769054413,-2.07585604763031,0.4223089569022483
10.102424242424242,1.24737772092819,0.0804346727371216,1.1885555734634399,0.4223089569022483
10.103030303030303,5.9320359240531895,2.99277842273712,-1.57050692653656,0.4223089569022483
10.103636363636364,4.85667215452194,1.5126563524246202,-1.60164218044281,0.4223089569022483
10.104242424242424,-2.4217922009468102,1.0719727586746202,1.09275479221344,0.4223089569022483
10.104848484848485,-5.82750997438431,-5.1023875928878795,2.02681240940094,0.4223089569022483
10.105454545454545,-3.05647237672806,-1.67511464366913,0.48681485080719,0.4223089569022483
10.106060606060606,3.28793436155319,1.71144297351837,-1.9417349538803101,0.4223089569022483
10.106666666666667,6.10926736936569,3.1077393602371197,-1.69983798122406,0.4223089569022483
10.107272727272727,1.89163797483444,2.32696299304962,0.9322884836196901,0.4223089569022483
10.10787878787879,-5.64309347047806,-3.17200185070038,1.9884920969009399,0.4223089569022483
10.10848484848485,-5.537712611103061,-3.51688466320038,-1.54895175075531,0.4223089569022483
10.10909090909091,-0.0626979626655579,0.688769633674622,0.25449795627594,0.4223089569022483
10.10969696969697,5.97035623655319,2.94248301258087,-0.93582675075531,0.4223089569022483
10.11030303030303,5.72127420530319,1.3881153367996202,-1.51302645778656,0.4223089569022483
10.110909090909091,-2.8720558728218104,0.272036235237122,2.01483731174469,0.4223089569022483
10.111515151515153,-5.95205099000931,-4.70720937023163,1.62444912815094,0.4223089569022483
10.112121212121213,-3.5163161267280603,-1.00450917491913,0.25449795627594,0.4223089569022483
10.112727272727273,3.52025125608444,1.63959238758087,-1.84832919216156,0.4223089569022483
10.113333333333333,6.23380838499069,3.0215186571121198,-2.2051871023178102,0.4223089569022483
10.113939393939393,2.07605447874069,1.8551441453933701,0.6329110422134401,0.4223089569022483
10.114545454545455,-5.76044942750931,-3.1887669874191302,0.8963631906509401,0.4223089569022483
10.115151515151515,-5.16169454469681,-2.88459950695038,0.28802822971344,0.4223089569022483
10.115757575757577,0.605512486553192,1.52463145008087,-0.7681753835678099,0.4223089569022483
10.116363636363637,4.42077859983444,2.1497315477371197,-1.2016739187240602,0.4223089569022483
10.116969696969697,5.40513162717819,1.7473682664871202,-0.5454385671615599,0.4223089569022483
10.117575757575757,-2.00984884157181,0.109174907112122,1.11910000705719,0.4223089569022483
10.118181818181817,-6.25382345094681,-4.661703999137879,1.02569424533844,0.4223089569022483
10.118787878787879,-2.9582765759468104,-0.853622944450378,-0.31072665309906,0.4223089569022483
10.11939393939394,3.06040750608444,1.2779444383621201,0.0796615304946902,0.4223089569022483
10.120000000000001,6.044601842021939,3.08857920398712,-1.74294833278656,0.4223089569022483
10.120606060606061,1.38628885374069,1.50547129383087,0.26168301486969,0.4223089569022483
10.121212121212121,-5.72212911500931,-2.35530019054413,1.08796475315094,0.4223089569022483
10.121818181818181,-4.67550557985306,-3.29654286632538,-0.57896884059906,0.4223089569022483
10.122424242424241,0.43307108030319197,1.19411875476837,-0.11194003200531,0.4223089569022483
10.123030303030303,5.01713846311569,2.99517344226837,-1.3214248952865602,0.4223089569022483
10.123636363636365,5.19436990842819,0.37741709461212203,-0.95019686794281,0.4223089569022483
10.124242424242425,-2.40023702516556,0.698349711799622,0.6736263742446901,0.4223089569022483
10.124848484848485,-6.04545675172806,-3.98870351085663,1.96214688205719,0.4223089569022483
10.125454545454545,-2.45053243532181,-0.702736713981628,0.28323819065094,0.4223089569022483
10.126060606060605,3.4555857287406897,0.899531352424622,-0.7633853445053099,0.4223089569022483
10.126666666666667,5.25185037717819,2.4155787157058697,-2.61234042263031,0.4223089569022483
10.127272727272727,1.70722147092819,2.37007334461212,0.23533780002593999,0.4223089569022483
10.127878787878789,-5.33892599000931,-1.65116444835663,2.24715420627594,0.4223089569022483
10.128484848484849,-5.55208272829056,-3.36360341320038,0.39340908908844,0.4223089569022483
10.129090909090909,0.6318577013969421,0.06366953601837161,-1.13221835231781,0.4223089569022483
10.129696969696969,5.49853738889694,3.01672861804962,-1.94412997341156,0.4223089569022483
10.130303030303029,4.57166483030319,1.9054395555496202,0.43651944065094,0.4223089569022483
10.13090909090909,-2.20384542360306,0.636079203987122,0.57782559299469,0.4223089569022483
10.131515151515151,-6.22508321657181,-3.19834706554413,1.26040615940094,0.4223089569022483
10.132121212121213,-3.1714333142280604,-1.58889394054413,1.05443447971344,0.4223089569022483
10.132727272727273,4.08547586545944,-0.0800316358566284,-1.24238925075531,0.4223089569022483
10.133333333333333,5.89611063108444,3.5795582078933696,-3.38114169216156,0.4223089569022483
10.133939393939393,1.73596170530319,2.00842539539337,0.24970791721344,0.4223089569022483
10.134545454545455,-5.15450948610306,-2.8199339796066303,2.79321865940094,0.4223089569022483
10.135151515151515,-5.89457052125931,-2.90854970226288,0.80535244846344,0.4223089569022483
10.135757575757577,0.579167271709442,0.18342051258087202,-1.68307284450531,0.4223089569022483
10.136363636363637,5.80749490842819,2.25511240711212,-1.43638583278656,0.4223089569022483
10.136969696969697,5.05545877561569,2.10422617664337,-1.00288729763031,0.4223089569022483
10.137575757575757,-1.93081319704056,0.815705668830872,0.92510342502594,0.4223089569022483
10.138181818181817,-7.37948263063431,-2.95884511241913,0.9562386789321901,0.4223089569022483
10.138787878787879,-3.2648390759468104,-2.71215810070038,1.36339199924469,0.4223089569022483
10.139393939393939,3.6783225451469397,0.842050883674622,-0.8088907155990599,0.4223089569022483
10.14,6.21704324827194,3.82385020008087,-3.21349032497406,0.4223089569022483
10.14060606060606,3.00053201780319,1.70665293445587,0.7550570383071901,0.4223089569022483
10.14121212121212,-5.19282979860306,-1.70864491710663,2.23278408908844,0.4223089569022483
10.14181818181818,-6.99627950563431,-4.00307362804413,1.11670498752594,0.4223089569022483
10.14242424242424,-0.141733607196808,-0.551850483512878,-1.6471475515365601,0.4223089569022483
10.143030303030303,5.9990964709281895,3.23228037586212,-1.72139315700531,0.4223089569022483
10.143636363636364,5.44824197874069,2.3557032274246197,-0.63165927028656,0.4223089569022483
10.144242424242425,-1.75118673219681,0.985752055549622,0.16109219455719,0.4223089569022483
10.144848484848485,-6.54122579469681,-3.5815501905441303,0.9873739328384401,0.4223089569022483
10.145454545454546,-3.64085714235306,-2.6498875928878802,1.46398281955719,0.4223089569022483
10.146060606060606,2.98855692014694,1.08394785633087,-1.5441617116928101,0.4223089569022483
10.146666666666667,6.197883092021939,4.32680430164337,-2.30817294216156,0.4223089569022483
10.147272727272727,3.05801248655319,1.94136484851837,0.83888272190094,0.4223089569022483
10.147878787878788,-4.63000020875931,-2.79598378429413,1.61007901096344,0.4223089569022483
10.148484848484848,-7.21901632204056,-3.20792714366913,0.8724129953384401,0.4223089569022483
10.149090909090908,0.112138463115692,-0.269238178825378,-0.14786532497406,0.4223089569022483
10.14969696969697,6.12363748655319,3.31131602039337,-1.86988436794281,0.4223089569022483
10.15030303030303,5.30933084592819,1.9868702196121202,-0.44005770778656,0.4223089569022483
10.150909090909092,-1.86375265016556,0.739065043830872,-0.6436343679428099,0.4223089569022483
10.151515151515152,-6.45740011110306,-3.1887669874191302,1.1071249094009399,0.4223089569022483
10.152121212121212,-4.14381124391556,-2.7169481397628803,1.92382656955719,0.4223089569022483
10.152727272727272,3.5346213732719396,0.20018564929962201,-1.99442538356781,0.4223089569022483
10.153333333333332,6.62180154905319,4.09209238758087,-2.59078524684906,0.4223089569022483
10.153939393939394,2.46165262327194,1.6491724657058702,-0.16463046169281,0.4223089569022483
10.154545454545456,-4.57730977907181,-2.62114735851288,2.5082113351821897,0.4223089569022483
10.155151515151516,-7.06334005250931,-3.20313710460663,0.8269076242446901,0.4223089569022483
10.155757575757576,-0.357285365009308,-0.851227924919128,-0.71548495388031,0.4223089569022483
10.156363636363636,6.27452371702194,3.44543711414337,-1.26873446559906,0.4223089569022483
10.156969696969696,5.61589334592819,2.46108408679962,-1.2878946218490601,0.4223089569022483
10.157575757575758,-1.93560323610306,0.06366953601837161,-0.25085116481781,0.4223089569022483
10.158181818181818,-6.79270284547806,-2.95884511241913,1.4927230539321898,0.4223089569022483
10.15878787878788,-4.39049825563431,-2.28344960460663,2.0459725656509398,0.4223089569022483
10.15939393939394,3.6807175646781896,0.49477305164337204,-1.43159579372406,0.4223089569022483
10.16,7.1032004748344395,3.79750498523712,-2.56683505153656,0.4223089569022483
10.16060606060606,2.30597635374069,1.3593751024246201,-0.63405428981781,0.4223089569022483
10.16121212121212,-5.03954854860306,-1.72301503429413,2.78124356174469,0.4223089569022483
10.161818181818182,-7.041784876728061,-3.1791869092941303,0.16827725315094,0.4223089569022483
10.162424242424242,-0.529726771259308,-0.673996479606628,-1.05797274684906,0.4223089569022483
10.163030303030304,6.789452916240689,3.07660410633087,-0.75620028591156,0.4223089569022483
10.163636363636364,5.69732400999069,2.5520948289871197,-1.6591226491928102,0.4223089569022483
10.164242424242424,-2.00266378297806,0.284011332893372,-0.59333895778656,0.4223089569022483
10.164848484848484,-6.23705831422806,-3.55999501476288,2.87943936252594,0.4223089569022483
10.165454545454544,-4.32583272829056,-2.64270253429413,1.69150967502594,0.4223089569022483
10.166060606060606,3.18494852170944,0.873186137580872,-2.09262118434906,0.4223089569022483
10.166666666666668,7.455268345928189,4.319619243049621,-1.74294833278656,0.4223089569022483
10.167272727272728,2.64846414670944,1.68509775867462,-0.65081942653656,0.4223089569022483
10.167878787878788,-5.511367396259311,-2.23554921398163,2.49863125705719,0.4223089569022483
10.168484848484848,-6.92682393922806,-3.20313710460663,-0.24845614528656002,0.4223089569022483
10.169090909090908,-0.302199915790558,-0.22612782726287797,-0.50472323513031,0.4223089569022483
10.16969696969697,6.56671609983444,2.89937266101837,0.029366120338440202,0.4223089569022483
10.17030303030303,5.82665506467819,2.26708750476837,-1.98963534450531,0.4223089569022483
10.170909090909092,-2.02182393922806,0.6696094774246221,-0.0879898366928098,0.4223089569022483
10.171515151515152,-5.9831862439155605,-3.4258739210128804,2.97524014377594,0.4223089569022483
10.172121212121212,-4.80483663454056,-3.06422597179413,0.66644131565094,0.4223089569022483
10.172727272727272,3.14423318967819,0.763015239143372,-0.9693570241928099,0.4223089569022483
10.173333333333332,7.50316873655319,4.226213481330871,-1.78605868434906,0.4223089569022483
10.173939393939394,2.43530740842819,1.63480234851837,-1.12982333278656,0.4223089569022483
10.174545454545456,-5.1712746228218105,-2.14693349132538,3.33209805393219,0.4223089569022483
10.175151515151516,-6.6346315564155605,-3.38994862804413,-0.8615811452865599,0.4223089569022483
10.175757575757576,-0.45548116579055803,0.18342051258087202,-1.91299471950531,0.4223089569022483
10.176363636363636,6.284103795146939,2.88021250476837,0.53950528049469,0.4223089569022483
10.176969696969696,6.12603250608444,1.75934336414337,-1.3429800710678101,0.4223089569022483
10.177575757575758,-1.50449972047806,0.48519297351837204,0.0149960031509402,0.4223089569022483
10.178181818181818,-6.75677755250931,-3.44742909679413,2.21841397190094,0.4223089569022483
10.17878787878788,-4.81441671266556,-2.53971669445038,0.51795010471344,0.4223089569022483
10.17939393939394,3.4124753771781897,1.48152109851837,-0.5286734304428099,0.4223089569022483
10.18,7.55106912717819,3.34245127429962,-2.07346102809906,0.4223089569022483
10.18060606060606,2.5502683459281896,1.28752451648712,-1.14898348903656,0.4223089569022483
10.18121212121212,-5.27426046266556,-1.0404344678878799,3.28898770236969,0.4223089569022483
10.181818181818182,-6.45021505250931,-4.0653441358566305,-0.9885171804428099,0.4223089569022483
10.182424242424242,-0.718933314228058,-0.954213764762878,-1.51302645778656,0.4223089569022483
10.183030303030304,6.20985818967819,2.97361826648712,0.27365811252594,0.4223089569022483
10.183636363636364,5.61349832639694,2.18086680164337,-1.37890536403656,0.4223089569022483
10.184242424242424,-1.60509054079056,0.583388774299622,0.14193203830719,0.4223089569022483
10.184848484848485,-6.289748743915561,-3.9312230421066303,3.13570645236969,0.4223089569022483
10.185454545454544,-4.24440206422806,-2.42475575695038,-0.19576571559906,0.4223089569022483
10.186060606060606,2.6939695178031897,1.4264356492996202,-1.9585000905990602,0.4223089569022483
10.186666666666667,7.13912576780319,3.37837656726837,-1.13461337184906,0.4223089569022483
10.187272727272727,3.22805887327194,2.2790626024246197,-1.08910800075531,0.4223089569022483
10.187878787878788,-5.724524134540561,-1.3398119092941299,2.14177334690094,0.4223089569022483
10.188484848484848,-6.49811544313431,-4.36711659679413,-0.5478335866928099,0.4223089569022483
10.18909090909091,-0.309384974384308,-0.532690327262878,-0.6603995046615599,0.4223089569022483
10.189696969696971,6.36553445920944,3.19635508289337,0.44130947971344,0.4223089569022483
10.19030303030303,5.532067662334439,2.4491089891433697,-1.62798739528656,0.4223089569022483
10.190909090909091,-1.78711202516556,0.535488383674622,0.65925625705719,0.4223089569022483
10.191515151515151,-6.31369893922806,-3.43784901866913,2.15135342502594,0.4223089569022483
10.192121212121211,-4.37612813844681,-2.67144276866913,-0.8041006765365599,0.4223089569022483
10.192727272727273,2.47602274045944,1.51505137195587,-1.1633536062240601,0.4223089569022483
10.193333333333333,7.1032004748344395,2.9113477586746197,-1.25675936794281,0.4223089569022483
10.193939393939395,2.95502664670944,2.00842539539337,-0.7442251882553099,0.4223089569022483
10.194545454545455,-5.48023214235306,-0.736266987419128,2.5848519601821898,0.4223089569022483
10.195151515151515,-5.69578390016556,-4.68565419445038,-0.63405428981781,0.4223089569022483
10.195757575757575,-0.6279225720405579,-0.621306049919128,-1.66151766872406,0.4223089569022483
10.196363636363635,5.4865622912406895,3.19875010242462,0.70476162815094,0.4223089569022483
10.196969696969697,5.92245584592819,2.9113477586746197,-1.03881259059906,0.4223089569022483
10.197575757575759,-0.991965540790558,0.674399516487122,1.02569424533844,0.4223089569022483
10.19818181818182,-7.1735109509468105,-3.37318349132538,1.48314297580719,0.4223089569022483
10.19878787878788,-4.340202845478061,-2.85106923351288,-1.0603677663803102,0.4223089569022483
10.19939393939394,3.4627707873344398,2.2599024461746198,0.15869717502594,0.5570724027423999
10.2,6.93315408811569,2.52095957508087,-1.60643221950531,0.5570724027423999
10.200606060606061,2.64846414670944,1.7090479539871202,-0.12152011013031,0.5570724027423999
10.201212121212121,-5.67422872438431,0.370232036018372,2.76208340549469,0.5570724027423999
10.201818181818183,-5.85864522829056,-5.5550462842941295,-0.91427157497406,0.5570724027423999
10.202424242424243,-0.615947474384308,-0.939843647575378,-0.48077303981781,0.5570724027423999
10.203030303030303,5.70929910764694,3.30173594226837,-0.41371249294281,0.5570724027423999
10.203636363636363,5.70450906858444,2.43473887195587,-1.60882723903656,0.5570724027423999
10.204242424242423,-0.9009547986030579,0.547463481330872,1.9669369211196899,0.5570724027423999
10.204848484848485,-6.768752650165561,-3.6246605421066302,2.27828946018219,0.5570724027423999
10.205454545454545,-4.194106654071811,-2.59959218273163,-2.1189663991928103,0.5570724027423999
10.206060606060607,2.3514817248344397,2.2359522508621197,-1.16095858669281,0.5570724027423999
10.206666666666667,6.93794412717819,2.40120859851837,-0.73943514919281,0.5570724027423999
10.207272727272727,3.4220554553031897,1.98447520008087,-0.49514315700531,0.5570724027423999
10.207878787878787,-5.97839620485306,0.0612745164871216,1.86395108127594,0.5570724027423999
10.208484848484847,-6.24424337282181,-5.21734853038788,-0.33946688747406,0.5570724027423999
10.209090909090909,-0.366865443134308,-0.26205312023162797,0.12037686252594,0.5570724027423999
10.20969696969697,5.99430643186569,2.82033701648712,-1.0148623952865599,0.5570724027423999
10.21030303030303,5.71648416624069,2.40120859851837,-1.75492343044281,0.5570724027423999
10.210909090909091,-0.6015773571968079,1.88148936023712,2.66149258518219,0.5570724027423999
10.211515151515151,-7.24536153688431,-4.2377855421066295,2.19685879611969,0.5570724027423999
10.212121212121211,-4.1533913220405605,-3.22469228038788,-2.90213778591156,0.5570724027423999
10.212727272727273,2.52871317014694,2.9784083055496198,-1.2615494070053102,0.5570724027423999
10.213333333333333,6.72478738889694,1.9533399461746201,-0.36820712184906,0.5570724027423999
10.213939393939395,3.2352439318656896,1.82400889148712,0.19701748752594,0.5570724027423999
10.214545454545455,-5.46586202516556,-0.15906728038787799,2.30702969455719,0.5570724027423999
10.215151515151515,-5.5568727673530605,-5.15986806163788,-1.11066317653656,0.5570724027423999
10.215757575757575,-0.6279225720405579,-0.6069359327316279,-0.77296542263031,0.5570724027423999
10.216363636363635,5.05785379514694,1.8766993211746201,-0.91427157497406,0.5570724027423999
10.216969696969697,6.15956277952194,3.58434824695587,-1.9465249929428101,0.5570724027423999
10.217575757575759,-0.220769251728058,1.96052500476837,2.58964199924469,0.5570724027423999
10.218181818181819,-7.640539759540561,-4.23539052257538,1.95496182346344,0.5570724027423999
10.218787878787879,-3.9522096814155603,-2.9229198194503803,-2.39439364528656,0.5570724027423999
10.219393939393939,2.5167380724906896,2.30780283679962,-0.69153475856781,0.5570724027423999
10.219999999999999,6.54037088499069,2.00124033679962,-0.40652743434906,0.5570724027423999
10.22060606060606,3.34062479124069,2.65029062976837,0.11079678440094,0.5570724027423999
10.22121212121212,-5.54729268922806,-0.24528798351287798,1.88071621799469,0.5570724027423999
10.221818181818183,-5.54729268922806,-5.121547749137879,-0.75620028591156,0.5570724027423999
10.222424242424243,-0.580022181415558,-0.585380756950378,-0.13589022731781,0.5570724027423999
10.223030303030303,5.112939244365689,1.78329355945587,-1.0651578054428101,0.5570724027423999
10.223636363636363,5.99430643186569,3.2274903367996197,-1.73097323513031,0.5570724027423999
10.224242424242423,-0.426740931415558,1.51026133289337,3.64105557346344,0.5570724027423999
10.224848484848485,-7.101660365009311,-3.64621571788788,1.7489901437759399,0.5570724027423999
10.225454545454545,-4.11267599000931,-2.93489491710663,-3.62064364528656,0.5570724027423999
10.226060606060607,1.75272684202194,1.6276172899246202,-0.9645669851303099,0.5570724027423999
10.226666666666667,7.10559549436569,1.7856885789871202,-0.0281143484115598,0.5570724027423999
10.227272727272727,3.57054666624069,3.64422373523712,-0.18139559841156,0.5570724027423999
10.227878787878788,-5.6239333142280605,-0.650046284294128,2.50581631565094,0.5570724027423999
10.228484848484849,-6.33764913454056,-4.90360097179413,-1.00049227809906,0.5570724027423999
10.229090909090909,-1.02070577516556,-1.01648427257538,0.45807461643219,0.5570724027423999
10.22969696969697,5.39076150999069,1.74976328601837,-0.83763094997406,0.5570724027423999
10.23030303030303,5.95359109983444,3.2179102586746198,-1.9417349538803101,0.5570724027423999
10.23090909090909,-0.18244893922805802,1.7689234422683702,4.0434188547134395,0.5570724027423999
10.231515151515152,-6.97232931032181,-3.14326161632538,1.01371914768219,0.5570724027423999
10.232121212121212,-4.4862990368843105,-3.66298085460663,-3.91044100856781,0.5570724027423999
10.232727272727274,1.71919656858444,1.50068125476837,0.0772665109634402,0.5570724027423999
10.233333333333333,7.3091721545219395,2.23355723133087,-0.45682284450531,0.5570724027423999
10.233939393939394,3.27116922483444,3.6801490282058698,-0.30593661403656003,0.5570724027423999
10.234545454545454,-4.94135274782181,-0.980558979606628,3.20276699924469,0.5570724027423999
10.235151515151514,-5.717339075946811,-5.4951707960128795,-1.73336825466156,0.5570724027423999
10.235757575757576,-1.61467061891556,-1.11228505382538,-1.45794100856781,0.5570724027423999
10.236363636363636,4.30102762327194,2.24553232898712,-0.6077090749740599,0.5570724027423999
10.236969696969698,7.13912576780319,3.60590342273712,-1.57050692653656,0.5570724027423999
10.237575757575758,0.013942662334442099,1.51505137195587,3.08062100315094,0.5570724027423999
10.238181818181818,-7.85609151735306,-3.23187733898163,0.8316976633071901,0.5570724027423999
10.238787878787878,-4.0671706189155605,-3.94319813976288,-3.04583895778656,0.5570724027423999
10.239393939393938,1.47969461545944,1.82640391101837,0.68560147190094,0.5570724027423999
10.24,6.4709153185844395,3.15563975086212,-0.83284091091156,0.5570724027423999
10.240606060606062,4.36569315061569,2.9879883836746197,-0.27480136013031,0.5570724027423999
10.241212121212122,-4.16297140016556,-0.630886128044128,2.03878750705719,0.5570724027423999
10.241818181818182,-6.18197286500931,-5.61731679210663,-0.12152011013031,0.5570724027423999
10.242424242424242,-2.1990553845405603,-0.678786518669128,-1.17772372341156,0.5570724027423999
10.243030303030302,4.38006326780319,2.07548594226837,-1.1250332937240601,0.5570724027423999
10.243636363636364,6.31284402952194,3.9364161180496198,-0.49514315700531,0.5570724027423999
10.244242424242424,0.14566873655319199,1.49349619617462,2.93691983127594,0.5570724027423999
10.244848484848486,-6.37357442750931,-4.08929433116913,-0.07361971950530981,0.5570724027423999
10.245454545454546,-3.7294728650093103,-3.1696068311691303,-4.22418856716156,0.5570724027423999
10.246060606060606,1.58268045530319,0.791755473518372,1.29393643283844,0.5570724027423999
10.246666666666666,5.60391824827194,3.03349375476837,0.16348721408844,0.5570724027423999
10.247272727272726,3.92979959592819,3.3304761766433697,-0.42329257106781,0.5570724027423999
10.247878787878788,-4.00250509157181,-1.2152708936691299,1.48553799533844,0.5570724027423999
10.24848484848485,-5.48023214235306,-4.89402089366913,-0.65800448513031,0.5570724027423999
10.24909090909091,-1.70807638063431,-0.39138417491912797,-0.12631014919281,0.5570724027423999
10.24969696969697,4.51178934202194,2.37725840320587,-1.25196932888031,0.5570724027423999
10.25030303030303,5.64223856077194,2.81315195789337,-0.85918612575531,0.5570724027423999
10.25090909090909,0.100163365459442,2.13057139148712,1.8735311594009398,0.5570724027423999
10.25151515151515,-6.45740011110306,-3.21990224132538,0.0628963937759402,0.5570724027423999
10.252121212121212,-4.107885950946811,-4.2114403272628795,-2.49737948513031,0.5570724027423999
10.252727272727274,1.83894754514694,0.513933207893372,1.10233487033844,0.5570724027423999
10.253333333333334,5.68295389280319,3.54842295398712,-0.5885489187240599,0.5570724027423999
10.253939393939394,3.5010910998344396,3.45501719226837,0.20180752658844,0.5570724027423999
10.254545454545454,-4.18931661500931,-1.5745238233566299,1.59331387424469,0.5570724027423999
10.255151515151514,-5.06828878297806,-5.035327046012879,-2.19560702419281,0.5570724027423999
10.255757575757576,-2.10085958375931,-0.408149311637878,-0.6029190359115599,0.5570724027423999
10.256363636363636,4.2555222521781895,1.9701050828933702,-0.061644621849059805,0.5570724027423999
10.256969696969698,6.50923563108444,2.78680674304962,-0.48316805934906,0.5570724027423999
10.257575757575758,-0.0818581189155579,2.29822275867462,1.16939541721344,0.5570724027423999
10.258181818181818,-6.52685567750931,-3.02830067882538,-0.73225009059906,0.5570724027423999
10.258787878787878,-4.014480189228061,-4.2377855421066295,-1.29028964138031,0.5570724027423999
10.259393939393938,1.52280496702194,1.21088389148712,3.90450772190094,0.5570724027423999
10.26,6.13321756467819,4.04658701648712,-1.8052188405990601,0.5570724027423999
10.260606060606062,4.15014139280319,2.30061777820587,-0.13349520778656,0.5570724027423999
10.261212121212122,-3.8899391736030604,-1.15060536632538,2.9273397531509397,0.5570724027423999
10.261818181818182,-5.7963747204780605,-5.19818837413788,-2.13333651638031,0.5570724027423999
10.262424242424242,-2.8840309704780602,-0.0704515577316284,-0.43047762966156,0.5570724027423999
10.263030303030302,4.93570779905319,2.01321543445587,1.5142782297134398,0.5570724027423999
10.263636363636364,6.46852029905319,2.54011973133087,-0.61968417263031,0.5570724027423999
10.264242424242424,0.138483677959442,2.02279551258087,0.89875821018219,0.5570724027423999
10.264848484848486,-5.92570577516556,-3.30372792491913,-0.48316805934906,0.5570724027423999
10.265454545454546,-4.20847677125931,-4.130009663200379,-2.20758212184906,0.5570724027423999
10.266060606060606,1.41502908811569,0.765410258674622,2.62077725315094,0.5570724027423999
10.266666666666667,5.112939244365689,3.83103525867462,-1.88904452419281,0.5570724027423999
10.267272727272726,4.78482156858444,3.12689951648712,-1.0483926687240601,0.5570724027423999
10.267878787878788,-3.26244405641556,-1.24880116710663,1.99088711643219,0.5570724027423999
10.268484848484848,-6.80467794313431,-5.0425121046066295,-1.41483065700531,0.5570724027423999
10.26909090909091,-2.2996462048530604,0.195395610237122,0.8077474679946901,0.5570724027423999
10.26969696969697,4.90217752561569,1.2994996141433701,1.19095059299469,0.5570724027423999
10.27030303030303,6.250573521709439,2.63113047351837,-1.77647860622406,0.5570724027423999
10.270909090909091,0.5504270373344421,2.4826392625808698,0.8724129953384401,0.5570724027423999
10.271515151515151,-6.6945070446968105,-3.10733632335663,-0.53346346950531,0.5570724027423999
10.272121212121212,-4.23242696657181,-4.410226948356629,-1.56332186794281,0.5570724027423999
10.272727272727273,1.53478006467819,1.22764902820587,2.11542813205719,0.5570724027423999
10.273333333333333,5.27101053342819,4.05856211414337,-1.8387491140365602,0.5570724027423999
10.273939393939393,4.5548996935844395,2.47305918445587,-0.26761630153656,0.5570724027423999
10.274545454545455,-3.4564406384468103,-1.31586171398163,1.98130703830719,0.5570724027423999
10.275151515151515,-5.930495814228061,-5.574206440544129,-1.79563876247406,0.5570724027423999
10.275757575757577,-2.55112325563431,0.0373243211746216,0.7502669992446901,0.5570724027423999
10.276363636363637,4.45909891233444,2.23116221179962,1.06401455783844,0.5570724027423999
10.276969696969697,6.62180154905319,2.6191553758621198,-1.7788736257553102,0.5570724027423999
10.277575757575757,0.6294626818656921,2.7748316453933697,0.10840176486969,0.5570724027423999
10.278181818181817,-7.01064962282181,-3.9839134717941302,-0.48556307888031003,0.5570724027423999
10.27878787878788,-4.92937765016556,-4.44854726085663,-0.28677645778656,0.5570724027423999
10.27939393939394,1.39107889280319,2.13536143054962,1.94777676486969,0.5570724027423999
10.280000000000001,5.6063132678031895,3.86217051258087,-2.61473544216156,0.5570724027423999
10.280606060606061,5.33807108030319,2.0635108446121198,-0.20295077419281,0.5570724027423999
10.281212121212121,-3.6264870251655603,-1.00211415538788,1.3945272531509398,0.5570724027423999
10.281818181818181,-6.49811544313431,-5.13831288585663,-1.51781649684906,0.5570724027423999
10.282424242424241,-2.3355714978218103,-0.14469716320037798,1.6460043039321899,0.5570724027423999
10.283030303030303,3.6974827013969396,2.17368174304962,0.48681485080719,0.5570724027423999
10.283636363636365,6.34158426389694,2.58802012195587,-2.01837557888031,0.5570724027423999
10.284242424242425,0.706103306865692,2.0802759813308698,0.7670321359634401,0.5570724027423999
10.284848484848485,-5.76284444704056,-4.47489247570038,-0.75380526638031,0.5570724027423999
10.285454545454545,-3.6791774548530602,-3.58394521007538,-0.19337069606781,0.5570724027423999
10.286060606060605,0.497736607646942,1.5126563524246202,2.27828946018219,0.5570724027423999
10.286666666666667,4.83751199827194,3.50291758289337,-2.69616610622406,0.5570724027423999
10.287272727272727,4.8614621935844395,2.76285654773712,-0.9621719655990599,0.5570724027423999
10.287878787878789,-3.1307179821968103,-1.83797597179413,1.7058797922134399,0.5570724027423999
