Time (s),Accel X (m/s^2),Accel Y (m/s^2),Accel Z (m/s^2),CI Value
3.0,-0.13250857200622598,-0.095127836894989,-0.357300895214081,0.6379388179364065
3.0006060606060605,-0.0223376735687256,-0.028067290019988998,0.361204964160919,0.6379388179364065
3.001212121212121,0.0159826389312744,0.175509370136261,0.18876355791091898,0.6379388179364065
3.001818181818182,-0.158853786849976,-0.09991787595748901,-0.182464469432831,0.6379388179364065
3.0024242424242424,-0.0151526149749756,0.031808198261261,0.181578499317169,0.6379388179364065
3.003030303030303,-0.134903591537476,0.089288667011261,0.116912971973419,0.6379388179364065
3.003636363636364,-0.146878689193726,0.242569917011261,0.116912971973419,0.6379388179364065
3.004242424242424,0.09980832252502439,0.22819979982376098,0.0833826985359194,0.6379388179364065
3.004848484848485,0.23153439674377402,0.046178315448761,-0.0411583170890806,0.6379388179364065
3.0054545454545454,-0.0965832790374756,-0.011302153301239001,-0.036368278026580596,0.6379388179364065
3.006060606060606,-0.103768337631226,0.060548432636260995,0.140863167285919,0.6379388179364065
3.006666666666667,-0.134903591537476,0.024623139667511,-0.036368278026580596,0.6379388179364065
3.0072727272727273,-0.0343127712249756,-0.075967680644989,-0.0722935709953306,0.6379388179364065
3.007878787878788,-0.07981814231872561,0.08210360841751099,-0.0243931803703306,0.6379388179364065
3.0084848484848488,-0.230704372787476,-0.080757719707489,0.07619763994216941,0.6379388179364065
3.009090909090909,-0.103768337631226,0.053363374042511,0.176788460254669,0.6379388179364065
3.0096969696969698,-0.07502810325622561,-0.198113676738739,-0.263895133495331,0.6379388179364065
3.0103030303030303,0.018377658462524402,-0.107102934551239,-0.144144156932831,0.6379388179364065
3.0109090909090908,0.0016125217437744199,0.17311435060501099,-0.134564078807831,0.6379388179364065
3.0115151515151517,-0.0438928493499756,-0.140633207988739,0.435450569629669,0.6379388179364065
3.012121212121212,-0.209149197006226,0.17311435060501099,0.294144417285919,0.6379388179364065
3.0127272727272727,0.10938840065002399,0.072523530292511,-0.0842686686515806,0.6379388179364065
3.013333333333333,-0.0606579860687256,-0.119078032207489,0.19834363603591898,0.6379388179364065
3.0139393939393937,-0.206754177474976,0.134794038105011,-0.129774039745331,0.6379388179364065
3.0145454545454546,-0.211544216537476,0.017438081073761002,0.0139271321296694,0.6379388179364065
3.015151515151515,-0.048682888412475596,0.019833100605011002,0.119307991504669,0.6379388179364065
3.0157575757575756,0.147708713150024,-0.083152739238739,0.0019520344734194099,0.6379388179364065
3.0163636363636366,0.0471178928375244,0.00785800294876099,-0.120193961620331,0.6379388179364065
3.016969696969697,0.128548556900024,0.08210360841751099,-0.036368278026580596,0.6379388179364065
3.0175757575757576,0.13094357643127402,-0.056807524394989005,-0.105823844432831,0.6379388179364065
3.0181818181818185,0.0710680881500244,-0.075967680644989,-0.148934195995331,0.6379388179364065
3.0187878787878786,-0.0582629665374756,-0.200508696269989,0.025902229785919398,0.6379388179364065
3.0193939393939395,0.0543029514312744,-0.092732817363739,-0.0818736491203306,0.6379388179364065
3.02,0.102203342056274,-0.09752285642623901,0.0378773274421694,0.6379388179364065
3.0206060606060605,0.33212521705627396,0.029413178730011,-0.0435533366203306,0.6379388179364065
3.0212121212121215,0.0495129123687744,-0.0017220751762390101,-0.168094352245331,0.6379388179364065
3.0218181818181815,-0.204359157943726,-0.10470791501998901,-0.060318473339080594,0.6379388179364065
3.0224242424242425,0.09501828346252439,-0.020882231426239,-0.113008903026581,0.6379388179364065
3.023030303030303,0.152498752212524,0.012648042011260999,0.057037483692169405,0.6379388179364065
3.0236363636363635,0.11417843971252399,-0.114287993144989,0.07619763994216941,0.6379388179364065
3.0242424242424244,-0.0989782985687256,-0.016092192363739,-0.0148131022453306,0.6379388179364065
3.024848484848485,0.102203342056274,-0.0017220751762390101,-0.177674430370331,0.6379388179364065
3.0254545454545454,-0.146878689193726,0.046178315448761,0.0905677571296694,0.6379388179364065
3.0260606060606063,-0.204359157943726,0.182694428730011,0.224688850879669,0.6379388179364065
3.0266666666666664,0.0495129123687744,0.07731356935501099,-0.26150011396408096,0.6379388179364065
3.0272727272727273,-0.0558679470062256,0.036598237323760996,-0.180069449901581,0.6379388179364065
3.027878787878788,-0.22351931419372598,0.062943452167511,0.011532112598419401,0.6379388179364065
3.0284848484848483,-0.08700320091247561,-0.147818266582489,-0.0722935709953306,0.6379388179364065
3.0290909090909093,0.0159826389312744,-0.138238188457489,-0.194439567089081,0.6379388179364065
3.0296969696969698,-0.110953396224976,0.024623139667511,-0.168094352245331,0.6379388179364065
3.0303030303030303,0.0327477756500244,0.048573334980011,-0.00762804365158059,0.6379388179364065
3.030909090909091,-0.08939822044372561,0.00785800294876099,-0.0818736491203306,0.6379388179364065
3.0315151515151513,-0.0295227321624756,0.115633881855011,0.195948616504669,0.6379388179364065
3.032121212121212,0.09022824440002439,0.089288667011261,0.18876355791091898,0.6379388179364065
3.0327272727272727,-0.0582629665374756,-0.09752285642623901,0.0474574055671694,0.6379388179364065
3.033333333333333,-0.0941882595062256,0.050968354511261,0.0187171711921694,0.6379388179364065
3.033939393939394,-0.0941882595062256,0.00785800294876099,-0.019603141307830602,0.6379388179364065
3.034545454545454,0.0782531467437744,-0.09752285642623901,0.186368538379669,0.6379388179364065
3.035151515151515,0.00640256080627442,-0.10470791501998901,-0.122588981151581,0.6379388179364065
3.035757575757576,0.020772677993774403,0.125213959980011,-0.13695909833908101,0.6379388179364065
3.036363636363636,-0.000782497787475581,0.058153413105011,0.155233284473419,0.6379388179364065
3.036969696969697,-0.146878689193726,-0.063992582988739,0.0785926594734194,0.6379388179364065
3.0375757575757576,0.13573361549377402,-0.150213286113739,0.219898811817169,0.6379388179364065
3.038181818181818,-0.07981814231872561,0.034203217792510995,-0.110613883495331,0.6379388179364065
3.038787878787879,-0.08221316184997561,0.022228120136261,0.0235072102546694,0.6379388179364065
3.039393939393939,0.0447228733062744,-0.073572661113739,0.06661756181716941,0.6379388179364065
3.04,0.188424045181274,0.060548432636260995,-0.0411583170890806,0.6379388179364065
3.0406060606060605,0.0351427951812744,-0.00890713376998901,-0.148934195995331,0.6379388179364065
3.041212121212121,-0.010362575912475601,0.015043061542511,0.20792371416091898,0.6379388179364065
3.041818181818182,0.00640256080627442,0.07970858888626099,0.5863368000984189,0.6379388179364065
3.0424242424242425,-0.14208865013122599,-0.020882231426239,0.0139271321296694,0.6379388179364065
3.043030303030303,0.09741330299377439,0.137189057636261,0.22229383134841899,0.6379388179364065
3.043636363636364,-0.110953396224976,-0.207693754863739,0.0450623860359194,0.6379388179364065
3.044242424242424,-0.0151526149749756,-0.133448149394989,-0.172884391307831,0.6379388179364065
3.044848484848485,0.102203342056274,0.098868745136261,0.0330872883796694,0.6379388179364065
3.0454545454545454,-0.158853786849976,-0.0017220751762390101,0.0282972493171694,0.6379388179364065
3.046060606060606,-0.139693630599976,0.338370698261261,-0.10342882490158099,0.6379388179364065
3.046666666666667,-0.166038845443726,0.120423920917511,0.155233284473419,0.6379388179364065
3.0472727272727274,-0.0582629665374756,0.065338471698761,0.191158577442169,0.6379388179364065
3.047878787878788,0.154893771743774,0.034203217792510995,0.121703011035919,0.6379388179364065
3.048484848484849,0.0447228733062744,-0.138238188457489,0.011532112598419401,0.6379388179364065
3.049090909090909,-0.18759402122497598,0.012648042011260999,0.0306922688484194,0.6379388179364065
3.04969696969697,-0.051077907943725596,0.103658784198761,0.0977528157234194,0.6379388179364065
3.0503030303030303,-0.166038845443726,0.041388276386261,0.195948616504669,0.6379388179364065
3.050909090909091,-0.08939822044372561,0.036598237323760996,0.107332893848419,0.6379388179364065
3.0515151515151517,-0.0175476345062256,0.062943452167511,0.145653206348419,0.6379388179364065
3.052121212121212,-0.0438928493499756,0.010253022480011,0.210318733692169,0.6379388179364065
3.0527272727272727,0.008797580337524421,-0.19092861814498902,0.13367810869216898,0.6379388179364065
3.0533333333333332,0.018377658462524402,-0.028067290019988998,-0.0435533366203306,0.6379388179364065
3.0539393939393937,-0.06784304466247561,-0.061597563457489,-0.012418082714080599,0.6379388179364065
3.0545454545454547,-0.23788943138122598,-0.073572661113739,-0.0435533366203306,0.6379388179364065
3.055151515151515,0.0255627170562744,-0.030462309551239,0.0426673665046694,0.6379388179364065
3.0557575757575757,-0.027127712631225598,-0.00411709470748901,0.15283826494216898,0.6379388179364065
3.0563636363636366,-0.27620974388122604,-0.044832426738739,-0.0459483561515806,0.6379388179364065
3.0569696969696967,0.00640256080627442,-0.176558500957489,-0.0698985514640806,0.6379388179364065
3.0575757575757576,-0.175618923568726,0.060548432636260995,-0.108218863964081,0.6379388179364065
3.058181818181818,-0.369615505599976,-0.09991787595748901,-0.000442985057830593,0.6379388179364065
3.0587878787878786,0.104598361587524,-0.207693754863739,-0.175279410839081,0.6379388179364065
3.0593939393939396,-0.27620974388122604,-0.030462309551239,0.121703011035919,0.6379388179364065
3.06,-0.0965832790374756,0.086893647480011,0.145653206348419,0.6379388179364065
3.0606060606060606,-0.07023806419372561,0.017438081073761002,-0.017208121776580602,0.6379388179364065
3.0612121212121215,-0.225914333724976,-0.047227446269989,-0.110613883495331,0.6379388179364065
3.0618181818181816,0.142918674087524,0.065338471698761,0.124098030567169,0.6379388179364065
3.0624242424242425,-0.0151526149749756,-0.068782622051239,0.0211121907234194,0.6379388179364065
3.063030303030303,-0.113348415756226,-0.12626309080123901,-0.0555284342765806,0.6379388179364065
3.0636363636363635,-0.0582629665374756,-0.133448149394989,0.0881727375984194,0.6379388179364065
3.0642424242424244,0.212374240493774,0.110843842792511,-0.192044547557831,0.6379388179364065
3.0648484848484845,-0.108558376693726,0.149164155292511,-0.0914537272453306,0.6379388179364065
3.0654545454545454,-0.0391028102874756,0.122818940448761,0.155233284473419,0.6379388179364065
3.0660606060606064,-0.0175476345062256,0.23298983888626099,0.224688850879669,0.6379388179364065
3.0666666666666664,-0.0199426540374756,-0.238829008769989,0.0881727375984194,0.6379388179364065
3.0672727272727274,0.31057004127502397,-0.078362700176239,0.057037483692169405,0.6379388179364065
3.067878787878788,0.039932834243774404,0.084498627948761,-0.0794786295890806,0.6379388179364065
3.0684848484848484,-0.048682888412475596,-0.183743559551239,0.011532112598419401,0.6379388179364065
3.0690909090909093,-0.08939822044372561,0.031808198261261,0.19834363603591898,0.6379388179364065
3.06969696969697,0.09980832252502439,-0.116683012676239,0.445030647754669,0.6379388179364065
3.0703030303030303,0.0614880100250244,-0.071177641582489,0.28935437822341903,0.6379388179364065
3.070909090909091,-0.07502810325622561,-0.023277250957488997,-0.29263536787033095,0.6379388179364065
3.0715151515151513,-0.14208865013122599,0.034203217792510995,0.0905677571296694,0.6379388179364065
3.0721212121212123,-0.07263308372497561,-0.083152739238739,0.112122932910919,0.6379388179364065
3.0727272727272728,-0.13250857200622598,-0.00411709470748901,0.0402723469734194,0.6379388179364065
3.0733333333333333,-0.0127575954437256,-0.078362700176239,0.112122932910919,0.6379388179364065
3.073939393939394,0.020772677993774403,-0.083152739238739,0.28935437822341903,0.6379388179364065
3.0745454545454542,-0.139693630599976,-0.080757719707489,0.00913709306716941,0.6379388179364065
3.075151515151515,0.0375378147125244,-0.10470791501998901,-0.0148131022453306,0.6379388179364065
3.0757575757575757,-0.22830935325622598,-0.09991787595748901,0.421080452442169,0.6379388179364065
3.076363636363636,-0.149273708724976,-0.092732817363739,0.15762830400466898,0.6379388179364065
3.076969696969697,0.09262326393127439,0.096473725605011,0.112122932910919,0.6379388179364065
3.0775757575757576,-0.106163357162476,-0.10231289548873901,0.052247444629669404,0.6379388179364065
3.078181818181818,-0.0391028102874756,-0.205298735332489,0.236663948535919,0.6379388179364065
3.078787878787879,-0.17801394309997598,-0.178953520488739,0.011532112598419401,0.6379388179364065
3.079393939393939,-0.24267947044372598,-0.040042387676239,0.176788460254669,0.6379388179364065
3.08,0.133338595962524,-0.224458891582489,0.279774300098419,0.6379388179364065
3.0806060606060606,0.0590929904937744,0.0030679638862609903,-0.105823844432831,0.6379388179364065
3.081212121212121,-0.175618923568726,0.050968354511261,-0.0483433756828306,0.6379388179364065
3.081818181818182,-0.14208865013122599,-0.059202543926239005,0.31809461259841904,0.6379388179364065
3.0824242424242425,-0.00557253684997558,-0.109497954082489,0.19355359697341898,0.6379388179364065
3.083030303030303,0.0255627170562744,-0.087942778301239,-0.0842686686515806,0.6379388179364065
3.0836363636363635,0.0279577365875244,0.091683686542511,-0.0531334147453306,0.6379388179364065
3.084242424242424,-0.166038845443726,-0.052017485332489004,-0.0842686686515806,0.6379388179364065
3.084848484848485,-0.170828884506226,-0.066387602519989,0.20792371416091898,0.6379388179364065
3.0854545454545454,-0.0989782985687256,-0.068782622051239,0.0306922688484194,0.6379388179364065
3.086060606060606,0.0686730686187744,-0.032857329082489,0.241453987598419,0.6379388179364065
3.086666666666667,0.147708713150024,-0.0017220751762390101,0.176788460254669,0.6379388179364065
3.0872727272727274,-0.010362575912475601,-0.047227446269989,0.0857777180671694,0.6379388179364065
3.087878787878788,-0.048682888412475596,0.07491854982376099,-0.0315782389640806,0.6379388179364065
3.0884848484848484,-0.113348415756226,-0.052017485332489004,0.116912971973419,0.6379388179364065
3.089090909090909,-0.103768337631226,-0.044832426738739,0.160023323535919,0.6379388179364065
3.08969696969697,-0.144483669662476,-0.016092192363739,-0.0267881999015806,0.6379388179364065
3.0903030303030303,-0.07263308372497561,-0.047227446269989,-0.0555284342765806,0.6379388179364065
3.090909090909091,-0.00557253684997558,0.189879487323761,-0.0243931803703306,0.6379388179364065
3.0915151515151518,-0.027127712631225598,0.00546298341751099,0.169603401660919,0.6379388179364065
3.092121212121212,-0.08221316184997561,-0.152608305644989,0.19355359697341898,0.6379388179364065
3.0927272727272728,-0.0223376735687256,-0.281939360332489,0.14325818681716898,0.6379388179364065
3.0933333333333333,0.00640256080627442,-0.059202543926239005,-0.148934195995331,0.6379388179364065
3.0939393939393938,0.0782531467437744,0.094078706073761,0.274984261035919,0.6379388179364065
3.0945454545454547,-0.14208865013122599,-0.19092861814498902,-0.0698985514640806,0.6379388179364065
3.095151515151515,-0.11813845481872601,-0.00890713376998901,-0.22078478193283102,0.6379388179364065
3.0957575757575757,0.0135876194000244,0.027018159198761,0.0953577961921694,0.6379388179364065
3.0963636363636367,-0.17801394309997598,-0.020882231426239,0.0618275227546694,0.6379388179364065
3.0969696969696967,-0.0917932399749756,-0.011302153301239001,0.119307991504669,0.6379388179364065
3.0975757575757576,-0.0606579860687256,-0.13105312986373902,0.011532112598419401,0.6379388179364065
3.098181818181818,0.042327853775024404,-0.00411709470748901,-0.175279410839081,0.6379388179364065
3.0987878787878786,0.018377658462524402,-0.090337797832489,-0.204019645214081,0.6379388179364065
3.0993939393939396,-0.046287868881225595,-0.188533598613739,0.052247444629669404,0.6379388179364065
3.1,-0.048682888412475596,0.012648042011260999,0.0809876790046694,0.6379388179364065
3.100606060606061,-0.11574343528747601,0.000672944355010989,-0.0507383952140806,0.6379388179364065
3.101212121212121,-0.149273708724976,0.055758393573761,0.557596565723419,0.6379388179364065
3.101818181818182,-0.158853786849976,-0.198113676738739,0.435450569629669,0.6379388179364065
3.102424242424242,-0.254654568099976,-0.253199125957489,-0.0675035319328306,0.6379388179364065
3.103030303030303,0.0279577365875244,0.000672944355010989,-0.14174913740158102,0.6379388179364065
3.103636363636364,0.0495129123687744,-0.035252348613739,-0.0483433756828306,0.6379388179364065
3.104242424242424,0.0471178928375244,-0.0017220751762390101,0.0905677571296694,0.6379388179364065
3.104848484848485,-0.00796755638122558,-0.013697172832489,0.00913709306716941,0.6379388179364065
3.105454545454545,-0.051077907943725596,0.050968354511261,0.246244026660919,0.6379388179364065
3.106060606060606,-0.259444607162476,0.153954194355011,0.0282972493171694,0.6379388179364065
3.106666666666667,0.142918674087524,-0.040042387676239,0.119307991504669,0.6379388179364065
3.107272727272727,0.142918674087524,-0.133448149394989,0.260614143848419,0.6379388179364065
3.107878787878788,-0.11813845481872601,-0.071177641582489,-0.0148131022453306,0.6379388179364065
3.108484848484848,-0.101373318099976,-0.044832426738739,-0.0315782389640806,0.6379388179364065
3.109090909090909,-0.0558679470062256,-0.028067290019988998,-0.0555284342765806,0.6379388179364065
3.1096969696969703,0.0495129123687744,0.118028901386261,0.121703011035919,0.6379388179364065
3.11030303030303,-0.0438928493499756,0.031808198261261,0.114517952442169,0.6379388179364065
3.1109090909090913,0.0758581272125244,-0.011302153301239001,0.241453987598419,0.6379388179364065
3.1115151515151522,0.0279577365875244,0.029413178730011,0.054642464160919405,0.6379388179364065
3.1121212121212123,0.0279577365875244,0.149164155292511,-0.0315782389640806,0.6379388179364065
3.1127272727272732,-0.25704958763122604,0.034203217792510995,0.104937874317169,0.6379388179364065
3.1133333333333333,-0.166038845443726,-0.205298735332489,0.057037483692169405,0.6379388179364065
3.1139393939393942,-0.113348415756226,-0.181348540019989,0.0785926594734194,0.6379388179364065
3.114545454545455,0.020772677993774403,-0.198113676738739,-0.297425406932831,0.6379388179364065
3.1151515151515152,0.09980832252502439,-0.049622465801239,-0.0986387858390806,0.6379388179364065
3.115757575757576,-0.13729861106872598,0.019833100605011002,0.174393440723419,0.6379388179364065
3.1163636363636362,-0.08939822044372561,-0.095127836894989,-0.000442985057830593,0.6379388179364065
3.116969696969697,-0.0199426540374756,-0.128658110332489,-0.0746885905265806,0.6379388179364065
3.117575757575758,0.0590929904937744,0.041388276386261,0.0330872883796694,0.6379388179364065
3.118181818181818,-0.027127712631225598,0.0030679638862609903,-0.0507383952140806,0.6379388179364065
3.118787878787879,-0.254654568099976,-0.049622465801239,0.119307991504669,0.6379388179364065
3.119393939393939,-0.00796755638122558,-0.0017220751762390101,0.239058968067169,0.6379388179364065
3.12,0.0854382053375244,0.213829682636261,0.0450623860359194,0.6379388179364065
3.120606060606061,0.0231676975250244,0.110843842792511,0.0881727375984194,0.6379388179364065
3.121212121212121,-0.0127575954437256,-0.202903715801239,0.205528694629669,0.6379388179364065
3.121818181818182,0.011192599868774399,-0.056807524394989005,-0.0675035319328306,0.6379388179364065
3.122424242424242,-0.00557253684997558,0.106053803730011,-0.019603141307830602,0.6379388179364065
3.123030303030303,-0.027127712631225598,0.187484467792511,0.116912971973419,0.6379388179364065
3.123636363636364,-0.0582629665374756,-0.040042387676239,0.0833826985359194,0.6379388179364065
3.124242424242424,-0.08460818138122561,-0.066387602519989,0.119307991504669,0.6379388179364065
3.124848484848485,-0.134903591537476,-0.056807524394989005,0.059432503223419406,0.6379388179364065
3.125454545454545,0.138128635025024,-0.155003325176239,0.18876355791091898,0.6379388179364065
3.126060606060606,-0.103768337631226,-0.023277250957488997,-0.0675035319328306,0.6379388179364065
3.126666666666667,-0.259444607162476,-0.042437407207489,-0.017208121776580602,0.6379388179364065
3.127272727272727,-0.130113552474976,0.07491854982376099,0.116912971973419,0.6379388179364065
3.127878787878788,-0.321715114974976,0.072523530292511,-0.16569933271408102,0.6379388179364065
3.128484848484848,-0.0319177516937256,-0.052017485332489004,-0.0411583170890806,0.6379388179364065
3.129090909090909,-0.0223376735687256,-0.12626309080123901,0.13367810869216898,0.6379388179364065
3.12969696969697,-0.00557253684997558,-0.291519438457489,0.38755017900466904,0.6379388179364065
3.13030303030303,0.11896847877502399,-0.030462309551239,0.169603401660919,0.6379388179364065
3.130909090909091,-0.06784304466247561,0.187484467792511,-0.223179801464081,0.6379388179364065
3.131515151515152,0.0495129123687744,0.050968354511261,0.18876355791091898,0.6379388179364065
3.132121212121212,0.128548556900024,0.101263764667511,0.155233284473419,0.6379388179364065
3.132727272727273,0.00640256080627442,-0.092732817363739,0.0211121907234194,0.6379388179364065
3.133333333333333,-0.000782497787475581,0.027018159198761,0.06901258134841941,0.6379388179364065
3.133939393939394,0.0590929904937744,-0.133448149394989,0.171998421192169,0.6379388179364065
3.1345454545454547,0.198004123306274,-0.047227446269989,-0.010023063182830598,0.6379388179364065
3.135151515151515,0.0231676975250244,0.053363374042511,-0.168094352245331,0.6379388179364065
3.1357575757575757,-0.106163357162476,-0.10470791501998901,0.0857777180671694,0.6379388179364065
3.136363636363636,-0.25704958763122604,-0.054412504863739004,0.0809876790046694,0.6379388179364065
3.1369696969696967,0.0854382053375244,-0.135843168926239,0.231873909473419,0.6379388179364065
3.1375757575757577,0.183634006118774,0.16832431154251098,0.004347054004669409,0.6379388179364065
3.1381818181818177,-0.12292849388122601,0.029413178730011,0.13367810869216898,0.6379388179364065
3.1387878787878787,-0.08460818138122561,-0.281939360332489,0.160023323535919,0.6379388179364065
3.1393939393939387,-0.07742312278747561,-0.092732817363739,-0.0938487467765806,0.6379388179364065
3.14,0.0878332248687744,0.027018159198761,0.169603401660919,0.6379388179364065
3.140606060606061,0.0686730686187744,-0.145423247051239,0.19355359697341898,0.6379388179364065
3.141212121212121,-0.319320095443726,0.029413178730011,0.13367810869216898,0.6379388179364065
3.141818181818182,-0.113348415756226,-0.145423247051239,0.0929627766609194,0.6379388179364065
3.142424242424242,0.238719455337524,-0.18613857908248901,0.107332893848419,0.6379388179364065
3.143030303030303,0.020772677993774403,-0.044832426738739,0.0330872883796694,0.6379388179364065
3.143636363636364,-0.127718532943726,-0.095127836894989,-0.108218863964081,0.6379388179364065
3.144242424242424,0.0758581272125244,0.00546298341751099,-0.012418082714080599,0.6379388179364065
3.144848484848485,0.0854382053375244,-0.155003325176239,0.0139271321296694,0.6379388179364065
3.145454545454545,-0.0582629665374756,0.034203217792510995,0.0402723469734194,0.6379388179364065
3.146060606060606,0.0303527561187744,0.031808198261261,0.191158577442169,0.6379388179364065
3.146666666666667,-0.0989782985687256,0.046178315448761,-0.0243931803703306,0.6379388179364065
3.147272727272727,0.011192599868774399,-0.00890713376998901,0.0187171711921694,0.6379388179364065
3.147878787878788,0.29140988502502396,-0.085547758769989,-0.0315782389640806,0.6379388179364065
3.148484848484848,0.202794162368774,-0.044832426738739,0.059432503223419406,0.6379388179364065
3.149090909090909,0.0231676975250244,-0.028067290019988998,0.07619763994216941,0.6379388179364065
3.14969696969697,0.178843967056274,-0.028067290019988998,-0.0818736491203306,0.6379388179364065
3.15030303030303,0.128548556900024,-0.040042387676239,0.160023323535919,0.6379388179364065
3.150909090909091,-0.00796755638122558,-0.09991787595748901,0.0642225422859194,0.6379388179364065
3.1515151515151523,0.018377658462524402,-0.059202543926239005,0.12888806962966898,0.6379388179364065
3.152121212121212,-0.134903591537476,0.106053803730011,0.344439827442169,0.6379388179364065
3.1527272727272733,-0.110953396224976,-0.040042387676239,0.19834363603591898,0.6379388179364065
3.153333333333333,-0.08221316184997561,0.034203217792510995,-0.0627134928703306,0.6379388179364065
3.1539393939393943,-0.000782497787475581,-0.037647368144989,0.07140760087966941,0.6379388179364065
3.154545454545455,0.0471178928375244,-0.260384184551239,0.059432503223419406,0.6379388179364065
3.1551515151515153,0.0830431858062744,0.127608979511261,-0.17048937177658102,0.6379388179364065
3.155757575757576,0.0351427951812744,0.070128510761261,-0.00523302412033059,0.6379388179364065
3.1563636363636363,0.0327477756500244,0.144374116230011,0.0642225422859194,0.6379388179364065
3.156969696969697,-0.07981814231872561,0.127608979511261,0.219898811817169,0.6379388179364065
3.157575757575758,-0.07981814231872561,-0.224458891582489,0.181578499317169,0.6379388179364065
3.158181818181818,-0.07981814231872561,-0.042437407207489,0.0498524250984194,0.6379388179364065
3.158787878787879,-0.024732693099975597,0.127608979511261,-0.0411583170890806,0.6379388179364065
3.159393939393939,0.200399142837524,0.170719331073761,-0.033973258495330595,0.6379388179364065
3.16,0.0135876194000244,-0.13105312986373902,0.07380262041091941,0.6379388179364065
3.160606060606061,-0.07742312278747561,-0.095127836894989,-0.259105094432831,0.6379388179364065
3.161212121212121,-0.139693630599976,0.027018159198761,0.351624886035919,0.6379388179364065
3.161818181818182,0.0638830295562744,0.058153413105011,0.116912971973419,0.6379388179364065
3.162424242424242,0.13094357643127402,-0.085547758769989,-0.0291832194328306,0.6379388179364065
3.163030303030303,0.11896847877502399,-0.090337797832489,0.294144417285919,0.6379388179364065
3.163636363636364,0.011192599868774399,-0.155003325176239,0.0857777180671694,0.6379388179364065
3.164242424242424,-0.350455349349976,-0.020882231426239,-0.168094352245331,0.6379388179364065
3.164848484848485,0.0327477756500244,-0.032857329082489,-0.132169059276581,0.6379388179364065
3.165454545454545,0.104598361587524,0.00785800294876099,0.07140760087966941,0.6379388179364065
3.166060606060606,-0.252259548568726,-0.00890713376998901,-0.0555284342765806,0.6379388179364065
3.166666666666667,-0.06784304466247561,-0.018487211894989,-0.0028380045890805897,0.6379388179364065
3.167272727272727,0.09262326393127439,0.07970858888626099,0.231873909473419,0.6379388179364065
3.167878787878788,-0.130113552474976,0.170719331073761,0.059432503223419406,0.6379388179364065
3.168484848484848,-0.0582629665374756,0.027018159198761,-0.227969840526581,0.6379388179364065
3.169090909090909,0.142918674087524,-0.193323637676239,0.07140760087966941,0.6379388179364065
3.16969696969697,0.0614880100250244,0.015043061542511,-0.0890587077140806,0.6379388179364065
3.17030303030303,-0.0414978298187256,-0.078362700176239,0.0402723469734194,0.6379388179364065
3.170909090909091,0.018377658462524402,-0.174163481426239,0.315699593067169,0.6379388179364065
3.171515151515152,-0.125323513412476,-0.087942778301239,-0.108218863964081,0.6379388179364065
3.172121212121212,-0.0606579860687256,-0.111892973613739,-0.17048937177658102,0.6379388179364065
3.172727272727273,0.15728879127502401,0.050968354511261,0.0402723469734194,0.6379388179364065
3.173333333333333,0.0878332248687744,0.065338471698761,0.00913709306716941,0.6379388179364065
3.173939393939394,0.12375851783752399,0.067733491230011,0.0881727375984194,0.6379388179364065
3.174545454545455,0.133338595962524,0.144374116230011,-0.134564078807831,0.6379388179364065
3.175151515151515,-0.010362575912475601,-0.145423247051239,-0.00523302412033059,0.6379388179364065
3.175757575757576,-0.024732693099975597,-0.016092192363739,0.054642464160919405,0.6379388179364065
3.176363636363636,0.224349338150024,0.07731356935501099,0.0474574055671694,0.6379388179364065
3.1769696969696968,-0.0606579860687256,0.012648042011260999,0.0282972493171694,0.6379388179364065
3.1775757575757577,0.0519079319000244,-0.059202543926239005,0.109727913379669,0.6379388179364065
3.1781818181818178,-0.113348415756226,-0.044832426738739,0.21271375322341898,0.6379388179364065
3.1787878787878787,-0.19238406028747598,-0.042437407207489,-0.208809684276581,0.6379388179364065
3.1793939393939388,-0.16364382591247598,-0.09991787595748901,0.00913709306716941,0.6379388179364065
3.1799999999999997,-0.106163357162476,0.065338471698761,0.164813362598419,0.6379388179364065
3.180606060606061,0.0495129123687744,0.125213959980011,0.116912971973419,0.6379388179364065
3.1812121212121207,-0.271419704818726,0.015043061542511,0.0929627766609194,0.6379388179364065
3.181818181818182,0.0375378147125244,0.043783295917511,0.119307991504669,0.6379388179364065
3.1824242424242417,0.214769260025024,-0.111892973613739,0.227083870410919,0.6379388179364065
3.183030303030303,0.0255627170562744,-0.109497954082489,-0.0267881999015806,0.6379388179364065
3.183636363636364,0.0159826389312744,0.015043061542511,-0.0698985514640806,0.6379388179364065
3.184242424242424,-0.113348415756226,0.012648042011260999,0.0857777180671694,0.6379388179364065
3.184848484848485,-0.161248806381226,0.024623139667511,-0.0770836100578306,0.6379388179364065
3.185454545454545,0.0638830295562744,-0.040042387676239,0.145653206348419,0.6379388179364065
3.186060606060606,-0.0558679470062256,0.048573334980011,0.265404182910919,0.6379388179364065
3.186666666666667,-0.26902468528747603,0.213829682636261,-0.019603141307830602,0.6379388179364065
3.187272727272727,-0.0558679470062256,-0.056807524394989005,0.174393440723419,0.6379388179364065
3.187878787878788,0.106993381118774,-0.018487211894989,0.21271375322341898,0.6379388179364065
3.188484848484848,0.23632443580627402,0.012648042011260999,-0.0507383952140806,0.6379388179364065
3.189090909090909,-0.113348415756226,0.0030679638862609903,0.07140760087966941,0.6379388179364065
3.18969696969697,-0.158853786849976,0.029413178730011,0.495326057910919,0.6379388179364065
3.19030303030303,-0.139693630599976,0.101263764667511,-0.0962437663078306,0.6379388179364065
3.190909090909091,0.00640256080627442,0.144374116230011,0.0929627766609194,0.6379388179364065
3.1915151515151523,-0.19717409934997598,-0.135843168926239,0.459400764942169,0.6379388179364065
3.192121212121212,-0.27620974388122604,-0.171768461894989,-0.15132921552658102,0.6379388179364065
3.1927272727272733,0.039932834243774404,-0.078362700176239,0.004347054004669409,0.6379388179364065
3.193333333333333,-0.19717409934997598,0.029413178730011,0.057037483692169405,0.6379388179364065
3.1939393939393943,-0.07023806419372561,0.022228120136261,-0.0675035319328306,0.6379388179364065
3.1945454545454552,-0.110953396224976,-0.073572661113739,-0.038763297557830596,0.6379388179364065
3.1951515151515153,-0.00317751731872558,0.038993256855010996,0.22229383134841899,0.6379388179364065
3.1957575757575762,-0.0319177516937256,0.187484467792511,-0.012418082714080599,0.6379388179364065
3.1963636363636363,-0.0343127712249756,-0.107102934551239,-0.189649528026581,0.6379388179364065
3.1969696969696972,0.0471178928375244,-0.042437407207489,0.13367810869216898,0.6379388179364065
3.197575757575758,-0.225914333724976,0.242569917011261,-0.019603141307830602,0.6379388179364065
3.1981818181818182,-0.16364382591247598,0.024623139667511,0.07380262041091941,0.6379388179364065
3.198787878787879,-0.0223376735687256,0.048573334980011,0.0785926594734194,0.6379388179364065
3.1993939393939392,-0.154063747787476,0.101263764667511,-0.038763297557830596,0.6379388179364065
3.2,-0.17801394309997598,0.053363374042511,0.00674207353591941,0.6379388179364065
3.200606060606061,0.169263888931274,-0.107102934551239,-0.17048937177658102,0.6379388179364065
3.201212121212121,0.274644748306274,-0.109497954082489,-0.0148131022453306,0.6379388179364065
3.201818181818182,0.018377658462524402,0.108448823261261,-0.0866636881828306,0.6379388179364065
3.202424242424242,-0.000782497787475581,0.015043061542511,-0.184859488964081,0.6379388179364065
3.203030303030303,-0.0319177516937256,-0.217273832988739,0.107332893848419,0.6379388179364065
3.203636363636364,-0.0558679470062256,-0.30828457517623903,0.0881727375984194,0.6379388179364065
3.204242424242424,0.11896847877502399,-0.030462309551239,-0.134564078807831,0.6379388179364065
3.204848484848485,0.0806481662750244,0.065338471698761,0.052247444629669404,0.6379388179364065
3.205454545454545,-0.00796755638122558,-0.090337797832489,0.25103406572341896,0.6379388179364065
3.206060606060606,-0.0175476345062256,-0.052017485332489004,0.0809876790046694,0.6379388179364065
3.206666666666667,-0.134903591537476,-0.056807524394989005,-0.0746885905265806,0.6379388179364065
3.207272727272727,0.0495129123687744,-0.066387602519989,0.0426673665046694,0.6379388179364065
3.207878787878788,-0.13250857200622598,0.086893647480011,0.155233284473419,0.6379388179364065
3.208484848484848,-0.31692507591247604,-0.073572661113739,-0.012418082714080599,0.6379388179364065
3.209090909090909,-0.113348415756226,-0.075967680644989,-0.033973258495330595,0.6379388179364065
3.20969696969697,-0.0367077907562256,-0.040042387676239,-0.0746885905265806,0.6379388179364065
3.21030303030303,-0.0534729274749756,0.048573334980011,0.224688850879669,0.6379388179364065
3.210909090909091,0.00400754127502442,-0.068782622051239,0.121703011035919,0.6379388179364065
3.211515151515152,0.0782531467437744,0.055758393573761,0.14804822587966898,0.6379388179364065
3.212121212121212,0.0159826389312744,0.07491854982376099,0.35641492509841904,0.6379388179364065
3.212727272727273,0.0590929904937744,-0.061597563457489,0.21271375322341898,0.6379388179364065
3.213333333333333,-0.0606579860687256,-0.059202543926239005,0.107332893848419,0.6379388179364065
3.213939393939394,-0.11574343528747601,-0.109497954082489,0.0785926594734194,0.6379388179364065
3.214545454545455,-0.0319177516937256,0.070128510761261,0.054642464160919405,0.6379388179364065
3.215151515151515,-0.110953396224976,0.050968354511261,-0.0770836100578306,0.6379388179364065
3.215757575757576,-0.11574343528747601,0.098868745136261,0.0905677571296694,0.6379388179364065
3.216363636363636,-0.0223376735687256,0.144374116230011,0.145653206348419,0.6379388179364065
3.216969696969697,0.0734631076812744,0.07970858888626099,0.07380262041091941,0.6379388179364065
3.2175757575757578,0.0878332248687744,-0.135843168926239,0.13367810869216898,0.6379388179364065
3.218181818181818,-0.0367077907562256,0.031808198261261,0.183973518848419,0.6379388179364065
3.2187878787878788,-0.08700320091247561,-0.12626309080123901,-0.0531334147453306,0.6379388179364065
3.219393939393939,-0.0295227321624756,0.094078706073761,-0.0962437663078306,0.6379388179364065
3.2199999999999998,0.0447228733062744,0.149164155292511,-0.20162462568283102,0.6379388179364065
3.2206060606060607,0.0614880100250244,-0.138238188457489,0.07380262041091941,0.6379388179364065
3.2212121212121207,-0.0414978298187256,0.134794038105011,0.42826551103591903,0.6379388179364065
3.2218181818181817,-0.0391028102874756,0.00785800294876099,0.334859749317169,0.6379388179364065
3.2224242424242417,-0.144483669662476,-0.087942778301239,0.0929627766609194,0.6379388179364065
3.2230303030303027,0.008797580337524421,-0.035252348613739,0.121703011035919,0.6379388179364065
3.223636363636364,0.0303527561187744,-0.114287993144989,-0.0219981608390806,0.6379388179364065
3.2242424242424237,0.0255627170562744,0.053363374042511,-0.0938487467765806,0.6379388179364065
3.224848484848485,-0.00557253684997558,-0.073572661113739,0.0450623860359194,0.6379388179364065
3.2254545454545447,0.09501828346252439,-0.044832426738739,0.0402723469734194,0.6379388179364065
3.226060606060606,0.00400754127502442,0.062943452167511,0.270194221973419,0.6379388179364065
3.226666666666667,0.0447228733062744,0.024623139667511,-0.0219981608390806,0.6379388179364065
3.227272727272727,0.13094357643127402,0.106053803730011,0.0642225422859194,0.6379388179364065
3.227878787878788,-0.189989040756226,-0.018487211894989,0.0857777180671694,0.6379388179364065
3.228484848484848,-0.07263308372497561,0.065338471698761,-0.0651085124015806,0.6379388179364065
3.229090909090909,-0.048682888412475596,0.031808198261261,0.171998421192169,0.6379388179364065
3.22969696969697,-0.0223376735687256,-0.068782622051239,-0.033973258495330595,0.6379388179364065
3.23030303030303,0.0830431858062744,0.122818940448761,0.16241834306716899,0.6379388179364065
3.230909090909091,0.0806481662750244,0.00546298341751099,0.19834363603591898,0.6379388179364065
3.231515151515152,0.0135876194000244,-0.152608305644989,0.150443245410919,0.6379388179364065
3.232121212121212,-0.0438928493499756,-0.0017220751762390101,-0.0435533366203306,0.6379388179364065
3.232727272727273,-0.0606579860687256,-0.047227446269989,-0.10342882490158099,0.6379388179364065
3.233333333333333,0.11178342018127399,-0.083152739238739,0.28695935869216904,0.6379388179364065
3.233939393939394,-0.0175476345062256,-0.059202543926239005,0.14804822587966898,0.6379388179364065
3.2345454545454553,0.138128635025024,0.197064545917511,-0.0291832194328306,0.6379388179364065
3.235151515151515,-0.0127575954437256,-0.032857329082489,0.191158577442169,0.6379388179364065
3.2357575757575763,-0.08221316184997561,-0.013697172832489,0.07619763994216941,0.6379388179364065
3.236363636363636,-0.113348415756226,0.187484467792511,-0.0579234538078306,0.6379388179364065
3.2369696969696973,-0.11574343528747601,-0.040042387676239,-0.012418082714080599,0.6379388179364065
3.237575757575758,0.159683810806274,-0.030462309551239,-0.0675035319328306,0.6379388179364065
3.2381818181818183,-0.08460818138122561,-0.071177641582489,0.174393440723419,0.6379388179364065
3.238787878787879,-0.0438928493499756,-0.090337797832489,0.0211121907234194,0.6379388179364065
3.2393939393939393,-0.127718532943726,-0.020882231426239,-0.012418082714080599,0.6379388179364065
3.24,0.0543029514312744,0.022228120136261,0.102542854785919,0.6379388179364065
3.240606060606061,0.18123898658752402,-0.09752285642623901,0.126493050098419,0.6379388179364065
3.241212121212121,0.174053927993774,0.017438081073761002,0.167208382129669,0.6379388179364065
3.241818181818182,0.142918674087524,-0.083152739238739,0.059432503223419406,0.6379388179364065
3.242424242424242,-0.154063747787476,-0.12626309080123901,0.0306922688484194,0.6379388179364065
3.243030303030303,0.0614880100250244,0.062943452167511,0.0402723469734194,0.6379388179364065
3.243636363636364,0.039932834243774404,-0.087942778301239,-0.012418082714080599,0.6379388179364065
3.244242424242424,-0.16364382591247598,-0.133448149394989,0.0019520344734194099,0.6379388179364065
3.244848484848485,-0.0367077907562256,-0.114287993144989,-0.00762804365158059,0.6379388179364065
3.245454545454545,-0.0989782985687256,-0.061597563457489,-0.0267881999015806,0.6379388179364065
3.246060606060606,0.147708713150024,-0.234038969707489,0.0426673665046694,0.6379388179364065
3.246666666666667,0.0016125217437744199,-0.056807524394989005,0.176788460254669,0.6379388179364065
3.247272727272727,0.11417843971252399,0.130003999042511,0.0642225422859194,0.6379388179364065
3.247878787878788,0.00400754127502442,-0.020882231426239,0.140863167285919,0.6379388179364065
3.248484848484848,-0.17322390403747598,-0.078362700176239,0.179183479785919,0.6379388179364065
3.249090909090909,0.13094357643127402,-0.061597563457489,0.052247444629669404,0.6379388179364065
3.24969696969697,0.00400754127502442,-0.164583403301239,0.0019520344734194099,0.6379388179364065
3.25030303030303,-0.024732693099975597,0.053363374042511,-0.268685172557831,0.6379388179364065
3.250909090909091,-0.00557253684997558,0.141979096698761,-0.287845328807831,0.6379388179364065
3.251515151515152,0.106993381118774,0.161139252948761,0.435450569629669,0.6379388179364065
3.252121212121212,-0.0941882595062256,0.07970858888626099,0.39713025712966904,0.6379388179364065
3.252727272727273,0.09980832252502439,-0.044832426738739,0.0282972493171694,0.6379388179364065
3.253333333333333,0.183634006118774,-0.016092192363739,-0.036368278026580596,0.6379388179364065
3.253939393939394,-0.07742312278747561,-0.080757719707489,0.186368538379669,0.6379388179364065
3.254545454545455,-0.08221316184997561,-0.116683012676239,0.0905677571296694,0.6379388179364065
3.255151515151515,0.0686730686187744,-0.013697172832489,-0.0243931803703306,0.6379388179364065
3.255757575757576,-0.07981814231872561,0.07491854982376099,0.00674207353591941,0.6379388179364065
3.256363636363636,-0.0223376735687256,-0.030462309551239,0.100147835254669,0.6379388179364065
3.256969696969697,0.0734631076812744,-0.140633207988739,0.195948616504669,0.6379388179364065
3.257575757575758,-0.07263308372497561,0.036598237323760996,-0.0746885905265806,0.6379388179364065
3.258181818181818,0.0279577365875244,0.065338471698761,0.164813362598419,0.6379388179364065
3.258787878787879,-0.0175476345062256,-0.202903715801239,0.0498524250984194,0.6379388179364065
3.259393939393939,-0.06784304466247561,-0.214878813457489,-0.29982042646408097,0.6379388179364065
3.26,0.0135876194000244,0.098868745136261,-0.287845328807831,0.6379388179364065
3.2606060606060607,0.11896847877502399,0.055758393573761,0.18876355791091898,0.6379388179364065
3.261212121212121,-0.0438928493499756,-0.143028227519989,0.124098030567169,0.6379388179364065
3.2618181818181817,-0.149273708724976,0.127608979511261,-0.000442985057830593,0.6379388179364065
3.262424242424242,0.19560910377502402,0.012648042011260999,0.12888806962966898,0.6379388179364065
3.2630303030303027,0.09741330299377439,0.137189057636261,0.00674207353591941,0.6379388179364065
3.263636363636364,-0.0319177516937256,0.065338471698761,0.011532112598419401,0.6379388179364065
3.2642424242424237,-0.127718532943726,-0.090337797832489,0.155233284473419,0.6379388179364065
3.264848484848485,-0.18759402122497598,-0.066387602519989,-0.0219981608390806,0.6379388179364065
3.2654545454545447,0.0830431858062744,-0.071177641582489,0.07619763994216941,0.6379388179364065
3.266060606060606,0.104598361587524,-0.166978422832489,0.200738655567169,0.6379388179364065
3.266666666666667,0.09980832252502439,0.089288667011261,-0.120193961620331,0.6379388179364065
3.267272727272727,-0.18280398216247598,0.197064545917511,0.109727913379669,0.6379388179364065
3.267878787878788,-0.046287868881225595,-0.123868071269989,0.121703011035919,0.6379388179364065
3.268484848484848,0.0231676975250244,-0.006512114238739011,-0.0579234538078306,0.6379388179364065
3.269090909090909,-0.07023806419372561,-0.00890713376998901,-0.0818736491203306,0.6379388179364065
3.26969696969697,0.0135876194000244,0.036598237323760996,-0.0651085124015806,0.6379388179364065
3.27030303030303,-0.0534729274749756,0.062943452167511,-0.019603141307830602,0.6379388179364065
3.270909090909091,0.0734631076812744,0.07970858888626099,0.0402723469734194,0.6379388179364065
3.271515151515151,-0.0917932399749756,0.046178315448761,0.011532112598419401,0.6379388179364065
3.272121212121212,0.020772677993774403,-0.147818266582489,-0.12737902021408098,0.6379388179364065
3.272727272727273,0.284224826431274,-0.18613857908248901,-0.0675035319328306,0.6379388179364065
3.273333333333333,-0.0917932399749756,0.000672944355010989,-0.108218863964081,0.6379388179364065
3.273939393939394,-0.199569118881226,0.065338471698761,0.22229383134841899,0.6379388179364065
3.274545454545455,-0.010362575912475601,0.031808198261261,-0.0579234538078306,0.6379388179364065
3.275151515151515,-0.07023806419372561,0.067733491230011,-0.213599723339081,0.6379388179364065
3.275757575757576,-0.18759402122497598,-0.023277250957488997,0.174393440723419,0.6379388179364065
3.276363636363636,-0.0989782985687256,-0.052017485332489004,-0.124984000682831,0.6379388179364065
3.276969696969697,0.0662780490875244,0.07970858888626099,-0.0914537272453306,0.6379388179364065
3.2775757575757583,0.17165890846252402,0.000672944355010989,0.0881727375984194,0.6379388179364065
3.278181818181818,0.0447228733062744,-0.114287993144989,0.236663948535919,0.6379388179364065
3.2787878787878793,0.00640256080627442,-0.10470791501998901,-0.0675035319328306,0.6379388179364065
3.279393939393939,-0.0127575954437256,0.101263764667511,-0.00523302412033059,0.6379388179364065
3.2800000000000002,-0.0917932399749756,0.108448823261261,-0.10342882490158099,0.6379388179364065
3.280606060606061,0.188424045181274,-0.042437407207489,0.107332893848419,0.6379388179364065
3.2812121212121212,0.133338595962524,0.048573334980011,0.301329475879669,0.6379388179364065
3.281818181818182,-0.0223376735687256,-0.013697172832489,0.531251350879669,0.6379388179364065
3.2824242424242422,-0.166038845443726,-0.049622465801239,0.229478889942169,0.6379388179364065
3.283030303030303,-0.0558679470062256,0.065338471698761,0.0163221516609194,0.6379388179364065
3.283636363636364,-0.0175476345062256,0.043783295917511,0.442635628223419,0.6379388179364065
3.284242424242424,-0.158853786849976,-0.066387602519989,-0.20641466474533102,0.6379388179364065
3.284848484848485,0.133338595962524,0.144374116230011,0.13367810869216898,0.6379388179364065
3.285454545454545,-0.08700320091247561,0.060548432636260995,0.07140760087966941,0.6379388179364065
3.286060606060606,-0.108558376693726,-0.073572661113739,-0.0219981608390806,0.6379388179364065
3.286666666666667,-0.106163357162476,-0.018487211894989,-0.139354117870331,0.6379388179364065
3.287272727272727,-0.0295227321624756,0.022228120136261,0.0857777180671694,0.6379388179364065
3.287878787878788,0.0543029514312744,0.072523530292511,-0.0675035319328306,0.6379388179364065
3.288484848484849,-0.046287868881225595,-0.063992582988739,-0.110613883495331,0.6379388179364065
3.289090909090909,-0.0582629665374756,-0.083152739238739,0.179183479785919,0.6379388179364065
3.28969696969697,0.0734631076812744,0.089288667011261,0.07380262041091941,0.6379388179364065
3.29030303030303,0.200399142837524,0.050968354511261,0.121703011035919,0.6379388179364065
3.290909090909091,-0.283394802474976,0.132399018573761,0.0785926594734194,0.6379388179364065
3.291515151515152,-0.125323513412476,0.144374116230011,0.131283089160919,0.6379388179364065
3.292121212121212,-0.108558376693726,0.024623139667511,0.0282972493171694,0.6379388179364065
3.292727272727273,-0.175618923568726,0.118028901386261,-0.0818736491203306,0.6379388179364065
3.293333333333333,0.0758581272125244,-0.140633207988739,-0.16569933271408102,0.6379388179364065
3.293939393939394,0.0758581272125244,-0.054412504863739004,0.025902229785919398,0.6379388179364065
3.294545454545455,0.142918674087524,-0.020882231426239,-0.036368278026580596,0.6379388179364065
3.295151515151515,0.0854382053375244,-0.123868071269989,0.0618275227546694,0.6379388179364065
3.295757575757576,0.214769260025024,0.015043061542511,-0.0842686686515806,0.6379388179364065
3.296363636363636,-0.0223376735687256,-0.10231289548873901,0.07140760087966941,0.6379388179364065
3.296969696969697,-0.144483669662476,-0.171768461894989,0.0905677571296694,0.6379388179364065
3.297575757575758,0.13573361549377402,-0.080757719707489,-0.0818736491203306,0.6379388179364065
3.298181818181818,-0.0534729274749756,0.038993256855010996,0.011532112598419401,0.6379388179364065
3.298787878787879,-0.0965832790374756,-0.042437407207489,0.12888806962966898,0.6379388179364065
3.299393939393939,-0.161248806381226,0.048573334980011,-0.017208121776580602,0.6379388179364065
3.3,-0.130113552474976,0.034203217792510995,0.0163221516609194,0.6715743489102014
3.3006060606060608,-0.08221316184997561,-0.013697172832489,0.0953577961921694,0.6715743489102014
3.301212121212121,-0.340875271224976,-0.016092192363739,0.052247444629669404,0.6715743489102014
3.3018181818181818,-0.0965832790374756,-0.00411709470748901,0.227083870410919,0.6715743489102014
3.302424242424242,0.0782531467437744,-0.193323637676239,-0.017208121776580602,0.6715743489102014
3.3030303030303028,-0.0295227321624756,-0.18613857908248901,-0.0315782389640806,0.6715743489102014
3.3036363636363637,0.169263888931274,-0.054412504863739004,-0.0986387858390806,0.6715743489102014
3.3042424242424238,0.11417843971252399,-0.133448149394989,0.0498524250984194,0.6715743489102014
3.3048484848484847,-0.08700320091247561,-0.10470791501998901,-0.242339957714081,0.6715743489102014
3.3054545454545448,-0.0414978298187256,-0.169373442363739,0.054642464160919405,0.6715743489102014
3.3060606060606057,-0.0391028102874756,0.113238862323761,0.0905677571296694,0.6715743489102014
3.306666666666667,0.0159826389312744,0.055758393573761,-0.168094352245331,0.6715743489102014
3.3072727272727267,0.0590929904937744,-0.061597563457489,0.0857777180671694,0.6715743489102014
3.307878787878788,0.0519079319000244,0.130003999042511,0.059432503223419406,0.6715743489102014
3.3084848484848477,-0.0223376735687256,0.010253022480011,0.291749397754669,0.6715743489102014
3.309090909090909,-0.14208865013122599,-0.111892973613739,0.191158577442169,0.6715743489102014
3.30969696969697,-0.19717409934997598,-0.00411709470748901,-0.0459483561515806,0.6715743489102014
3.31030303030303,-0.07023806419372561,-0.121473051738739,-0.0435533366203306,0.6715743489102014
3.310909090909091,0.0016125217437744199,-0.066387602519989,-0.14653917646408102,0.6715743489102014
3.311515151515152,0.0327477756500244,0.019833100605011002,0.509696175098419,0.6715743489102014
3.312121212121212,0.0016125217437744199,0.086893647480011,0.243849007129669,0.6715743489102014
3.312727272727273,-0.158853786849976,-0.107102934551239,-0.0507383952140806,0.6715743489102014
3.313333333333333,-0.048682888412475596,-0.054412504863739004,0.229478889942169,0.6715743489102014
3.313939393939394,-0.0438928493499756,0.012648042011260999,0.052247444629669404,0.6715743489102014
3.314545454545455,-0.027127712631225598,-0.205298735332489,0.0833826985359194,0.6715743489102014
3.315151515151515,0.11178342018127399,0.046178315448761,-0.120193961620331,0.6715743489102014
3.315757575757576,-0.027127712631225598,0.046178315448761,0.131283089160919,0.6715743489102014
3.316363636363636,0.0758581272125244,-0.056807524394989005,0.186368538379669,0.6715743489102014
3.316969696969697,-0.106163357162476,-0.075967680644989,0.0905677571296694,0.6715743489102014
3.3175757575757583,0.00640256080627442,-0.13105312986373902,-0.0818736491203306,0.6715743489102014
3.318181818181818,0.24590451393127402,-0.150213286113739,-0.335745719432831,0.6715743489102014
3.3187878787878793,0.0375378147125244,-0.011302153301239001,-0.218389762401581,0.6715743489102014
3.319393939393939,0.0782531467437744,-0.198113676738739,-0.017208121776580602,0.6715743489102014
3.3200000000000003,0.0734631076812744,-0.174163481426239,0.12888806962966898,0.6715743489102014
3.3206060606060612,0.0543029514312744,-0.063992582988739,0.0402723469734194,0.6715743489102014
3.3212121212121213,0.0662780490875244,0.065338471698761,-0.158514274120331,0.6715743489102014
3.3218181818181822,0.0806481662750244,0.043783295917511,0.282169319629669,0.6715743489102014
3.3224242424242423,0.09501828346252439,0.067733491230011,0.21750379228591898,0.6715743489102014
3.3230303030303032,-0.051077907943725596,0.132399018573761,0.0019520344734194099,0.6715743489102014
3.323636363636364,-0.07981814231872561,-0.226853911113739,0.171998421192169,0.6715743489102014
3.324242424242424,0.0327477756500244,-0.085547758769989,0.0354823079109194,0.6715743489102014
3.324848484848485,0.0710680881500244,0.134794038105011,0.0809876790046694,0.6715743489102014
3.325454545454545,0.020772677993774403,-0.00411709470748901,0.150443245410919,0.6715743489102014
3.326060606060606,-0.11574343528747601,-0.202903715801239,0.025902229785919398,0.6715743489102014
3.326666666666667,0.0782531467437744,-0.090337797832489,0.179183479785919,0.6715743489102014
3.327272727272727,-0.108558376693726,0.206644624042511,0.0977528157234194,0.6715743489102014
3.327878787878788,-0.0367077907562256,0.0030679638862609903,0.0953577961921694,0.6715743489102014
3.328484848484848,-0.00796755638122558,-0.061597563457489,0.27737928056716904,0.6715743489102014
3.329090909090909,-0.151668728256226,0.086893647480011,0.052247444629669404,0.6715743489102014
3.32969696969697,0.0375378147125244,0.07731356935501099,0.07140760087966941,0.6715743489102014
3.33030303030303,0.0447228733062744,0.206644624042511,0.14804822587966898,0.6715743489102014
3.330909090909091,-0.0965832790374756,0.048573334980011,-0.0986387858390806,0.6715743489102014
3.331515151515152,0.11178342018127399,0.031808198261261,0.0809876790046694,0.6715743489102014
3.332121212121212,0.0830431858062744,-0.0017220751762390101,0.231873909473419,0.6715743489102014
3.332727272727273,-0.0343127712249756,-0.047227446269989,0.0618275227546694,0.6715743489102014
3.333333333333333,0.104598361587524,-0.152608305644989,0.0187171711921694,0.6715743489102014
3.333939393939394,-0.024732693099975597,-0.090337797832489,-0.0435533366203306,0.6715743489102014
3.334545454545455,-0.166038845443726,0.036598237323760996,0.0330872883796694,0.6715743489102014
3.335151515151515,0.169263888931274,0.00785800294876099,0.0929627766609194,0.6715743489102014
3.335757575757576,0.12375851783752399,-0.107102934551239,0.176788460254669,0.6715743489102014
3.336363636363636,-0.151668728256226,0.015043061542511,-0.0483433756828306,0.6715743489102014
3.336969696969697,-0.0319177516937256,0.067733491230011,-0.144144156932831,0.6715743489102014
3.337575757575758,-0.0127575954437256,-0.183743559551239,0.145653206348419,0.6715743489102014
3.338181818181818,0.020772677993774403,-0.10470791501998901,-0.038763297557830596,0.6715743489102014
3.338787878787879,-0.024732693099975597,-0.056807524394989005,-0.0483433756828306,0.6715743489102014
3.339393939393939,0.0495129123687744,-0.032857329082489,0.205528694629669,0.6715743489102014
3.34,-0.06784304466247561,0.098868745136261,0.191158577442169,0.6715743489102014
3.340606060606061,0.0016125217437744199,0.055758393573761,0.394735237598419,0.6715743489102014
3.341212121212121,0.0447228733062744,0.00546298341751099,0.301329475879669,0.6715743489102014
3.341818181818182,-0.26902468528747603,0.038993256855010996,0.363599983692169,0.6715743489102014
3.342424242424242,0.0375378147125244,0.141979096698761,0.07380262041091941,0.6715743489102014
3.343030303030303,-0.0127575954437256,0.017438081073761002,-0.033973258495330595,0.6715743489102014
3.3436363636363637,-0.321715114974976,-0.147818266582489,0.025902229785919398,0.6715743489102014
3.344242424242424,0.0159826389312744,-0.083152739238739,-0.115403922557831,0.6715743489102014
3.3448484848484847,0.104598361587524,0.053363374042511,0.229478889942169,0.6715743489102014
3.345454545454545,0.0327477756500244,-0.140633207988739,-0.038763297557830596,0.6715743489102014
3.3460606060606057,-0.134903591537476,-0.155003325176239,-0.0698985514640806,0.6715743489102014
3.346666666666667,-0.06784304466247561,0.0030679638862609903,-0.0148131022453306,0.6715743489102014
3.3472727272727267,0.0231676975250244,-0.00411709470748901,-0.16569933271408102,0.6715743489102014
3.347878787878788,0.09980832252502439,-0.023277250957488997,-0.0746885905265806,0.6715743489102014
3.348484848484849,-0.0199426540374756,-0.123868071269989,0.0330872883796694,0.6715743489102014
3.349090909090909,-0.324110134506226,0.070128510761261,0.0833826985359194,0.6715743489102014
3.34969696969697,-0.00557253684997558,0.00785800294876099,0.150443245410919,0.6715743489102014
3.35030303030303,0.243509494400024,-0.006512114238739011,0.0929627766609194,0.6715743489102014
3.350909090909091,-0.139693630599976,0.149164155292511,-0.0722935709953306,0.6715743489102014
3.351515151515152,-0.324110134506226,0.07731356935501099,-0.0507383952140806,0.6715743489102014
3.352121212121212,-0.0534729274749756,-0.066387602519989,0.0163221516609194,0.6715743489102014
3.352727272727273,0.174053927993774,0.043783295917511,0.150443245410919,0.6715743489102014
3.353333333333333,-0.0941882595062256,-0.032857329082489,0.0139271321296694,0.6715743489102014
3.353939393939394,-0.139693630599976,0.041388276386261,-0.15132921552658102,0.6715743489102014
3.354545454545455,-0.07502810325622561,0.0030679638862609903,0.00674207353591941,0.6715743489102014
3.355151515151515,-0.0965832790374756,-0.049622465801239,0.0450623860359194,0.6715743489102014
3.355757575757576,0.169263888931274,0.034203217792510995,-0.038763297557830596,0.6715743489102014
3.356363636363636,-0.07981814231872561,0.089288667011261,0.0402723469734194,0.6715743489102014
3.356969696969697,-0.185199001693726,0.060548432636260995,-0.012418082714080599,0.6715743489102014
3.357575757575758,0.0231676975250244,-0.078362700176239,-0.0770836100578306,0.6715743489102014
3.358181818181818,-0.264234646224976,-0.040042387676239,0.06661756181716941,0.6715743489102014
3.358787878787879,-0.046287868881225595,-0.121473051738739,0.20792371416091898,0.6715743489102014
3.359393939393939,-0.0127575954437256,-0.169373442363739,0.112122932910919,0.6715743489102014
3.36,-0.0127575954437256,0.098868745136261,-0.0962437663078306,0.6715743489102014
3.3606060606060613,0.12375851783752399,-0.0017220751762390101,0.102542854785919,0.6715743489102014
3.361212121212121,0.0758581272125244,0.034203217792510995,0.0809876790046694,0.6715743489102014
3.3618181818181823,-0.0295227321624756,0.065338471698761,0.07380262041091941,0.6715743489102014
3.362424242424242,0.008797580337524421,-0.035252348613739,0.0785926594734194,0.6715743489102014
3.3630303030303033,-0.027127712631225598,0.012648042011260999,0.0402723469734194,0.6715743489102014
3.363636363636364,-0.106163357162476,-0.224458891582489,-0.0914537272453306,0.6715743489102014
3.3642424242424243,0.209979220962524,-0.09752285642623901,-0.115403922557831,0.6715743489102014
3.364848484848485,-0.08460818138122561,-0.025672270488738998,0.114517952442169,0.6715743489102014
3.3654545454545453,-0.134903591537476,0.024623139667511,0.195948616504669,0.6715743489102014
3.366060606060606,0.0016125217437744199,-0.145423247051239,0.0977528157234194,0.6715743489102014
3.366666666666667,0.0016125217437744199,-0.140633207988739,-0.038763297557830596,0.6715743489102014
3.367272727272727,0.0016125217437744199,-0.042437407207489,-0.0267881999015806,0.6715743489102014
3.367878787878788,0.0351427951812744,-0.109497954082489,-0.0914537272453306,0.6715743489102014
3.368484848484848,0.0231676975250244,0.084498627948761,-0.21599474287033102,0.6715743489102014
3.369090909090909,0.0758581272125244,-0.092732817363739,0.0809876790046694,0.6715743489102014
3.36969696969697,0.0519079319000244,-0.040042387676239,0.5456214680671689,0.6715743489102014
3.37030303030303,0.11417843971252399,0.0030679638862609903,0.0953577961921694,0.6715743489102014
3.370909090909091,0.255484592056274,-0.073572661113739,-0.0267881999015806,0.6715743489102014
3.371515151515152,0.0231676975250244,0.103658784198761,0.33725476884841904,0.6715743489102014
3.372121212121212,-0.0582629665374756,-0.037647368144989,0.124098030567169,0.6715743489102014
3.372727272727273,-0.0941882595062256,-0.011302153301239001,-0.012418082714080599,0.6715743489102014
3.373333333333333,0.12375851783752399,-0.063992582988739,-0.0315782389640806,0.6715743489102014
3.373939393939394,0.257879611587524,-0.219668852519989,0.0163221516609194,0.6715743489102014
3.374545454545455,-0.209149197006226,-0.157398344707489,-0.0866636881828306,0.6715743489102014
3.375151515151515,-0.221124294662476,-0.075967680644989,-0.0627134928703306,0.6715743489102014
3.375757575757576,0.0471178928375244,0.094078706073761,0.227083870410919,0.6715743489102014
3.376363636363636,-0.0319177516937256,-0.020882231426239,-0.0148131022453306,0.6715743489102014
3.376969696969697,0.011192599868774399,-0.044832426738739,-0.0531334147453306,0.6715743489102014
3.377575757575758,0.164473849868774,-0.061597563457489,0.301329475879669,0.6715743489102014
3.378181818181818,-0.07502810325622561,0.00785800294876099,0.0474574055671694,0.6715743489102014
3.378787878787879,-0.16364382591247598,-0.040042387676239,-0.0411583170890806,0.6715743489102014
3.379393939393939,-0.127718532943726,-0.155003325176239,0.167208382129669,0.6715743489102014
3.38,-0.130113552474976,0.024623139667511,-0.153724235057831,0.6715743489102014
3.380606060606061,0.0543029514312744,-0.145423247051239,0.131283089160919,0.6715743489102014
3.381212121212121,-0.00317751731872558,-0.016092192363739,0.140863167285919,0.6715743489102014
3.381818181818182,0.0830431858062744,0.000672944355010989,0.0330872883796694,0.6715743489102014
3.382424242424242,0.0255627170562744,0.022228120136261,0.0378773274421694,0.6715743489102014
3.383030303030303,-0.06305300559997559,0.041388276386261,-0.0675035319328306,0.6715743489102014
3.3836363636363638,0.0447228733062744,-0.119078032207489,0.19834363603591898,0.6715743489102014
3.384242424242424,0.0303527561187744,0.091683686542511,-0.218389762401581,0.6715743489102014
3.3848484848484848,-0.166038845443726,0.027018159198761,0.0402723469734194,0.6715743489102014
3.385454545454545,-0.29776491966247604,-0.020882231426239,0.236663948535919,0.6715743489102014
3.3860606060606058,-0.161248806381226,0.024623139667511,0.160023323535919,0.6715743489102014
3.3866666666666667,-0.151668728256226,-0.13105312986373902,0.167208382129669,0.6715743489102014
3.3872727272727268,0.0566979709625244,-0.016092192363739,-0.187254508495331,0.6715743489102014
3.3878787878787877,0.43990109596252397,-0.399295317363739,0.660582405567169,0.6715743489102014
3.3884848484848478,0.145313693618774,1.08322177248001,-1.63145128583908,0.6715743489102014
3.3890909090909087,-0.736053493881226,-1.21360195798874,-0.129774039745331,0.6715743489102014
3.38969696969697,1.21828244361877,0.223409760761261,-0.35011583662033097,0.6715743489102014
3.3903030303030297,0.504566623306274,0.5587124951362611,1.5611097493171702,0.6715743489102014
3.390909090909091,-1.84494753684998,-0.24601406736373901,0.351624886035919,0.6715743489102014
3.391515151515152,1.34761349830627,1.79454257326126,-1.07101671552658,0.6715743489102014
3.392121212121212,-0.8797546657562261,-2.1404745165824903,0.155233284473419,0.6715743489102014
3.392727272727273,-0.415120876693726,-0.212483793926239,-0.8698350749015811,0.6715743489102014
3.393333333333333,1.61585568580627,2.7788956006050096,-0.984796012401581,0.6715743489102014
3.393939393939394,-1.54078005638123,-3.59904141111374,0.7060877766609189,0.6715743489102014
3.394545454545455,1.53921506080627,0.022228120136261,0.742013069629669,0.6715743489102014
3.395151515151515,1.13206174049377,2.4364078076362596,-0.534532340526581,0.6715743489102014
3.395757575757576,-3.25321902122498,-1.92971279783249,0.435450569629669,0.6715743489102014
3.396363636363636,2.5187780490875196,1.3107486279487601,-1.1500523600578298,0.6715743489102014
3.396969696969697,-0.261839626693726,-0.236433989238739,-0.615963004589081,0.6715743489102014
3.397575757575758,-2.6233288845062304,-0.907039457988739,-0.323770621776581,0.6715743489102014
3.398181818181818,3.02412717018127,2.1873257763862597,0.303724495410919,0.6715743489102014
3.398787878787879,-1.37073366966248,-2.7991048876762403,0.339649788379669,0.6715743489102014
3.399393939393939,-0.7408435329437261,-0.305889555644989,1.09408094072342,0.6715743489102014
3.4,2.76067502174377,3.8374942334175097,0.19834363603591898,1.4847560232401984
3.4006060606060613,-3.2316638454437303,-4.60015957517624,-1.33686388349533,1.4847560232401984
3.401212121212121,1.05781613502502,0.6161929638862611,-0.328560660839081,1.4847560232401984
3.4018181818181823,1.80027218971252,2.60166415529251,1.71678601884842,1.4847560232401984
3.402424242424242,-3.2723791774749804,-2.5069125048637404,0.9695399250984189,1.4847560232401984
3.4030303030303033,3.34266476783752,2.17535067873001,-0.000442985057830593,1.4847560232401984
3.4036363636363642,-0.709708279037476,-0.6340072314262389,-1.7871275553703299,1.4847560232401984
3.4042424242424243,-3.31069948997498,-1.31419277830124,-1.1835826334953299,1.4847560232401984
3.4048484848484852,4.41563351783752,2.3741372998237598,-0.0028380045890805897,1.4847560232401984
3.4054545454545453,-1.65574099388123,-2.01353848142624,2.1742347493171703,1.4847560232401984
3.4060606060606062,-1.40426394309998,-0.10470791501998901,-0.199229606151581,1.4847560232401984
3.406666666666667,3.25644406471252,3.19323397951126,-0.855464957714081,1.4847560232401984
3.4072727272727272,-3.57894167747498,-3.0218417040824903,0.14325818681716898,1.4847560232401984
3.407878787878788,2.19545041236877,0.139584077167511,-0.9512657389640811,1.4847560232401984
3.408484848484849,0.504566623306274,2.94654696779251,0.119307991504669,1.4847560232401984
3.409090909090909,-3.78251833763123,-4.245696684551239,0.011532112598419401,1.4847560232401984
3.40969696969697,3.80250851783752,2.81482089357376,0.255824104785919,1.4847560232401984
3.41030303030303,-0.0558679470062256,-0.150213286113739,-0.180069449901581,1.4847560232401984
3.410909090909091,-3.93819460716248,-2.4230868212699903,-0.0531334147453306,1.4847560232401984
3.411515151515152,4.44437375221252,3.78240878419876,-0.6926036295890811,1.4847560232401984
3.412121212121212,-2.1539050563812303,-2.3703963915824904,-0.033973258495330595,1.4847560232401984
3.412727272727273,-1.04022097434998,-0.610057036113739,0.241453987598419,1.4847560232401984
3.413333333333333,3.3642199436187696,4.0889712841987595,0.0211121907234194,1.4847560232401984
3.413939393939394,-4.37169314231873,-3.85770352048874,0.215108772754669,1.4847560232401984
3.414545454545455,2.50440793190002,0.254545014667511,-0.694998649120331,1.4847560232401984
3.415151515151515,1.35240353736877,3.35609530763626,0.181578499317169,1.4847560232401984
3.415757575757576,-4.14177126731873,-4.18342617673874,-0.536927360057831,1.4847560232401984
3.416363636363636,2.89719113502502,2.12984530763626,-0.702183707714081,1.4847560232401984
3.416969696969697,0.32254513893127396,0.07731356935501099,0.818653694629669,1.4847560232401984
3.417575757575758,-2.88438601341248,-1.99198330564499,0.0785926594734194,1.4847560232401984
3.418181818181818,3.8528039279937696,3.15970370607376,-0.9512657389640811,1.4847560232401984
3.418787878787879,-2.6305139430999804,-2.1740047900199904,-1.11891710615158,1.4847560232401984
3.419393939393939,-0.843829372787476,-1.58003994626999,0.6294471516609189,1.4847560232401984
3.42,4.2192419162750205,4.8410074170112605,0.758778206348419,1.4847560232401984
3.420606060606061,-4.26870730247498,-3.1679378954887403,0.107332893848419,1.4847560232401984
3.421212121212121,1.13685177955627,0.091683686542511,-0.994376090526581,1.4847560232401984
3.421818181818182,1.84817258033752,3.00402743654251,-0.30221544599533096,1.4847560232401984
3.422424242424242,-3.8304187282562303,-3.93194912595749,0.052247444629669404,1.4847560232401984
3.423030303030303,3.3450597873687697,2.39808749513626,0.19355359697341898,1.4847560232401984
3.423636363636364,-0.16364382591247598,0.482071870136261,0.8857142415046689,1.4847560232401984
3.424242424242424,-3.40650027122498,-2.63863857908249,0.057037483692169405,1.4847560232401984
3.424848484848485,4.51622433815002,2.7765005810737597,-2.18949083662033,1.4847560232401984
3.425454545454545,-2.05331423606873,-1.3237728564262399,-0.10103380537033099,1.4847560232401984
3.426060606060606,-1.48569460716248,-1.30940273923874,0.16241834306716899,1.4847560232401984
3.4266666666666667,4.06356564674377,3.8734195263862596,0.44742566728591904,1.4847560232401984
3.427272727272727,-3.4448205837249803,-2.7392293993949903,0.555201546192169,1.4847560232401984
3.4278787878787877,1.55598019752502,-0.063992582988739,-1.75120226240158,1.4847560232401984
3.428484848484848,1.00512570533752,4.1823770459175105,-0.316585563182831,1.4847560232401984
3.4290909090909087,-4.10105593528748,-5.09592861814499,-0.175279410839081,1.4847560232401984
3.42969696969697,3.39296017799377,1.8113077099800101,3.43880506181717,1.4847560232401984
3.4303030303030297,0.942855197525024,2.08194491701126,0.30611951494216905,1.4847560232401984
3.430909090909091,-4.3764831813812295,-3.75950771970749,-1.62666124677658,1.4847560232401984
3.431515151515152,3.85519894752502,3.17646884279251,-1.0350914225578298,1.4847560232401984
3.432121212121212,-1.12404665794373,-1.68542080564499,1.2952625813484202,1.4847560232401984
3.432727272727273,-1.78507204856873,-0.8591390673637389,0.37797010087966904,1.4847560232401984
3.433333333333333,4.08751584205627,4.44103915529251,-0.477051871776581,1.4847560232401984
3.433939393939394,-5.13570437278748,-2.76078457517624,-0.39083116865158096,1.4847560232401984
3.434545454545455,2.0876745334625197,-1.15851650876999,-2.01944444990158,1.4847560232401984
3.435151515151515,1.80506222877502,3.7967789013862596,0.756383186817169,1.4847560232401984
3.435757575757576,-3.69869265403748,-3.53198086423874,0.516881233692169,1.4847560232401984
3.436363636363636,2.6864294162750197,1.72029696779251,1.67128064775467,1.4847560232401984
3.436969696969697,0.727303439712524,0.944310639667511,-0.9512657389640811,1.4847560232401984
3.437575757575758,-3.5478064235687303,-3.67807705564499,-1.57157579755783,1.4847560232401984
3.438181818181818,3.57498166236877,3.84228427248001,-0.663863395214081,1.4847560232401984
3.438787878787879,-1.17434206809998,-1.83391201658249,1.28089246416092,1.4847560232401984
3.439393939393939,-2.3574817165374804,-2.8422152392387403,1.4796790852546702,1.4847560232401984
3.44,4.90661252174377,5.35593661623001,-1.4757750163078298,1.4847560232401984
3.440606060606061,-4.69981081809998,-1.85546719236374,-2.17512071943283,1.4847560232401984
3.441212121212121,1.23744259986877,-1.58003994626999,-0.38125109052658096,1.4847560232401984
3.441818181818182,2.40860715065002,3.93569003419876,0.835418831348419,1.4847560232401984
3.442424242424242,-3.42326540794373,-3.6613119189262404,-0.0579234538078306,1.4847560232401984
3.443030303030303,2.59062863502502,1.86399813966751,1.05815564775467,1.4847560232401984
3.4436363636363643,0.00640256080627442,1.08322177248001,-0.0267881999015806,1.4847560232401984
3.444242424242424,-3.7537781032562303,-4.41574307126999,-1.5787608561515798,1.4847560232401984
3.4448484848484853,4.12344113502502,3.22676425294876,-0.345325797557831,1.4847560232401984
3.445454545454545,-1.08093630638123,0.235384858417511,1.90599256181717,1.4847560232401984
3.4460606060606063,-2.2377307399749804,-2.7224642626762403,0.603101936817169,1.4847560232401984
3.446666666666667,4.37012814674377,3.09024813966751,-2.34516710615158,1.4847560232401984
3.4472727272727273,-3.89268923606873,-1.35730312986374,-1.2578282389640798,1.4847560232401984
3.447878787878788,1.07458127174377,-0.5166512743949889,0.100147835254669,1.4847560232401984
3.4484848484848483,1.83380246315002,3.5979922802925097,-0.21120470380783102,1.4847560232401984
3.449090909090909,-4.18488161888123,-4.3798177783012395,0.655792366504669,1.4847560232401984
3.44969696969697,3.08400265846252,1.89992343263626,-0.26150011396408096,1.4847560232401984
3.45030303030303,0.569232150650024,2.30468173341751,-1.33207384443283,1.4847560232401984
3.450909090909091,-4.5561096462249795,-4.50914883298874,-0.433941520214081,1.4847560232401984
3.451515151515152,4.192896701431271,2.96331210451126,0.536041389942169,1.4847560232401984
3.452121212121212,-0.716893337631226,-0.159793364238739,1.26412732744217,1.4847560232401984
3.452727272727273,-1.96230349388123,-2.8589803759574903,-0.0986387858390806,1.4847560232401984
3.453333333333333,3.9533947483062697,4.09136630373001,-1.30572862958908,1.4847560232401984
3.453939393939394,-3.85915896263123,-2.06862393064499,-0.7692442545890811,1.4847560232401984
3.454545454545455,0.9955456272125239,-1.62794033689499,-0.0842686686515806,1.4847560232401984
3.455151515151515,2.61697384986877,4.26141269044876,0.873739143848419,1.4847560232401984
3.455757575757576,-4.31900271263123,-3.00028652830124,0.167208382129669,1.4847560232401984
3.456363636363636,2.2194006076812696,0.8604849560737611,-1.8134727702140798,1.4847560232401984
3.456969696969697,1.07937131080627,1.5286954052925101,0.310909554004669,1.4847560232401984
3.457575757575758,-3.52625124778748,-3.3619344775199904,0.538436409473419,1.4847560232401984
3.458181818181818,3.7402380100250197,3.1189883740425097,-0.249525016307831,1.4847560232401984
3.458787878787879,-1.64137087669373,-0.018487211894989,0.399525276660919,1.4847560232401984
3.459393939393939,-2.07247439231873,-4.50675381345749,-0.36927599287033097,1.4847560232401984
3.46,4.45395383033752,4.51767978029251,-1.7320421061515798,1.4847560232401984
3.460606060606061,-3.49272097434998,-1.23994717283249,0.751593147754669,1.4847560232401984
3.461212121212121,0.13094357643127402,-1.80517178220749,2.13351941728592,1.4847560232401984
3.461818181818182,3.20614865455627,3.6339175732612596,-0.565667594432831,1.4847560232401984
3.462424242424242,-4.15853640403748,-3.1751229540824903,-1.3943443522453298,1.4847560232401984
3.463030303030303,2.4636925998687698,1.46642489748001,-0.762059195995331,1.4847560232401984
3.463636363636364,0.708143283462524,2.25917636232376,0.6462122883796689,1.4847560232401984
3.464242424242424,-4.12500613059998,-3.98224453611374,-0.5273472819328311,1.4847560232401984
3.464848484848485,4.00129513893127,2.3765323193550096,0.179183479785919,1.4847560232401984
3.465454545454545,-1.10249148216248,1.85681308107376,-0.0291832194328306,1.4847560232401984
3.466060606060606,-2.39580202903748,-4.511543852519989,-1.1284971842765799,1.4847560232401984
3.466666666666667,4.06835568580627,2.82679599123001,-0.256710074901581,1.4847560232401984
3.467272727272727,-2.45567751731873,-0.7130428759574889,1.6688856282234201,1.4847560232401984
3.467878787878788,0.200399142837524,-1.48423916501999,0.8234437336921689,1.4847560232401984
3.4684848484848487,2.28167111549377,3.78240878419876,-1.0398814616203298,1.4847560232401984
3.469090909090909,-4.5225793727874795,-3.7044222704887404,-0.9488707194328311,1.4847560232401984
3.4696969696969697,2.87084592018127,1.1909976513862601,-0.783614371776581,1.4847560232401984
3.47030303030303,1.10332150611877,3.22915927248001,1.47249402666092,1.4847560232401984
3.4709090909090907,-4.62317019309998,-3.6110165087699904,0.492931038379669,1.4847560232401984
3.4715151515151508,3.82885373268127,2.6327994091987597,-1.5260704264640799,1.4847560232401984
3.4721212121212117,-0.855804470443726,-0.061597563457489,-0.493817008495331,1.4847560232401984
3.472727272727273,-2.0604992946624803,-3.7403475634574903,0.14804822587966898,1.4847560232401984
3.4733333333333327,3.9533947483062697,4.27099276857376,-0.0842686686515806,1.4847560232401984
3.473939393939394,-3.2556140407562304,-1.16330654783249,1.5060243000984201,1.4847560232401984
3.474545454545455,0.631502658462524,-2.42548184080124,-0.194439567089081,1.4847560232401984
3.475151515151515,2.89000607643127,3.63631259279251,-1.45182482099533,1.4847560232401984
3.475757575757576,-4.74052615013123,-2.72485928220749,-1.5356505045890798,1.4847560232401984
3.476363636363636,2.05174924049377,0.8628799756050111,-0.814749625682831,1.4847560232401984
3.476969696969697,2.04695920143127,2.66872470216751,2.19339490556717,1.4847560232401984
3.477575757575758,-3.96453982200623,-3.02663174314499,0.0474574055671694,1.4847560232401984
3.478181818181818,3.4145153537750197,2.54178866701126,-1.61947618818283,1.4847560232401984
3.478787878787879,-1.27253786888123,0.985025971698761,-0.699788688182831,1.4847560232401984
3.479393939393939,-1.78746706809998,-5.230049711894989,1.01025525712967,1.4847560232401984
3.48,4.44197873268127,4.17758700685501,0.9647498860359189,1.4847560232401984
3.480606060606061,-2.9730017360687304,-0.023277250957488997,1.48207410478592,1.4847560232401984
3.481212121212121,-0.0391028102874756,-2.57876309080124,-0.36927599287033097,1.4847560232401984
3.481818181818182,2.85408078346252,3.27705966310501,-2.7690855631828297,1.4847560232401984
3.482424242424242,-3.78491335716248,-3.3284042040824904,-0.326165641307831,1.4847560232401984
3.483030303030303,2.3559167209625196,2.00051425294876,0.06661756181716941,1.4847560232401984
3.483636363636364,1.24702267799377,2.35258212404251,1.5706898274421701,1.4847560232401984
3.484242424242424,-4.44833376731873,-3.6014364306449904,-0.273475211620331,1.4847560232401984
3.484848484848485,3.9462096897125196,1.38259921388626,-2.68765489912033,1.4847560232401984
3.485454545454545,-1.65574099388123,2.1346353466987598,-1.09257189130783,1.4847560232401984
3.4860606060606063,-1.67729616966248,-3.9535043017387403,1.33358289384842,1.4847560232401984
3.4866666666666672,4.3318078342437705,2.62800937013626,2.60773328447342,1.4847560232401984
3.4872727272727273,-2.66883425559998,-0.0017220751762390101,0.557596565723419,1.4847560232401984
3.4878787878787882,0.0495129123687744,-2.65061367673874,-1.3560240397453298,1.4847560232401984
3.4884848484848483,2.45171750221252,4.05065097169876,-1.05904161787033,1.4847560232401984
3.4890909090909092,-3.78491335716248,-3.64933682126999,-0.48184191083908096,1.4847560232401984
3.48969696969697,2.30083127174377,0.7024136670112611,2.07843396806717,1.4847560232401984
3.4903030303030302,1.72123654518127,3.6506827099800097,1.31921277666092,1.4847560232401984
3.490909090909091,-5.34886111106873,-3.0146566454887402,-1.7056968913078299,1.4847560232401984
3.491515151515152,4.140206271743771,1.16465243654251,-2.06255480146408,1.4847560232401984
3.492121212121212,-0.851014431381226,0.29047030763626097,-0.47944689130783097,1.4847560232401984
3.492727272727273,-1.76830691184998,-2.9715462939262403,1.3766932454109202,1.4847560232401984
3.493333333333333,4.106675998306271,3.81833407716751,1.01983533525467,1.4847560232401984
3.493939393939394,-3.75856814231873,-0.866324125957489,1.3982484211921702,1.4847560232401984
3.494545454545455,0.859029513931274,-3.53198086423874,-2.6158043131828297,1.4847560232401984
3.495151515151515,2.4828527561187697,3.8231241162300096,-0.395621207714081,1.4847560232401984
3.495757575757576,-4.08908083763123,-2.30812588376999,1.1755116047859202,1.4847560232401984
3.496363636363636,1.92720822486877,0.343160737323761,1.0773158040046702,1.4847560232401984
3.496969696969697,1.92720822486877,2.42443270998001,0.6246571125984189,1.4847560232401984
3.497575757575758,-4.43156863059998,-3.05297695798874,-2.26134142255783,1.4847560232401984
3.498181818181818,3.2971593967437696,2.0603897412300096,-1.3033336100578299,1.4847560232401984
3.498787878787879,-1.08812136497498,0.9035953076362611,-0.398016227245331,1.4847560232401984
3.499393939393939,-2.17546023216248,-4.63608486814499,1.9203626790046702,1.4847560232401984
3.5,4.3389928928375205,4.48414950685501,0.176788460254669,1.334111955047453
3.500606060606061,-3.7681482204437304,-0.037647368144989,0.155233284473419,1.334111955047453
3.501212121212121,0.399185763931274,-3.8098031298637403,-1.71288194990158,1.334111955047453
3.501818181818182,2.93311642799377,3.51656161623001,-1.23387804365158,1.334111955047453
3.502424242424242,-3.5406213649749803,-2.3033358447074903,2.08322400712967,1.334111955047453
3.503030303030303,2.2601159397125197,1.05448153810501,0.5504115071296689,1.334111955047453
3.503636363636364,0.665032931900024,2.23522616701126,-0.010023063182830598,1.334111955047453
3.504242424242424,-4.50581423606873,-2.85658535642624,-2.30205675458908,1.334111955047453
3.504848484848485,3.9533947483062697,0.731153901386261,-1.88292833662033,1.334111955047453
3.505454545454545,-0.908494900131226,2.25199130373001,0.562386604785919,1.334111955047453
3.506060606060606,-2.1634851345062303,-2.93801602048874,2.09280408525467,1.334111955047453
3.506666666666667,4.1258361545562705,2.6830948193550097,0.634237190723419,1.334111955047453
3.507272727272727,-3.09993777122498,-0.274754301738739,-0.6303331217765811,1.334111955047453
3.507878787878788,0.353680392837524,-3.26613369626999,-1.01353624677658,1.334111955047453
3.5084848484848488,2.32478146705627,4.28775790529251,-0.46028673505783096,1.334111955047453
3.509090909090909,-4.02920534934998,-3.2445785204887403,2.12154431962967,1.334111955047453
3.5096969696969698,2.44213742408752,-0.025672270488738998,0.6701624836921689,1.334111955047453
3.51030303030303,1.10811154518127,3.04953280763626,-1.43505968427658,1.334111955047453
3.5109090909090908,-5.10696413841248,-2.67456387205124,-1.9451988444328299,1.334111955047453
3.511515151515151,3.88154416236877,1.14788729982376,-1.2266929850578299,1.334111955047453
3.5121212121212118,-0.369615505599976,0.7000186474800111,0.971934944629669,1.334111955047453
3.512727272727273,-1.84494753684998,-2.2338802783012404,1.34076795244217,1.334111955047453
3.5133333333333328,3.6372521701812697,3.44950106935501,-0.510582145214081,1.334111955047453
3.513939393939394,-3.48553591575623,-0.231643950176239,-0.5273472819328311,1.334111955047453
3.514545454545455,1.00033566627502,-4.56423428220749,-1.3847642741203299,1.334111955047453
3.515151515151515,2.44213742408752,4.18716708498001,1.7024159016609202,1.334111955047453
3.515757575757576,-3.7777282985687304,-0.844768950176239,1.8940174641609202,1.334111955047453
3.516363636363636,1.62304074440002,-0.990865141582489,-0.615963004589081,1.334111955047453
3.516969696969697,1.51765988502502,1.77777743654251,-1.83263292646408,1.334111955047453
3.517575757575758,-4.06273562278748,-3.0889022509574904,-1.57157579755783,1.334111955047453
3.518181818181818,3.26362912330627,2.5034683545112597,-0.462681754589081,1.334111955047453
3.518787878787879,-0.872569607162476,0.9993960888862611,0.679742561817169,1.334111955047453
3.519393939393939,-2.6760193141937303,-3.66849697751999,2.0472987141609202,1.334111955047453
3.52,4.32701779518127,3.29382479982376,-2.3236119303703298,1.334111955047453
3.520606060606061,-4.05555056419373,0.371900971698761,-1.02311632490158,1.334111955047453
3.521212121212121,0.705748263931274,-3.37630459470749,0.6653724446296689,1.334111955047453
3.521818181818182,3.14387814674377,3.1549136670112596,2.16944471025467,1.334111955047453
3.522424242424242,-3.7873083766937303,-1.15133145017624,1.00067517900467,1.334111955047453
3.523030303030303,1.84817258033752,-0.329839750957489,-0.6878135905265811,1.334111955047453
3.523636363636364,0.399185763931274,2.33821200685501,-1.0518565592765798,1.334111955047453
3.524242424242424,-4.14416628684998,-3.40025479001999,-2.72358019208908,1.334111955047453
3.524848484848485,3.4911559787750197,0.9419156201362611,1.37908826494217,1.334111955047453
3.525454545454546,-0.319320095443726,2.57052890138626,0.871344124317169,1.334111955047453
3.526060606060606,-3.1095178493499804,-2.98352139158249,0.492931038379669,1.334111955047453
3.526666666666667,4.346177951431271,2.14900546388626,-2.35235216474533,1.334111955047453
3.527272727272727,-3.15981325950623,-0.332234770488739,-1.00395616865158,1.334111955047453
3.527878787878788,1.01949582252502,-2.2674105517387404,0.662977425098419,1.334111955047453
3.528484848484848,2.86366086158752,4.13926669435501,0.9288245930671689,1.334111955047453
3.529090909090909,-4.88422732200623,-2.3296810595512403,1.95628797197342,1.334111955047453
3.52969696969697,3.0816076389312697,-1.25910732908249,-2.18230577802658,1.334111955047453
3.5303030303030303,0.49019650611877397,2.3573721631050097,-1.1979527506828298,1.334111955047453
3.530909090909091,-3.69629763450623,-2.6122933642387403,0.19834363603591898,1.334111955047453
3.5315151515151513,3.43607052955627,1.30835360841751,0.6486073079109189,1.334111955047453
3.532121212121212,-0.374405544662476,1.17902255373001,-0.594407828807831,1.334111955047453
3.532727272727273,-2.62811892356873,-2.8517953173637403,0.114517952442169,1.334111955047453
3.533333333333333,3.80490353736877,3.09024813966751,-1.4063194499015799,1.334111955047453
3.533939393939394,-3.07359255638123,0.295260346698761,-0.326165641307831,1.334111955047453
3.534545454545455,0.198004123306274,-4.00619473142624,0.171998421192169,1.334111955047453
3.535151515151515,3.5007360569000197,4.3955337841987605,1.43417371416092,1.334111955047453
3.535757575757576,-4.7022058376312295,-0.5573666064262389,0.303724495410919,1.334111955047453
3.536363636363636,2.3199914279937697,-2.27220059080124,-2.1535655436515797,1.334111955047453
3.536969696969697,1.35240353736877,1.88076327638626,-0.033973258495330595,1.334111955047453
3.537575757575758,-3.3681799587249803,-2.12849941892624,0.40910535478591903,1.334111955047453
3.538181818181818,3.39535519752502,1.98614413576126,0.7084827961921689,1.334111955047453
3.538787878787879,-1.04261599388123,0.953890717792511,-0.601592887401581,1.334111955047453
3.539393939393939,-2.79816531028748,-2.98112637205124,0.411500374317169,1.334111955047453
3.54,4.62639523658752,2.6591446240425096,-2.88404650068283,1.334111955047453
3.540606060606061,-3.44003054466248,0.431776459980011,0.7444080891609189,1.334111955047453
3.541212121212121,0.106993381118774,-2.37758145017624,0.940799690723419,1.334111955047453
3.541818181818182,3.8264587131500196,3.5836221631050096,0.5480164875984189,1.334111955047453
3.542424242424242,-4.31900271263123,-1.3620931689262399,0.059432503223419406,1.334111955047453
3.543030303030303,2.5499133029937697,-1.81475186033249,-1.14286730146408,1.334111955047453
3.543636363636364,0.820709201431274,3.10940829591751,-0.019603141307830602,1.334111955047453
3.544242424242424,-3.5549914821624804,-3.0889022509574904,-0.23036486005783102,1.334111955047453
3.544848484848485,3.25883908424377,0.467701752948761,2.35865125322342,1.334111955047453
3.545454545454545,-0.24267947044372598,2.29510165529251,-1.9164586100578298,1.334111955047453
3.546060606060606,-3.38734011497498,-2.72725430173874,-0.48902696943283097,1.334111955047453
3.546666666666667,4.48029904518127,1.94063876466751,-1.6386363444328298,1.334111955047453
3.547272727272727,-2.6568591579437304,0.000672944355010989,0.971934944629669,1.334111955047453
3.547878787878788,-0.139693630599976,-1.81475186033249,0.651002327442169,1.334111955047453
3.548484848484848,3.29955441627502,3.45908114748001,0.270194221973419,1.334111955047453
3.549090909090909,-5.16923464622498,-1.04116055173874,0.653397346973419,1.334111955047453
3.54969696969697,3.5606115451812697,-2.90448574705124,-2.44815294599533,1.334111955047453
3.55030303030303,0.806339084243774,3.1357535107612597,0.957564827442169,1.334111955047453
3.550909090909091,-3.7034826930999802,-1.60399014158249,0.6270521321296689,1.334111955047453
3.5515151515151517,3.38338009986877,0.204249604511261,1.8556971516609202,1.334111955047453
3.552121212121212,0.39200070533752396,1.00179110841751,-2.1607506022453298,1.334111955047453
3.5527272727272727,-3.1693933376312304,-3.05776699705124,-0.694998649120331,1.334111955047453
3.553333333333333,4.0587756076812695,3.3776504834175096,-0.663863395214081,1.334111955047453
3.5539393939393937,-2.6760193141937303,-0.056807524394989005,-0.00523302412033059,1.334111955047453
3.554545454545455,-0.731263454818726,-3.5247958056449904,1.62338025712967,1.334111955047453
3.5551515151515147,4.58807492408752,3.8111490185737598,0.22229383134841899,1.334111955047453
3.555757575757576,-5.86379031028748,-0.147818266582489,-0.20162462568283102,1.334111955047453
3.5563636363636357,2.52835812721252,-2.4829623095512403,-2.66849474287033,1.334111955047453
3.556969696969697,1.86014767799377,2.01248935060501,2.2005799641609203,1.334111955047453
3.557575757575758,-3.5741516384124803,-1.47465908689499,0.413895393848419,1.334111955047453
3.558181818181818,2.88761105690002,0.6593033154487611,-0.177674430370331,1.334111955047453
3.558787878787879,-0.573192165756226,1.4520547802925101,-0.316585563182831,1.334111955047453
3.559393939393939,-2.6305139430999804,-3.1487777392387404,-0.582432731151581,1.334111955047453
3.56,4.12344113502502,1.72029696779251,-0.704578727245331,1.334111955047453
3.560606060606061,-2.6903894313812304,1.29398349123001,0.8665540852546689,1.334111955047453
3.561212121212121,-1.40665896263123,-2.15963467283249,0.5647816243171689,1.334111955047453
3.561818181818182,4.58088986549377,2.7453653271675096,-1.34883898115158,1.334111955047453
3.562424242424242,-4.94649782981873,-0.9764950243949889,0.255824104785919,1.334111955047453
3.563030303030303,2.38465695533752,-1.14893643064499,-1.69132677412033,1.334111955047453
3.563636363636364,1.18235715065002,3.0758780224800097,0.974329964160919,1.334111955047453
3.564242424242424,-4.46030886497498,-2.6362435595512403,0.662977425098419,1.334111955047453
3.564848484848485,3.89830929908752,-0.461565825176239,-0.108218863964081,1.334111955047453
3.565454545454545,-0.07502810325622561,2.0771548779487596,-0.41957140302658097,1.334111955047453
3.566060606060606,-3.18376345481873,-2.3296810595512403,0.19834363603591898,1.334111955047453
3.566666666666667,3.53187131080627,1.85202304201126,-0.187254508495331,1.334111955047453
3.567272727272727,-1.62460573997498,0.309630463886261,0.119307991504669,1.334111955047453
3.567878787878788,-1.15039187278748,-2.1476595751762404,-0.484236930370331,1.334111955047453
3.568484848484848,3.7330529514312696,3.3920206006050098,-0.129774039745331,1.334111955047453
3.569090909090909,-5.03271853294373,-0.645982329082489,0.598311897754669,1.334111955047453
3.5696969696969703,2.06611935768127,-2.81107998533249,-1.8470030436515799,1.334111955047453
3.57030303030303,1.71884152565002,3.51656161623001,0.210318733692169,1.334111955047453
3.5709090909090913,-4.71178591575623,-1.14654141111374,0.5264613118171689,1.334111955047453
3.571515151515152,3.55582150611877,-1.01002529783249,0.052247444629669404,1.334111955047453
3.5721212121212123,0.22674435768127402,0.853299897480011,-1.46379991865158,1.334111955047453
3.572727272727273,-2.80774538841248,-2.28178066892624,1.06773572587967,1.334111955047453
3.5733333333333333,3.4480456272125197,3.34651522951126,0.06901258134841941,1.334111955047453
3.573939393939394,-2.4460974391937302,-0.387320219707489,-0.675838492870331,1.334111955047453
3.574545454545455,-1.11686159934998,-2.9523861376762404,-0.5536924967765811,1.334111955047453
3.575151515151515,4.56651974830627,3.55248690919876,-0.6926036295890811,1.334111955047453
3.575757575757576,-5.00397829856873,0.340765717792511,0.991095100879669,1.334111955047453
3.576363636363636,1.31647824440002,-2.4757772509574902,-0.795589469432831,1.334111955047453
3.576969696969697,2.5355431858062696,2.47233310060501,0.25103406572341896,1.334111955047453
3.577575757575758,-4.03399538841248,-1.0842709033012399,0.0139271321296694,1.334111955047453
3.578181818181818,2.7319347873687696,-0.12626309080123901,0.5025111165046691,1.334111955047453
3.578787878787879,-0.216334255599976,2.0747598584175098,-1.25064318037033,1.334111955047453
3.579393939393939,-2.81493044700623,-3.4481551806449904,0.36839002275466903,1.334111955047453
3.58,4.25037717018127,2.1945108349800098,0.169603401660919,1.334111955047453
3.580606060606061,-1.87368777122498,0.6784634716987611,-0.879415153026581,1.334111955047453
3.581212121212121,-1.89284792747498,-2.40871670408249,-0.0315782389640806,1.334111955047453
3.581818181818182,5.08144894752502,2.76692050294876,-0.493817008495331,1.334111955047453
3.582424242424242,-4.31900271263123,-0.705857817363739,1.0270203938484201,1.334111955047453
3.583030303030303,1.59190549049377,-1.15133145017624,-0.8291197428703311,1.334111955047453
3.583636363636364,2.1331799045562696,3.12377841310501,0.004347054004669409,1.334111955047453
3.584242424242424,-4.94649782981873,-1.20881191892624,0.813863655567169,1.334111955047453
3.584848484848485,3.4648107639312697,-1.62554531736374,-0.0866636881828306,1.334111955047453
3.585454545454545,0.17644894752502402,2.41485263185501,-0.208809684276581,1.334111955047453
3.586060606060606,-3.12628298606873,-1.89139248533249,0.167208382129669,1.334111955047453
3.586666666666667,3.7761633029937696,1.29637851076126,0.21750379228591898,1.334111955047453
3.587272727272727,-1.23421755638123,0.07970858888626099,-0.46028673505783096,1.334111955047453
3.587878787878788,-2.03175906028748,-2.4566170947074903,-0.204019645214081,1.334111955047453
3.588484848484848,4.26474728736877,4.06502108888626,0.45700574541091904,1.334111955047453
3.589090909090909,-4.515394314193729,-0.7753133837699889,-0.40999132490158097,1.334111955047453
3.58969696969697,1.37156369361877,-3.0625570361137404,-0.227969840526581,1.334111955047453
3.59030303030303,2.83971066627502,3.59559726076126,-1.0949669108390798,1.334111955047453
3.590909090909091,-5.63147341575623,-0.408875395488739,0.354019905567169,1.334111955047453
3.5915151515151518,3.41930539283752,-1.22797207517624,0.48574597978591905,1.334111955047453
3.592121212121212,1.32366330299377,0.685648530292511,-0.393226188182831,1.334111955047453
3.5927272727272728,-3.2556140407562304,-1.6447054736137399,-0.122588981151581,1.334111955047453
3.593333333333333,3.5941418186187697,2.2136709912300097,-0.565667594432831,1.334111955047453
3.5939393939393938,-1.79225710716248,-0.035252348613739,1.46051892900467,1.334111955047453
3.594545454545455,-1.36833865013123,-3.25894863767624,-0.8075645670890811,1.334111955047453
3.5951515151515148,4.31504269752502,2.6998599560737597,0.552806526660919,1.334111955047453
3.595757575757576,-4.59442995872498,1.18381259279251,-0.124984000682831,1.334111955047453
3.5963636363636358,0.229139377212524,-2.5955282275199902,-1.01832628583908,1.334111955047453
3.596969696969697,3.0456823459625197,2.29270663576126,-0.939290641307831,1.334111955047453
3.597575757575758,-4.56568972434998,-1.12977627439499,0.361204964160919,1.334111955047453
3.598181818181818,2.3726818576812696,0.347950776386261,0.557596565723419,1.334111955047453
3.598787878787879,1.09853146705627,1.52630038576126,-0.759664176464081,1.334111955047453
3.599393939393939,-4.26631228294373,-3.08650723142624,0.7659632649421689,0.42680701647035785
3.6,4.80362668190002,1.12393710451126,-1.42068956708908,0.42680701647035785
3.600606060606061,-1.45216433372498,0.467701752948761,1.0821058430671702,0.42680701647035785
3.601212121212121,-2.12276980247498,-2.18837490720749,0.622262093067169,0.42680701647035785
3.601818181818182,4.372523166275021,2.0939200146675097,0.112122932910919,0.42680701647035785
3.602424242424242,-3.8471838649749803,-0.011302153301239001,-0.10342882490158099,0.42680701647035785
3.603030303030303,0.645872775650024,-1.69021084470749,-1.60510607099533,0.42680701647035785
3.603636363636364,2.12838986549377,3.08066806154251,-0.541717399120331,0.42680701647035785
3.604242424242424,-4.02920534934998,-1.11301113767624,0.440240608692169,0.42680701647035785
3.604848484848485,2.41100217018127,-1.41957363767624,0.483350960254669,0.42680701647035785
3.605454545454545,1.33563840065002,2.43161776857376,-0.0651085124015806,0.42680701647035785
3.606060606060606,-4.302237575912479,-1.8842074267387399,-0.235154899120331,0.42680701647035785
3.606666666666667,4.14499631080627,0.5754776318550111,-1.36081407880783,0.42680701647035785
3.607272727272727,-0.5612170680999761,0.431776459980011,0.782728401660919,0.42680701647035785
3.607878787878788,-1.98625368919373,-2.5596029345512403,1.1635365071296702,0.42680701647035785
3.608484848484849,4.2455871311187705,3.77282870607376,0.160023323535919,0.42680701647035785
3.609090909090909,-4.21841189231873,-0.372950102519989,-1.24585314130783,0.42680701647035785
3.60969696969697,0.863819552993774,-2.9188558642387403,-1.95956896162033,0.42680701647035785
3.61030303030303,3.1414831272125197,2.7597354443550097,-0.582432731151581,0.42680701647035785
3.610909090909091,-4.900992458724979,0.010253022480011,1.64014539384842,0.42680701647035785
3.6115151515151522,2.4325573459625196,-0.6771175829887389,1.59703504228592,0.42680701647035785
3.612121212121212,1.87930783424377,0.6616983349800111,-0.505792106151581,0.42680701647035785
3.6127272727272732,-3.71545779075623,-2.12849941892624,-0.836304801464081,0.42680701647035785
3.613333333333333,3.3809850803375197,1.20536776857376,-0.8267247233390811,0.42680701647035785
3.6139393939393942,-1.33959841575623,1.05687655763626,1.4796790852546702,0.42680701647035785
3.614545454545455,-1.41384402122498,-3.7068172900199903,1.1204261555671702,0.42680701647035785
3.6151515151515152,4.379708224868771,3.08306308107376,0.0426673665046694,0.42680701647035785
3.615757575757576,-3.8878991970062304,0.807794526386261,-1.5955259928703298,0.42680701647035785
3.6163636363636362,-0.683363064193726,-2.72485928220749,-1.3847642741203299,0.42680701647035785
3.616969696969697,3.71149777565002,2.01967440919876,0.0977528157234194,0.42680701647035785
3.617575757575758,-3.9573547634124804,-1.01481533689499,0.794703499317169,0.42680701647035785
3.618181818181818,1.91762814674377,0.345555756855011,1.00786023759842,0.42680701647035785
3.618787878787879,1.30689816627502,1.64126132326126,-1.22429796552658,0.42680701647035785
3.619393939393939,-4.77405642356873,-2.33926113767624,-0.584827750682831,0.42680701647035785
3.62,4.55454465065002,-0.210088774394989,-0.917735465526581,0.42680701647035785
3.620606060606061,-0.954000271224976,1.71311190919876,2.04969373369217,0.42680701647035785
3.621212121212121,-1.94793337669373,-2.08299404783249,1.43177869462967,0.42680701647035785
3.621818181818182,4.23121701393127,1.48079501466751,-0.824329703807831,0.42680701647035785
3.622424242424242,-3.2747741970062303,0.098868745136261,-1.2650132975578299,0.42680701647035785
3.623030303030303,0.106993381118774,-1.66386562986374,-1.63145128583908,0.42680701647035785
3.623636363636364,2.9714367404937696,3.20999911623001,0.581546761035919,0.42680701647035785
3.624242424242424,-4.35253298606873,-0.930989653301239,1.19946180009842,0.42680701647035785
3.624848484848485,1.83380246315002,-1.4435238329887399,1.4677039875984201,0.42680701647035785
3.625454545454545,1.66136105690002,2.1202652295112596,-2.00986437177658,0.42680701647035785
3.626060606060606,-5.114149197006229,-1.63512539548874,-0.8315147624015811,0.42680701647035785
3.626666666666667,4.31025265846252,0.216224702167511,-0.944080680370331,0.42680701647035785
3.627272727272727,-0.149273708724976,0.6784634716987611,1.7287611165046701,0.42680701647035785
3.627878787878788,-2.39580202903748,-2.4997274462699903,1.41261853837967,0.42680701647035785
3.628484848484849,3.8599889865875197,3.26987460451126,-1.1380772624015798,0.42680701647035785
3.629090909090909,-3.6939026149749803,0.024623139667511,-0.881810172557831,0.42680701647035785
3.62969696969697,0.267459689712524,-3.0889022509574904,-1.4973301920890798,0.42680701647035785
3.63030303030303,3.57977170143127,2.8555362256050096,1.44854383134842,0.42680701647035785
3.630909090909091,-4.4698889430999795,0.908385346698761,0.710877815723419,0.42680701647035785
3.631515151515151,1.07937131080627,-1.20881191892624,0.38755017900466904,0.42680701647035785
3.632121212121212,2.4565075412750197,0.7407339795112611,-1.40152941083908,0.42680701647035785
3.632727272727273,-3.91184939231873,-1.8626522509574899,-1.00635118818283,0.42680701647035785
3.633333333333333,3.2420739475250198,1.53588046388626,-0.934500602245331,0.42680701647035785
3.633939393939394,-0.36722048606872604,1.15986239748001,3.04362683916092,0.42680701647035785
3.6345454545454547,-2.17546023216248,-3.49605557126999,1.09408094072342,0.42680701647035785
3.635151515151515,4.41802853736877,2.4867032177925097,-2.6924449381828297,0.42680701647035785
3.6357575757575757,-3.62923708763123,0.400641206073761,-0.254315055370331,0.42680701647035785
3.636363636363636,-0.506131618881226,-2.2099300829887403,-0.175279410839081,0.42680701647035785
3.6369696969696967,3.7162878147125196,2.30228671388626,0.6294471516609189,0.42680701647035785
3.637575757575758,-3.90226931419373,-0.6172420947074889,0.107332893848419,0.42680701647035785
3.6381818181818177,1.28773801002502,0.158744233417511,0.473770882129669,0.42680701647035785
3.638787878787879,1.82661740455627,1.65563144044876,-2.02183946943283,0.42680701647035785
3.6393939393939387,-4.77166140403748,-2.55481289548874,-1.1165220866203298,0.42680701647035785
3.64,3.8695690647125196,0.252149995136261,0.19834363603591898,0.42680701647035785
3.640606060606061,-0.225914333724976,2.47472812013626,1.5179993977546702,0.42680701647035785
3.641212121212121,-3.12628298606873,-2.4757772509574902,0.382760139942169,0.42680701647035785
3.641818181818182,4.60963009986877,0.9012002881050111,-0.774034293651581,0.42680701647035785
3.642424242424242,-2.5634533962249804,0.403036225605011,-0.8123546061515811,0.42680701647035785
3.643030303030303,-0.352850368881226,-1.98719326658249,-0.843489860057831,0.42680701647035785
3.643636363636364,2.76067502174377,3.2818497021675097,1.51320935869217,0.42680701647035785
3.644242424242424,-3.85915896263123,-0.6148470751762389,0.777938362598419,0.42680701647035785
3.644848484848485,1.73321164283752,-1.50818936033249,-1.2482481608390799,0.42680701647035785
3.645454545454546,1.89846799049377,1.57659579591751,-2.20625597333908,0.42680701647035785
3.646060606060606,-5.04948366966248,-0.8591390673637389,-0.15611925458908102,0.42680701647035785
3.646666666666667,3.87914914283752,0.355135834980011,0.054642464160919405,0.42680701647035785
3.647272727272727,0.36086545143127396,0.6832535107612611,1.24257215166092,0.42680701647035785
3.647878787878788,-2.87720095481873,-2.33447109861374,0.344439827442169,0.42680701647035785
3.648484848484848,3.7570031467437697,2.4459878857612596,-1.10933702802658,0.42680701647035785
3.649090909090909,-3.16699831809998,-0.032857329082489,-1.55481066083908,0.42680701647035785
3.64969696969697,0.0566979709625244,-3.1248275439262403,0.641422249317169,0.42680701647035785
3.65030303030303,3.88154416236877,2.65435458498001,2.37541638994217,0.42680701647035785
3.650909090909091,-4.73334109153748,0.5156021435737611,-0.7524791178703311,0.42680701647035785
3.651515151515151,0.770413791275024,-1.04355557126999,-1.28896349287033,0.42680701647035785
3.652121212121212,3.23967892799377,0.534762299823761,-0.881810172557831,0.42680701647035785
3.6527272727272733,-4.74052615013123,-0.763338286113739,-0.0866636881828306,0.42680701647035785
3.653333333333333,3.1223229709625198,0.925150483417511,-0.345325797557831,0.42680701647035785
3.6539393939393943,-0.19238406028747598,1.32990878419876,2.3466761555671702,0.42680701647035785
3.654545454545455,-2.64727907981873,-3.00986660642624,-0.213599723339081,0.42680701647035785
3.6551515151515153,4.2719323459625205,1.01376620607376,-3.65284777021408,0.42680701647035785
3.655757575757576,-2.76703005638123,0.7574991162300111,0.859369026660919,0.42680701647035785
3.6563636363636363,-0.295369900131226,-1.60399014158249,1.24736219072342,0.42680701647035785
3.656969696969697,3.71149777565002,1.85681308107376,0.5456214680671689,0.42680701647035785
3.657575757575758,-3.62684206809998,-1.0842709033012399,-0.5920128092765811,0.42680701647035785
3.658181818181818,0.950040256118774,-0.363370024394989,-1.1069420084953299,0.42680701647035785
3.658787878787879,2.3870519748687697,1.9095035107612601,-1.8949034342765798,0.42680701647035785
3.659393939393939,-4.92254763450623,-1.75248135251999,0.5025111165046691,0.42680701647035785
3.66,3.62288205299377,-0.078362700176239,1.09408094072342,0.42680701647035785
3.660606060606061,0.150103732681274,2.3262369091987596,0.140863167285919,0.42680701647035785
3.661212121212121,-3.7346179470062304,-2.5236776415824904,0.112122932910919,0.42680701647035785
3.661818181818182,4.65753049049377,0.829349702167511,-1.9451988444328299,0.42680701647035785
3.662424242424242,-2.0604992946624803,0.5994278271675111,0.672557503223419,0.42680701647035785
3.663030303030303,-0.613907497787476,-1.52016445798874,0.471375862598419,0.42680701647035785
3.663636363636364,3.05047238502502,3.37046542482376,1.64493543291092,0.42680701647035785
3.664242424242424,-4.07710573997498,-0.9142245165824889,-0.414781363964081,0.42680701647035785
3.664848484848485,1.46257443580627,-2.14286953611374,-3.1451036295890797,0.42680701647035785
3.665454545454545,1.82182736549377,2.19930087404251,-0.9297105631828311,0.42680701647035785
3.666060606060606,-4.88422732200623,-0.435220610332489,1.7838465657234202,0.42680701647035785
3.666666666666667,3.2971593967437696,-0.193323637676239,1.02462537431717,0.42680701647035785
3.667272727272727,0.485406467056274,0.625773042011261,-1.12131212568283,0.42680701647035785
3.667878787878788,-3.2556140407562304,-2.37518643064499,-0.249525016307831,0.42680701647035785
3.668484848484848,3.96776486549377,2.23283114748001,-1.34883898115158,0.42680701647035785
3.669090909090909,-2.3431115993499803,0.302445405292511,-0.139354117870331,0.42680701647035785
3.66969696969697,-0.570797146224976,-2.50212246580124,1.6209852375984202,0.42680701647035785
3.67030303030303,4.037220431900019,2.7190201123237596,2.02813855791092,0.42680701647035785
3.670909090909091,-4.541739529037479,-0.016092192363739,-2.30924181318283,0.42680701647035785
3.671515151515152,0.878189670181274,-1.59680508298874,-2.49844835615158,0.42680701647035785
3.672121212121212,2.64092404518127,1.76340731935501,0.279774300098419,0.42680701647035785
3.672727272727273,-4.61838015403748,-0.375345122051239,1.2234119954109202,0.42680701647035785
3.673333333333333,2.8660558811187697,0.276100190448761,0.921639534473419,0.42680701647035785
3.673939393939394,0.011192599868774399,1.56462069826126,0.255824104785919,0.42680701647035785
3.674545454545455,-3.2412439235687303,-2.9092757861137404,-1.50212023115158,0.42680701647035785
3.675151515151515,4.11865109596252,0.041388276386261,-1.83981798505783,0.42680701647035785
3.675757575757576,-2.3431115993499803,1.2125528271675101,1.97784314775467,0.42680701647035785
3.676363636363636,-0.867779568099976,-0.907039457988739,0.761173225879669,0.42680701647035785
3.6769696969696968,3.69952267799377,1.91668856935501,0.559991585254669,0.42680701647035785
3.677575757575758,-3.92861452903748,-1.29263760251999,-1.58355089521408,0.42680701647035785
3.6781818181818178,0.700958224868774,-1.01242031736374,-1.88771837568283,0.42680701647035785
3.678787878787879,2.6026037326812697,2.64477450685501,-0.465076774120331,0.42680701647035785
3.6793939393939388,-4.77645144309998,-1.4052035204887399,1.71678601884842,0.42680701647035785
3.68,2.87084592018127,-0.610057036113739,1.6473304524421701,0.42680701647035785
3.680606060606061,0.818314181900024,1.74664218263626,-1.8470030436515799,0.42680701647035785
3.681212121212121,-4.09866091575623,-1.68781582517624,-1.0638316569328299,0.42680701647035785
3.681818181818182,4.70064084205627,0.671278413105011,-1.1332872233390798,0.42680701647035785
3.682424242424242,-1.47371950950623,-0.140633207988739,1.90120252275467,0.42680701647035785
3.683030303030303,-0.865384548568726,-1.5033993212699899,0.6294471516609189,0.42680701647035785
3.683636363636364,3.1079528537750196,3.50937655763626,0.174393440723419,0.42680701647035785
3.684242424242424,-3.94537966575623,-1.0627157275199899,-0.7476890788078311,0.42680701647035785
3.684848484848485,1.74758176002502,-2.6194784228324903,-3.02056261396408,0.42680701647035785
3.685454545454545,2.02540402565002,3.0447427685737596,-0.16569933271408102,0.42680701647035785
3.686060606060606,-4.48665407981873,0.302445405292511,2.44247693681717,0.42680701647035785
3.686666666666667,2.78702023658752,-0.605266997051239,1.3479530110359201,0.42680701647035785
3.687272727272727,0.885374728775024,0.218619721698761,-2.34516710615158,0.42680701647035785
3.687878787878788,-3.45919070091248,-1.94887295408249,-1.03269640302658,0.42680701647035785
3.688484848484848,4.09709592018127,2.0603897412300096,-0.862650016307831,0.42680701647035785
3.689090909090909,-2.1347449001312304,0.240174897480011,1.23299207353592,0.42680701647035785
3.68969696969697,-0.748028591537476,-2.3272860400199904,1.6808607258796702,0.42680701647035785
3.69030303030303,4.372523166275021,2.76692050294876,-0.134564078807831,0.42680701647035785
3.690909090909091,-4.78363650169373,-0.231643950176239,-1.54044054365158,0.42680701647035785
3.691515151515152,0.892559787368774,-1.71176602048874,-1.74641222333908,0.42680701647035785
3.692121212121212,3.04089230690002,1.8280728466987601,0.557596565723419,0.42680701647035785
3.692727272727273,-4.12740115013123,-0.10470791501998901,0.9887000813484189,0.42680701647035785
3.693333333333333,2.69361447486877,0.283285249042511,1.45333387041092,0.42680701647035785
3.693939393939394,-0.00557253684997558,1.68437167482376,-1.32249376630783,0.42680701647035785
3.6945454545454552,-3.55020144309998,-2.5955282275199902,-2.21104601240158,0.42680701647035785
3.695151515151515,4.19050168190002,-0.262779204082489,-0.378856070995331,0.42680701647035785
3.6957575757575762,-2.0509192165374803,1.55743563966751,1.85090711259842,0.42680701647035785
3.696363636363636,-1.42102907981873,-1.11780117673874,1.16114148759842,0.42680701647035785
3.6969696969696972,4.06596066627502,1.67479159669876,-0.9895860514640811,0.42680701647035785
3.697575757575758,-3.7202478298187303,-1.30940273923874,-1.3560240397453298,0.42680701647035785
3.6981818181818182,0.545281955337524,-0.945359770488739,-1.69132677412033,0.42680701647035785
3.698787878787879,2.44453244361877,2.6759097607612596,-0.256710074901581,0.42680701647035785
3.6993939393939392,-4.7692663845062295,-1.1441463915824899,1.8700672688484201,0.42680701647035785
3.7,3.0384972873687697,-0.605266997051239,1.4629139485359202,0.8020058555485078
3.700606060606061,0.5572570529937739,1.24847812013626,-1.7583873209953298,0.8020058555485078
3.701212121212121,-4.421988552474979,-1.45070889158249,-1.46379991865158,0.8020058555485078
3.701818181818182,4.52340939674377,0.8796451123237611,-0.805169547557831,0.8020058555485078
3.702424242424242,-0.9420251735687261,-0.238829008769989,2.48079724931717,0.8020058555485078
3.703030303030303,-1.56952029075623,-1.47944912595749,0.912059456348419,0.8020058555485078
3.703636363636364,3.46002072486877,3.42555087404251,-0.819539664745331,0.8020058555485078
3.704242424242424,-3.96932986106873,-0.792078520488739,-0.781219352245331,0.8020058555485078
3.704848484848485,1.00033566627502,-2.69851406736374,-2.56550890302658,0.8020058555485078
3.705454545454545,2.47806271705627,2.7262051709175097,0.136073128223419,0.8020058555485078
3.706060606060606,-4.575269802474979,0.848509858417511,1.49165418291092,0.8020058555485078
3.706666666666667,2.53075314674377,-1.04355557126999,0.782728401660919,0.8020058555485078
3.707272727272727,1.24223263893127,0.139584077167511,-2.48168321943283,0.8020058555485078
3.707878787878788,-3.6483972438812304,-1.53453457517624,-0.905760367870331,0.8020058555485078
3.708484848484848,3.4935509983062696,2.06996981935501,-0.249525016307831,0.8020058555485078
3.709090909090909,-1.23421755638123,0.163534272480011,2.00179334306717,0.8020058555485078
3.70969696969697,-1.78028200950623,-2.6027132861137403,1.1803016438484202,0.8020058555485078
3.71030303030303,4.492274142837521,2.5465787060737597,-1.1500523600578298,0.8020058555485078
3.710909090909091,-4.3501379665374795,0.256940034198761,-0.6135679850578311,0.8020058555485078
3.711515151515152,0.691378146743774,-1.86504727048874,-0.965635856151581,0.8020058555485078
3.712121212121212,3.4049352756500197,1.85202304201126,0.636632210254669,0.8020058555485078
3.712727272727273,-4.23757204856873,0.00546298341751099,0.325279671192169,0.8020058555485078
3.713333333333333,2.2194006076812696,-0.435220610332489,1.2282020344734201,0.8020058555485078
3.713939393939394,0.37044552955627397,1.47360995607376,-1.61947618818283,0.8020058555485078
3.714545454545455,-3.60289187278748,-2.56439297361374,-1.5260704264640799,0.8020058555485078
3.715151515151515,3.8959142795562696,0.292865327167511,0.373180061817169,0.8020058555485078
3.715757575757576,-1.18871218528748,1.8711831982612601,2.15267957353592,0.8020058555485078
3.716363636363636,-2.3143713649749804,-1.54650967283249,0.27737928056716904,0.8020058555485078
3.716969696969697,4.79644162330627,0.9347305615425111,-1.41350450849533,0.8020058555485078
3.7175757575757578,-3.5118811305999804,-0.423245512676239,-1.1332872233390798,0.8020058555485078
3.718181818181818,0.255484592056274,-1.12977627439499,-1.06622667646408,0.8020058555485078
3.7187878787878788,2.6984045139312696,2.68788485841751,0.897689339160919,0.8020058555485078
3.719393939393939,-4.429173611068729,-1.2638973681449899,1.31202771806717,0.8020058555485078
3.7199999999999998,2.68163937721252,-0.828003813457489,0.5671766438484189,0.8020058555485078
3.720606060606061,1.11529660377502,1.61491610841751,-1.91406359052658,0.8020058555485078
3.7212121212121207,-4.50820925559998,-2.0710189501762404,-0.556087516307831,0.8020058555485078
3.721818181818182,4.43000363502502,1.25805819826126,-0.295030387401581,0.8020058555485078
3.7224242424242417,0.12136349830627399,-0.09991787595748901,2.08801404619217,0.8020058555485078
3.723030303030303,-2.57782351341248,-1.75487637205124,0.581546761035919,0.8020058555485078
3.723636363636364,3.62288205299377,2.6735147412300098,-1.31530870771408,0.8020058555485078
3.724242424242424,-3.84957888450623,-0.449590727519989,-0.941685660839081,0.8020058555485078
3.724848484848485,0.964410373306274,-2.5260726611137403,-1.3991343913078298,0.8020058555485078
3.725454545454545,2.68403439674377,2.6423794873237596,0.9431947102546689,0.8020058555485078
3.726060606060606,-4.73813113059998,0.510812104511261,1.24736219072342,0.8020058555485078
3.726666666666667,2.09485959205627,-0.971704985332489,-0.357300895214081,0.8020058555485078
3.727272727272727,1.69010129127502,0.398246186542511,-2.25894640302658,0.8020058555485078
3.727878787878788,-3.9836999782562303,-1.5848299853324899,-0.199229606151581,0.8020058555485078
3.728484848484849,3.5414513889312698,1.94542880373001,-0.187254508495331,0.8020058555485078
3.729090909090909,-1.07135622825623,0.089288667011261,2.34188611650467,0.8020058555485078
3.72969696969697,-2.37185183372498,-2.4733822314262404,1.05097058916092,0.8020058555485078
3.73030303030303,4.99522824440002,1.67958163576126,-1.98591417646408,0.8020058555485078
3.730909090909091,-4.40761843528748,0.429381440448761,-0.8913902506828311,0.8020058555485078
3.731515151515152,0.399185763931274,-1.78840664548874,0.124098030567169,0.8020058555485078
3.732121212121212,3.17022336158752,1.85920810060501,1.7359461750984202,0.8020058555485078
3.732727272727273,-4.0316003688812305,-0.528626372051239,-0.115403922557831,0.8020058555485078
3.733333333333333,2.04935422096252,-0.253199125957489,-0.132169059276581,0.8020058555485078
3.733939393939394,0.602762424087524,1.69874179201126,-1.08059679365158,0.8020058555485078
3.734545454545455,-3.95256472434998,-2.61468838376999,-1.31530870771408,0.8020058555485078
3.735151515151515,4.00848019752502,0.295260346698761,0.322884651660919,0.8020058555485078
3.7357575757575763,-0.910889919662476,2.07236483888626,1.42219861650467,0.8020058555485078
3.736363636363636,-2.8532507595062304,-1.85307217283249,0.164813362598419,0.8020058555485078
3.7369696969696973,4.83476193580627,0.747919038105011,-1.3847642741203299,0.8020058555485078
3.737575757575758,-3.29632937278748,-0.068782622051239,-0.599197867870331,0.8020058555485078
3.7381818181818183,0.463851291275024,-1.35969814939499,-0.129774039745331,0.8020058555485078
3.738787878787879,2.5690734592437696,3.0591128857612597,0.363599983692169,0.8020058555485078
3.7393939393939393,-4.20404177513123,-1.23276211423874,0.480955940723419,0.8020058555485078
3.74,2.77983517799377,-0.624427153301239,-0.5704576334953311,0.8020058555485078
3.740606060606061,1.16559201393127,1.44007968263626,-1.58355089521408,0.8020058555485078
3.741212121212121,-4.37887820091248,-1.29742764158249,-0.364485953807831,0.8020058555485078
3.741818181818182,4.29827756080627,0.733548920917511,0.263009163379669,0.8020058555485078
3.742424242424242,-0.33608523216247604,0.244964936542511,1.2018568196296702,0.8020058555485078
3.743030303030303,-2.33592654075623,-1.69739590330124,0.179183479785919,0.8020058555485078
3.743636363636364,4.07314572486877,2.03404452638626,-1.1117320475578298,0.8020058555485078
3.744242424242424,-3.6771374782562303,0.096473725605011,-0.819539664745331,0.8020058555485078
3.744848484848485,1.01949582252502,-2.89730068845749,-0.172884391307831,0.8020058555485078
3.745454545454545,2.4996178928375197,2.8723013623237597,0.595916878223419,0.8020058555485078
3.746060606060606,-4.58005984153748,0.398246186542511,-0.108218863964081,0.8020058555485078
3.746666666666667,1.71165646705627,-0.566946684551239,-0.917735465526581,0.8020058555485078
3.747272727272727,2.0972546115875197,0.5754776318550111,-0.963240836620331,0.8020058555485078
3.747878787878788,-3.84957888450623,-1.40041348142624,0.536041389942169,0.8020058555485078
3.748484848484849,3.4049352756500197,2.04841464357376,-0.505792106151581,0.8020058555485078
3.749090909090909,-0.5803772243499761,0.7790542920112611,2.2868006672859202,0.8020058555485078
3.74969696969697,-2.5562683376312303,-2.26262051267624,0.615077034473419,0.8020058555485078
3.75030303030303,5.01917843971252,1.03771640138626,-2.38827745771408,0.8020058555485078
3.750909090909091,-4.28786745872498,0.752709077167511,0.160023323535919,0.8020058555485078
3.751515151515151,0.545281955337524,-1.6447054736137399,0.483350960254669,0.8020058555485078
3.752121212121212,2.9690417209625197,1.9310586865425101,0.229478889942169,0.8020058555485078
3.752727272727273,-4.11303103294373,-0.9190145556449889,-0.841094840526581,0.8020058555485078
3.753333333333333,1.49849972877502,0.216224702167511,-0.0675035319328306,0.8020058555485078
3.753939393939394,1.14882687721252,1.5718057568550101,-1.0782017741203298,0.8020058555485078
3.754545454545455,-3.8208386501312304,-2.58834316892624,-0.776429313182831,0.8020058555485078
3.755151515151515,4.02285031471252,0.41022128419876097,0.370785042285919,0.8020058555485078
3.755757575757576,-0.216334255599976,2.00530429201126,1.6808607258796702,0.8020058555485078
3.756363636363636,-3.4184753688812304,-1.72613613767624,0.171998421192169,0.8020058555485078
3.756969696969697,5.05989377174377,0.345555756855011,-1.4757750163078298,0.8020058555485078
3.757575757575758,-3.3921301540374804,0.5994278271675111,-0.153724235057831,0.8020058555485078
3.758181818181818,0.722513400650024,-1.73332119626999,-0.184859488964081,0.8020058555485078
3.758787878787879,2.52835812721252,3.4638711865425096,0.5456214680671689,0.8020058555485078
3.759393939393939,-4.30463259544373,-1.4052035204887399,0.39713025712966904,0.8020058555485078
3.76,2.2433508029937697,-0.6531673876762389,-0.9105504069328311,0.8020058555485078
3.7606060606060607,1.18714718971252,1.41612948732376,-0.6279381022453311,0.8020058555485078
3.761212121212121,-4.86267214622498,-1.27108242673874,0.25103406572341896,0.8020058555485078
3.7618181818181817,4.19529172096252,0.9970010693550111,0.5671766438484189,0.8020058555485078
3.762424242424242,0.19081906471252402,0.113238862323761,0.9839100422859189,0.8020058555485078
3.7630303030303027,-2.97779177513123,-1.58243496580124,0.5887318196296689,0.8020058555485078
3.763636363636364,4.78207150611877,1.76340731935501,-0.699788688182831,0.8020058555485078
3.7642424242424237,-3.8878991970062304,0.6640933545112611,-1.1117320475578298,0.8020058555485078
3.764848484848485,0.559652072525024,-3.0553719775199903,0.5887318196296689,0.8020058555485078
3.765454545454545,3.1654333225250197,3.1285684521675097,1.12761121416092,0.8020058555485078
3.766060606060606,-4.85069704856873,0.031808198261261,-0.953660758495331,0.8020058555485078
3.766666666666667,1.53203000221252,-0.669932524394989,-1.62666124677658,0.8020058555485078
3.767272727272727,2.6385290256500196,0.848509858417511,0.0163221516609194,0.8020058555485078
3.767878787878788,-4.17530154075623,-1.6447054736137399,-0.266290153026581,0.8020058555485078
3.768484848484848,3.3282946506500197,1.6915567334175101,-0.503397086620331,0.8020058555485078
3.769090909090909,-0.18759402122497598,0.6018228466987611,1.9586829915046702,0.8020058555485078
3.76969696969697,-2.8125354274749803,-2.14286953611374,0.5887318196296689,0.8020058555485078
3.77030303030303,5.06707883033752,0.910780366230011,-2.95829210615158,0.8020058555485078
3.770909090909091,-3.98849001731873,0.929940522480011,0.15283826494216898,0.8020058555485078
3.771515151515151,0.183634006118774,-1.55129971189499,1.0270203938484201,0.8020058555485078
3.772121212121212,3.6468322483062696,1.95740390138626,0.16241834306716899,0.8020058555485078
3.772727272727273,-4.335767849349979,-1.02679043455124,-0.477051871776581,0.8020058555485078
3.773333333333333,1.30689816627502,0.106053803730011,-0.764454215526581,0.8020058555485078
3.773939393939394,1.43622922096252,2.2663614209175096,-0.7069737467765811,0.8020058555485078
3.774545454545455,-4.09866091575623,-2.27938564939499,-1.50212023115158,0.8020058555485078
