Time (s),Accel X (m/s^2),Accel Y (m/s^2),Accel Z (m/s^2),CI Value
8.5,0.222997929668427,0.127861953449249,-0.31831119346618697,0.627181254997953
8.50060606060606,-0.0524293164253235,-0.0349993746757507,0.40737972450256305,0.627181254997953
8.50121212121212,0.0218162890434265,-0.00386412076950074,0.230148279190063,0.627181254997953
8.501818181818182,0.00505115232467655,0.156602187824249,0.043336755752563,0.627181254997953
8.502424242424242,-0.0165040234565735,-0.032604355144500705,0.146322595596313,0.627181254997953
8.503030303030304,-0.08116955080032341,-0.200255722332001,0.067286951065063,0.627181254997953
8.503636363636364,-0.131464960956573,-0.0517645113945007,-0.06922916221618701,0.627181254997953
8.504242424242424,-0.07637951173782341,-0.0493694918632507,-0.145869787216187,0.627181254997953
8.504848484848484,-0.136255000019073,-0.061344589519500704,0.19901302528381298,0.627181254997953
8.505454545454546,-0.014109003925323499,0.060801406574249296,-0.08120425987243701,0.627181254997953
8.506060606060606,-0.143440058612823,-0.147565292644501,0.064891931533813,0.627181254997953
8.506666666666668,-0.054824335956573496,-0.0517645113945007,0.067286951065063,0.627181254997953
8.507272727272728,0.203837773418427,0.0176910550117493,-0.114734533309937,0.627181254997953
8.507878787878788,0.177492558574677,0.015296035480499301,0.122372400283813,0.627181254997953
8.508484848484848,0.11522205076217701,0.00811097688674926,0.46725521278381305,0.627181254997953
8.509090909090908,-0.0931446484565734,-0.133195175457001,0.45767513465881304,0.627181254997953
8.50969696969697,-0.13385998048782302,-0.0709246676445007,-0.23448550987243702,0.627181254997953
8.510303030303032,-0.0260841015815735,-0.0924798434257507,0.507970544815063,0.627181254997953
8.510909090909092,0.151147343730927,0.0679864651679993,0.376244470596313,0.627181254997953
8.511515151515152,0.143962285137177,0.175762344074249,-0.133894689559937,0.627181254997953
8.512121212121212,0.0361864062309265,-0.0445794528007507,0.18943294715881298,0.627181254997953
8.512727272727272,-0.0284791211128235,-0.00865415983200074,-0.06443912315368701,0.627181254997953
8.513333333333334,0.0601366015434265,-0.0781097262382507,-0.014143712997437,0.627181254997953
8.513939393939394,-0.16978527345657302,0.0248761136054993,0.007411462783813039,0.627181254997953
8.514545454545456,-0.160205195331573,0.000925918292999261,0.18464290809631298,0.627181254997953
8.515151515151516,0.12959216794967698,-0.128405136394501,0.222963220596313,0.627181254997953
8.515757575757576,-0.11469982423782299,0.139837051105499,-0.050069005966187,0.627181254997953
8.516363636363636,-0.210500605487823,-0.032604355144500705,0.079262048721313,0.627181254997953
8.516969696969696,0.0481615038871765,-0.152355331707001,0.10321224403381299,0.627181254997953
8.517575757575758,0.0553465624809265,0.032061172199249297,-0.016538732528687,0.627181254997953
8.51818181818182,0.141567265605927,0.0536163479804993,0.187037927627563,0.627181254997953
8.51878787878788,0.12959216794967698,0.0488263089179993,0.187037927627563,0.627181254997953
8.51939393939394,0.0122362109184265,0.0967266995429993,0.031361658096313,0.627181254997953
8.52,0.0792967577934266,-0.0134441988945007,-0.057254064559937,0.627181254997953
8.52060606060606,-0.06919445314407341,-0.255341171550751,0.036151697158813,0.627181254997953
8.521212121212121,-0.22966076173782302,-0.205045761394501,-0.07162418174743701,0.627181254997953
8.521818181818182,-0.0979346875190734,-0.22899595670700099,-0.088389318466187,0.627181254997953
8.522424242424243,0.09606189451217659,0.149417129230499,-0.15544986534118702,0.627181254997953
8.523030303030303,-0.0356641797065735,-0.0517645113945007,0.18464290809631298,0.627181254997953
8.523636363636363,-0.150625117206573,-0.109244980144501,0.167877771377563,0.627181254997953
8.524242424242424,-0.0500342968940735,0.123071914386749,0.11039730262756299,0.627181254997953
8.524848484848484,-0.12906994142532302,-0.0900848238945007,0.14871761512756299,0.627181254997953
8.525454545454545,-0.08595958986282341,0.158997207355499,-0.045278966903687,0.627181254997953
8.526060606060607,0.0553465624809265,-0.0110491793632507,0.11997738075256299,0.627181254997953
8.526666666666667,-0.200920527362823,0.0248761136054993,0.028966638565063,0.627181254997953
8.527272727272727,-0.162600214862823,0.0919366604804993,0.136742517471313,0.627181254997953
8.527878787878787,-0.200920527362823,0.000925918292999261,0.24451839637756298,0.627181254997953
8.528484848484847,-0.0284791211128235,0.118281875324249,0.069681970596313,0.627181254997953
8.52909090909091,-0.0428492383003235,-0.0182342379570007,0.050521814346313,0.627181254997953
8.52969696969697,-0.136255000019073,-0.0254192965507507,-0.126709630966187,0.627181254997953
8.530303030303031,-0.0596143750190735,0.103911758136749,-0.062044103622437,0.627181254997953
8.530909090909091,-0.18894542970657302,-0.0421844332695007,0.187037927627563,0.627181254997953
8.531515151515151,-0.0452442578315735,-0.0661346285820007,0.086447107315063,0.627181254997953
8.532121212121211,-0.0404542187690735,-0.185885605144501,0.040941736221313,0.627181254997953
8.532727272727271,0.09366687498092659,-0.116430038738251,0.084052087783813,0.627181254997953
8.533333333333333,-0.0212940625190735,0.13025697298049901,0.043336755752563,0.627181254997953
8.533939393939395,-0.0236890820503235,-0.0709246676445007,-0.109944494247437,0.627181254997953
8.534545454545455,0.263713261699677,-0.0685296481132507,0.072076990127563,0.627181254997953
8.535151515151515,0.0792967577934266,0.0536163479804993,0.196618005752563,0.627181254997953
8.535757575757575,0.158332402324677,0.0488263089179993,-0.16981998252868702,0.627181254997953
8.536363636363635,-0.009318964862823449,-0.061344589519500704,-0.021328771591187,0.627181254997953
8.536969696969697,-0.270376093769073,0.0248761136054993,-0.042883947372437,0.627181254997953
8.537575757575759,-0.13865001955032302,0.058406387042999296,-0.050069005966187,0.627181254997953
8.538181818181819,-0.217685664081573,0.161392226886749,0.10081722450256299,0.627181254997953
8.538787878787879,-0.150625117206573,-0.0110491793632507,-0.114734533309937,0.627181254997953
8.539393939393939,0.0553465624809265,-0.0445794528007507,0.292418787002563,0.627181254997953
8.54,-0.0500342968940735,0.0464312893867493,0.31876400184631304,0.627181254997953
8.540606060606061,-0.0596143750190735,-0.116430038738251,-0.275200841903687,0.627181254997953
8.541212121212121,-0.054824335956573496,0.00571595735549926,-0.030908849716187,0.627181254997953
8.541818181818183,0.0433714648246765,0.0129010159492493,0.09602718544006299,0.627181254997953
8.542424242424243,0.0553465624809265,-0.0254192965507507,-0.011748693466187,0.627181254997953
8.543030303030303,0.0697166796684266,0.137442031574249,0.141532556533813,0.627181254997953
8.543636363636363,0.0601366015434265,-0.0421844332695007,-0.062044103622437,0.627181254997953
8.544242424242423,-0.0236890820503235,-0.16912046842575099,-0.08120425987243701,0.627181254997953
8.544848484848485,-0.07877453126907341,-0.149960312175751,0.088842126846313,0.627181254997953
8.545454545454547,-0.0524293164253235,0.0176910550117493,-0.153054845809937,0.627181254997953
8.546060606060607,-0.07158947267532341,0.0272711331367493,0.179852869033813,0.627181254997953
8.546666666666667,-0.0476392773628235,-0.137985214519501,0.292418787002563,0.627181254997953
8.547272727272727,0.026606328105926502,0.0536163479804993,-0.222510412216187,0.627181254997953
8.547878787878787,0.0577415820121765,-0.0876898043632507,0.069681970596313,0.627181254997953
8.548484848484849,0.0361864062309265,0.0871466214179993,0.187037927627563,0.627181254997953
8.549090909090909,0.0385814257621765,0.103911758136749,-0.047673986434937,0.627181254997953
8.54969696969697,0.026606328105926502,0.0943316800117493,-0.057254064559937,0.627181254997953
8.55030303030303,-0.203315546894073,0.111096816730499,0.321159021377563,0.627181254997953
8.55090909090909,-0.00213390626907345,0.120676894855499,0.232543298721313,0.627181254997953
8.55151515151515,-0.07158947267532341,0.0248761136054993,-0.00216861534118696,0.627181254997953
8.552121212121211,0.100851933574677,-0.0565545504570007,0.167877771377563,0.627181254997953
8.552727272727273,0.18946765623092698,-0.102059921550751,0.177457849502563,0.627181254997953
8.553333333333335,-0.10990978517532299,0.0967266995429993,0.170272790908813,0.627181254997953
8.553939393939395,0.00265613279342655,0.108701797199249,0.263678552627563,0.627181254997953
8.554545454545455,0.00744617185592655,0.022481094074249298,-0.023723791122437,0.627181254997953
8.555151515151515,-0.200920527362823,0.000925918292999261,-0.06443912315368701,0.627181254997953
8.555757575757575,-0.0596143750190735,0.0368512112617493,-0.014143712997437,0.627181254997953
8.556363636363637,-0.17936535158157302,0.0248761136054993,0.052916833877563,0.627181254997953
8.556969696969697,-0.0979346875190734,-0.023024277019500702,0.031361658096313,0.627181254997953
8.557575757575759,-0.0524293164253235,0.111096816730499,-0.021328771591187,0.627181254997953
8.558181818181819,-0.16499523439407301,0.166182265949249,0.10321224403381299,0.627181254997953
8.558787878787879,-0.200920527362823,-0.133195175457001,-0.153054845809937,0.627181254997953
8.559393939393939,0.0888768359184266,-0.0421844332695007,0.055311853408813,0.627181254997953
8.559999999999999,-0.0404542187690735,0.022481094074249298,0.175062829971313,0.627181254997953
8.56060606060606,-0.136255000019073,-0.0781097262382507,0.036151697158813,0.627181254997953
8.561212121212122,0.22539294919967698,0.058406387042999296,0.086447107315063,0.627181254997953
8.561818181818182,0.014631230449676501,0.0105059964179993,-0.105154455184937,0.627181254997953
8.562424242424242,-0.08116955080032341,-0.0948748629570007,-0.030908849716187,0.627181254997953
8.563030303030303,0.00505115232467655,-0.0900848238945007,0.177457849502563,0.627181254997953
8.563636363636363,0.014631230449676501,0.0440362698554993,0.10560726356506299,0.627181254997953
8.564242424242424,-0.06919445314407341,0.020086074542999297,0.086447107315063,0.627181254997953
8.564848484848484,0.00026111326217654604,0.015296035480499301,0.210988122940063,0.627181254997953
8.565454545454546,-0.28714123048782303,-0.061344589519500704,-0.06443912315368701,0.627181254997953
8.566060606060606,-0.057219355487823496,0.000925918292999261,0.031361658096313,0.627181254997953
8.566666666666666,0.103246953105927,-0.0637396090507507,0.261283533096313,0.627181254997953
8.567272727272726,0.0170262499809265,-0.176305527019501,-0.0069586544036869605,0.627181254997953
8.567878787878788,-0.311091425800323,-0.0541595309257507,-0.244065587997437,0.627181254997953
8.568484848484848,-0.191340449237823,-0.00146910123825074,-0.265620763778687,0.627181254997953
8.56909090909091,0.127197148418427,0.00811097688674926,0.584611169815063,0.627181254997953
8.56969696969697,-0.07637951173782341,0.216477676105499,0.210988122940063,0.627181254997953
8.57030303030303,0.11761707029342701,0.0631964261054993,0.567846033096313,0.627181254997953
8.57090909090909,-0.0500342968940735,-0.0924798434257507,0.36905941200256304,0.627181254997953
8.57151515151515,-0.0380591992378235,0.0703814846992493,-0.050069005966187,0.627181254997953
8.572121212121212,0.0457664843559265,0.07277650423049929,0.201408044815063,0.627181254997953
8.572727272727272,-0.102724726581573,-0.16912046842575099,0.064891931533813,0.627181254997953
8.573333333333334,-0.00213390626907345,0.120676894855499,0.055311853408813,0.627181254997953
8.573939393939394,0.100851933574677,0.0272711331367493,0.028966638565063,0.627181254997953
8.574545454545454,0.0529515429496765,0.0560113675117493,0.285233728408813,0.627181254997953
8.575151515151514,0.0170262499809265,0.0703814846992493,0.028966638565063,0.627181254997953
8.575757575757576,-0.0500342968940735,0.0823565823554993,0.055311853408813,0.627181254997953
8.576363636363636,-0.0260841015815735,0.0392462307929993,0.345109216690063,0.627181254997953
8.576969696969698,-0.12188488283157299,-0.157145370769501,0.282838708877563,0.627181254997953
8.577575757575758,-0.126674921894073,0.10151673860549901,0.086447107315063,0.627181254997953
8.578181818181818,-0.054824335956573496,0.0392462307929993,0.10800228309631299,0.627181254997953
8.578787878787878,-0.08116955080032341,-0.0541595309257507,0.072076990127563,0.627181254997953
8.579393939393938,0.0505565234184265,-0.149960312175751,0.09602718544006299,0.627181254997953
8.58,0.09845691404342659,-0.33437681608200104,-0.12431461143493701,0.627181254997953
8.580606060606062,0.146357304668427,-0.0493694918632507,0.026571619033813002,0.627181254997953
8.581212121212122,-0.057219355487823496,0.0967266995429993,0.00262142372131304,0.627181254997953
8.581818181818182,-0.0452442578315735,-0.0254192965507507,-0.050069005966187,0.627181254997953
8.582424242424242,0.026606328105926502,0.000925918292999261,0.26846859169006304,0.627181254997953
8.583030303030302,-0.260796015644073,0.00571595735549926,0.18943294715881298,0.627181254997953
8.583636363636364,-0.167390253925323,-0.111639999675751,-0.07401920127868701,0.627181254997953
8.584242424242424,0.0769017382621766,-0.111639999675751,-0.177005041122437,0.627181254997953
8.584848484848486,-0.06679943361282341,-0.157145370769501,-0.038093908309937,0.627181254997953
8.585454545454546,0.0409764452934265,-0.205045761394501,0.045731775283813,0.627181254997953
8.586060606060606,0.00026111326217654604,-0.0349993746757507,-0.200955236434937,0.627181254997953
8.586666666666666,-0.0620093945503235,-0.219415878582001,0.036151697158813,0.627181254997953
8.587272727272726,-0.06440441408157341,-0.00386412076950074,-0.014143712997437,0.627181254997953
8.587878787878788,0.09606189451217659,-0.0709246676445007,0.031361658096313,0.627181254997953
8.58848484848485,0.17030749998092698,-0.116430038738251,0.237333337783813,0.627181254997953
8.58909090909091,0.0505565234184265,0.0512213284492493,-0.138684728622437,0.627181254997953
8.58969696969697,-0.0500342968940735,-0.00625914030075074,-0.131499670028687,0.627181254997953
8.59030303030303,-0.07158947267532341,0.0440362698554993,-0.093179357528687,0.627181254997953
8.59090909090909,-0.126674921894073,-0.00146910123825074,0.048126794815063004,0.627181254997953
8.591515151515152,-0.100329707050323,0.0871466214179993,-0.06922916221618701,0.627181254997953
8.592121212121212,-0.08356457033157341,0.07277650423049929,-0.06683414268493701,0.627181254997953
8.592727272727274,-0.176970332050323,-0.00865415983200074,-0.023723791122437,0.627181254997953
8.593333333333334,-0.0452442578315735,0.0344561917304993,0.072076990127563,0.627181254997953
8.593939393939394,0.014631230449676501,-0.00865415983200074,0.031361658096313,0.627181254997953
8.594545454545454,0.146357304668427,-0.0134441988945007,0.024176599502563,0.627181254997953
8.595151515151514,-0.0931446484565734,0.058406387042999296,0.242123376846313,0.627181254997953
8.595757575757576,-0.102724726581573,0.0105059964179993,0.127162439346313,0.627181254997953
8.596363636363638,0.0649266406059266,-0.137985214519501,0.14871761512756299,0.627181254997953
8.596969696969698,-0.160205195331573,-0.0924798434257507,0.043336755752563,0.627181254997953
8.597575757575758,-0.339831660175323,0.113491836261749,0.136742517471313,0.627181254997953
8.598181818181818,-0.162600214862823,-0.0278143160820007,0.242123376846313,0.627181254997953
8.598787878787878,0.0385814257621765,-0.111639999675751,0.25170345497131297,0.627181254997953
8.59939393939394,-0.0165040234565735,-0.0421844332695007,0.11039730262756299,0.627181254997953
8.6,-0.0955396679878234,-0.020629257488250702,0.25170345497131297,0.627181254997953
8.600606060606061,-0.0308741406440735,-0.0709246676445007,0.086447107315063,0.627181254997953
8.601212121212122,0.0745067187309266,0.07517152376174929,-0.105154455184937,0.627181254997953
8.601818181818182,0.09366687498092659,0.192527480792999,-0.018933752059936998,0.627181254997953
8.602424242424242,-0.0212940625190735,0.0129010159492493,-0.203350255966187,0.627181254997953
8.603030303030302,0.127197148418427,-0.116430038738251,0.079262048721313,0.627181254997953
8.603636363636365,-0.009318964862823449,-0.0733196871757507,0.13434749794006298,0.627181254997953
8.604242424242424,-0.157810175800323,-0.023024277019500702,0.165482751846313,0.627181254997953
8.604848484848485,0.0697166796684266,0.0105059964179993,0.088842126846313,0.627181254997953
8.605454545454545,0.09606189451217659,0.022481094074249298,0.196618005752563,0.627181254997953
8.606060606060606,-0.0236890820503235,0.125466933917999,0.225358240127563,0.627181254997953
8.606666666666667,-0.08835460939407341,0.0775665432929993,0.00262142372131304,0.627181254997953
8.607272727272727,-0.0117139843940735,0.0536163479804993,0.220568201065063,0.627181254997953
8.60787878787879,-0.10990978517532299,0.0033209378242492604,0.342714197158813,0.627181254997953
8.60848484848485,-0.100329707050323,0.0512213284492493,0.11279232215881299,0.627181254997953
8.60909090909091,0.0409764452934265,-0.0733196871757507,0.155902673721313,0.627181254997953
8.60969696969697,-0.0308741406440735,-0.0469744723320007,0.29720882606506305,0.627181254997953
8.61030303030303,-0.07398449220657341,0.297908340167999,0.067286951065063,0.627181254997953
8.610909090909091,0.136777226543427,0.00571595735549926,0.086447107315063,0.627181254997953
8.611515151515153,0.0625316210746765,-0.16912046842575099,0.242123376846313,0.627181254997953
8.612121212121213,-0.057219355487823496,-0.058949569988250704,0.045731775283813,0.627181254997953
8.612727272727273,-0.136255000019073,0.058406387042999296,-0.033303869247437,0.627181254997953
8.613333333333333,0.00744617185592655,-0.102059921550751,-0.07880924034118701,0.627181254997953
8.613939393939393,0.0361864062309265,0.26677308626174895,0.11997738075256299,0.627181254997953
8.614545454545455,-0.12906994142532302,0.278748183917999,0.187037927627563,0.627181254997953
8.615151515151515,0.0505565234184265,-0.023024277019500702,-0.062044103622437,0.627181254997953
8.615757575757577,0.0409764452934265,0.192527480792999,0.242123376846313,0.627181254997953
8.616363636363637,0.148752324199677,-0.0924798434257507,0.294813806533813,0.627181254997953
8.616969696969697,0.12001208982467701,-0.0900848238945007,0.136742517471313,0.627181254997953
8.617575757575757,-0.0404542187690735,-0.023024277019500702,0.254098474502563,0.627181254997953
8.618181818181817,-0.07877453126907341,-0.0349993746757507,0.10560726356506299,0.627181254997953
8.618787878787879,0.09366687498092659,0.0416412503242493,-0.028513830184937,0.627181254997953
8.61939393939394,-0.11469982423782299,0.0799615628242493,0.040941736221313,0.627181254997953
8.620000000000001,-0.131464960956573,-0.149960312175751,-0.17461002159118702,0.627181254997953
8.620606060606061,-0.131464960956573,-0.0733196871757507,-0.22011539268493702,0.627181254997953
8.621212121212121,-0.06440441408157341,0.123071914386749,0.10321224403381299,0.627181254997953
8.621818181818181,-0.08595958986282341,0.022481094074249298,0.131952478408813,0.627181254997953
8.622424242424241,-0.00213390626907345,-0.16912046842575099,0.124767419815063,0.627181254997953
8.623030303030303,0.13438220701217699,-0.0373943942070007,-0.129104650497437,0.627181254997953
8.623636363636365,-0.0620093945503235,0.0655914456367493,-0.184190099716187,0.627181254997953
8.624242424242425,-0.018899042987823498,-0.061344589519500704,0.076867029190063,0.627181254997953
8.624848484848485,-0.126674921894073,0.125466933917999,-0.06443912315368701,0.627181254997953
8.625454545454545,-0.17936535158157302,-0.0469744723320007,-0.148264806747437,0.627181254997953
8.626060606060605,-0.167390253925323,-0.0421844332695007,-0.059649084091187,0.627181254997953
8.626666666666667,0.0290013476371765,0.182947402667999,-0.07401920127868701,0.627181254997953
8.627272727272727,0.0218162890434265,-0.197860702800751,0.026571619033813002,0.627181254997953
8.627878787878789,-0.07637951173782341,-0.0996649020195007,-0.167424962997437,0.627181254997953
8.628484848484849,-0.07877453126907341,0.015296035480499301,0.28044368934631303,0.627181254997953
8.629090909090909,-0.155415156269073,-0.33437681608200104,0.505575525283813,0.627181254997953
8.629696969696969,0.09127185544967659,-0.0278143160820007,0.30918392372131304,0.627181254997953
8.630303030303029,0.172702519512177,-0.00865415983200074,0.242123376846313,0.627181254997953
8.63090909090909,0.0601366015434265,-0.248156112957001,-0.141079748153687,0.627181254997953
8.631515151515153,-0.16978527345657302,-0.0182342379570007,-0.095574377059937,0.627181254997953
8.632121212121213,-0.160205195331573,0.0176910550117493,0.064891931533813,0.627181254997953
8.632727272727273,0.0601366015434265,0.142232070636749,0.146322595596313,0.627181254997953
8.633333333333333,0.09127185544967659,0.113491836261749,-0.033303869247437,0.627181254997953
8.633939393939393,0.09366687498092659,0.0176910550117493,-0.059649084091187,0.627181254997953
8.634545454545455,0.0361864062309265,-0.0397894137382507,0.014596521377563001,0.627181254997953
8.635151515151515,-0.07398449220657341,0.0344561917304993,0.25888851356506304,0.627181254997953
8.635757575757577,0.103246953105927,0.166182265949249,-0.052464025497437,0.627181254997953
8.636363636363637,0.09606189451217659,-0.173910507488251,0.14871761512756299,0.627181254997953
8.636969696969697,-0.0356641797065735,-0.0685296481132507,0.13434749794006298,0.627181254997953
8.637575757575757,0.17030749998092698,0.0176910550117493,-0.059649084091187,0.627181254997953
8.638181818181817,0.0433714648246765,-0.0302093356132507,0.09363216590881299,0.627181254997953
8.638787878787879,-0.17936535158157302,0.0033209378242492604,-0.06683414268493701,0.627181254997953
8.639393939393939,-0.0284791211128235,0.139837051105499,0.043336755752563,0.627181254997953
8.64,0.0745067187309266,0.137442031574249,0.20380306434631298,0.627181254997953
8.64060606060606,-0.054824335956573496,-0.0302093356132507,0.028966638565063,0.627181254997953
8.64121212121212,-0.0260841015815735,-0.154750351238251,0.060101892471313,0.627181254997953
8.64181818181818,-0.136255000019073,0.0991217190742493,-0.06443912315368701,0.627181254997953
8.64242424242424,-0.105119746112823,0.0512213284492493,-0.059649084091187,0.627181254997953
8.643030303030303,-0.0117139843940735,-0.176305527019501,0.11758236122131299,0.627181254997953
8.643636363636364,-0.0404542187690735,0.158997207355499,-0.126709630966187,0.627181254997953
8.644242424242425,0.014631230449676501,-0.159540390300751,0.141532556533813,0.627181254997953
8.644848484848485,0.158332402324677,-0.020629257488250702,0.11758236122131299,0.627181254997953
8.645454545454545,0.00265613279342655,0.0105059964179993,-0.06922916221618701,0.627181254997953
8.646060606060606,-0.00452892580032345,-0.023024277019500702,0.136742517471313,0.627181254997953
8.646666666666668,-0.160205195331573,-0.0924798434257507,0.131952478408813,0.627181254997953
8.647272727272727,-0.018899042987823498,-0.0445794528007507,-0.033303869247437,0.627181254997953
8.647878787878788,0.364304082012177,-0.0445794528007507,0.155902673721313,0.627181254997953
8.648484848484848,0.12480212888717701,-0.147565292644501,0.026571619033813002,0.627181254997953
8.649090909090908,-0.136255000019073,0.163787246417999,-0.088389318466187,0.627181254997953
8.64969696969697,-0.0620093945503235,0.144627090167999,0.00262142372131304,0.627181254997953
8.65030303030303,-0.06440441408157341,0.0775665432929993,0.031361658096313,0.627181254997953
8.650909090909092,-0.42605236330032303,-0.126010116863251,0.25888851356506304,0.627181254997953
8.651515151515152,-0.0907496289253234,0.0799615628242493,0.026571619033813002,0.627181254997953
8.652121212121212,0.11282703123092701,0.0296661526679993,0.036151697158813,0.627181254997953
8.652727272727272,0.0553465624809265,-0.0828997653007507,0.062496912002563,0.627181254997953
8.653333333333332,-0.08835460939407341,-0.0278143160820007,0.012201501846313,0.627181254997953
8.653939393939394,-0.196130488300323,-0.0565545504570007,0.033756677627563,0.627181254997953
8.654545454545456,0.0721116991996766,-0.0924798434257507,0.052916833877563,0.627181254997953
8.655151515151516,0.11761707029342701,-0.0421844332695007,0.007411462783813039,0.627181254997953
8.655757575757576,-0.0500342968940735,0.194922500324249,0.11758236122131299,0.627181254997953
8.656363636363636,-0.07158947267532341,-0.0134441988945007,0.14392757606506298,0.627181254997953
8.656969696969696,0.00026111326217654604,0.0248761136054993,0.227753259658813,0.627181254997953
8.657575757575758,-0.0380591992378235,0.147022109699249,0.294813806533813,0.627181254997953
8.658181818181818,-0.0931446484565734,-0.0373943942070007,0.136742517471313,0.627181254997953
8.65878787878788,0.0242113085746765,-0.104454941082001,-0.30873111534118697,0.627181254997953
8.65939393939394,0.0385814257621765,-0.0349993746757507,0.18464290809631298,0.627181254997953
8.66,-0.0524293164253235,0.154207168292999,0.323554040908813,0.627181254997953
8.66060606060606,0.155937382793427,0.0943316800117493,-0.423692052841187,0.627181254997953
8.66121212121212,0.09606189451217659,0.0799615628242493,0.12955745887756298,0.627181254997953
8.661818181818182,0.16072742185592698,-0.137985214519501,0.146322595596313,0.627181254997953
8.662424242424242,-0.0212940625190735,-0.00146910123825074,-0.06683414268493701,0.627181254997953
8.663030303030304,-0.136255000019073,-0.00386412076950074,0.033756677627563,0.627181254997953
8.663636363636364,0.100851933574677,-0.128405136394501,0.021781579971313,0.627181254997953
8.664242424242424,-0.0165040234565735,0.0344561917304993,-0.016538732528687,0.627181254997953
8.664848484848484,-0.12906994142532302,0.106306777667999,0.052916833877563,0.627181254997953
8.665454545454544,-0.00692394533157345,0.0129010159492493,0.031361658096313,0.627181254997953
8.666060606060606,0.0457664843559265,0.020086074542999297,0.237333337783813,0.627181254997953
8.666666666666668,-0.160205195331573,-0.0541595309257507,0.062496912002563,0.627181254997953
8.667272727272728,-0.155415156269073,-0.0373943942070007,0.09363216590881299,0.627181254997953
8.667878787878788,-0.009318964862823449,0.144627090167999,0.10560726356506299,0.627181254997953
8.668484848484848,-0.236845820331573,0.0416412503242493,0.062496912002563,0.627181254997953
8.669090909090908,-0.0955396679878234,0.0440362698554993,0.158297693252563,0.627181254997953
8.66969696969697,0.151147343730927,0.020086074542999297,0.09363216590881299,0.627181254997953
8.67030303030303,0.0409764452934265,0.240427871417999,0.081657068252563,0.627181254997953
8.670909090909092,0.0242113085746765,0.0679864651679993,0.043336755752563,0.627181254997953
8.671515151515152,-0.0428492383003235,-0.164330429363251,0.136742517471313,0.627181254997953
8.672121212121212,0.0721116991996766,-0.109244980144501,-0.016538732528687,0.627181254997953
8.672727272727272,0.0625316210746765,0.0560113675117493,0.201408044815063,0.627181254997953
8.673333333333332,-0.0452442578315735,0.0248761136054993,0.26846859169006304,0.627181254997953
8.673939393939394,0.0385814257621765,-0.157145370769501,0.234938318252563,0.627181254997953
8.674545454545456,0.026606328105926502,-0.0469744723320007,-0.136289709091187,0.627181254997953
8.675151515151516,-0.12427990236282299,0.0943316800117493,0.158297693252563,0.627181254997953
8.675757575757576,-0.102724726581573,-0.126010116863251,0.057706872940063,0.627181254997953
8.676363636363636,-0.186550410175323,-0.157145370769501,-0.21053531455993701,0.627181254997953
8.676969696969696,0.00744617185592655,-0.023024277019500702,-0.162634923934937,0.627181254997953
8.677575757575758,-0.0332691601753235,-0.171515487957001,0.09842220497131299,0.627181254997953
8.678181818181818,-0.0620093945503235,-0.171515487957001,0.167877771377563,0.627181254997953
8.67878787878788,0.11761707029342701,-0.0924798434257507,-0.105154455184937,0.627181254997953
8.67939393939394,0.0769017382621766,0.000925918292999261,0.191827966690063,0.627181254997953
8.68,0.0577415820121765,0.00571595735549926,0.045731775283813,0.627181254997953
8.68060606060606,-0.145835078144073,0.0248761136054993,0.136742517471313,0.627181254997953
8.68121212121212,0.0745067187309266,-0.0781097262382507,0.086447107315063,0.627181254997953
8.681818181818182,0.0481615038871765,-0.0781097262382507,0.038546716690063,0.627181254997953
8.682424242424242,-0.0955396679878234,0.0799615628242493,0.10560726356506299,0.627181254997953
8.683030303030304,0.0361864062309265,0.111096816730499,-0.004563634872436961,0.627181254997953
8.683636363636364,-0.0284791211128235,-0.149960312175751,-0.06443912315368701,0.627181254997953
8.684242424242424,-0.0955396679878234,0.0703814846992493,-0.035698888778687,0.627181254997953
8.684848484848484,0.0864818163871766,0.161392226886749,-0.054859045028687,0.627181254997953
8.685454545454544,-0.0620093945503235,0.111096816730499,0.19422298622131298,0.627181254997953
8.686060606060606,-0.167390253925323,0.0991217190742493,0.024176599502563,0.627181254997953
8.686666666666667,-0.12906994142532302,-0.197860702800751,-0.0069586544036869605,0.627181254997953
8.687272727272727,-0.200920527362823,0.127861953449249,-0.097969396591187,0.627181254997953
8.687878787878788,-0.00452892580032345,0.19013246126174901,0.155902673721313,0.627181254997953
8.688484848484848,0.0553465624809265,0.0344561917304993,0.761842615127563,0.627181254997953
8.68909090909091,0.436154667949677,-0.130800155925751,0.158297693252563,0.627181254997953
8.689696969696971,0.131987187480927,-0.224205917644501,-0.268015783309937,0.627181254997953
8.690303030303031,-0.320671503925323,0.0560113675117493,0.28044368934631303,0.627181254997953
8.690909090909091,0.215812871074677,-0.178700546550751,0.11039730262756299,0.627181254997953
8.691515151515151,0.136777226543427,-0.178700546550751,0.057706872940063,0.627181254997953
8.692121212121211,0.0194212695121765,0.058406387042999296,0.127162439346313,0.627181254997953
8.692727272727273,-0.07398449220657341,0.0105059964179993,-0.133894689559937,0.627181254997953
8.693333333333333,-0.203315546894073,0.0655914456367493,0.18943294715881298,0.627181254997953
8.693939393939395,-0.0236890820503235,-0.0493694918632507,0.081657068252563,0.627181254997953
8.694545454545455,0.0122362109184265,-0.106849960613251,0.177457849502563,0.627181254997953
8.695151515151515,-0.160205195331573,0.0655914456367493,0.361874353408813,0.627181254997953
8.695757575757575,-0.0428492383003235,-0.142775253582001,0.316368982315063,0.627181254997953
8.696363636363635,0.0385814257621765,-0.0445794528007507,0.213383142471313,0.627181254997953
8.696969696969697,-0.107514765644073,0.0703814846992493,0.10321224403381299,0.627181254997953
8.697575757575759,-0.100329707050323,-0.0637396090507507,0.165482751846313,0.627181254997953
8.69818181818182,-0.12906994142532302,0.015296035480499301,0.13434749794006298,0.627181254997953
8.69878787878788,-0.145835078144073,0.0512213284492493,-0.090784337997437,0.627181254997953
8.69939393939394,-0.17936535158157302,-0.0852947848320007,-0.052464025497437,0.627181254997953
8.7,-0.176970332050323,-0.0254192965507507,0.11279232215881299,0.627181254997953
8.700606060606061,-0.12188488283157299,0.0368512112617493,0.045731775283813,0.627181254997953
8.701212121212121,-0.13865001955032302,-0.061344589519500704,0.14871761512756299,0.627181254997953
8.701818181818183,0.0218162890434265,-0.0852947848320007,0.213383142471313,0.627181254997953
8.702424242424243,0.0625316210746765,-0.0254192965507507,0.237333337783813,0.627181254997953
8.703030303030303,-0.160205195331573,-0.0110491793632507,0.10800228309631299,0.627181254997953
8.703636363636363,-0.009318964862823449,-0.190675644207001,-0.018933752059936998,0.627181254997953
8.704242424242423,-0.11230480470657299,-0.102059921550751,0.024176599502563,0.627181254997953
8.704848484848485,-0.131464960956573,0.120676894855499,-0.050069005966187,0.627181254997953
8.705454545454545,-0.12906994142532302,-0.178700546550751,0.067286951065063,0.627181254997953
8.706060606060607,-0.12188488283157299,-0.145170273113251,-0.12431461143493701,0.627181254997953
8.706666666666667,0.00984119138717655,0.0799615628242493,-0.129104650497437,0.627181254997953
8.707272727272727,0.00026111326217654604,-0.207440780925751,0.052916833877563,0.627181254997953
8.707878787878787,-0.0955396679878234,-0.102059921550751,-0.162634923934937,0.627181254997953
8.708484848484847,-0.07637951173782341,0.0991217190742493,0.11997738075256299,0.627181254997953
8.709090909090909,-0.07877453126907341,-0.310426620769501,0.074472009658813,0.627181254997953
8.70969696969697,-0.08595958986282341,-0.205045761394501,-0.040488927841187,0.627181254997953
8.71030303030303,-0.00213390626907345,-0.0134441988945007,-0.131499670028687,0.627181254997953
8.710909090909091,-0.0931446484565734,-0.200255722332001,0.13434749794006298,0.627181254997953
8.711515151515151,-0.0428492383003235,-0.0397894137382507,0.11039730262756299,0.627181254997953
8.712121212121211,-0.054824335956573496,0.123071914386749,-0.033303869247437,0.627181254997953
8.712727272727273,-0.08116955080032341,0.0464312893867493,0.11039730262756299,0.627181254997953
8.713333333333333,-0.222475703144073,-0.058949569988250704,-0.112339513778687,0.627181254997953
8.713939393939395,0.0457664843559265,-0.102059921550751,0.242123376846313,0.627181254997953
8.714545454545455,0.00984119138717655,-0.173910507488251,0.230148279190063,0.627181254997953
8.715151515151515,-0.0452442578315735,0.170972305011749,0.045731775283813,0.627181254997953
8.715757575757575,0.22060291013717698,0.206897597980499,0.024176599502563,0.627181254997953
8.716363636363635,-0.18894542970657302,0.000925918292999261,0.10560726356506299,0.627181254997953
8.716969696969697,-0.0236890820503235,0.0967266995429993,0.060101892471313,0.627181254997953
8.717575757575759,0.127197148418427,-0.00146910123825074,0.11518734169006299,0.627181254997953
8.718181818181819,0.0122362109184265,-0.0134441988945007,0.201408044815063,0.627181254997953
8.718787878787879,0.0673216601371766,-0.0876898043632507,-0.117129552841187,0.627181254997953
8.719393939393939,0.0290013476371765,0.0296661526679993,-0.21532535362243702,0.627181254997953
8.719999999999999,0.155937382793427,0.0536163479804993,0.484020349502563,0.627181254997953
8.72060606060606,0.12959216794967698,0.103911758136749,0.232543298721313,0.627181254997953
8.72121212121212,-0.0452442578315735,-0.020629257488250702,0.167877771377563,0.627181254997953
8.721818181818183,0.141567265605927,-0.159540390300751,0.213383142471313,0.627181254997953
8.722424242424243,0.00265613279342655,0.103911758136749,-0.157844884872437,0.627181254997953
8.723030303030303,-0.0284791211128235,-0.020629257488250702,0.13913753700256298,0.627181254997953
8.723636363636363,0.108036992168427,-0.0373943942070007,0.016991540908813,0.627181254997953
8.724242424242423,-0.08835460939407341,0.0655914456367493,-0.023723791122437,0.627181254997953
8.724848484848485,-0.0117139843940735,0.0176910550117493,0.11758236122131299,0.627181254997953
8.725454545454545,-0.25600597658157304,-0.188280624675751,0.122372400283813,0.627181254997953
8.726060606060607,-0.19373546876907302,0.00811097688674926,0.062496912002563,0.627181254997953
8.726666666666667,-0.11230480470657299,0.0344561917304993,0.127162439346313,0.627181254997953
8.727272727272727,0.026606328105926502,-0.0397894137382507,0.206198083877563,0.627181254997953
8.727878787878787,-0.0332691601753235,-0.0134441988945007,0.230148279190063,0.627181254997953
8.728484848484847,0.0745067187309266,-0.0182342379570007,0.294813806533813,0.627181254997953
8.729090909090909,0.103246953105927,-0.00386412076950074,0.048126794815063004,0.627181254997953
8.72969696969697,-0.246425898456573,0.0512213284492493,0.091237146377563,0.627181254997953
8.73030303030303,0.187072636699677,0.118281875324249,0.09602718544006299,0.627181254997953
8.73090909090909,0.131987187480927,0.07277650423049929,0.069681970596313,0.627181254997953
8.731515151515152,-0.0476392773628235,-0.0565545504570007,0.14392757606506298,0.627181254997953
8.732121212121212,-0.107514765644073,-0.023024277019500702,0.00262142372131304,0.627181254997953
8.732727272727274,-0.08835460939407341,-0.058949569988250704,0.074472009658813,0.627181254997953
8.733333333333334,-0.0212940625190735,-0.217020859050751,0.10321224403381299,0.627181254997953
8.733939393939394,0.00984119138717655,-0.142775253582001,0.016991540908813,0.627181254997953
8.734545454545454,0.033791386699676504,-0.020629257488250702,0.09842220497131299,0.627181254997953
8.735151515151514,0.131987187480927,0.0679864651679993,0.155902673721313,0.627181254997953
8.735757575757576,0.00744617185592655,0.00811097688674926,0.18464290809631298,0.627181254997953
8.736363636363636,0.0361864062309265,0.058406387042999296,0.019386560440063,0.627181254997953
8.736969696969698,-0.0165040234565735,-0.0445794528007507,0.052916833877563,0.627181254997953
8.737575757575758,-0.014109003925323499,0.0368512112617493,0.256493494033813,0.627181254997953
8.738181818181818,0.0290013476371765,0.0943316800117493,0.072076990127563,0.627181254997953
8.738787878787878,-0.148230097675323,-0.00146910123825074,-0.141079748153687,0.627181254997953
8.739393939393938,0.0769017382621766,-0.140380234050751,0.084052087783813,0.627181254997953
8.74,-0.009318964862823449,-0.0110491793632507,0.00980648231506304,0.627181254997953
8.740606060606062,-0.0428492383003235,0.173367324542999,0.00501644325256304,0.627181254997953
8.741212121212122,-0.0428492383003235,-0.0421844332695007,0.402589685440063,0.627181254997953
8.741818181818182,-0.0428492383003235,0.058406387042999296,-0.117129552841187,0.627181254997953
8.742424242424242,0.0361864062309265,0.0799615628242493,-0.090784337997437,0.627181254997953
8.743030303030302,-0.0404542187690735,-0.0254192965507507,-0.0069586544036869605,0.627181254997953
8.743636363636364,-0.0117139843940735,-0.16912046842575099,0.060101892471313,0.627181254997953
8.744242424242424,0.00265613279342655,-0.0709246676445007,0.00262142372131304,0.627181254997953
8.744848484848486,0.0505565234184265,0.0440362698554993,0.031361658096313,0.627181254997953
8.745454545454546,0.143962285137177,-0.023024277019500702,0.045731775283813,0.627181254997953
8.746060606060606,0.0361864062309265,-0.00146910123825074,0.057706872940063,0.627181254997953
8.746666666666666,0.0649266406059266,0.0416412503242493,0.31876400184631304,0.627181254997953
8.747272727272726,-0.0476392773628235,0.022481094074249298,-0.22969547080993702,0.627181254997953
8.747878787878788,-0.176970332050323,-0.020629257488250702,-0.059649084091187,0.627181254997953
8.748484848484848,-0.0979346875190734,0.0536163479804993,0.658856775283813,0.627181254997953
8.74909090909091,0.0290013476371765,0.0248761136054993,0.519945642471313,0.627181254997953
8.74969696969697,0.11282703123092701,0.0895416409492493,-0.153054845809937,0.627181254997953
8.75030303030303,0.11522205076217701,0.0105059964179993,0.225358240127563,0.627181254997953
8.75090909090909,0.158332402324677,0.0655914456367493,-0.06443912315368701,0.627181254997953
8.751515151515152,0.163122441387177,0.07517152376174929,-0.16023990440368702,0.627181254997953
8.752121212121212,-0.06679943361282341,-0.123615097332001,0.366664392471313,0.627181254997953
8.752727272727274,-0.07158947267532341,0.022481094074249298,0.031361658096313,0.627181254997953
8.753333333333334,0.148752324199677,0.0464312893867493,0.13434749794006298,0.627181254997953
8.753939393939394,-0.06919445314407341,-0.207440780925751,0.234938318252563,0.627181254997953
8.754545454545454,-0.00213390626907345,-0.0565545504570007,0.18943294715881298,0.627181254997953
8.755151515151514,0.0553465624809265,0.158997207355499,0.09602718544006299,0.627181254997953
8.755757575757576,-0.18894542970657302,0.0464312893867493,0.127162439346313,0.627181254997953
8.756363636363636,-0.0907496289253234,0.00811097688674926,0.172667810440063,0.627181254997953
8.756969696969698,0.127197148418427,-0.114035019207001,0.19901302528381298,0.627181254997953
8.757575757575758,0.09366687498092659,-0.178700546550751,-0.07880924034118701,0.627181254997953
8.758181818181818,-0.12427990236282299,-0.111639999675751,-0.004563634872436961,0.627181254997953
8.758787878787878,-0.07877453126907341,-0.020629257488250702,-0.088389318466187,0.627181254997953
8.759393939393938,-0.08595958986282341,-0.0254192965507507,-0.143474767684937,0.627181254997953
8.76,0.100851933574677,-0.0685296481132507,-0.040488927841187,0.627181254997953
8.760606060606062,0.0625316210746765,-0.173910507488251,0.091237146377563,0.627181254997953
8.761212121212122,-0.0476392773628235,0.0560113675117493,0.09363216590881299,0.627181254997953
8.761818181818182,0.00744617185592655,0.0799615628242493,0.10321224403381299,0.627181254997953
8.762424242424242,-0.12188488283157299,-0.116430038738251,0.20859310340881299,0.627181254997953
8.763030303030302,0.11522205076217701,0.209292617511749,0.036151697158813,0.627181254997953
8.763636363636364,0.0122362109184265,0.0775665432929993,-0.093179357528687,0.627181254997953
8.764242424242424,-0.19373546876907302,-0.126010116863251,-0.08599429893493701,0.627181254997953
8.764848484848486,-0.13385998048782302,0.0799615628242493,-0.090784337997437,0.627181254997953
8.765454545454546,-0.150625117206573,-0.152355331707001,0.014596521377563001,0.627181254997953
8.766060606060606,0.0194212695121765,-0.118825058269501,-0.12431461143493701,0.627181254997953
8.766666666666666,-0.0500342968940735,0.0536163479804993,-0.15544986534118702,0.627181254997953
8.767272727272726,0.0769017382621766,0.07277650423049929,-0.042883947372437,0.627181254997953
8.767878787878788,0.0816917773246766,-0.0781097262382507,0.062496912002563,0.627181254997953
8.768484848484848,-0.0117139843940735,-0.236181015300751,0.270863611221313,0.627181254997953
8.76909090909091,0.108036992168427,-0.00386412076950074,-0.129104650497437,0.627181254997953
8.76969696969697,0.0816917773246766,0.0655914456367493,-0.272805822372437,0.627181254997953
8.77030303030303,0.17988757810592698,-0.0948748629570007,-0.028513830184937,0.627181254997953
8.770909090909091,-0.0356641797065735,-0.0757147067070007,0.18943294715881298,0.627181254997953
8.77151515151515,-0.00452892580032345,-0.0541595309257507,0.040941736221313,0.627181254997953
8.772121212121212,0.17030749998092698,-0.0134441988945007,-0.040488927841187,0.627181254997953
8.772727272727273,0.0864818163871766,-0.00625914030075074,-0.018933752059936998,0.627181254997953
8.773333333333333,0.0290013476371765,-0.123615097332001,0.067286951065063,0.627181254997953
8.773939393939393,0.0457664843559265,0.0895416409492493,-0.06922916221618701,0.627181254997953
8.774545454545455,-0.0907496289253234,0.192527480792999,-0.15544986534118702,0.627181254997953
8.775151515151515,0.0481615038871765,-0.0924798434257507,0.048126794815063004,0.627181254997953
8.775757575757577,0.12480212888717701,-0.123615097332001,0.33792415809631304,0.627181254997953
8.776363636363637,-0.167390253925323,0.0679864651679993,0.028966638565063,0.627181254997953
8.776969696969697,-0.07158947267532341,-0.0517645113945007,-0.07641422080993701,0.627181254997953
8.777575757575757,-0.148230097675323,-0.00386412076950074,0.24451839637756298,0.627181254997953
8.778181818181817,-0.0620093945503235,-0.195465683269501,0.048126794815063004,0.627181254997953
8.77878787878788,-0.0404542187690735,-0.145170273113251,-0.22490543174743702,0.627181254997953
8.77939393939394,-0.191340449237823,-0.123615097332001,0.29960384559631303,0.627181254997953
8.780000000000001,-0.07877453126907341,-0.023024277019500702,0.43851497840881304,0.627181254997953
8.780606060606061,0.014631230449676501,0.0679864651679993,-0.095574377059937,0.627181254997953
8.781212121212121,-0.057219355487823496,-0.231390976238251,0.19901302528381298,0.627181254997953
8.781818181818181,-0.100329707050323,0.0631964261054993,0.055311853408813,0.627181254997953
8.782424242424241,-0.17457531251907302,0.123071914386749,0.052916833877563,0.627181254997953
8.783030303030303,-0.236845820331573,0.0703814846992493,0.155902673721313,0.627181254997953
8.783636363636365,-0.126674921894073,-0.00625914030075074,0.00501644325256304,0.627181254997953
8.784242424242425,-0.009318964862823449,-0.0445794528007507,0.10800228309631299,0.627181254997953
8.784848484848485,-0.12188488283157299,0.0033209378242492604,0.09363216590881299,0.627181254997953
8.785454545454545,-0.136255000019073,-0.224205917644501,0.024176599502563,0.627181254997953
8.786060606060605,-0.172180292987823,-0.104454941082001,-0.07401920127868701,0.627181254997953
8.786666666666667,-0.06919445314407341,0.0296661526679993,0.196618005752563,0.627181254997953
8.787272727272727,0.222997929668427,-0.173910507488251,0.239728357315063,0.627181254997953
8.787878787878789,0.0481615038871765,-0.135590194988251,-0.040488927841187,0.627181254997953
8.788484848484849,-0.17457531251907302,-0.152355331707001,-0.109944494247437,0.627181254997953
8.789090909090909,-0.102724726581573,-0.164330429363251,-0.095574377059937,0.627181254997953
8.78969696969697,-0.0476392773628235,-0.0661346285820007,-0.026118810653687,0.627181254997953
8.79030303030303,0.0385814257621765,0.07277650423049929,0.275653650283813,0.627181254997953
8.790909090909091,0.0385814257621765,0.0464312893867493,0.227753259658813,0.627181254997953
8.791515151515153,-0.00452892580032345,-0.152355331707001,0.14871761512756299,0.627181254997953
8.792121212121213,0.127197148418427,-0.116430038738251,-0.045278966903687,0.627181254997953
8.792727272727273,0.11522205076217701,0.0967266995429993,-0.105154455184937,0.627181254997953
8.793333333333333,-0.11709484376907299,0.0536163479804993,-0.133894689559937,0.627181254997953
8.793939393939393,-0.265586054706573,-0.0757147067070007,0.031361658096313,0.627181254997953
8.794545454545455,-0.107514765644073,0.0344561917304993,0.167877771377563,0.627181254997953
8.795151515151515,-0.0212940625190735,-0.0397894137382507,-0.014143712997437,0.627181254997953
8.795757575757577,0.00984119138717655,0.000925918292999261,-0.00216861534118696,0.627181254997953
8.796363636363637,0.0792967577934266,-0.0493694918632507,-0.100364416122437,0.627181254997953
8.796969696969697,-0.0356641797065735,0.0631964261054993,0.371454431533813,0.627181254997953
8.797575757575757,-0.11469982423782299,-0.00386412076950074,0.10560726356506299,0.627181254997953
8.798181818181817,-0.275166132831573,0.108701797199249,0.016991540908813,0.627181254997953
8.798787878787879,-0.06440441408157341,0.226057754230499,-0.011748693466187,0.627181254997953
8.799393939393939,-0.07158947267532341,0.0344561917304993,-0.07162418174743701,0.627181254997953
8.8,-0.227265742206573,0.060801406574249296,0.31876400184631304,1.2858919183877906
8.80060606060606,-0.009318964862823449,-0.00386412076950074,0.153507654190063,1.2858919183877906
8.80121212121212,-0.11230480470657299,-0.058949569988250704,0.131952478408813,1.2858919183877906
8.80181818181818,0.014631230449676501,-0.0421844332695007,0.215778162002563,1.2858919183877906
8.802424242424241,0.0313963671684265,0.058406387042999296,0.158297693252563,1.2858919183877906
8.803030303030303,-0.0931446484565734,-0.0900848238945007,0.00262142372131304,1.2858919183877906
8.803636363636365,0.208627812480927,-0.023024277019500702,0.11758236122131299,1.2858919183877906
8.804242424242425,0.196652714824677,-0.137985214519501,0.19901302528381298,1.2858919183877906
8.804848484848485,0.00026111326217654604,0.00811097688674926,-0.00216861534118696,1.2858919183877906
8.805454545454545,0.0888768359184266,0.0440362698554993,0.11279232215881299,1.2858919183877906
8.806060606060605,0.0840867968559266,-0.0828997653007507,0.261283533096313,1.2858919183877906
8.806666666666667,-0.0620093945503235,-0.0397894137382507,0.024176599502563,1.2858919183877906
8.807272727272727,-0.17936535158157302,0.147022109699249,0.151112634658813,1.2858919183877906
8.807878787878789,-0.18894542970657302,-0.106849960613251,0.064891931533813,1.2858919183877906
8.808484848484849,0.0218162890434265,-0.159540390300751,0.313973962783813,1.2858919183877906
8.809090909090909,0.00265613279342655,0.113491836261749,0.721127283096313,1.2858919183877906
8.80969696969697,-0.18894542970657302,-0.0828997653007507,-0.117129552841187,1.2858919183877906
8.810303030303029,0.0218162890434265,0.07277650423049929,0.000226404190063041,1.2858919183877906
8.81090909090909,0.026606328105926502,-0.0110491793632507,-0.023723791122437,1.2858919183877906
8.811515151515152,-0.102724726581573,-0.0876898043632507,-0.016538732528687,1.2858919183877906
8.812121212121212,-0.11709484376907299,0.0105059964179993,0.055311853408813,1.2858919183877906
8.812727272727273,-0.24403087892532302,-0.104454941082001,-0.08359927940368701,1.2858919183877906
8.813333333333333,-0.24882091798782302,0.0416412503242493,0.136742517471313,1.2858919183877906
8.813939393939394,-0.153020136737823,0.0799615628242493,0.14392757606506298,1.2858919183877906
8.814545454545456,-0.0931446484565734,-0.22899595670700099,0.091237146377563,1.2858919183877906
8.815151515151516,0.0721116991996766,0.0703814846992493,-0.08599429893493701,1.2858919183877906
8.815757575757576,0.0290013476371765,0.0919366604804993,-0.021328771591187,1.2858919183877906
8.816363636363636,-0.148230097675323,-0.0469744723320007,0.124767419815063,1.2858919183877906
8.816969696969696,-0.153020136737823,0.137442031574249,0.024176599502563,1.2858919183877906
8.817575757575758,-0.0236890820503235,0.115886855792999,0.081657068252563,1.2858919183877906
8.818181818181818,0.127197148418427,0.0991217190742493,0.167877771377563,1.2858919183877906
8.81878787878788,-0.13385998048782302,-0.118825058269501,0.09842220497131299,1.2858919183877906
8.81939393939394,0.00984119138717655,-0.061344589519500704,0.067286951065063,1.2858919183877906
8.82,0.0481615038871765,0.0488263089179993,0.25888851356506304,1.2858919183877906
8.82060606060606,-0.0596143750190735,0.0176910550117493,0.19422298622131298,1.2858919183877906
8.82121212121212,0.0816917773246766,-0.0397894137382507,-0.042883947372437,1.2858919183877906
8.821818181818182,-0.11469982423782299,0.0105059964179993,-0.028513830184937,1.2858919183877906
8.822424242424242,-0.07398449220657341,0.0775665432929993,-0.107549474716187,1.2858919183877906
8.823030303030304,-0.0452442578315735,-0.0134441988945007,0.060101892471313,1.2858919183877906
8.823636363636364,0.0385814257621765,0.0943316800117493,0.069681970596313,1.2858919183877906
8.824242424242424,-0.0979346875190734,-0.00146910123825074,0.232543298721313,1.2858919183877906
8.824848484848484,-0.220080683612823,0.0416412503242493,0.11039730262756299,1.2858919183877906
8.825454545454544,-0.196130488300323,0.0248761136054993,0.091237146377563,1.2858919183877906
8.826060606060606,0.00265613279342655,-0.0110491793632507,-0.052464025497437,1.2858919183877906
8.826666666666668,0.12001208982467701,0.000925918292999261,0.057706872940063,1.2858919183877906
8.827272727272728,-0.08356457033157341,0.07277650423049929,0.187037927627563,1.2858919183877906
8.827878787878788,0.143962285137177,-0.0661346285820007,-0.004563634872436961,1.2858919183877906
8.828484848484848,-0.057219355487823496,-0.200255722332001,0.033756677627563,1.2858919183877906
8.829090909090908,-0.057219355487823496,0.175762344074249,0.122372400283813,1.2858919183877906
8.82969696969697,0.0457664843559265,0.000925918292999261,0.163087732315063,1.2858919183877906
8.83030303030303,-0.0931446484565734,-0.0733196871757507,-0.045278966903687,1.2858919183877906
8.830909090909092,0.0481615038871765,0.000925918292999261,0.153507654190063,1.2858919183877906
8.831515151515152,-0.105119746112823,0.118281875324249,-0.153054845809937,1.2858919183877906
8.832121212121212,0.12240710935592701,-0.142775253582001,-0.07880924034118701,1.2858919183877906
8.832727272727272,0.00265613279342655,-0.181095566082001,-0.026118810653687,1.2858919183877906
8.833333333333332,0.00744617185592655,0.161392226886749,0.062496912002563,1.2858919183877906
8.833939393939394,-0.222475703144073,-0.0134441988945007,0.170272790908813,1.2858919183877906
8.834545454545456,-0.0236890820503235,-0.154750351238251,-0.050069005966187,1.2858919183877906
8.835151515151516,0.23976306638717698,-0.126010116863251,0.000226404190063041,1.2858919183877906
8.835757575757576,0.12001208982467701,-0.157145370769501,-0.136289709091187,1.2858919183877906
8.836363636363636,0.0170262499809265,-0.135590194988251,0.160692712783813,1.2858919183877906
8.836969696969696,-0.335041621112823,0.020086074542999297,-0.08599429893493701,1.2858919183877906
8.837575757575758,0.0769017382621766,-0.121220077800751,-0.045278966903687,1.2858919183877906
8.838181818181818,-0.0452442578315735,-0.058949569988250704,-0.107549474716187,1.2858919183877906
8.83878787878788,0.139172246074677,0.113491836261749,-0.244065587997437,1.2858919183877906
8.83939393939394,-0.00692394533157345,-0.0733196871757507,-0.17461002159118702,1.2858919183877906
8.84,-0.294326289081573,-0.104454941082001,0.218173181533813,1.2858919183877906
8.84060606060606,0.127197148418427,-0.0134441988945007,-0.16023990440368702,1.2858919183877906
8.84121212121212,0.0218162890434265,0.060801406574249296,-0.062044103622437,1.2858919183877906
8.841818181818182,-0.009318964862823449,0.0895416409492493,0.163087732315063,1.2858919183877906
8.842424242424242,0.285268437480927,0.204502578449249,-0.22490543174743702,1.2858919183877906
8.843030303030304,-0.0380591992378235,0.058406387042999296,0.038546716690063,1.2858919183877906
8.843636363636364,-0.160205195331573,-0.135590194988251,0.163087732315063,1.2858919183877906
8.844242424242424,0.11522205076217701,-0.061344589519500704,0.091237146377563,1.2858919183877906
8.844848484848484,-0.014109003925323499,-0.0781097262382507,-0.107549474716187,1.2858919183877906
8.845454545454544,0.09845691404342659,0.0823565823554993,0.242123376846313,1.2858919183877906
8.846060606060606,0.0792967577934266,-0.173910507488251,0.151112634658813,1.2858919183877906
8.846666666666668,-0.07877453126907341,0.0679864651679993,-0.059649084091187,1.2858919183877906
8.847272727272728,-0.155415156269073,-0.130800155925751,0.172667810440063,1.2858919183877906
8.847878787878788,-0.0260841015815735,-0.0876898043632507,-0.08599429893493701,1.2858919183877906
8.848484848484848,-0.0212940625190735,0.19013246126174901,-0.011748693466187,1.2858919183877906
8.849090909090908,-0.0117139843940735,0.0368512112617493,0.187037927627563,1.2858919183877906
8.84969696969697,0.187072636699677,0.015296035480499301,-0.038093908309937,1.2858919183877906
8.85030303030303,0.141567265605927,-0.0397894137382507,-0.009353673934936961,1.2858919183877906
8.850909090909092,-0.009318964862823449,-0.0828997653007507,0.084052087783813,1.2858919183877906
8.851515151515152,-0.11230480470657299,-0.109244980144501,0.24451839637756298,1.2858919183877906
8.852121212121212,0.163122441387177,0.0560113675117493,0.091237146377563,1.2858919183877906
8.852727272727273,-0.0931446484565734,-0.114035019207001,0.060101892471313,1.2858919183877906
8.853333333333332,-0.227265742206573,-0.178700546550751,-0.08599429893493701,1.2858919183877906
8.853939393939394,0.00265613279342655,0.182947402667999,-0.143474767684937,1.2858919183877906
8.854545454545455,-0.0284791211128235,0.163787246417999,0.10800228309631299,1.2858919183877906
8.855151515151515,0.278083378887177,0.020086074542999297,0.081657068252563,1.2858919183877906
8.855757575757575,0.0457664843559265,0.173367324542999,-0.035698888778687,1.2858919183877906
8.856363636363636,-0.0931446484565734,0.0799615628242493,0.091237146377563,1.2858919183877906
8.856969696969697,-0.24882091798782302,-0.0254192965507507,-0.040488927841187,1.2858919183877906
8.85757575757576,-0.155415156269073,-0.032604355144500705,-0.177005041122437,1.2858919183877906
8.85818181818182,0.0194212695121765,0.0512213284492493,0.321159021377563,1.2858919183877906
8.85878787878788,-0.0428492383003235,-0.0278143160820007,0.354689294815063,1.2858919183877906
8.85939393939394,0.11522205076217701,0.0129010159492493,0.141532556533813,1.2858919183877906
8.86,0.158332402324677,0.0631964261054993,0.10560726356506299,1.2858919183877906
8.860606060606061,-0.08835460939407341,0.0631964261054993,0.060101892471313,1.2858919183877906
8.861212121212121,-0.0356641797065735,0.0631964261054993,0.170272790908813,1.2858919183877906
8.861818181818183,-0.07158947267532341,-0.0158392184257507,0.052916833877563,1.2858919183877906
8.862424242424243,-0.014109003925323499,-0.154750351238251,0.074472009658813,1.2858919183877906
8.863030303030303,0.11761707029342701,0.0296661526679993,-0.12191959190368701,1.2858919183877906
8.863636363636363,-0.08356457033157341,0.0967266995429993,-0.054859045028687,1.2858919183877906
8.864242424242423,-0.0931446484565734,-0.106849960613251,-0.009353673934936961,1.2858919183877906
8.864848484848485,0.105641972637177,-0.137985214519501,-0.052464025497437,1.2858919183877906
8.865454545454545,0.0385814257621765,0.0536163479804993,-0.203350255966187,1.2858919183877906
8.866060606060607,0.0625316210746765,-0.0541595309257507,-0.057254064559937,1.2858919183877906
8.866666666666667,0.12480212888717701,0.0416412503242493,0.294813806533813,1.2858919183877906
8.867272727272727,0.014631230449676501,0.214082656574249,0.19422298622131298,1.2858919183877906
8.867878787878787,-0.11469982423782299,0.07517152376174929,0.00501644325256304,1.2858919183877906
8.868484848484847,-0.404497187519073,0.0679864651679993,-0.272805822372437,1.2858919183877906
8.86909090909091,0.167912480449677,0.0033209378242492604,0.330739099502563,1.2858919183877906
8.869696969696971,0.0529515429496765,-0.0996649020195007,0.067286951065063,1.2858919183877906
8.870303030303031,-0.0955396679878234,-0.209835800457001,0.393009607315063,1.2858919183877906
8.870909090909091,0.00505115232467655,-0.0661346285820007,0.158297693252563,1.2858919183877906
8.871515151515151,0.09606189451217659,-0.00625914030075074,-0.143474767684937,1.2858919183877906
8.872121212121211,0.385859257793427,-0.0805047457695007,0.254098474502563,1.2858919183877906
8.872727272727273,-0.277561152362823,-0.0421844332695007,-0.196165197372437,1.2858919183877906
8.873333333333333,-0.22487072267532301,0.10151673860549901,0.007411462783813039,1.2858919183877906
8.873939393939395,0.196652714824677,0.00571595735549926,0.239728357315063,1.2858919183877906
8.874545454545455,0.0457664843559265,0.07277650423049929,0.151112634658813,1.2858919183877906
8.875151515151515,-0.0236890820503235,0.0033209378242492604,-0.07880924034118701,1.2858919183877906
8.875757575757575,-0.12427990236282299,0.0823565823554993,0.031361658096313,1.2858919183877906
8.876363636363635,0.0577415820121765,0.154207168292999,0.11279232215881299,1.2858919183877906
8.876969696969697,-0.13385998048782302,0.07277650423049929,0.079262048721313,1.2858919183877906
8.877575757575759,-0.17457531251907302,0.0943316800117493,-0.12431461143493701,1.2858919183877906
8.878181818181819,-0.0212940625190735,-0.0110491793632507,0.048126794815063004,1.2858919183877906
8.878787878787879,-0.057219355487823496,0.0129010159492493,0.146322595596313,1.2858919183877906
8.879393939393939,-0.0332691601753235,-0.106849960613251,0.14871761512756299,1.2858919183877906
8.879999999999999,0.00744617185592655,0.0105059964179993,-0.06922916221618701,1.2858919183877906
8.88060606060606,0.0242113085746765,0.0991217190742493,-0.011748693466187,1.2858919183877906
8.881212121212121,-0.181760371112823,0.07277650423049929,0.187037927627563,1.2858919183877906
8.881818181818183,-0.17936535158157302,-0.157145370769501,0.09842220497131299,1.2858919183877906
8.882424242424243,-0.12188488283157299,0.0129010159492493,-0.112339513778687,1.2858919183877906
8.883030303030303,-0.07877453126907341,-0.159540390300751,-0.15065982627868701,1.2858919183877906
8.883636363636363,0.153542363262177,-0.020629257488250702,0.191827966690063,1.2858919183877906
8.884242424242423,0.246948124980927,0.0775665432929993,0.227753259658813,1.2858919183877906
8.884848484848485,0.033791386699676504,-0.161935409832001,0.282838708877563,1.2858919183877906
8.885454545454545,-0.0260841015815735,0.000925918292999261,0.055311853408813,1.2858919183877906
8.886060606060607,0.014631230449676501,0.0512213284492493,0.086447107315063,1.2858919183877906
8.886666666666667,-0.0596143750190735,0.0392462307929993,-0.026118810653687,1.2858919183877906
8.887272727272727,0.0361864062309265,-0.0996649020195007,-0.07401920127868701,1.2858919183877906
8.887878787878787,-0.0500342968940735,0.108701797199249,0.127162439346313,1.2858919183877906
8.888484848484847,-0.150625117206573,-0.0565545504570007,0.024176599502563,1.2858919183877906
8.889090909090909,-0.0620093945503235,0.032061172199249297,0.050521814346313,1.2858919183877906
8.88969696969697,0.0505565234184265,0.154207168292999,-0.00216861534118696,1.2858919183877906
8.89030303030303,0.316403691387177,0.0488263089179993,0.033756677627563,1.2858919183877906
8.89090909090909,-0.13865001955032302,-0.00386412076950074,0.26846859169006304,1.2858919183877906
8.89151515151515,-0.0117139843940735,0.168577285480499,-0.08120425987243701,1.2858919183877906
8.89212121212121,0.11761707029342701,0.209292617511749,0.055311853408813,1.2858919183877906
8.892727272727273,-0.014109003925323499,-0.032604355144500705,0.196618005752563,1.2858919183877906
8.893333333333333,0.00744617185592655,0.0416412503242493,-0.045278966903687,1.2858919183877906
8.893939393939394,0.026606328105926502,-0.126010116863251,0.14392757606506298,1.2858919183877906
8.894545454545455,0.105641972637177,0.144627090167999,-0.052464025497437,1.2858919183877906
8.895151515151515,-0.0979346875190734,0.156602187824249,-0.033303869247437,1.2858919183877906
8.895757575757576,-0.07398449220657341,-0.154750351238251,0.052916833877563,1.2858919183877906
8.896363636363635,-0.057219355487823496,-0.0685296481132507,0.040941736221313,1.2858919183877906
8.896969696969697,-0.0117139843940735,0.0631964261054993,0.220568201065063,1.2858919183877906
8.897575757575758,-0.018899042987823498,-0.00386412076950074,0.222963220596313,1.2858919183877906
8.898181818181818,-0.0236890820503235,-0.104454941082001,0.175062829971313,1.2858919183877906
8.898787878787878,0.00265613279342655,0.123071914386749,0.443305017471313,1.2858919183877906
8.899393939393939,-0.107514765644073,0.058406387042999296,-0.088389318466187,0.6572900569795349
8.9,-0.0452442578315735,-0.260131210613251,0.32834407997131304,0.6572900569795349
8.900606060606062,0.108036992168427,-0.0565545504570007,0.00980648231506304,0.6572900569795349
8.901212121212122,0.141567265605927,0.0655914456367493,-0.12191959190368701,0.6572900569795349
8.901818181818182,0.105641972637177,-0.116430038738251,0.036151697158813,0.6572900569795349
8.902424242424242,0.09606189451217659,-0.0373943942070007,-0.275200841903687,0.6572900569795349
8.903030303030302,0.11522205076217701,0.00811097688674926,0.038546716690063,0.6572900569795349
8.903636363636364,-0.320671503925323,0.180552383136749,-0.107549474716187,0.6572900569795349
8.904242424242424,-0.0500342968940735,-0.128405136394501,0.196618005752563,0.6572900569795349
8.904848484848486,0.0505565234184265,-0.0661346285820007,-0.009353673934936961,0.6572900569795349
8.905454545454546,-0.0955396679878234,0.0943316800117493,0.10560726356506299,0.6572900569795349
8.906060606060606,0.00505115232467655,-0.0493694918632507,0.13913753700256298,0.6572900569795349
8.906666666666666,0.108036992168427,0.0368512112617493,0.026571619033813002,0.6572900569795349
8.907272727272726,-0.0308741406440735,0.137442031574249,0.127162439346313,0.6572900569795349
8.907878787878788,-0.107514765644073,0.103911758136749,0.060101892471313,0.6572900569795349
8.90848484848485,-0.009318964862823449,0.149417129230499,-0.030908849716187,0.6572900569795349
8.90909090909091,-0.12188488283157299,-0.0733196871757507,0.028966638565063,0.6572900569795349
8.90969696969697,-0.102724726581573,-0.0781097262382507,-0.057254064559937,0.6572900569795349
8.91030303030303,0.12240710935592701,0.151812148761749,0.127162439346313,0.6572900569795349
8.91090909090909,0.09606189451217659,-0.0637396090507507,0.057706872940063,0.6572900569795349
8.911515151515152,-0.160205195331573,0.185342422199249,0.038546716690063,0.6572900569795349
8.912121212121212,0.014631230449676501,-0.0637396090507507,0.074472009658813,0.6572900569795349
8.912727272727274,0.0792967577934266,-0.145170273113251,-0.186585119247437,0.6572900569795349
8.913333333333334,-0.0117139843940735,-0.145170273113251,0.012201501846313,0.6572900569795349
8.913939393939394,-0.0428492383003235,-0.133195175457001,0.045731775283813,0.6572900569795349
8.914545454545454,-0.16978527345657302,0.0176910550117493,0.024176599502563,0.6572900569795349
8.915151515151514,0.0649266406059266,-0.140380234050751,0.016991540908813,0.6572900569795349
8.915757575757576,0.0888768359184266,0.0799615628242493,-0.248855627059937,0.6572900569795349
8.916363636363636,-0.25600597658157304,-0.0134441988945007,-0.148264806747437,0.6572900569795349
8.916969696969698,-0.19373546876907302,0.0033209378242492604,-0.038093908309937,0.6572900569795349
8.917575757575758,-0.145835078144073,-0.123615097332001,0.012201501846313,0.6572900569795349
8.918181818181818,-0.00692394533157345,0.0440362698554993,0.081657068252563,0.6572900569795349
8.918787878787878,0.09127185544967659,-0.114035019207001,-0.136289709091187,0.6572900569795349
8.919393939393938,-0.0308741406440735,-0.0876898043632507,-0.236880529403687,0.6572900569795349
8.92,0.12001208982467701,0.0991217190742493,0.012201501846313,0.6572900569795349
8.920606060606062,-0.0524293164253235,0.120676894855499,0.045731775283813,0.6572900569795349
8.921212121212122,-0.150625117206573,0.331438613605499,-0.021328771591187,0.6572900569795349
8.921818181818182,0.0529515429496765,-0.0517645113945007,0.014596521377563001,0.6572900569795349
8.922424242424242,-0.0165040234565735,-0.0852947848320007,0.079262048721313,0.6572900569795349
8.923030303030302,-0.241635859394073,-0.0158392184257507,0.055311853408813,0.6572900569795349
8.923636363636364,-0.08835460939407341,-0.106849960613251,-0.08359927940368701,0.6572900569795349
8.924242424242424,0.227787968730927,-0.0110491793632507,0.012201501846313,0.6572900569795349
8.924848484848486,0.148752324199677,-0.190675644207001,0.012201501846313,0.6572900569795349
8.925454545454546,-0.07158947267532341,-0.0685296481132507,0.067286951065063,0.6572900569795349
8.926060606060606,-0.275166132831573,0.00571595735549926,0.076867029190063,0.6572900569795349
8.926666666666666,0.00026111326217654604,-0.157145370769501,0.14871761512756299,0.6572900569795349
8.927272727272726,-0.131464960956573,0.000925918292999261,0.13434749794006298,0.6572900569795349
8.927878787878788,-0.222475703144073,0.07517152376174929,-0.057254064559937,0.6572900569795349
8.928484848484848,0.0577415820121765,0.0368512112617493,0.522340662002563,0.6572900569795349
8.92909090909091,0.242158085918427,-0.0182342379570007,0.072076990127563,0.6572900569795349
8.92969696969697,0.09366687498092659,-0.106849960613251,-0.162634923934937,0.6572900569795349
8.93030303030303,0.103246953105927,-0.0134441988945007,0.627721521377563,0.6572900569795349
8.93090909090909,0.256528203105927,-0.178700546550751,0.00980648231506304,0.6572900569795349
8.931515151515152,-0.155415156269073,-0.109244980144501,-0.188980138778687,0.6572900569795349
8.932121212121212,-0.06919445314407341,0.0033209378242492604,0.014596521377563001,0.6572900569795349
8.932727272727274,0.203837773418427,0.0033209378242492604,-0.045278966903687,0.6572900569795349
8.933333333333334,-0.0404542187690735,0.173367324542999,-0.117129552841187,0.6572900569795349
8.933939393939394,0.0457664843559265,0.000925918292999261,0.033756677627563,0.6572900569795349
8.934545454545455,0.0792967577934266,0.07277650423049929,0.146322595596313,0.6572900569795349
8.935151515151514,0.103246953105927,0.0943316800117493,0.079262048721313,0.6572900569795349
8.935757575757576,0.280478398418427,0.022481094074249298,0.079262048721313,0.6572900569795349
8.936363636363636,0.215812871074677,-0.00865415983200074,-0.033303869247437,0.6572900569795349
8.936969696969697,0.22539294919967698,0.0679864651679993,0.18943294715881298,0.6572900569795349
8.937575757575758,-0.07637951173782341,0.218872695636749,0.18464290809631298,0.6572900569795349
8.938181818181818,0.09366687498092659,0.0943316800117493,-0.172215002059937,0.6572900569795349
8.93878787878788,-0.0212940625190735,-0.0924798434257507,-0.018933752059936998,0.6572900569795349
8.93939393939394,-0.0452442578315735,-0.032604355144500705,0.10081722450256299,0.6572900569795349
8.940000000000001,0.0625316210746765,0.0512213284492493,0.074472009658813,0.6572900569795349
8.940606060606061,-0.0236890820503235,-0.0517645113945007,0.10321224403381299,0.6572900569795349
8.941212121212121,0.158332402324677,0.120676894855499,0.062496912002563,0.6572900569795349
8.941818181818181,0.00026111326217654604,-0.00625914030075074,0.20380306434631298,0.6572900569795349
8.942424242424241,0.0529515429496765,-0.214625839519501,-0.08359927940368701,0.6572900569795349
8.943030303030303,-0.08595958986282341,0.13025697298049901,-0.102759435653687,0.6572900569795349
8.943636363636365,-0.08356457033157341,-0.137985214519501,0.10081722450256299,0.6572900569795349
8.944242424242425,0.0864818163871766,-0.0134441988945007,-0.00216861534118696,0.6572900569795349
8.944848484848485,-0.0979346875190734,-0.0421844332695007,0.32834407997131304,0.6572900569795349
8.945454545454545,0.18946765623092698,0.0895416409492493,0.225358240127563,0.6572900569795349
8.946060606060605,0.0385814257621765,0.000925918292999261,0.024176599502563,0.6572900569795349
8.946666666666667,0.0481615038871765,-0.0757147067070007,0.11758236122131299,0.6572900569795349
8.947272727272727,0.167912480449677,0.0344561917304993,0.09842220497131299,0.6572900569795349
8.947878787878789,-0.07158947267532341,-0.140380234050751,0.155902673721313,0.6572900569795349
8.94848484848485,0.12480212888717701,0.0344561917304993,-0.11952457237243701,0.6572900569795349
8.94909090909091,-0.07637951173782341,-0.118825058269501,0.10081722450256299,0.6572900569795349
8.94969696969697,0.09606189451217659,-0.140380234050751,0.177457849502563,0.6572900569795349
8.95030303030303,-0.136255000019073,-0.0349993746757507,-0.177005041122437,0.6572900569795349
8.950909090909091,0.0769017382621766,-0.0493694918632507,0.028966638565063,0.6572900569795349
8.951515151515153,0.127197148418427,-0.0733196871757507,-0.06683414268493701,0.6572900569795349
8.952121212121213,-0.054824335956573496,-0.0900848238945007,-0.26083072471618696,0.6572900569795349
8.952727272727273,-0.0117139843940735,0.058406387042999296,-0.117129552841187,0.6572900569795349
8.953333333333333,-0.0165040234565735,-0.102059921550751,-0.021328771591187,0.6572900569795349
8.953939393939393,0.213417851543427,-0.00625914030075074,0.127162439346313,0.6572900569795349
8.954545454545455,0.00984119138717655,0.10151673860549901,0.237333337783813,0.6572900569795349
8.955151515151515,-0.148230097675323,0.00571595735549926,0.09602718544006299,0.6572900569795349
8.955757575757577,-0.10990978517532299,0.000925918292999261,-0.042883947372437,0.6572900569795349
8.956363636363637,0.00265613279342655,-0.118825058269501,-0.198560216903687,0.6572900569795349
8.956969696969697,-0.0165040234565735,-0.0948748629570007,-0.047673986434937,0.6572900569795349
8.957575757575757,-0.232055781269073,-0.0900848238945007,-0.059649084091187,0.6572900569795349
8.958181818181817,-0.176970332050323,-0.0709246676445007,0.00501644325256304,0.6572900569795349
8.958787878787879,0.139172246074677,0.0847516018867493,0.491205408096313,0.6572900569795349
8.959393939393939,0.22060291013717698,0.127861953449249,-0.109944494247437,0.6572900569795349
8.96,0.12001208982467701,0.111096816730499,0.172667810440063,0.6572900569795349
8.960606060606061,0.0290013476371765,-0.0349993746757507,0.196618005752563,0.6572900569795349
8.961212121212121,0.0577415820121765,-0.0828997653007507,-0.090784337997437,0.6572900569795349
8.961818181818181,-0.018899042987823498,0.015296035480499301,0.182247888565063,0.6572900569795349
8.962424242424241,-0.162600214862823,-0.188280624675751,-0.114734533309937,0.6572900569795349
8.963030303030303,0.0385814257621765,-0.0828997653007507,-0.047673986434937,0.6572900569795349
8.963636363636365,0.16551746091842698,-0.0397894137382507,0.122372400283813,0.6572900569795349
8.964242424242425,0.033791386699676504,-0.0924798434257507,0.074472009658813,0.6572900569795349
8.964848484848485,0.12240710935592701,-0.0110491793632507,-0.131499670028687,0.6572900569795349
8.965454545454545,0.026606328105926502,-0.123615097332001,0.086447107315063,0.6572900569795349
8.966060606060605,-0.0212940625190735,-0.0349993746757507,-0.004563634872436961,0.6572900569795349
8.966666666666667,-0.0452442578315735,0.00811097688674926,0.227753259658813,0.6572900569795349
8.967272727272727,-0.0524293164253235,-0.133195175457001,0.273258630752563,0.6572900569795349
8.967878787878789,0.0313963671684265,-0.118825058269501,0.038546716690063,0.6572900569795349
8.968484848484849,-0.0931446484565734,-0.0733196871757507,0.084052087783813,0.6572900569795349
8.969090909090909,-0.08835460939407341,-0.137985214519501,0.24451839637756298,0.6572900569795349
8.969696969696969,-0.12427990236282299,-0.0709246676445007,0.170272790908813,0.6572900569795349
8.970303030303029,-0.08835460939407341,-0.0924798434257507,-0.004563634872436961,0.6572900569795349
8.97090909090909,0.17030749998092698,-0.0996649020195007,-0.009353673934936961,0.6572900569795349
8.97151515151515,0.026606328105926502,0.0176910550117493,0.11758236122131299,0.6572900569795349
8.972121212121213,-0.227265742206573,-0.0397894137382507,0.167877771377563,0.6572900569795349
8.972727272727273,-0.131464960956573,-0.22899595670700099,0.031361658096313,0.6572900569795349
8.973333333333333,-0.141045039081573,0.0799615628242493,0.00980648231506304,0.6572900569795349
8.973939393939393,-0.07877453126907341,0.0991217190742493,-0.021328771591187,0.6572900569795349
8.974545454545455,0.0505565234184265,-0.240971054363251,0.079262048721313,0.6572900569795349
8.975151515151515,0.0194212695121765,0.10151673860549901,0.10321224403381299,0.6572900569795349
8.975757575757576,0.0170262499809265,0.0488263089179993,0.007411462783813039,0.6572900569795349
8.976363636363637,0.131987187480927,0.0512213284492493,0.084052087783813,0.6572900569795349
8.976969696969697,0.155937382793427,-0.00625914030075074,0.167877771377563,0.6572900569795349
8.977575757575758,-0.18894542970657302,-0.0110491793632507,-0.06922916221618701,0.6572900569795349
8.978181818181817,-0.148230097675323,0.173367324542999,0.14871761512756299,0.6572900569795349
8.978787878787879,0.0625316210746765,0.058406387042999296,0.155902673721313,0.6572900569795349
8.979393939393939,-0.0356641797065735,0.0105059964179993,-0.018933752059936998,0.6572900569795349
8.98,-0.0476392773628235,-0.0134441988945007,0.021781579971313,0.6572900569795349
8.98060606060606,-0.222475703144073,-0.157145370769501,-0.095574377059937,0.6572900569795349
8.98121212121212,-0.06919445314407341,-0.058949569988250704,-0.15065982627868701,0.6572900569795349
8.981818181818182,0.0433714648246765,-0.0565545504570007,0.10081722450256299,0.6572900569795349
8.982424242424242,0.0816917773246766,-0.0685296481132507,0.064891931533813,0.6572900569795349
8.983030303030304,0.22539294919967698,0.0536163479804993,-0.12431461143493701,0.6572900569795349
8.983636363636364,-0.12427990236282299,0.173367324542999,0.25170345497131297,0.6572900569795349
8.984242424242424,-0.102724726581573,0.158997207355499,0.007411462783813039,0.6572900569795349
8.984848484848484,-0.0260841015815735,-0.149960312175751,-0.153054845809937,0.6572900569795349
8.985454545454544,-0.009318964862823449,-0.200255722332001,-0.12191959190368701,0.6572900569795349
8.986060606060606,-0.0308741406440735,-0.188280624675751,-0.21053531455993701,0.6572900569795349
8.986666666666668,-0.0500342968940735,-0.298451523113251,-0.241670568466187,0.6572900569795349
8.987272727272728,0.0194212695121765,0.060801406574249296,-0.131499670028687,0.6572900569795349
8.987878787878788,-0.131464960956573,0.0991217190742493,-0.047673986434937,0.6572900569795349
8.988484848484848,0.108036992168427,-0.0733196871757507,-0.342261388778687,0.6572900569795349
8.989090909090908,0.105641972637177,-0.0469744723320007,-0.028513830184937,0.6572900569795349
8.98969696969697,0.00505115232467655,-0.0421844332695007,0.12955745887756298,0.6572900569795349
8.99030303030303,-0.0284791211128235,-0.111639999675751,0.5750310916900631,0.6572900569795349
8.990909090909092,0.0505565234184265,-0.0517645113945007,0.263678552627563,0.6572900569795349
8.991515151515152,0.155937382793427,0.166182265949249,-0.112339513778687,0.6572900569795349
8.992121212121212,-0.12188488283157299,0.060801406574249296,0.187037927627563,0.6572900569795349
8.992727272727272,-0.126674921894073,-0.126010116863251,-0.028513830184937,0.6572900569795349
8.993333333333332,-0.06440441408157341,-0.181095566082001,0.038546716690063,0.6572900569795349
8.993939393939394,0.0529515429496765,0.0248761136054993,-0.107549474716187,0.6572900569795349
8.994545454545456,-0.0404542187690735,-0.058949569988250704,-0.054859045028687,0.6572900569795349
8.995151515151516,0.09127185544967659,-0.147565292644501,0.13434749794006298,0.6572900569795349
8.995757575757576,-0.145835078144073,0.0512213284492493,0.122372400283813,0.6572900569795349
8.996363636363636,-0.155415156269073,-0.0278143160820007,0.062496912002563,0.6572900569795349
8.996969696969696,0.191862675762177,-0.245761093425751,-0.06922916221618701,0.6572900569795349
8.997575757575758,-0.12427990236282299,0.0488263089179993,-0.090784337997437,0.6572900569795349
8.998181818181818,0.0697166796684266,0.120676894855499,0.00501644325256304,0.6572900569795349
8.99878787878788,0.141567265605927,-0.32479673795700104,-0.093179357528687,0.6572900569795349
8.99939393939394,-0.06679943361282341,-0.22899595670700099,-0.153054845809937,0.9671542535663439
9.0,0.12240710935592701,-0.032604355144500705,0.079262048721313,0.9671542535663439
9.00060606060606,-0.00692394533157345,-0.209835800457001,-0.033303869247437,0.9671542535663439
9.00121212121212,0.0457664843559265,0.000925918292999261,-0.06922916221618701,0.9671542535663439
9.001818181818182,0.13438220701217699,0.0176910550117493,0.158297693252563,0.9671542535663439
9.002424242424242,0.18946765623092698,0.0176910550117493,-0.009353673934936961,0.9671542535663439
9.003030303030304,0.199047734355927,0.163787246417999,-0.097969396591187,0.9671542535663439
9.003636363636364,-0.0476392773628235,0.0296661526679993,0.007411462783813039,0.9671542535663439
9.004242424242424,-0.0955396679878234,0.0296661526679993,0.172667810440063,0.9671542535663439
9.004848484848484,-0.131464960956573,-0.140380234050751,-0.050069005966187,0.9671542535663439
9.005454545454544,0.0505565234184265,-0.149960312175751,-0.102759435653687,0.9671542535663439
9.006060606060606,-0.0979346875190734,-0.130800155925751,0.088842126846313,0.9671542535663439
9.006666666666668,-0.210500605487823,-0.0852947848320007,-0.062044103622437,0.9671542535663439
9.007272727272728,-0.0308741406440735,0.020086074542999297,0.131952478408813,0.9671542535663439
9.007878787878788,-0.0500342968940735,-0.0182342379570007,0.215778162002563,0.9671542535663439
9.008484848484848,-0.08116955080032341,-0.00386412076950074,0.045731775283813,0.9671542535663439
9.009090909090908,-0.0380591992378235,-0.137985214519501,0.11518734169006299,0.9671542535663439
9.00969696969697,0.17030749998092698,0.0105059964179993,0.10081722450256299,0.9671542535663439
9.01030303030303,-0.00692394533157345,0.125466933917999,0.27804866981506304,0.9671542535663439
9.010909090909092,-0.205710566425323,0.170972305011749,0.179852869033813,0.9671542535663439
9.011515151515152,-0.160205195331573,0.173367324542999,-0.102759435653687,0.9671542535663439
9.012121212121212,-0.0308741406440735,0.0679864651679993,0.158297693252563,0.9671542535663439
9.012727272727272,0.09606189451217659,0.0703814846992493,0.072076990127563,0.9671542535663439
9.013333333333332,0.136777226543427,0.137442031574249,-0.016538732528687,0.9671542535663439
9.013939393939394,-0.0380591992378235,0.0033209378242492604,0.043336755752563,0.9671542535663439
9.014545454545456,-0.136255000019073,-0.133195175457001,0.069681970596313,0.9671542535663439
9.015151515151516,0.00026111326217654604,0.163787246417999,0.086447107315063,0.9671542535663439
9.015757575757576,0.0313963671684265,-0.137985214519501,0.09842220497131299,0.9671542535663439
9.016363636363636,0.100851933574677,-0.058949569988250704,0.10081722450256299,0.9671542535663439
9.016969696969696,-0.0931446484565734,0.19013246126174901,-0.114734533309937,0.9671542535663439
9.017575757575758,-0.0428492383003235,-0.135590194988251,0.055311853408813,0.9671542535663439
9.018181818181818,0.09366687498092659,-0.0134441988945007,-0.004563634872436961,0.9671542535663439
9.01878787878788,0.103246953105927,-0.0302093356132507,0.14871761512756299,0.9671542535663439
9.01939393939394,0.0290013476371765,-0.200255722332001,-0.023723791122437,0.9671542535663439
9.02,-0.057219355487823496,-0.116430038738251,0.14871761512756299,0.9671542535663439
9.020606060606061,-0.160205195331573,-0.0828997653007507,0.402589685440063,0.9671542535663439
9.021212121212121,-0.0212940625190735,0.142232070636749,0.084052087783813,0.9671542535663439
9.021818181818182,0.0792967577934266,0.10151673860549901,0.325949060440063,0.9671542535663439
9.022424242424242,-0.08116955080032341,0.07277650423049929,0.218173181533813,0.9671542535663439
9.023030303030303,0.09606189451217659,0.103911758136749,0.019386560440063,0.9671542535663439
9.023636363636363,-0.0236890820503235,-0.0182342379570007,-0.093179357528687,0.9671542535663439
9.024242424242424,0.11522205076217701,-0.00386412076950074,0.11758236122131299,0.9671542535663439
9.024848484848485,-0.014109003925323499,0.0655914456367493,0.27804866981506304,0.9671542535663439
9.025454545454547,-0.00692394533157345,0.13025697298049901,-0.009353673934936961,0.9671542535663439
9.026060606060607,0.103246953105927,-0.00386412076950074,0.00501644325256304,0.9671542535663439
9.026666666666667,-0.107514765644073,-0.161935409832001,0.10800228309631299,0.9671542535663439
9.027272727272727,-0.13385998048782302,0.0488263089179993,-0.287175939559937,0.9671542535663439
9.027878787878787,0.11282703123092701,-0.0828997653007507,-0.100364416122437,0.9671542535663439
9.028484848484847,-0.0907496289253234,-0.0757147067070007,0.165482751846313,0.9671542535663439
9.02909090909091,0.0218162890434265,0.0799615628242493,-0.16023990440368702,0.9671542535663439
9.029696969696971,0.151147343730927,-0.0254192965507507,0.09602718544006299,0.9671542535663439
9.030303030303031,0.00744617185592655,0.0105059964179993,0.024176599502563,0.9671542535663439
9.030909090909091,0.18467761716842698,0.020086074542999297,0.12955745887756298,0.9671542535663439
9.031515151515151,0.00744617185592655,0.0488263089179993,0.20380306434631298,0.9671542535663439
9.032121212121211,0.187072636699677,-0.164330429363251,0.019386560440063,0.9671542535663439
9.032727272727273,0.0409764452934265,0.0488263089179993,-0.126709630966187,0.9671542535663439
9.033333333333333,0.139172246074677,0.245217910480499,-0.107549474716187,0.9671542535663439
9.033939393939395,-0.0308741406440735,0.0775665432929993,0.242123376846313,0.9671542535663439
9.034545454545455,0.09606189451217659,0.111096816730499,0.151112634658813,0.9671542535663439
9.035151515151515,0.09127185544967659,0.123071914386749,0.043336755752563,0.9671542535663439
9.035757575757575,-0.0308741406440735,-0.157145370769501,0.084052087783813,0.9671542535663439
9.036363636363635,0.16551746091842698,-0.00146910123825074,0.11279232215881299,0.9671542535663439
9.036969696969697,-0.0476392773628235,0.0536163479804993,0.024176599502563,0.9671542535663439
9.037575757575759,0.0745067187309266,-0.176305527019501,0.206198083877563,0.9671542535663439
9.038181818181819,0.242158085918427,-0.0541595309257507,-0.018933752059936998,0.9671542535663439
9.038787878787879,0.09366687498092659,0.032061172199249297,-0.033303869247437,0.9671542535663439
9.039393939393939,-0.160205195331573,-0.106849960613251,0.122372400283813,0.9671542535663439
9.04,0.0122362109184265,-0.0805047457695007,0.072076990127563,0.9671542535663439
9.040606060606061,0.28287341794967696,0.0033209378242492604,0.153507654190063,0.9671542535663439
9.041212121212121,-0.0380591992378235,-0.0781097262382507,-0.08120425987243701,0.9671542535663439
9.041818181818183,-0.0476392773628235,0.0129010159492493,-0.059649084091187,0.9671542535663439
9.042424242424243,-0.08356457033157341,0.0416412503242493,0.13913753700256298,0.9671542535663439
9.043030303030303,0.0313963671684265,-0.137985214519501,0.072076990127563,0.9671542535663439
9.043636363636363,0.0433714648246765,0.00811097688674926,-0.095574377059937,0.9671542535663439
9.044242424242423,0.014631230449676501,-0.135590194988251,-0.050069005966187,0.9671542535663439
9.044848484848485,-0.0356641797065735,-0.0493694918632507,-0.038093908309937,0.9671542535663439
9.045454545454545,-0.150625117206573,0.175762344074249,0.012201501846313,0.9671542535663439
9.046060606060607,-0.153020136737823,-0.147565292644501,-0.090784337997437,0.9671542535663439
9.046666666666667,-0.0356641797065735,-0.0757147067070007,-0.109944494247437,0.9671542535663439
9.047272727272727,0.419389531230927,-0.0565545504570007,0.084052087783813,0.9671542535663439
9.047878787878787,-0.00452892580032345,0.0560113675117493,0.09842220497131299,0.9671542535663439
9.048484848484847,-0.19373546876907302,0.0703814846992493,-0.315916173934937,0.9671542535663439
9.049090909090909,-0.11230480470657299,-0.0781097262382507,-0.011748693466187,0.9671542535663439
9.04969696969697,0.09366687498092659,-0.0349993746757507,0.797767908096313,0.9671542535663439
9.05030303030303,0.033791386699676504,-0.0948748629570007,0.551080896377563,0.9671542535663439
9.05090909090909,-0.19852550783157302,0.0368512112617493,0.19901302528381298,0.9671542535663439
9.05151515151515,0.09845691404342659,0.137442031574249,0.043336755752563,0.9671542535663439
9.052121212121211,0.0553465624809265,-0.0876898043632507,0.060101892471313,0.9671542535663439
9.052727272727273,0.105641972637177,-0.22899595670700099,0.048126794815063004,0.9671542535663439
9.053333333333333,-0.12188488283157299,0.0488263089179993,0.033756677627563,0.9671542535663439
9.053939393939395,-0.148230097675323,-0.0373943942070007,0.088842126846313,0.9671542535663439
9.054545454545455,0.09606189451217659,-0.33198179655075105,-0.07401920127868701,0.9671542535663439
9.055151515151515,-0.13865001955032302,-0.0852947848320007,0.13913753700256298,0.9671542535663439
9.055757575757575,-0.227265742206573,0.020086074542999297,0.187037927627563,0.9671542535663439
9.056363636363635,-0.167390253925323,-0.0397894137382507,-0.014143712997437,0.9671542535663439
9.056969696969697,-0.00213390626907345,0.147022109699249,-0.07162418174743701,0.9671542535663439
9.057575757575759,-0.00213390626907345,-0.118825058269501,0.10321224403381299,0.9671542535663439
9.058181818181819,-0.00213390626907345,-0.0733196871757507,0.040941736221313,0.9671542535663439
9.058787878787879,0.00984119138717655,-0.114035019207001,0.038546716690063,0.9671542535663439
9.059393939393939,-0.0452442578315735,-0.300846542644501,0.040941736221313,0.9671542535663439
9.06,-0.191340449237823,0.120676894855499,-0.131499670028687,0.9671542535663439
9.06060606060606,-0.181760371112823,-0.0421844332695007,-0.026118810653687,0.9671542535663439
9.06121212121212,-0.107514765644073,-0.147565292644501,0.060101892471313,0.9671542535663439
9.061818181818182,0.00026111326217654604,0.197317519855499,0.012201501846313,0.9671542535663439
9.062424242424242,0.0409764452934265,0.166182265949249,0.033756677627563,0.9671542535663439
9.063030303030303,-0.0332691601753235,0.00571595735549926,0.234938318252563,0.9671542535663439
9.063636363636364,-0.289536250019073,-0.0445794528007507,0.088842126846313,0.9671542535663439
9.064242424242424,-0.057219355487823496,-0.0445794528007507,0.007411462783813039,0.9671542535663439
9.064848484848486,0.103246953105927,0.127861953449249,0.038546716690063,0.9671542535663439
9.065454545454545,-0.0284791211128235,0.0105059964179993,0.084052087783813,0.9671542535663439
9.066060606060606,0.11761707029342701,-0.0565545504570007,0.11997738075256299,0.9671542535663439
9.066666666666666,0.0194212695121765,-0.214625839519501,-0.08359927940368701,0.9671542535663439
9.067272727272726,0.155937382793427,-0.212230819988251,-0.227300451278687,0.9671542535663439
9.067878787878788,0.09606189451217659,0.0464312893867493,-0.062044103622437,0.9671542535663439
9.068484848484848,-0.0931446484565734,-0.058949569988250704,0.028966638565063,0.9671542535663439
9.06909090909091,-0.0332691601753235,-0.181095566082001,0.124767419815063,0.9671542535663439
9.06969696969697,-0.0500342968940735,-0.188280624675751,-0.131499670028687,0.9671542535663439
9.07030303030303,-0.00452892580032345,-0.193070663738251,-0.239275548934937,0.9671542535663439
9.07090909090909,-0.0596143750190735,-0.181095566082001,0.00262142372131304,0.9671542535663439
9.071515151515152,0.218207890605927,0.0823565823554993,-0.138684728622437,0.9671542535663439
9.072121212121212,0.0864818163871766,0.0631964261054993,-0.009353673934936961,0.9671542535663439
9.072727272727274,-0.289536250019073,0.020086074542999297,0.09363216590881299,0.9671542535663439
9.073333333333334,-0.160205195331573,0.015296035480499301,0.069681970596313,0.9671542535663439
9.073939393939394,-0.0907496289253234,-0.188280624675751,0.29002376747131303,0.9671542535663439
9.074545454545454,0.182282597637177,-0.0493694918632507,0.20859310340881299,0.9671542535663439
9.075151515151514,0.146357304668427,0.118281875324249,0.163087732315063,0.9671542535663439
9.075757575757576,0.294848515605927,0.0847516018867493,0.10321224403381299,0.9671542535663439
9.076363636363636,-0.0332691601753235,0.0512213284492493,-0.08120425987243701,0.9671542535663439
9.076969696969698,-0.220080683612823,0.0176910550117493,0.11039730262756299,0.9671542535663439
9.077575757575758,0.0433714648246765,-0.106849960613251,-0.054859045028687,0.9671542535663439
9.078181818181818,-0.17936535158157302,0.0560113675117493,-0.100364416122437,0.9671542535663439
9.078787878787878,0.187072636699677,0.149417129230499,-0.272805822372437,0.9671542535663439
9.079393939393938,0.177492558574677,0.0296661526679993,0.39779964637756304,0.9671542535663439
9.08,0.0577415820121765,0.020086074542999297,0.642091638565063,0.9671542535663439
9.080606060606062,0.0242113085746765,0.127861953449249,-0.088389318466187,0.9671542535663439
9.081212121212122,-0.054824335956573496,-0.0924798434257507,0.012201501846313,0.9671542535663439
9.081818181818182,0.0673216601371766,-0.0565545504570007,0.146322595596313,0.9671542535663439
9.082424242424242,-0.0260841015815735,-0.0924798434257507,-0.06683414268493701,0.9671542535663439
9.083030303030302,-0.009318964862823449,-0.020629257488250702,0.10081722450256299,0.9671542535663439
9.083636363636364,0.0242113085746765,-0.0134441988945007,0.29002376747131303,0.9671542535663439
9.084242424242424,-0.12188488283157299,-0.0182342379570007,-0.06443912315368701,0.9671542535663439
9.084848484848486,-0.0117139843940735,-0.058949569988250704,-0.004563634872436961,0.9671542535663439
9.085454545454546,0.242158085918427,0.0248761136054993,-0.088389318466187,0.9671542535663439
9.086060606060606,0.148752324199677,0.0799615628242493,-0.109944494247437,0.9671542535663439
9.086666666666666,0.0313963671684265,-0.00386412076950074,-0.018933752059936998,0.9671542535663439
9.087272727272726,0.033791386699676504,0.020086074542999297,0.201408044815063,0.9671542535663439
9.087878787878788,-0.08116955080032341,0.0272711331367493,0.165482751846313,0.9671542535663439
9.088484848484848,-0.0955396679878234,0.10151673860549901,0.179852869033813,0.9671542535663439
9.08909090909091,-0.0404542187690735,-0.0733196871757507,0.215778162002563,0.9671542535663439
9.08969696969697,0.0242113085746765,-0.0565545504570007,0.10081722450256299,0.9671542535663439
9.09030303030303,-0.157810175800323,0.0775665432929993,0.076867029190063,0.9671542535663439
9.09090909090909,-0.06919445314407341,0.111096816730499,-0.07641422080993701,0.9671542535663439
9.091515151515152,0.09845691404342659,0.0560113675117493,0.028966638565063,0.9671542535663439
9.092121212121212,0.0792967577934266,0.0248761136054993,0.182247888565063,0.9671542535663439
9.092727272727274,0.19425769529342699,-0.032604355144500705,0.09842220497131299,0.9671542535663439
9.093333333333334,-0.0452442578315735,0.07517152376174929,0.052916833877563,0.9671542535663439
9.093939393939394,0.0625316210746765,-0.023024277019500702,0.187037927627563,0.9671542535663439
9.094545454545454,-0.16978527345657302,-0.0469744723320007,0.232543298721313,0.9671542535663439
9.095151515151514,-0.148230097675323,-0.00625914030075074,-0.035698888778687,0.9671542535663439
9.095757575757576,0.0529515429496765,0.032061172199249297,0.00980648231506304,0.9671542535663439
9.096363636363636,-0.0284791211128235,-0.0397894137382507,-0.009353673934936961,0.9671542535663439
9.096969696969698,-0.143440058612823,0.00811097688674926,0.10560726356506299,0.9671542535663439
9.097575757575758,-0.24882091798782302,-0.058949569988250704,0.141532556533813,0.9671542535663439
9.098181818181818,0.24455310544967698,-0.0134441988945007,-0.11952457237243701,0.9671542535663439
9.098787878787878,0.09127185544967659,0.0368512112617493,0.124767419815063,0.9671542535663439
9.099393939393938,-0.284746210956573,0.139837051105499,0.036151697158813,0.9671542535663439
9.1,-0.11948986330032299,0.0703814846992493,0.050521814346313,0.8678444972984934
9.100606060606061,0.0218162890434265,0.00571595735549926,0.031361658096313,0.8678444972984934
9.101212121212122,-0.10990978517532299,0.0943316800117493,0.10081722450256299,0.8678444972984934
9.101818181818182,-0.0332691601753235,0.0991217190742493,0.131952478408813,0.8678444972984934
9.102424242424242,0.18946765623092698,0.163787246417999,0.088842126846313,0.8678444972984934
9.103030303030303,0.0290013476371765,-0.140380234050751,0.050521814346313,0.8678444972984934
9.103636363636364,-0.181760371112823,-0.149960312175751,-0.08120425987243701,0.8678444972984934
9.104242424242424,-0.0380591992378235,-0.00625914030075074,0.019386560440063,0.8678444972984934
9.104848484848485,-0.07877453126907341,0.0560113675117493,-0.129104650497437,0.8678444972984934
9.105454545454545,-0.018899042987823498,-0.0757147067070007,-0.050069005966187,0.8678444972984934
9.106060606060606,0.0673216601371766,-0.020629257488250702,-0.011748693466187,0.8678444972984934
9.106666666666667,0.0194212695121765,0.111096816730499,0.09602718544006299,0.8678444972984934
9.107272727272727,-0.131464960956573,0.247612930011749,0.079262048721313,0.8678444972984934
9.10787878787879,0.131987187480927,0.07517152376174929,0.124767419815063,0.8678444972984934
9.10848484848485,0.0433714648246765,-0.023024277019500702,-0.15544986534118702,0.8678444972984934
9.10909090909091,-0.330251582050323,0.0536163479804993,-0.246460607528687,0.8678444972984934
9.10969696969697,-0.0524293164253235,0.0488263089179993,-0.117129552841187,0.8678444972984934
9.11030303030303,0.0769017382621766,0.0296661526679993,0.43851497840881304,0.8678444972984934
9.110909090909091,-0.07877453126907341,0.120676894855499,0.455280115127563,0.8678444972984934
9.111515151515153,0.09606189451217659,-0.032604355144500705,0.014596521377563001,0.8678444972984934
9.112121212121213,0.136777226543427,-0.0517645113945007,0.313973962783813,0.8678444972984934
9.112727272727273,0.0745067187309266,-0.00386412076950074,-0.08120425987243701,0.8678444972984934
9.113333333333333,0.172702519512177,-0.137985214519501,0.19901302528381298,0.8678444972984934
9.113939393939393,-0.200920527362823,-0.104454941082001,0.00980648231506304,0.8678444972984934
9.114545454545455,-0.153020136737823,-0.116430038738251,-0.177005041122437,0.8678444972984934
9.115151515151515,-0.014109003925323499,-0.0397894137382507,0.09602718544006299,0.8678444972984934
9.115757575757577,0.11043201169967701,0.0105059964179993,-0.011748693466187,0.8678444972984934
9.116363636363637,0.18467761716842698,-0.0134441988945007,-0.050069005966187,0.8678444972984934
9.116969696969697,-0.0165040234565735,-0.0661346285820007,0.088842126846313,0.8678444972984934
9.117575757575757,-0.17457531251907302,-0.0182342379570007,0.30918392372131304,0.8678444972984934
9.118181818181817,-0.0212940625190735,-0.152355331707001,0.19422298622131298,0.8678444972984934
9.118787878787879,0.11282703123092701,-0.140380234050751,-0.033303869247437,0.8678444972984934
9.11939393939394,-0.06919445314407341,-0.0805047457695007,0.043336755752563,0.8678444972984934
9.120000000000001,-0.18415539064407302,0.115886855792999,0.09363216590881299,0.8678444972984934
9.120606060606061,-0.0260841015815735,-0.0757147067070007,0.072076990127563,0.8678444972984934
9.121212121212121,0.151147343730927,-0.0445794528007507,0.11997738075256299,0.8678444972984934
9.121818181818181,0.0433714648246765,-0.0661346285820007,-0.028513830184937,0.8678444972984934
9.122424242424241,-0.12188488283157299,-0.0182342379570007,-0.107549474716187,0.8678444972984934
9.123030303030303,-0.215290644550323,0.0416412503242493,-0.018933752059936998,0.8678444972984934
9.123636363636365,0.09606189451217659,-0.171515487957001,0.191827966690063,0.8678444972984934
9.124242424242425,-0.0356641797065735,-0.106849960613251,0.160692712783813,0.8678444972984934
9.124848484848485,-0.105119746112823,-0.137985214519501,0.24930843544006298,0.8678444972984934
9.125454545454545,-0.014109003925323499,0.032061172199249297,-0.057254064559937,0.8678444972984934
9.126060606060605,-0.018899042987823498,-0.0278143160820007,-0.018933752059936998,0.8678444972984934
9.126666666666667,0.213417851543427,0.0823565823554993,0.000226404190063041,0.8678444972984934
9.127272727272727,0.227787968730927,0.0847516018867493,-0.023723791122437,0.8678444972984934
9.127878787878789,0.0697166796684266,0.015296035480499301,0.376244470596313,0.8678444972984934
9.128484848484849,-0.0165040234565735,0.0631964261054993,0.10321224403381299,0.8678444972984934
9.129090909090909,0.143962285137177,0.0512213284492493,0.062496912002563,0.8678444972984934
9.129696969696969,-0.102724726581573,-0.145170273113251,0.136742517471313,0.8678444972984934
9.130303030303029,-0.105119746112823,-0.0445794528007507,-0.047673986434937,0.8678444972984934
9.13090909090909,-0.251215937519073,-0.032604355144500705,0.064891931533813,0.8678444972984934
9.131515151515151,-0.186550410175323,0.0488263089179993,0.270863611221313,0.8678444972984934
9.132121212121213,-0.172180292987823,-0.0302093356132507,0.29002376747131303,0.8678444972984934
9.132727272727273,-0.148230097675323,-0.178700546550751,0.163087732315063,0.8678444972984934
9.133333333333333,0.0170262499809265,-0.133195175457001,-0.057254064559937,0.8678444972984934
9.133939393939393,-0.162600214862823,-0.0397894137382507,-0.177005041122437,0.8678444972984934
9.134545454545455,-0.131464960956573,0.144627090167999,-0.026118810653687,0.8678444972984934
9.135151515151515,0.0290013476371765,-0.0134441988945007,0.10800228309631299,0.8678444972984934
9.135757575757577,0.103246953105927,-0.0182342379570007,0.263678552627563,0.8678444972984934
9.136363636363637,0.0290013476371765,0.0176910550117493,0.225358240127563,0.8678444972984934
9.136969696969697,-0.014109003925323499,-0.109244980144501,-0.018933752059936998,0.8678444972984934
9.137575757575757,-0.018899042987823498,-0.135590194988251,0.067286951065063,0.8678444972984934
9.138181818181817,0.155937382793427,0.020086074542999297,0.076867029190063,0.8678444972984934
9.138787878787879,-0.143440058612823,-0.0517645113945007,-0.030908849716187,0.8678444972984934
9.139393939393939,-0.200920527362823,-0.0948748629570007,-0.43087711143493695,0.8678444972984934
9.14,-0.0380591992378235,0.0248761136054993,0.639696619033813,0.8678444972984934
9.14060606060606,-0.0931446484565734,0.000925918292999261,0.158297693252563,0.8678444972984934
9.14121212121212,-0.0212940625190735,-0.0278143160820007,-0.222510412216187,0.8678444972984934
9.14181818181818,0.0218162890434265,-0.032604355144500705,0.239728357315063,0.8678444972984934
9.14242424242424,0.09606189451217659,0.151812148761749,0.048126794815063004,0.8678444972984934
9.143030303030303,-0.0117139843940735,0.060801406574249296,0.25888851356506304,0.8678444972984934
9.143636363636364,-0.16499523439407301,-0.195465683269501,0.00262142372131304,0.8678444972984934
9.144242424242425,-0.08356457033157341,-0.0565545504570007,-0.08120425987243701,0.8678444972984934
9.144848484848485,0.237368046855927,0.166182265949249,0.122372400283813,0.8678444972984934
9.145454545454546,0.201442753887177,-0.118825058269501,0.342714197158813,0.8678444972984934
9.146060606060606,-0.0260841015815735,-0.0709246676445007,-0.06683414268493701,0.8678444972984934
9.146666666666667,0.0697166796684266,0.0440362698554993,0.064891931533813,0.8678444972984934
9.147272727272727,0.026606328105926502,-0.0134441988945007,0.13434749794006298,0.8678444972984934
9.147878787878788,-0.157810175800323,0.0248761136054993,-0.00216861534118696,0.8678444972984934
9.148484848484848,-0.009318964862823449,-0.226600937175751,-0.011748693466187,0.8678444972984934
9.149090909090908,0.0697166796684266,0.125466933917999,-0.162634923934937,0.8678444972984934
9.14969696969697,-0.11948986330032299,0.0895416409492493,0.031361658096313,0.8678444972984934
9.15030303030303,0.0553465624809265,-0.0541595309257507,0.191827966690063,0.8678444972984934
9.150909090909092,-0.143440058612823,0.0991217190742493,0.060101892471313,0.8678444972984934
9.151515151515152,-0.157810175800323,-0.164330429363251,0.060101892471313,0.8678444972984934
9.152121212121212,-0.181760371112823,-0.109244980144501,-0.042883947372437,0.8678444972984934
9.152727272727272,-0.00452892580032345,-0.0685296481132507,0.072076990127563,0.8678444972984934
9.153333333333332,0.100851933574677,-0.0397894137382507,-0.028513830184937,0.8678444972984934
9.153939393939394,-0.0380591992378235,-0.116430038738251,0.086447107315063,0.8678444972984934
9.154545454545456,0.103246953105927,-0.212230819988251,-0.047673986434937,0.8678444972984934
9.155151515151516,-0.0524293164253235,0.0248761136054993,-0.15065982627868701,0.8678444972984934
9.155757575757576,-0.014109003925323499,-0.135590194988251,0.031361658096313,0.8678444972984934
9.156363636363636,0.0409764452934265,0.07517152376174929,-0.16981998252868702,0.8678444972984934
9.156969696969696,0.00265613279342655,0.125466933917999,-0.212930334091187,0.8678444972984934
9.157575757575758,0.211022832012177,-0.0900848238945007,-0.026118810653687,0.8678444972984934
9.158181818181818,0.23976306638717698,0.0775665432929993,0.072076990127563,0.8678444972984934
9.15878787878788,0.163122441387177,-0.0924798434257507,0.10800228309631299,0.8678444972984934
9.15939393939394,0.12480212888717701,-0.0900848238945007,0.10560726356506299,0.8678444972984934
9.16,0.0721116991996766,-0.0709246676445007,-0.028513830184937,0.8678444972984934
9.16060606060606,0.12959216794967698,-0.0709246676445007,0.09842220497131299,0.8678444972984934
9.16121212121212,0.00984119138717655,0.0775665432929993,0.158297693252563,0.8678444972984934
9.161818181818182,-0.0236890820503235,-0.205045761394501,-0.0069586544036869605,0.8678444972984934
9.162424242424242,-0.157810175800323,-0.0349993746757507,-0.040488927841187,0.8678444972984934
9.163030303030304,0.00265613279342655,-0.0158392184257507,-0.153054845809937,0.8678444972984934
9.163636363636364,-0.0284791211128235,-0.0397894137382507,-0.054859045028687,0.8678444972984934
9.164242424242424,-0.018899042987823498,0.144627090167999,0.012201501846313,0.8678444972984934
9.164848484848484,-0.102724726581573,0.111096816730499,-0.25843570518493697,0.8678444972984934
9.165454545454544,0.0218162890434265,0.0440362698554993,0.028966638565063,0.8678444972984934
9.166060606060606,-0.07637951173782341,0.0655914456367493,0.09363216590881299,0.8678444972984934
9.166666666666668,0.0122362109184265,-0.0278143160820007,0.014596521377563001,0.8678444972984934
9.167272727272728,0.191862675762177,0.0129010159492493,0.091237146377563,0.8678444972984934
9.167878787878788,-0.203315546894073,0.166182265949249,0.09602718544006299,0.8678444972984934
9.168484848484848,0.0313963671684265,-0.130800155925751,0.036151697158813,0.8678444972984934
9.169090909090908,0.0888768359184266,-0.0972698824882507,-0.363816564559937,0.8678444972984934
9.16969696969697,-0.143440058612823,-0.188280624675751,-0.31831119346618697,0.8678444972984934
9.17030303030303,-0.06440441408157341,-0.159540390300751,0.20380306434631298,0.8678444972984934
9.170909090909092,0.0409764452934265,-0.0781097262382507,0.11997738075256299,0.8678444972984934
9.171515151515152,0.285268437480927,0.0248761136054993,-0.205745275497437,0.8678444972984934
9.172121212121212,0.0385814257621765,-0.020629257488250702,0.060101892471313,0.8678444972984934
9.172727272727272,-0.12188488283157299,0.0416412503242493,0.014596521377563001,0.8678444972984934
9.173333333333332,0.12480212888717701,0.156602187824249,-0.294360998153687,0.8678444972984934
9.173939393939394,0.014631230449676501,-0.032604355144500705,-0.15065982627868701,0.8678444972984934
9.174545454545456,0.0553465624809265,0.142232070636749,0.246913415908813,0.8678444972984934
9.175151515151516,-0.40689220705032303,0.238032851886749,0.067286951065063,0.8678444972984934
9.175757575757576,-0.320671503925323,-0.0421844332695007,-0.035698888778687,0.8678444972984934
9.176363636363636,-0.08116955080032341,-0.123615097332001,-0.06922916221618701,0.8678444972984934
9.176969696969696,-0.107514765644073,0.0895416409492493,-0.00216861534118696,0.8678444972984934
9.177575757575758,0.00026111326217654604,-0.0565545504570007,0.000226404190063041,0.8678444972984934
9.178181818181818,0.17988757810592698,-0.0373943942070007,-0.00216861534118696,0.8678444972984934
9.17878787878788,0.00026111326217654604,0.07517152376174929,0.18943294715881298,0.8678444972984934
9.17939393939394,-0.07398449220657341,-0.135590194988251,0.014596521377563001,0.8678444972984934
9.18,0.0792967577934266,0.0296661526679993,0.031361658096313,0.8678444972984934
9.18060606060606,0.11282703123092701,0.0416412503242493,-0.057254064559937,0.8678444972984934
9.18121212121212,0.0673216601371766,-0.0781097262382507,-0.141079748153687,0.8678444972984934
9.181818181818182,-0.28714123048782303,-0.133195175457001,0.028966638565063,0.8678444972984934
9.182424242424242,-0.057219355487823496,-0.188280624675751,-0.088389318466187,0.8678444972984934
9.183030303030304,0.163122441387177,0.111096816730499,-0.06443912315368701,0.8678444972984934
9.183636363636364,0.0122362109184265,-0.0469744723320007,0.076867029190063,0.8678444972984934
9.184242424242424,-0.08116955080032341,-0.121220077800751,0.09363216590881299,0.8678444972984934
9.184848484848485,0.0505565234184265,-0.0924798434257507,-0.177005041122437,0.8678444972984934
9.185454545454544,0.0433714648246765,-0.0565545504570007,-0.153054845809937,0.8678444972984934
9.186060606060606,-0.11230480470657299,-0.0685296481132507,0.11279232215881299,0.8678444972984934
9.186666666666667,-0.143440058612823,-0.231390976238251,0.215778162002563,0.8678444972984934
9.187272727272727,-0.07637951173782341,0.0703814846992493,0.055311853408813,0.8678444972984934
9.187878787878788,-0.00692394533157345,0.0703814846992493,0.026571619033813002,0.8678444972984934
9.188484848484848,-0.203315546894073,-0.0517645113945007,0.127162439346313,0.8678444972984934
9.18909090909091,-0.28714123048782303,0.178157363605499,-0.052464025497437,0.8678444972984934
9.189696969696971,-0.217685664081573,-0.0254192965507507,0.146322595596313,0.8678444972984934
9.19030303030303,-0.0955396679878234,-0.159540390300751,-0.045278966903687,0.8678444972984934
9.190909090909091,-0.07637951173782341,-0.0685296481132507,-0.162634923934937,0.8678444972984934
9.191515151515151,-0.12188488283157299,-0.0373943942070007,0.165482751846313,0.8678444972984934
9.192121212121211,-0.0907496289253234,0.0440362698554993,-0.057254064559937,0.8678444972984934
9.192727272727273,-0.236845820331573,0.0655914456367493,-0.107549474716187,0.8678444972984934
9.193333333333333,0.0792967577934266,-0.154750351238251,0.062496912002563,0.8678444972984934
9.193939393939395,0.0697166796684266,-0.116430038738251,-0.167424962997437,0.8678444972984934
9.194545454545455,0.0290013476371765,-0.061344589519500704,-0.157844884872437,0.8678444972984934
9.195151515151515,0.19425769529342699,-0.257736191082001,0.026571619033813002,0.8678444972984934
9.195757575757575,0.0816917773246766,-0.135590194988251,0.081657068252563,0.8678444972984934
9.196363636363635,-0.0260841015815735,0.00811097688674926,-0.023723791122437,0.8678444972984934
9.196969696969697,0.151147343730927,-0.020629257488250702,0.057706872940063,0.8678444972984934
9.197575757575759,0.201442753887177,-0.0254192965507507,0.14871761512756299,0.8678444972984934
9.19818181818182,-0.07158947267532341,0.0799615628242493,0.043336755752563,0.8678444972984934
9.19878787878788,-0.009318964862823449,0.0775665432929993,0.352294275283813,0.8678444972984934
9.19939393939394,0.105641972637177,0.032061172199249297,0.232543298721313,0.6291626652685823
9.2,-0.191340449237823,0.0176910550117493,0.292418787002563,0.6291626652685823
9.200606060606061,-0.160205195331573,-0.106849960613251,0.421749841690063,0.6291626652685823
9.201212121212121,-0.054824335956573496,-0.159540390300751,0.11758236122131299,0.6291626652685823
9.201818181818183,-0.0356641797065735,0.0799615628242493,-0.06922916221618701,0.6291626652685823
9.202424242424243,-0.014109003925323499,-0.0828997653007507,-0.042883947372437,0.6291626652685823
9.203030303030303,-0.08595958986282341,-0.130800155925751,0.050521814346313,0.6291626652685823
9.203636363636363,0.0649266406059266,0.0943316800117493,-0.023723791122437,0.6291626652685823
9.204242424242423,0.0313963671684265,-0.0805047457695007,0.072076990127563,0.6291626652685823
9.204848484848485,-0.0596143750190735,-0.166725448894501,0.10800228309631299,0.6291626652685823
9.205454545454545,-0.0428492383003235,-0.0733196871757507,-0.0069586544036869605,0.6291626652685823
9.206060606060607,0.333168828105927,0.000925918292999261,-0.131499670028687,0.6291626652685823
9.206666666666667,0.100851933574677,0.0392462307929993,-0.306336095809937,0.6291626652685823
9.207272727272727,-0.22966076173782302,-0.020629257488250702,0.081657068252563,0.6291626652685823
9.207878787878787,-0.11948986330032299,-0.0828997653007507,0.043336755752563,0.6291626652685823
9.208484848484847,-0.0356641797065735,-0.142775253582001,0.13913753700256298,0.6291626652685823
9.209090909090909,0.0769017382621766,-0.032604355144500705,0.074472009658813,0.6291626652685823
9.20969696969697,-0.057219355487823496,0.0847516018867493,-0.15544986534118702,0.6291626652685823
9.21030303030303,-0.009318964862823449,-0.0757147067070007,0.10321224403381299,0.6291626652685823
9.210909090909091,0.0721116991996766,-0.0685296481132507,-0.07162418174743701,0.6291626652685823
9.211515151515151,-0.0428492383003235,-0.00625914030075074,-0.15544986534118702,0.6291626652685823
9.212121212121211,0.148752324199677,0.0105059964179993,-0.198560216903687,0.6291626652685823
9.212727272727273,0.167912480449677,-0.00146910123825074,0.13434749794006298,0.6291626652685823
9.213333333333333,-0.0380591992378235,-0.233785995769501,0.14392757606506298,0.6291626652685823
9.213939393939395,-0.08116955080032341,-0.130800155925751,-0.088389318466187,0.6291626652685823
9.214545454545455,0.141567265605927,0.060801406574249296,-0.145869787216187,0.6291626652685823
9.215151515151515,0.0481615038871765,-0.0685296481132507,0.028966638565063,0.6291626652685823
9.215757575757575,0.12480212888717701,-0.195465683269501,0.057706872940063,0.6291626652685823
9.216363636363635,0.014631230449676501,-0.145170273113251,-0.040488927841187,0.6291626652685823
9.216969696969697,0.143962285137177,-0.111639999675751,-0.177005041122437,0.6291626652685823
9.217575757575759,0.0457664843559265,0.0248761136054993,-0.17461002159118702,0.6291626652685823
9.218181818181819,0.0457664843559265,-0.0805047457695007,-0.028513830184937,0.6291626652685823
9.218787878787879,0.0553465624809265,-0.121220077800751,0.14392757606506298,0.6291626652685823
9.219393939393939,-0.12188488283157299,-0.149960312175751,-0.188980138778687,0.6291626652685823
9.219999999999999,0.0673216601371766,-0.0182342379570007,-0.097969396591187,0.6291626652685823
9.22060606060606,0.131987187480927,0.108701797199249,0.00980648231506304,0.6291626652685823
9.22121212121212,0.0888768359184266,0.0464312893867493,-0.11952457237243701,0.6291626652685823
9.221818181818183,-0.191340449237823,-0.0373943942070007,0.170272790908813,0.6291626652685823
9.222424242424243,-0.06919445314407341,0.0536163479804993,0.141532556533813,0.6291626652685823
9.223030303030303,0.0649266406059266,0.060801406574249296,0.218173181533813,0.6291626652685823
9.223636363636363,0.0553465624809265,-0.0781097262382507,0.345109216690063,0.6291626652685823
9.224242424242423,0.0290013476371765,0.0033209378242492604,0.055311853408813,0.6291626652685823
9.224848484848485,-0.057219355487823496,-0.202650741863251,0.00501644325256304,0.6291626652685823
9.225454545454545,0.0577415820121765,-0.0158392184257507,0.074472009658813,0.6291626652685823
9.226060606060607,0.0816917773246766,-0.130800155925751,-0.16502994346618702,0.6291626652685823
9.226666666666667,-0.07158947267532341,-0.133195175457001,-0.21532535362243702,0.6291626652685823
9.227272727272727,-0.0907496289253234,0.154207168292999,-0.145869787216187,0.6291626652685823
9.227878787878788,0.0481615038871765,0.206897597980499,0.14392757606506298,0.6291626652685823
9.228484848484849,0.0888768359184266,-0.0349993746757507,-0.191375158309937,0.6291626652685823
9.229090909090909,0.0625316210746765,-0.0493694918632507,-0.36860660362243697,0.6291626652685823
9.22969696969697,0.0816917773246766,0.0631964261054993,0.11518734169006299,0.6291626652685823
9.23030303030303,-0.0356641797065735,0.0416412503242493,0.450490076065063,0.6291626652685823
9.23090909090909,0.12240710935592701,-0.0900848238945007,0.086447107315063,0.6291626652685823
9.231515151515152,-0.11230480470657299,-0.0445794528007507,-0.105154455184937,0.6291626652685823
9.232121212121212,-0.08835460939407341,-0.123615097332001,0.160692712783813,0.6291626652685823
9.232727272727274,-0.057219355487823496,-0.195465683269501,-0.06443912315368701,0.6291626652685823
9.233333333333333,-0.0212940625190735,-0.00865415983200074,-0.00216861534118696,0.6291626652685823
9.233939393939394,-0.057219355487823496,0.0464312893867493,0.021781579971313,0.6291626652685823
9.234545454545454,-0.100329707050323,0.020086074542999297,0.153507654190063,0.6291626652685823
9.235151515151514,-0.0476392773628235,-0.0876898043632507,-0.08120425987243701,0.6291626652685823
9.235757575757576,-0.253610957050323,0.233242812824249,-0.16023990440368702,0.6291626652685823
9.236363636363636,-0.102724726581573,0.07277650423049929,0.12955745887756298,0.6291626652685823
9.236969696969698,-0.0596143750190735,0.0248761136054993,-0.07880924034118701,0.6291626652685823
9.237575757575758,-0.009318964862823449,0.170972305011749,0.09602718544006299,0.6291626652685823
9.238181818181818,-0.215290644550323,-0.0996649020195007,-0.07880924034118701,0.6291626652685823
9.238787878787878,-0.0979346875190734,-0.0972698824882507,0.00501644325256304,0.6291626652685823
9.239393939393938,-0.00692394533157345,-0.190675644207001,0.00501644325256304,0.6291626652685823
9.24,-0.148230097675323,0.144627090167999,-0.253645666122437,0.6291626652685823
9.240606060606062,0.108036992168427,0.111096816730499,0.14871761512756299,0.6291626652685823
9.241212121212122,0.09366687498092659,-0.0565545504570007,0.246913415908813,0.6291626652685823
9.241818181818182,0.0577415820121765,-0.114035019207001,0.088842126846313,0.6291626652685823
9.242424242424242,-0.009318964862823449,-0.133195175457001,-0.129104650497437,0.6291626652685823
9.243030303030302,-0.018899042987823498,-0.0397894137382507,-0.33028629112243696,0.6291626652685823
9.243636363636364,-0.0476392773628235,-0.195465683269501,0.256493494033813,0.6291626652685823
9.244242424242424,0.00505115232467655,0.0919366604804993,0.18464290809631298,0.6291626652685823
9.244848484848486,-0.0979346875190734,-0.126010116863251,0.155902673721313,0.6291626652685823
9.245454545454546,-0.12906994142532302,-0.147565292644501,0.10800228309631299,0.6291626652685823
9.246060606060606,-0.0620093945503235,0.0943316800117493,-0.018933752059936998,0.6291626652685823
9.246666666666666,0.0290013476371765,-0.0373943942070007,0.225358240127563,0.6291626652685823
9.247272727272726,0.148752324199677,0.07517152376174929,-0.018933752059936998,0.6291626652685823
9.247878787878788,-0.0260841015815735,-0.0445794528007507,0.170272790908813,0.6291626652685823
9.24848484848485,0.09366687498092659,0.0703814846992493,0.222963220596313,0.6291626652685823
9.24909090909091,0.297243535137177,-0.00865415983200074,0.230148279190063,0.6291626652685823
9.24969696969697,0.0457664843559265,-0.0565545504570007,0.043336755752563,0.6291626652685823
9.25030303030303,-0.12427990236282299,0.192527480792999,0.024176599502563,0.6291626652685823
9.25090909090909,-0.272771113300323,0.000925918292999261,-0.095574377059937,0.6291626652685823
9.25151515151515,-0.150625117206573,0.0272711331367493,-0.196165197372437,0.6291626652685823
9.252121212121212,-0.153020136737823,0.0440362698554993,0.10800228309631299,0.6291626652685823
9.252727272727274,-0.0596143750190735,-0.0445794528007507,0.160692712783813,0.6291626652685823
9.253333333333334,0.266108281230927,0.0033209378242492604,0.24930843544006298,0.6291626652685823
9.253939393939394,0.0553465624809265,0.0703814846992493,0.167877771377563,0.6291626652685823
9.254545454545454,-0.00692394533157345,-0.020629257488250702,0.155902673721313,0.6291626652685823
9.255151515151514,0.0242113085746765,-0.173910507488251,0.232543298721313,0.6291626652685823
9.255757575757576,-0.08835460939407341,-0.183490585613251,-0.011748693466187,0.6291626652685823
9.256363636363636,-0.0236890820503235,-0.188280624675751,-0.117129552841187,0.6291626652685823
9.256969696969698,-0.0212940625190735,0.168577285480499,-0.327891271591187,0.6291626652685823
9.257575757575758,-0.102724726581573,0.0176910550117493,-0.241670568466187,0.6291626652685823
9.258181818181818,0.0888768359184266,-0.288871444988251,-0.040488927841187,0.6291626652685823
9.258787878787878,-0.11948986330032299,-0.0469744723320007,-0.15544986534118702,0.6291626652685823
9.259393939393938,-0.205710566425323,0.0272711331367493,-0.112339513778687,0.6291626652685823
9.26,0.033791386699676504,-0.0924798434257507,0.10800228309631299,0.6291626652685823
9.260606060606062,-0.0260841015815735,-0.023024277019500702,0.421749841690063,0.6291626652685823
9.261212121212122,0.014631230449676501,0.0560113675117493,0.084052087783813,0.6291626652685823
9.261818181818182,-0.11469982423782299,-0.0996649020195007,-0.014143712997437,0.6291626652685823
9.262424242424242,-0.08356457033157341,-0.0972698824882507,0.10800228309631299,0.6291626652685823
9.263030303030302,0.09845691404342659,-0.0517645113945007,0.084052087783813,0.6291626652685823
9.263636363636364,-0.105119746112823,0.0296661526679993,0.146322595596313,0.6291626652685823
9.264242424242424,-0.102724726581573,-0.128405136394501,-0.011748693466187,0.6291626652685823
9.264848484848486,0.0218162890434265,-0.133195175457001,-0.11952457237243701,0.6291626652685823
9.265454545454546,0.09606189451217659,-0.118825058269501,-0.112339513778687,0.6291626652685823
9.266060606060606,0.0553465624809265,-0.0493694918632507,0.031361658096313,0.6291626652685823
9.266666666666667,0.0816917773246766,-0.0517645113945007,0.012201501846313,0.6291626652685823
9.267272727272726,-0.07158947267532341,-0.0493694918632507,0.172667810440063,0.6291626652685823
9.267878787878788,-0.320671503925323,0.0176910550117493,0.19901302528381298,0.6291626652685823
