Time (s),Accel X (m/s^2),Accel Y (m/s^2),Accel Z (m/s^2),CI Value
3.5,-0.620069246864319,-2.28637863864899,0.122755603408814,0.5901399052334504
3.5006060606060605,0.393024014854431,1.1480793691635098,-0.516714611434936,0.5901399052334504
3.501212121212121,-0.27279141483306896,0.896602318382263,-1.97767652549744,0.5901399052334504
3.501818181818182,0.0553262609481811,-3.18690598239899,0.6496599002838139,0.5901399052334504
3.5024242424242424,0.0146109289169311,2.8820735097885097,1.59329759559631,0.5901399052334504
3.503030303030303,-0.323086824989319,0.273897240257263,1.0783683963775599,0.5901399052334504
3.5036363636363634,0.807362393760681,-2.36780930271149,-1.4364021114349401,0.5901399052334504
3.5042424242424244,-0.497923250770569,1.66779860744476,-1.5345979122161901,0.5901399052334504
3.504848484848485,-0.703894930458069,-1.52715744724274,0.156285876846314,0.5901399052334504
3.5054545454545454,0.680426358604431,0.21641677150726302,-0.6652058223724361,0.5901399052334504
3.506060606060606,-0.581748934364319,2.35756423244476,1.52863206825256,0.5901399052334504
3.506666666666667,0.263692960166931,-2.13309738864899,-0.121536388778686,0.5901399052334504
3.5072727272727273,0.215792569541931,0.410413353538513,-1.53699293174744,0.5901399052334504
3.507878787878788,-1.1541586023330699,1.50014724025726,-1.1154694942474401,0.5901399052334504
3.5084848484848483,0.745091885948181,-2.12591233005524,0.9107170291900639,0.5901399052334504
3.5090909090909093,0.309198331260681,2.19230788478851,1.90225511512756,0.5901399052334504
3.5096969696969698,-0.35182705936431896,-1.03617844333649,-0.454444103622436,0.5901399052334504
3.5103030303030303,-0.107535067176819,-1.62535324802399,0.314357165908814,0.5901399052334504
3.5109090909090908,0.0912515539169311,3.1646858144760097,-0.432888927841186,0.5901399052334504
3.5115151515151517,-0.19136075077056902,-3.39527268161774,-0.9071027950286861,0.5901399052334504
3.512121212121212,0.479244717979431,-0.178761451148987,0.544279040908814,0.5901399052334504
3.5127272727272727,-0.536243563270569,4.02928786525726,1.28434007606506,0.5901399052334504
3.513333333333333,-0.747005282020569,-2.17141770114899,-0.650835705184936,0.5901399052334504
3.5139393939393937,0.843287686729431,-0.09493576755523679,-2.02078687705994,0.5901399052334504
3.5145454545454546,-0.727845125770569,0.542139427757263,-0.5286897090911861,0.5901399052334504
3.515151515151515,0.433739346885681,-1.0242033456802402,0.24011156044006401,0.5901399052334504
3.5157575757575756,-0.229681063270569,2.02226149806976,1.26517991981506,0.5901399052334504
3.5163636363636366,-0.133880282020569,-0.602679908180237,1.06399827919006,0.5901399052334504
3.516969696969697,0.474454678916931,-1.9534709238052401,-1.09151929893494,0.5901399052334504
3.5175757575757576,-0.861966219520569,2.47492018947601,-1.27354078330994,0.5901399052334504
3.518181818181818,-0.0572396570205689,-1.37387619724274,0.6113395877838139,0.5901399052334504
3.518787878787879,0.524750089073181,-0.435028540992737,1.03286302528381,0.5901399052334504
3.5193939393939395,-0.576958895301819,2.75274245510101,-0.720291271591186,0.5901399052334504
3.52,-0.9242367273330689,-2.46840012302399,0.292801990127564,0.5901399052334504
3.5206060606060605,0.678031339073181,1.3875813222885098,-0.361038341903686,0.5901399052334504
3.521212121212121,-0.524268465614319,0.994798119163513,-2.0950324825286897,0.5901399052334504
3.521818181818182,0.38583895626068104,-3.3114469980239902,0.5706242557525639,0.5901399052334504
3.5224242424242425,0.17747225704193098,2.99942946681976,1.2963151737213099,0.5901399052334504
3.523030303030303,-0.354222078895569,-0.260192115211487,0.477218494033814,0.5901399052334504
3.5236363636363635,0.783412198448181,-2.27679856052399,-1.10828443565369,0.5901399052334504
3.5242424242424244,-0.49073819217681897,1.85461013088226,-0.832857189559936,0.5901399052334504
3.524848484848485,-0.48115811405181896,-1.4529118417739901,-0.00418043174743622,0.5901399052334504
3.5254545454545454,0.687611417198181,-0.07577561130523679,-0.23889234580993599,0.5901399052334504
3.526060606060606,-0.641624422645569,2.94913405666351,1.52384202919006,0.5901399052334504
3.526666666666667,-0.0356844812393189,-2.0708268808364902,-0.39696363487243597,0.5901399052334504
3.5272727272727273,0.258902921104431,0.209231712913513,-1.85792554893494,0.5901399052334504
3.527878787878788,-1.12781338748932,1.92885573635101,-0.796931896591186,0.5901399052334504
3.5284848484848483,0.773832120323181,-2.1809977792739903,0.996937732315064,0.5901399052334504
3.5290909090909093,0.725931729698181,2.1635676504135097,1.71783861122131,0.5901399052334504
3.5296969696969698,-0.325481844520569,-1.16311447849274,0.0341398807525638,0.5901399052334504
3.5303030303030303,-0.14585537967681902,-1.25412522068024,-0.21015211143493598,0.5901399052334504
3.5309090909090908,0.0385611242294311,2.82459304103851,-1.48669752159119,0.5901399052334504
3.5315151515151517,-0.14585537967681902,-3.25396652927399,-0.5502448848724361,0.5901399052334504
3.532121212121212,0.709166592979431,-0.389523169898987,1.37295579872131,0.5901399052334504
3.5327272727272727,-0.749400301551819,4.32866530666351,0.764620837783814,0.5901399052334504
3.533333333333333,-0.394937410926819,-1.97981613864899,-1.47232740440369,0.5901399052334504
3.5339393939393937,0.776227139854431,-0.269772193336487,-1.93935621299744,0.5901399052334504
3.5345454545454547,-0.737425203895569,0.944502709007263,-0.246077404403686,0.5901399052334504
3.535151515151515,0.519960050010681,-1.38585129489899,0.285616931533814,0.5901399052334504
3.5357575757575757,0.0984366125106811,2.20188796291351,2.4626896854400604,0.5901399052334504
3.5363636363636366,0.0433511632919311,-0.691295630836487,0.994542712783814,0.5901399052334504
3.536969696969697,0.215792569541931,-2.32469895114899,-2.30579420127869,0.5901399052334504
3.5375757575757576,-0.687129793739319,2.35037917385101,-1.40526685752869,0.5901399052334504
3.538181818181818,0.0768814367294311,-1.59661301364899,0.7909660526275639,0.5901399052334504
3.5387878787878786,1.02770419063568,-0.533224341773987,1.65796312294006,0.5901399052334504
3.5393939393939395,-0.179385653114319,3.2149812246322598,-0.262842541122436,0.5901399052334504
3.54,-0.727845125770569,-2.63605149021149,-0.413728771591186,0.5901399052334504
3.5406060606060605,0.637316007041931,1.01395827541351,-1.9369611934661901,0.5901399052334504
3.541212121212121,-0.507503328895569,0.705000755882263,-1.43161207237244,0.5901399052334504
3.541818181818182,0.30680331172943104,-2.94500900974274,1.81363939247131,0.5901399052334504
3.5424242424242425,0.484034757041931,3.20300612697601,2.58723070106506,0.5901399052334504
3.543030303030303,-0.8452010828018189,0.032000267601013196,0.345492419815064,0.5901399052334504
3.5436363636363635,0.309198331260681,-2.53067063083649,-2.40878004112244,0.5901399052334504
3.5442424242424244,-0.26081631717681897,1.6318733144760098,-0.931052990341186,0.5901399052334504
3.544848484848485,-0.445232821083069,-1.0625236581802402,0.0844352909088138,0.5901399052334504
3.5454545454545454,0.773832120323181,-0.14762619724273698,1.22206956825256,0.5901399052334504
3.546060606060606,-0.337456942176819,3.47603835353851,1.3178703495025599,0.5901399052334504
3.546666666666667,-0.17220059452056902,-2.85639328708649,-2.06389722862244,0.5901399052334504
3.5472727272727274,-0.229681063270569,-0.296117408180237,-2.99076978721619,0.5901399052334504
3.547878787878788,-0.737425203895569,2.2402082754135098,-0.128721447372436,0.5901399052334504
3.5484848484848484,0.781017178916931,-1.86006516208649,2.51777513465881,0.5901399052334504
3.5490909090909093,0.840892667198181,2.17075270900726,1.9381804080963099,0.5901399052334504
3.54969696969697,-0.7254501062393189,-0.897267310523987,-0.5670100215911861,0.5901399052334504
3.5503030303030303,-0.217705965614319,-1.3331608652114901,-1.39329175987244,0.5901399052334504
3.550909090909091,0.280458096885681,2.67370681056976,-1.24959058799744,0.5901399052334504
3.5515151515151513,-0.251236239051819,-2.66479172458649,0.719115466690064,0.5901399052334504
3.5521212121212122,0.8504727453231811,-0.720035865211487,2.1657072635650603,0.5901399052334504
3.5527272727272727,-0.675154696083069,4.29513503322601,0.18981615028381402,0.5901399052334504
3.5533333333333332,-0.711079989051819,-2.4204997323989903,-2.62912183799744,0.5901399052334504
3.5539393939393937,0.761857022666931,-0.468558814430237,-1.92977613487244,0.5901399052334504
3.5545454545454547,-0.43086270389556897,1.6438484121322599,0.697560290908814,0.5901399052334504
3.555151515151515,0.345123624229431,-1.5343425058364901,0.264061755752564,0.5901399052334504
3.5557575757575757,0.194237393760681,2.15398757228851,2.40999925575256,0.5901399052334504
3.5563636363636366,-0.126695223426819,-0.511669165992737,0.25208665809631403,0.5901399052334504
3.556969696969697,0.17268221797943098,-2.85399826755524,-2.61475172080994,0.5901399052334504
3.5575757575757576,-0.495528231239319,2.63059645900726,-0.32750806846618596,0.5901399052334504
3.558181818181818,0.048141202354431104,-1.11760910739899,1.93099534950256,0.5901399052334504
3.5587878787878786,0.622945889854431,-0.6865055917739871,1.93099534950256,0.5901399052334504
3.5593939393939396,-0.600909090614319,2.7192121816635098,-1.48669752159119,0.5901399052334504
3.56,-0.986507235145569,-2.54743576755524,-1.03643384971619,0.5901399052334504
3.5606060606060606,0.862447842979431,1.00916823635101,-1.17294996299744,0.5901399052334504
3.561212121212121,-0.485948153114319,1.1384992910385099,-0.9669782833099361,0.5901399052334504
3.561818181818182,0.258902921104431,-2.76059250583649,1.3178703495025599,0.5901399052334504
3.5624242424242425,0.354703702354431,2.53719069728851,1.49031175575256,0.5901399052334504
3.563030303030303,-0.679944735145569,-0.011110083961486801,-0.308347912216186,0.5901399052334504
3.5636363636363635,0.855262784385681,-2.73903733005524,-1.61123853721619,0.5901399052334504
3.564242424242424,-0.188965731239319,1.9767561269760099,-0.241287365341186,0.5901399052334504
3.564848484848485,0.0194009679794311,-0.684110572242737,0.855631579971314,0.5901399052334504
3.5654545454545454,0.754671964073181,-0.662555396461487,1.18135423622131,0.5901399052334504
3.566060606060606,-0.416492586708069,2.98745436916351,0.453268298721314,0.5901399052334504
3.566666666666667,-0.22249600467681901,-2.62886643161774,-1.82679029502869,0.5901399052334504
3.5672727272727274,-0.0931649499893189,-0.384733130836487,-1.95851636924744,0.5901399052334504
3.567878787878788,-0.8643612390518189,2.32163893947601,0.704745349502564,0.5901399052334504
3.5684848484848484,0.424159268760681,-1.7810295175552402,2.1800773807525604,0.5901399052334504
3.5690909090909093,0.766647061729431,1.9695710683822598,0.343097400283814,0.5901399052334504
3.56969696969697,-0.7661654382705689,-1.1104240488052401,-0.047290783309936205,0.5901399052334504
3.5703030303030303,0.23255770626068098,-1.47207199802399,-0.0329206661224362,0.5901399052334504
3.570909090909091,0.258902921104431,2.47252516994476,-0.514319591903686,0.5901399052334504
3.5715151515151513,-0.251236239051819,-2.56180588474274,1.39451097450256,0.5901399052334504
3.5721212121212123,0.699586514854431,-0.916427466773987,1.6986784549713099,0.5901399052334504
3.5727272727272728,-1.23319424686432,3.99575759181976,-0.562219982528686,0.5901399052334504
3.5733333333333333,-0.488343172645569,-2.3869694589614903,-2.74887281455994,0.5901399052334504
3.5739393939393937,0.941483487510681,-0.559569556617737,-1.49867261924744,0.5901399052334504
3.5745454545454547,-0.509898348426819,2.32882399806976,0.934667224502564,0.5901399052334504
3.575151515151515,-0.105140047645569,-1.7738444589614901,0.216161365127564,0.5901399052334504
3.5757575757575757,0.225372647666931,1.88574538478851,1.30350023231506,0.5901399052334504
3.576363636363636,0.048141202354431104,-0.0685905527114868,0.417343005752564,0.5901399052334504
3.576969696969697,0.17747225704193098,-3.09589524021149,-1.9154060176849401,0.5901399052334504
3.5775757575757576,-0.308716707801819,2.33361403713226,-0.138301525497436,0.5901399052334504
3.578181818181818,-0.102745028114319,-0.576334693336487,1.98368577919006,0.5901399052334504
3.5787878787878786,0.792992276573181,-0.894872290992737,1.19572435340881,0.5901399052334504
3.5793939393939396,-0.818855867958069,2.31924391994476,-1.52980787315369,0.5901399052334504
3.58,-1.0320126062393198,-2.27679856052399,-1.2567756465911901,0.5901399052334504
3.5806060606060606,0.618155850791931,1.17442458400726,-1.47711744346619,0.5901399052334504
3.581212121212121,-0.550613680458069,1.6701936269760098,-0.423308849716186,0.5901399052334504
3.581818181818182,0.15352206172943098,-2.86357834568024,1.61485277137756,0.5901399052334504
3.5824242424242425,0.381048917198181,2.25457839260101,0.601759509658814,0.5901399052334504
3.583030303030303,-0.696709871864319,0.0751106191635132,-0.775376720809936,0.5901399052334504
3.5836363636363635,0.560675382041931,-2.90189865818024,-1.02445875205994,0.5901399052334504
3.584242424242424,0.239742764854431,1.83784499416351,0.666425037002564,0.5901399052334504
3.584848484848485,-0.375777254676819,-1.04336350193024,0.656844958877564,0.5901399052334504
3.5854545454545454,0.47684969844818104,-0.669740455055237,1.12626878700256,0.5901399052334504
3.586060606060606,-0.454812899208069,3.46645827541351,0.40057786903381404,0.5901399052334504
3.586666666666667,-0.0716097742080689,-3.13421555271149,-2.6267268184661896,0.5901399052334504
3.5872727272727274,-0.17220059452056902,-0.231451880836487,-2.18364820518494,0.5901399052334504
3.587878787878788,-0.378172274208069,3.0784651113510098,1.08315843544006,0.5901399052334504
3.5884848484848484,0.481639737510681,-1.9103605722427401,1.9549455448150599,0.5901399052334504
3.589090909090909,0.548700284385681,1.42350661525726,-0.332298107528686,0.5901399052334504
3.58969696969697,-0.682339754676819,-0.729615943336487,-0.401753673934936,0.5901399052334504
3.5903030303030303,-0.109930086708069,-1.29244553318024,-0.8041169551849361,0.5901399052334504
3.590909090909091,0.582230557823181,2.44138991603851,-0.7226862911224361,0.5901399052334504
3.5915151515151513,-0.378172274208069,-1.93910080661774,1.38732591590881,0.5901399052334504
3.5921212121212123,0.946273526573181,-1.1702995370864901,1.43043626747131,0.5901399052334504
3.5927272727272728,-1.0128524499893201,4.22328444728851,-0.6628108028411861,0.5901399052334504
3.5933333333333333,-0.318296785926819,-2.30314377536774,-2.32974439659119,0.5901399052334504
3.5939393939393938,0.7714371007919311,-0.796676490211487,-1.3549714473724401,0.5901399052334504
3.5945454545454547,-0.414097567176819,2.53719069728851,0.8484465213775639,0.5901399052334504
3.595151515151515,-0.040474520301818896,-1.5846379159927402,0.242506579971314,0.5901399052334504
3.5957575757575757,0.342728604698181,1.71330397853851,1.40888109169006,0.5901399052334504
3.596363636363636,-0.0548446374893189,0.29784743556976295,-0.45683912315368597,0.5901399052334504
3.596969696969697,0.0553262609481811,-3.39048264255524,-2.38243482627869,0.5901399052334504
3.5975757575757576,-0.306321688270569,2.61383132228851,0.474823474502564,0.5901399052334504
3.598181818181818,-0.038079500770568896,-0.08775070896148679,1.95255052528381,0.5901399052334504
3.5987878787878786,1.0684195226669302,-1.64690842380524,0.822101306533814,0.5901399052334504
3.5993939393939396,-0.7661654382705689,2.73837233791351,-0.835252209091186,0.5901399052334504
3.6,-1.0344076257705699,-2.44923996677399,-0.7466364864349361,0.5901399052334504
3.600606060606061,0.560675382041931,0.827146751976013,-2.12616773643494,0.5901399052334504
3.601212121212121,-0.442837801551819,1.55523268947601,0.898741931533814,0.5901399052334504
3.601818181818182,-0.12430020389556899,-2.54743576755524,1.88788499794006,0.5901399052334504
3.602424242424242,0.558280362510681,2.23302321681976,0.7526457401275639,0.5901399052334504
3.603030303030303,-1.2834896570205698,0.410413353538513,-0.641255627059936,0.5901399052334504
3.603636363636364,0.630130948448181,-2.85639328708649,-1.5777082637786901,0.5901399052334504
3.604242424242424,0.22776766719818098,1.9432258535385099,1.11189866981506,0.5901399052334504
3.604848484848485,-0.457207918739319,-0.698480689430237,0.738275622940064,0.5901399052334504
3.605454545454545,0.567860440635681,-1.1535344003677401,1.41127611122131,0.5901399052334504
3.606060606060606,-0.447627840614319,3.5239387441635097,0.20897630653381402,0.5901399052334504
3.606666666666667,-0.0883749109268189,-2.96177414646149,-2.84467359580994,0.5901399052334504
3.607272727272727,-0.299136629676819,-0.475743873023987,-1.68308912315369,0.5901399052334504
3.607878787878788,-0.36140713748931896,3.09762526760101,1.63401292762756,0.5901399052334504
3.608484848484848,0.230162686729431,-1.81934983005524,1.8950700565338099,0.5901399052334504
3.609090909090909,0.955853604698181,1.2510652090072598,-0.401753673934936,0.5901399052334504
3.60969696969697,-0.871546297645569,-0.46376877536773703,-0.521504650497436,0.5901399052334504
3.61030303030303,0.119991788291931,-1.38106125583649,-0.519109630966186,0.5901399052334504
3.610909090909091,0.49600985469818104,2.4797102285385098,-0.6460456661224361,0.5901399052334504
3.611515151515152,-0.251236239051819,-1.84330002536774,1.83040452919006,0.5901399052334504
3.612121212121212,1.1450601476669302,-1.5079972909927402,1.67233324012756,0.5901399052334504
3.612727272727273,-1.19247891483307,3.27725173244476,-1.81960523643494,0.5901399052334504
3.613333333333333,-0.48115811405181896,-2.33906906833649,-2.24352369346619,0.5901399052334504
3.613939393939394,0.663661221885681,-0.320067603492737,-0.681970959091186,0.5901399052334504
3.614545454545455,-0.34224698123931896,2.3000837636947598,0.7143254276275639,0.5901399052334504
3.6151515151515152,-0.148250399208069,-1.94628586521149,0.656844958877564,0.5901399052334504
3.615757575757576,0.369073819541931,1.58636794338226,0.8101262088775639,0.5901399052334504
3.6163636363636362,-0.268001375770569,0.49663405666351296,-1.18732008018494,0.5901399052334504
3.616969696969697,0.15352206172943098,-3.60603440036774,-1.38850172080994,0.5901399052334504
3.617575757575758,-0.0284994226455689,2.54437575588226,1.22925462684631,0.5901399052334504
3.618181818181818,-0.13148526248931902,0.00565505275726318,2.01242601356506,0.5901399052334504
3.618787878787879,0.690006436729431,-1.6540934823989901,0.486798572158814,0.5901399052334504
3.619393939393939,-0.689524813270569,2.11087722072601,-1.58010328330994,0.5901399052334504
3.62,-0.720660067176819,-2.73185227146149,-1.29988599815369,0.5901399052334504
3.620606060606061,0.7714371007919311,0.932527611351013,-1.72859449424744,0.5901399052334504
3.621212121212121,-0.299136629676819,2.17554274806976,1.17895921669006,0.5901399052334504
3.621818181818182,-0.0979549890518189,-2.49474533786774,1.58611253700256,0.5901399052334504
3.622424242424242,0.369073819541931,1.1313142324447598,-1.15139478721619,0.5901399052334504
3.623030303030303,-1.4846712976455698,0.987613060569763,-1.69506422080994,0.5901399052334504
3.623636363636364,0.539120206260681,-2.7629875253677403,-0.29637281455993597,0.5901399052334504
3.624242424242424,0.608575772666931,1.7085139394760098,2.40999925575256,0.5901399052334504
3.624848484848485,-0.394937410926819,-0.40149826755523704,0.580204333877564,0.5901399052334504
3.625454545454545,-0.0668197351455689,-1.30921066989899,0.874791736221314,0.5901399052334504
3.626060606060606,-0.277581453895569,3.45927321681976,-0.31792799034118596,0.5901399052334504
3.626666666666667,-0.018919344520568898,-3.59645432224274,-3.1057307247161896,0.5901399052334504
3.627272727272727,-0.0596346765518189,-0.45179367771148704,-0.535874767684936,0.5901399052334504
3.627878787878788,-0.13627530155181902,4.04365798244476,2.35491380653381,0.5901399052334504
3.628484848484848,-0.277581453895569,-2.20494797458649,1.44959642372131,0.5901399052334504
3.629090909090909,0.879212979698181,0.185281517601013,-2.09742750205994,0.5901399052334504
3.62969696969697,-1.12781338748932,0.350537865257263,-1.18732008018494,0.5901399052334504
3.63030303030303,0.361888760948181,-1.0505485605239901,-0.147881603622436,0.5901399052334504
3.630909090909091,0.45768954219818103,1.98394118556976,1.24601976356506,0.5901399052334504
3.631515151515152,-0.256026278114319,-1.03138840427399,2.75727708778381,0.5901399052334504
3.632121212121212,0.749881925010681,-1.37866623630524,-0.0856110958099362,0.5901399052334504
3.632727272727273,-1.08470303592682,2.71681716213226,-1.79805006065369,0.5901399052334504
3.633333333333333,-0.23686612186431902,-2.3534391855239902,-1.68308912315369,0.5901399052334504
3.633939393939394,0.589415616416931,-0.444608619117737,0.405367908096314,0.5901399052334504
3.634545454545455,-0.23207608280181902,3.0784651113510098,1.10471361122131,0.5901399052334504
3.635151515151515,-0.507503328895569,-2.08998703708649,0.843656482315064,0.5901399052334504
3.635757575757576,0.452899503135681,1.0834138418197599,-0.128721447372436,0.5901399052334504
3.636363636363636,-0.541033602333069,0.726555931663513,-2.75126783409119,0.5901399052334504
3.636969696969697,0.06730135860443111,-3.85272141208649,-0.23410230674743598,0.5901399052334504
3.637575757575758,0.122386807823181,3.27725173244476,2.1728923221588103,0.5901399052334504
3.638181818181818,-0.21052090702056903,0.10624587306976299,1.94776048622131,0.5901399052334504
3.638787878787879,0.44810946407318103,-2.11872727146149,-0.978953380966186,0.5901399052334504
3.639393939393939,-0.663179598426819,2.09890212306976,-1.64237379112244,0.5901399052334504
3.64,-0.579353914833069,-2.13788742771149,-0.7059211544036861,0.5901399052334504
3.640606060606061,0.836102628135681,0.44633864650726296,-0.957398205184936,0.5901399052334504
3.641212121212121,-0.344642000770569,2.30247878322601,2.2926432987213103,0.5901399052334504
3.641818181818182,0.194237393760681,-2.00376633396149,0.838866443252564,0.5901399052334504
3.642424242424242,0.340333585166931,0.34574782619476296,-1.33341627159119,0.5901399052334504
3.643030303030303,-1.2619344812393198,1.5456526113510098,-1.98965162315369,0.5901399052334504
3.643636363636364,0.740301846885681,-2.31511887302399,0.24011156044006401,0.5901399052334504
3.644242424242424,0.757066983604431,2.08453200588226,2.77643724403381,0.5901399052334504
3.644848484848485,-0.337456942176819,-0.657765357398987,0.285616931533814,0.5901399052334504
3.645454545454545,-0.299136629676819,-1.51039231052399,0.343097400283814,0.5901399052334504
3.646060606060606,0.119991788291931,3.4041877676010097,-1.05080396690369,0.5901399052334504
3.646666666666667,-0.279976473426819,-3.6706999277114902,-1.98725660362244,0.5901399052334504
3.647272727272727,0.28764315547943103,-0.264982154273987,0.465243396377564,0.5901399052334504
3.647878787878788,-0.44044278202056897,4.12987868556976,1.8783049198150599,0.5901399052334504
3.648484848484848,-0.447627840614319,-2.31990891208649,0.0485099979400638,0.5901399052334504
3.649090909090909,0.927113370323181,-0.219476783180237,-1.64237379112244,0.5901399052334504
3.64969696969697,-1.18289883670807,0.240366966819763,-0.7274763301849361,0.5901399052334504
3.65030303030303,0.160707120323181,-1.1918547128677401,-0.45683912315368597,0.5901399052334504
3.650909090909091,-0.169805574989319,2.23781325588226,1.56934740028381,0.5901399052334504
3.651515151515152,0.0433511632919311,-0.851761939430237,2.32377855262756,0.5901399052334504
3.652121212121212,0.673241300010681,-1.81695481052399,-0.861597423934936,0.5901399052334504
3.652727272727273,-1.0559628015518199,2.51563552150726,-1.81002515830994,0.5901399052334504
3.653333333333333,-0.0979549890518189,-1.93670578708649,-0.559824962997436,0.5901399052334504
3.653939393939394,0.687611417198181,-0.336832740211487,1.28673509559631,0.5901399052334504
3.654545454545455,-0.325481844520569,3.11439040431976,0.13473070106506402,0.5901399052334504
3.655151515151515,-0.890706453895569,-2.55701584568024,0.0149797245025638,0.5901399052334504
3.655757575757576,0.543910245323181,1.09538893947601,-0.162251720809936,0.5901399052334504
3.656363636363636,-0.23686612186431902,0.8295417715072629,-2.7273176387786897,0.5901399052334504
3.656969696969697,-0.105140047645569,-3.53897385349274,0.503563708877564,0.5901399052334504
3.657575757575758,0.124781827354431,3.35868239650726,2.06511644325256,0.5901399052334504
3.658181818181818,-0.394937410926819,0.242761986351013,1.38972093544006,0.5901399052334504
3.658787878787879,0.560675382041931,-2.14507248630524,-1.41245191612244,0.5901399052334504
3.659393939393939,-0.397332430458069,1.8665852285385098,-1.0987043575286901,0.5901399052334504
3.66,-0.691919832801819,-1.51518234958649,-0.29637281455993597,0.5901399052334504
3.660606060606061,0.613365811729431,-0.13325608005523698,-0.332298107528686,0.5901399052334504
3.661212121212121,-0.730240145301819,2.67370681056976,2.7045866580963103,0.5901399052334504
3.661818181818182,0.29722323360443104,-2.36780930271149,-0.0951911739349362,0.5901399052334504
3.662424242424242,0.146337003135681,-0.130861060523987,-1.87229566612244,0.5901399052334504
3.663030303030303,-1.07272793827057,1.7635993886947599,-1.68069410362244,0.5901399052334504
3.663636363636364,0.701981534385681,-2.15944260349274,1.02088792762756,0.5901399052334504
3.664242424242424,0.749881925010681,2.61383132228851,2.0387712284088098,0.5901399052334504
3.664848484848485,-0.34224698123931896,-0.834996802711487,0.0628801151275638,0.5901399052334504
3.665454545454545,-0.263211336708069,-1.5942179941177401,-0.0257356075286862,0.5901399052334504
3.666060606060606,0.493614835166931,3.07607009181976,-1.45556226768494,0.5901399052334504
3.666666666666667,-0.43086270389556897,-3.2084611581802402,-0.978953380966186,0.5901399052334504
3.667272727272727,0.5726504796981811,-0.633815162086487,1.05441820106506,0.5901399052334504
3.667878787878788,-0.598514071083069,4.19214919338226,1.24122972450256,0.5901399052334504
3.668484848484848,-0.418887606239319,-2.03011154880524,-1.31186109580994,0.5901399052334504
3.669090909090909,0.893583096885681,-0.30330246677398703,-1.75493970909119,0.5901399052334504
3.66969696969697,-0.921841707801819,0.774456322288513,-0.370618420028686,0.5901399052334504
3.67030303030303,0.462479581260681,-1.32597580661774,-0.260447521591186,0.5901399052334504
3.670909090909091,-0.0332894617080689,2.22583815822601,2.0890666385650603,0.5901399052334504
3.671515151515152,0.0409561437606811,-0.5284343027114871,1.51665697059631,0.5901399052334504
3.672121212121212,0.251717862510681,-2.2073429941177403,-1.8172102169036901,0.5901399052334504
3.672727272727273,-0.632044344520569,2.49887038478851,-1.26396070518494,0.5901399052334504
3.673333333333333,-0.040474520301818896,-1.6277482675552402,0.685585193252564,0.5901399052334504
3.673939393939394,0.697191495323181,-0.791886451148987,1.44480638465881,0.5901399052334504
3.674545454545455,-0.0787948328018189,2.99703444728851,-0.389778576278686,0.5901399052334504
3.675151515151515,-0.8044857507705689,-2.55462082614899,0.012584704971313799,0.5901399052334504
3.675757575757576,0.541515225791931,1.2295100332260098,-0.7226862911224361,0.5901399052334504
3.676363636363636,-0.567378817176819,0.898997337913513,-2.2075984004974396,0.5901399052334504
3.6769696969696968,0.244532803916931,-3.26594162693024,0.841261462783814,0.5901399052334504
3.677575757575758,0.29722323360443104,3.26288161525726,2.00524095497131,0.5901399052334504
3.6781818181818178,-0.560193758583069,-0.023085181617736802,0.470033435440064,0.5901399052334504
3.678787878787879,0.579835538291931,-2.26961350193024,-1.58728834190369,0.5901399052334504
3.6793939393939388,-0.263211336708069,1.71330397853851,-1.27354078330994,0.5901399052334504
3.68,-0.473973055458069,-1.2421501230239902,0.0700651737213138,0.5901399052334504
3.680606060606061,0.7307217687606811,-0.396708228492737,0.556254138565064,0.5901399052334504
3.681212121212121,-0.557798739051819,3.04732985744476,0.901136951065064,0.5901399052334504
3.681818181818182,-0.0596346765518189,-2.40612961521149,-0.9693733028411861,0.5901399052334504
3.682424242424242,0.012215909385681099,-0.20750168552398698,-2.31537427940369,0.5901399052334504
3.683030303030303,-1.01524746952057,2.25936843166351,-0.394568615341186,0.5901399052334504
3.683636363636364,0.5726504796981811,-1.98460617771149,1.66275316200256,0.5901399052334504
3.684242424242424,0.848077725791931,2.14201247463226,1.52863206825256,0.5901399052334504
3.684848484848485,-0.742215242958069,-0.856551978492737,-0.119141369247436,0.5901399052334504
3.685454545454545,-0.220100985145569,-1.52236740818024,-1.03164381065369,0.5901399052334504
3.686060606060606,0.383443936729431,2.63059645900726,-1.42682203330994,0.5901399052334504
3.686666666666667,-0.277581453895569,-2.79412277927399,0.264061755752564,0.5901399052334504
3.687272727272727,0.843287686729431,-1.00743820896149,1.59808763465881,0.5901399052334504
3.687878787878788,-0.909866610145569,4.36459059963226,0.307172107315064,0.5901399052334504
3.688484848484848,-0.493133211708069,-2.19297287693024,-2.07587232627869,0.5901399052334504
3.689090909090909,0.546305264854431,-0.633815162086487,-2.19322828330994,0.5901399052334504
3.68969696969697,-0.660784578895569,1.49535720119476,0.31196214637756403,0.5901399052334504
3.69030303030303,0.251717862510681,-1.41219650974274,0.843656482315064,0.5901399052334504
3.690909090909091,0.0864615148544311,1.93364577541351,2.8746330448150603,0.5901399052334504
3.691515151515152,0.00503085079193113,-0.36078293552398705,0.0628801151275638,0.5901399052334504
3.692121212121212,0.220582608604431,-2.5929411386489902,-2.80156324424744,0.5901399052334504
3.692727272727273,-0.622464266395569,2.35037917385101,-0.6867609981536861,0.5901399052334504
3.693333333333333,0.13196688594818098,-1.1439543222427402,1.55497728309631,0.5901399052334504
3.693939393939394,0.816942471885681,-0.916427466773987,2.2998283573150604,0.5901399052334504
3.694545454545455,-0.548218660926819,2.79824782619476,-0.935843029403686,0.5901399052334504
3.695151515151515,-0.667969637489319,-2.62407639255524,-0.993323498153686,0.5901399052334504
3.695757575757576,0.49600985469818104,1.07383376369476,-1.54178297080994,0.5901399052334504
3.696363636363636,-0.399727449989319,1.3875813222885098,-1.14660474815369,0.5901399052334504
3.696969696969697,0.15352206172943098,-2.82046799411774,1.54060716590881,0.5901399052334504
3.697575757575758,0.17747225704193098,2.74316237697601,1.63161790809631,0.5901399052334504
3.698181818181818,-0.833225985145569,-0.109305884742737,-0.25805250205993596,0.5901399052334504
3.698787878787879,0.594205655479431,-2.88752854099274,-1.9968366817474401,0.5901399052334504
3.6993939393939392,-0.0332894617080689,1.84263503322601,-0.6244904903411861,0.5901399052334504
3.7,-0.368592196083069,-0.7056657480239871,0.982567615127564,0.5901399052334504
3.700606060606061,0.49600985469818104,-0.581124732398987,1.32505540809631,0.5901399052334504
3.701212121212121,-0.502713289833069,3.04732985744476,0.6736100955963139,0.5901399052334504
3.701818181818182,0.108016690635681,-2.64563156833649,-2.0782673458099397,0.5901399052334504
3.702424242424242,-0.251236239051819,-0.348807837867737,-2.48542066612244,0.5901399052334504
3.703030303030303,-0.871546297645569,2.47013015041351,0.295197009658814,0.5901399052334504
3.703636363636364,0.759462003135681,-1.8456950448989902,2.11780687294006,0.5901399052334504
3.704242424242424,0.630130948448181,1.89053542385101,0.757435779190064,0.5901399052334504
3.704848484848485,-0.581748934364319,-0.818231665992737,-0.677180920028686,0.5901399052334504
3.705454545454545,0.127176846885681,-1.5463176034927402,-0.5286897090911861,0.5901399052334504
3.706060606060606,0.536725186729431,2.51324050197601,-1.40766187705994,0.5901399052334504
3.706666666666667,-0.0141293054580689,-2.33906906833649,1.27715501747131,0.5901399052334504
3.707272727272727,0.975013760948181,-0.794281470680237,1.82082445106506,0.5901399052334504
3.707878787878788,-1.15655362186432,4.06281813869476,-0.162251720809936,0.5901399052334504
3.708484848484848,-0.541033602333069,-2.09238205661774,-2.2986091426849398,0.5901399052334504
3.709090909090909,0.955853604698181,-0.770331275367737,-2.07587232627869,0.5901399052334504
3.70969696969697,-0.780535555458069,1.95280593166351,1.08794847450256,0.5901399052334504
3.71030303030303,0.139151944541931,-1.6540934823989901,0.146705798721314,0.5901399052334504
3.710909090909091,0.050536221885681104,1.71569899806976,1.82561449012756,0.5901399052334504
3.711515151515152,0.25650790157318104,0.09187575588226321,0.0964103885650638,0.5901399052334504
3.712121212121212,0.184657315635681,-3.12703049411774,-2.20280836143494,0.5901399052334504
3.712727272727273,-0.289556551551819,2.59227614650726,0.0245598026275638,0.5901399052334504
3.713333333333333,0.13675692501068099,-0.435028540992737,1.99566087684631,0.5901399052334504
3.713939393939394,0.836102628135681,-1.06012863864899,1.55976732215881,0.5901399052334504
3.714545454545455,-0.313506746864319,2.5563508535385098,-1.55136304893494,0.5901399052334504
3.715151515151515,-0.976927157020569,-2.49235031833649,-1.0172736934661901,0.5901399052334504
3.715757575757576,0.603785733604431,1.25346022853851,-1.6375837520599401,0.5901399052334504
3.716363636363636,-0.596119051551819,1.7635993886947599,-0.222127209091186,0.5901399052334504
3.716969696969697,0.505589932823181,-2.63365647068024,1.68191331825256,0.5901399052334504
3.717575757575758,0.34751864376068103,2.34798415431976,0.659239978408814,0.5901399052334504
3.718181818181818,-0.687129793739319,-0.08775070896148679,-0.780166759872436,0.5901399052334504
3.718787878787879,0.8720279211044311,-2.93782395114899,-1.66392896690369,0.5901399052334504
3.719393939393939,0.0170059484481811,1.89532546291351,0.357467517471314,0.5901399052334504
3.72,-0.165015535926819,-0.597889869117737,1.17177415809631,0.5901399052334504
3.720606060606061,0.335543546104431,-1.1104240488052401,1.40888109169006,0.5901399052334504
3.721212121212121,-0.38056729373931897,3.49280349025726,0.525118884658814,0.5901399052334504
3.721818181818182,-0.313506746864319,-2.93782395114899,-2.0782673458099397,0.5901399052334504
3.722424242424242,-0.406912508583069,-0.660160376930237,-1.66153394737244,0.5901399052334504
3.723030303030303,-0.6847347742080689,2.93955397853851,1.44959642372131,0.5901399052334504
3.723636363636364,0.450504483604431,-2.09956711521149,1.76094896278381,0.5901399052334504
3.724242424242424,0.953458585166931,1.39476638088226,-0.5478498653411861,0.5901399052334504
3.724848484848485,-0.962557039833069,-0.743986060523987,-0.7274763301849361,0.5901399052334504
3.725454545454545,-0.117115145301819,-1.57505783786774,-0.7083161739349361,0.5901399052334504
3.726060606060606,0.462479581260681,2.46534011135101,-0.6436506465911861,0.5901399052334504
3.726666666666667,-0.22728604373931902,-1.52715744724274,1.98847581825256,0.5901399052334504
3.727272727272727,0.809757413291931,-1.4265666269302402,1.57653245887756,0.5901399052334504
3.727878787878788,-1.11344327030182,3.60776442775726,-1.2567756465911901,0.5901399052334504
3.728484848484848,-0.512293367958069,-2.09956711521149,-2.7273176387786897,0.5901399052334504
3.729090909090909,0.709166592979431,-0.801466529273987,-1.08672925987244,0.5901399052334504
3.72969696969697,-0.691919832801819,2.7623225332260097,1.36337572059631,0.5901399052334504
3.73030303030303,-0.105140047645569,-1.69480881443024,0.510748767471314,0.5901399052334504
3.730909090909091,0.239742764854431,1.59594802150726,1.21488450965881,0.5901399052334504
3.731515151515152,0.18705233516693098,0.36490798244476297,-0.6268855098724361,0.5901399052334504
3.732121212121212,0.27806307735443103,-3.6874650644302402,-1.91301099815369,0.5901399052334504
3.732727272727273,-0.239261141395569,2.38390944728851,0.822101306533814,0.5901399052334504
3.733333333333333,0.273273038291931,0.192466576194763,2.6854265018463104,0.5901399052334504
3.733939393939394,0.642106046104431,-1.2253849863052402,1.15740404090881,0.5901399052334504
3.734545454545455,-0.897891512489319,2.15877761135101,-1.66153394737244,0.5901399052334504
3.735151515151515,-0.751795321083069,-2.20255295505524,-1.60644849815369,0.5901399052334504
3.735757575757576,0.848077725791931,1.1816096426010099,-1.84595045127869,0.5901399052334504
3.736363636363636,-0.500318270301819,1.6654035879135098,0.676005115127564,0.5901399052334504
3.736969696969697,0.17747225704193098,-2.45403000583649,2.17528734169006,0.5901399052334504
3.737575757575758,0.309198331260681,2.0869270254135097,0.386207751846314,0.5901399052334504
3.738181818181818,-1.19247891483307,0.324192650413513,-1.26156568565369,0.5901399052334504
3.738787878787879,0.625340909385681,-2.87794846286774,-1.06517408409119,0.5901399052334504
3.739393939393939,0.254112882041931,1.94562087306976,0.9897526737213139,0.5901399052334504
3.74,-0.109930086708069,-0.518854224586487,1.09513353309631,0.5901399052334504
3.740606060606061,0.527145108604431,-1.20622483005524,1.78968919715881,0.5901399052334504
3.741212121212121,-0.394937410926819,3.31317702541351,-0.5454548458099361,0.5901399052334504
3.741818181818182,-0.27039639530181897,-3.11984543552399,-3.39073804893494,0.5901399052334504
3.742424242424242,-0.229681063270569,-0.286537330055237,-1.84116041221619,0.5901399052334504
3.743030303030303,-0.0644247156143189,3.32994216213226,2.01242601356506,0.5901399052334504
3.743636363636364,0.335543546104431,-1.80976975193024,2.2830632205963104,0.5901399052334504
3.744242424242424,0.701981534385681,0.915762474632263,-1.48909254112244,0.5901399052334504
3.744848484848485,-1.18768887577057,-0.370363013648987,-0.7873518184661861,0.5901399052334504
3.745454545454545,-0.234471102333069,-1.6014030527114902,-0.361038341903686,0.5901399052334504
3.746060606060606,0.028981046104431103,2.15398757228851,-0.5286897090911861,0.5901399052334504
3.746666666666667,-0.265606356239319,-1.14634934177399,1.9980558963775599,0.5901399052334504
3.747272727272727,0.996568936729431,-1.27807541599274,1.83998460731506,0.5901399052334504
3.747878787878788,-1.38887051639557,3.2580915761947598,-1.26635572471619,0.5901399052334504
3.748484848484848,-0.44044278202056897,-2.58815109958649,-2.6410969356536897,0.5901399052334504
3.749090909090909,0.613365811729431,-0.40149826755523704,-0.8496223262786861,0.5901399052334504
3.74969696969697,-0.363802157020569,2.84375319728851,1.85914476356506,0.5901399052334504
3.75030303030303,-0.37098721561431897,-1.8840153573989902,0.795756091690064,0.5901399052334504
3.750909090909091,0.373863858604431,1.37321120510101,0.5346989627838139,0.5901399052334504
3.751515151515152,-0.14585537967681902,0.980428001976013,-0.428098888778686,0.5901399052334504
3.752121212121212,0.19663241329193099,-3.7305754159927402,-1.4747224239349401,0.5901399052334504
3.752727272727273,-0.17220059452056902,2.41264968166351,0.9514323612213139,0.5901399052334504
3.753333333333333,-0.0931649499893189,0.37448806056976297,1.98847581825256,0.5901399052334504
3.753939393939394,0.788202237510681,-1.68043869724274,0.393392810440064,0.5901399052334504
3.754545454545455,-0.689524813270569,2.30726882228851,-1.33102125205994,0.5901399052334504
3.755151515151515,-0.835621004676819,-2.49714035739899,-1.41245191612244,0.5901399052334504
3.755757575757576,0.519960050010681,1.0403034902572599,-2.0686872676849397,0.5901399052334504
3.756363636363636,-0.469183016395569,1.9647810293197598,0.905926990127564,0.5901399052334504
3.756969696969697,0.0984366125106811,-2.58815109958649,1.80645433387756,0.5901399052334504
3.757575757575758,0.622945889854431,1.47859206447601,0.177841052627564,0.5901399052334504
3.758181818181818,-1.1589486413955699,0.819961693382263,-1.64716383018494,0.5901399052334504
3.758787878787879,0.656476163291931,-2.74861740818024,-1.18492506065369,0.5901399052334504
3.759393939393939,0.402604092979431,1.99591628322601,1.49989183387756,0.5901399052334504
3.76,-0.279976473426819,-0.5284343027114871,0.565834216690064,0.5901399052334504
3.760606060606061,0.254112882041931,-1.24454514255524,1.72981370887756,0.5901399052334504
3.761212121212121,-0.109930086708069,3.48561843166351,-0.0544758419036862,0.5901399052334504
3.761818181818182,-0.0907699304580689,-3.3282121347427402,-2.9237092403411897,0.5901399052334504
3.762424242424242,-0.102745028114319,-0.485323951148987,-1.53699293174744,0.5901399052334504
3.763030303030303,-0.19615078983306902,3.49998854885101,1.85195970497131,0.5901399052334504
3.763636363636364,0.0146109289169311,-1.96784104099274,1.65796312294006,0.5901399052334504
3.764242424242424,0.634920987510681,0.606804955101013,-1.48190748252869,0.5901399052334504
3.764848484848485,-1.05117276248932,-0.317672583961487,-0.308347912216186,0.5901399052334504
3.765454545454545,0.19663241329193099,-1.37866623630524,-0.181411877059936,0.5901399052334504
3.766060606060606,0.0553262609481811,2.15877761135101,-0.380198498153686,0.5901399052334504
3.766666666666667,-0.0763998132705689,-1.34034592380524,1.62922288856506,0.5901399052334504
3.767272727272727,1.0851846593856802,-1.45051682224274,1.02088792762756,0.5901399052334504
3.767878787878788,-1.3098348718643198,3.18384597072601,-1.10349439659119,0.5901399052334504
3.768484848484848,-0.48115811405181896,-2.27440354099274,-1.8172102169036901,0.5901399052334504
3.769090909090909,0.505589932823181,-0.715245826148987,-0.420913830184936,0.5901399052334504
3.76969696969697,-0.335061922645569,2.63778151760101,0.369442615127564,0.5901399052334504
3.77030303030303,-0.45002286014556897,-2.04208664646149,0.352677478408814,0.5901399052334504
3.770909090909091,0.44810946407318103,1.36363112697601,0.273641833877564,0.5901399052334504
3.771515151515151,-0.184175692176819,0.30742751369476295,-1.33102125205994,0.5901399052334504
3.772121212121212,0.22297762813568098,-3.40964279880524,-0.737056408309936,0.5901399052334504
3.772727272727273,-0.325481844520569,2.87249343166351,1.12626878700256,0.5901399052334504
3.773333333333333,-0.27279141483306896,0.15175124416351302,1.90225511512756,0.5901399052334504
3.773939393939394,1.1833804601669302,-1.89120041599274,-0.339483166122436,0.5901399052334504
3.774545454545455,-0.6847347742080689,2.05579177150726,-1.34299634971619,0.5901399052334504
3.775151515151515,-0.861966219520569,-2.11872727146149,-0.617305431747436,0.5901399052334504
3.775757575757576,0.421764249229431,0.618780052757263,-1.48190748252869,0.5901399052334504
3.776363636363636,-0.404517489051819,1.91448561916351,1.10231859169006,0.5901399052334504
3.776969696969697,0.440924405479431,-2.41810471286774,1.44480638465881,0.5901399052334504
3.777575757575758,0.515170010948181,1.04748854885101,-0.502344494247436,0.5901399052334504
3.778181818181818,-1.4152157312393199,0.7505061269760129,-1.46035230674744,0.5901399052334504
3.778787878787879,0.740301846885681,-2.2504533456802402,-0.392173595809936,0.5901399052334504
3.779393939393939,0.481639737510681,1.9049055410385098,2.11062181434631,0.5901399052334504
3.7800000000000002,-0.617674227333069,-0.569149634742737,0.896346912002564,0.5901399052334504
3.780606060606061,0.129571866416931,-1.02659836521149,1.12147874794006,0.5901399052334504
3.7812121212121212,-0.299136629676819,3.71075026760101,-0.260447521591186,0.5901399052334504
3.781818181818182,0.00503085079193113,-3.39048264255524,-2.3441145137786896,0.5901399052334504
3.7824242424242422,-0.0644247156143189,-0.5667546152114871,-0.8065119747161861,0.5901399052334504
3.783030303030303,-0.234471102333069,3.3275471426010097,1.74897386512756,0.5901399052334504
3.783636363636364,-0.107535067176819,-1.95586594333649,1.45678148231506,0.5901399052334504
3.784242424242424,0.888793057823181,0.6091999746322629,-1.48190748252869,0.5901399052334504
3.784848484848485,-1.13260342655182,-0.12846604099273698,-0.9047077754974361,0.5901399052334504
3.785454545454545,0.206212491416931,-1.1918547128677401,-0.483184337997436,0.5901399052334504
3.786060606060606,0.491219815635681,2.32882399806976,0.819706287002564,0.5901399052334504
3.786666666666667,-0.349432039833069,-1.00264816989899,1.5358171268463099,0.5901399052334504
3.787272727272727,0.996568936729431,-1.63732834568024,0.0341398807525638,0.5901399052334504
3.787878787878788,-1.18289883670807,3.16229079494476,-1.31425611534119,0.5901399052334504
3.788484848484849,-0.0883749109268189,-2.33906906833649,-1.49148756065369,0.5901399052334504
3.789090909090909,0.919928311729431,-0.942772681617737,0.230531482315064,0.5901399052334504
3.78969696969697,-0.119510164833069,2.7359773183822598,0.920297107315064,0.5901399052334504
3.79030303030303,-0.574563875770569,-2.01574143161774,0.846051501846314,0.5901399052334504
3.790909090909091,0.33793856563568103,1.1911897207260098,-0.310742931747436,0.5901399052334504
3.791515151515152,-0.303926668739319,0.618780052757263,-1.8938508419036901,0.5901399052334504
3.792121212121212,0.294828214073181,-3.42880295505524,-0.310742931747436,0.5901399052334504
3.792727272727273,0.0936465734481811,2.7958528066635098,1.67233324012756,0.5901399052334504
3.793333333333333,-0.160225496864319,0.29784743556976295,1.85914476356506,0.5901399052334504
3.793939393939394,0.9702237218856811,-1.95586594333649,-0.559824962997436,0.5901399052334504
3.794545454545455,-0.754190340614319,2.00789138088226,-1.93935621299744,0.5901399052334504
3.795151515151515,-0.768560457801819,-2.03011154880524,-1.00050855674744,0.5901399052334504
3.795757575757576,0.644501065635681,0.443943626976013,-0.859202404403686,0.5901399052334504
3.796363636363636,-0.109930086708069,2.5060554433822597,2.06751146278381,0.5901399052334504
3.796969696969697,-0.00933926639556887,-2.35822922458649,1.17177415809631,0.5901399052334504
3.797575757575758,0.170287198448181,0.836726830101013,-1.34539136924744,0.5901399052334504
3.798181818181818,-1.22600918827057,1.01874831447601,-1.70943433799744,0.5901399052334504
3.798787878787879,0.5319351476669311,-2.46600510349274,0.038929919815063795,0.5901399052334504
3.799393939393939,0.874422940635681,2.3695393301010097,2.70698167762756,0.5901399052334504
3.8,-0.622464266395569,-0.499694068336487,0.6113395877838139,0.6276685765889142
3.8006060606060608,-0.15064541873931903,-1.2086198495864902,0.242506579971314,0.6276685765889142
3.801212121212121,-0.107535067176819,3.32515212306976,-1.35736646690369,0.6276685765889142
3.8018181818181818,-0.20573086795806902,-3.54615891208649,-2.0950324825286897,0.6276685765889142
3.802424242424242,0.37625887813568104,-0.245821998023987,0.31196214637756403,0.6276685765889142
3.8030303030303028,-0.464392977333069,3.93588210353851,1.94776048622131,0.6276685765889142
3.803636363636364,-0.349432039833069,-2.03969162693024,0.6903752323150639,0.6276685765889142
3.8042424242424238,0.881607999229431,0.09906081447601321,-2.23633863487244,0.6276685765889142
3.804848484848485,-1.12781338748932,-0.09733078708648679,-0.935843029403686,0.6276685765889142
3.8054545454545448,0.22776766719818098,-1.14155930271149,0.043719958877563796,0.6276685765889142
3.806060606060606,0.455294522666931,2.44138991603851,1.79447923622131,0.6276685765889142
3.806666666666667,-0.234471102333069,-0.954747779273987,1.6771232791900599,0.6276685765889142
3.807272727272727,0.804967374229431,-2.01813645114899,-0.873572521591186,0.6276685765889142
3.807878787878788,-0.881126375770569,2.80064284572601,-2.02797193565369,0.6276685765889142
3.808484848484848,-0.16741055545806902,-2.46600510349274,-1.05080396690369,0.6276685765889142
3.809090909090909,0.792992276573181,-0.597889869117737,1.19572435340881,0.6276685765889142
3.80969696969697,-0.179385653114319,3.20061110744476,0.762225818252564,0.6276685765889142
3.81030303030303,-0.761375399208069,-2.28637863864899,0.379022693252564,0.6276685765889142
3.810909090909091,0.5918106359481811,1.46661696681976,-0.770586681747436,0.6276685765889142
3.811515151515152,-0.327876864051819,0.8487019277572629,-1.94175123252869,0.6276685765889142
3.812121212121212,0.11520174922943101,-3.2587565683364903,0.0724601932525638,0.6276685765889142
3.812727272727273,0.06490633907318111,3.1551057363510098,2.06751146278381,0.6276685765889142
3.813333333333333,-0.48115811405181896,0.178096459007263,1.62443284950256,0.6276685765889142
3.813939393939394,0.824127530479431,-2.41570969333649,-1.22324537315369,0.6276685765889142
3.814545454545455,-0.737425203895569,1.6318733144760098,-1.84834547080994,0.6276685765889142
3.815151515151515,-0.689524813270569,-1.82174484958649,-0.464024181747436,0.6276685765889142
3.815757575757576,0.5319351476669311,0.403228294944763,-0.322718029403686,0.6276685765889142
3.816363636363636,-0.287161532020569,2.42222975978851,1.62443284950256,0.6276685765889142
3.816969696969697,0.431344327354431,-2.45882004489899,0.438898181533814,0.6276685765889142
3.817575757575758,0.261297940635681,0.5517195058822629,-1.8938508419036901,0.6276685765889142
3.818181818181818,-1.3002547937393198,1.67498366603851,-1.33581129112244,0.6276685765889142
3.818787878787879,0.958248624229431,-2.32469895114899,0.982567615127564,0.6276685765889142
3.819393939393939,0.723536710166931,2.18272780666351,2.08188157997131,0.6276685765889142
3.82,-0.519478426551819,-0.755961158180237,0.0700651737213138,0.6276685765889142
3.8206060606060612,-0.038079500770568896,-1.49841721286774,0.0700651737213138,0.6276685765889142
3.821212121212121,0.11280672969818101,3.28204177150726,-1.02445875205994,0.6276685765889142
3.8218181818181822,-0.31111172733306897,-3.00967453708649,-1.17055494346619,0.6276685765889142
3.822424242424242,0.285248135948181,-0.485323951148987,0.486798572158814,0.6276685765889142
3.8230303030303032,-0.677549715614319,3.99815261135101,1.32266038856506,0.6276685765889142
3.823636363636364,-0.399727449989319,-2.0708268808364902,-0.679575939559936,0.6276685765889142
3.824242424242424,0.939088467979431,-0.310487525367737,-1.9369611934661901,0.6276685765889142
3.824848484848485,-0.9841122156143189,0.982823021507263,-0.157461681747436,0.6276685765889142
3.825454545454545,0.42655428829193104,-1.41219650974274,0.043719958877563796,0.6276685765889142
3.826060606060606,-0.0548446374893189,2.07255690822601,1.16937913856506,0.6276685765889142
3.826666666666667,0.19184237422943098,-0.533224341773987,1.00412279090881,0.6276685765889142
3.827272727272727,0.5726504796981811,-2.11154221286774,-1.22803541221619,0.6276685765889142
3.827878787878788,-0.792510653114319,2.82938308010101,-0.9645832637786861,0.6276685765889142
3.828484848484848,-0.263211336708069,-1.84330002536774,0.345492419815064,0.6276685765889142
3.829090909090909,0.663661221885681,-0.521249244117737,1.09034349403381,0.6276685765889142
3.82969696969697,0.000240811729431133,3.14073561916351,-0.420913830184936,0.6276685765889142
3.83030303030303,-0.938606844520569,-2.68874191989899,-0.432888927841186,0.6276685765889142
3.830909090909091,0.529540128135681,1.03790847072601,-0.255657482528686,0.6276685765889142
3.831515151515152,-0.387752352333069,1.2199299551010099,-1.57052320518494,0.6276685765889142
3.832121212121212,0.201422452354431,-3.0120695566177402,0.508353747940064,0.6276685765889142
3.832727272727273,0.052931241416931105,2.8653083730697597,1.48791673622131,0.6276685765889142
3.833333333333333,-0.347037020301819,-0.30330246677398703,0.584994372940064,0.6276685765889142
3.833939393939394,0.687611417198181,-2.1211222909927403,-1.50825269737244,0.6276685765889142
3.834545454545455,-0.244051180458069,2.24739333400726,-0.696341076278686,0.6276685765889142
3.835151515151515,-0.397332430458069,-1.14155930271149,0.273641833877564,0.6276685765889142
3.835757575757576,0.642106046104431,-0.09493576755523679,-0.552639904403686,0.6276685765889142
3.836363636363636,-0.17699063358306902,3.0185896230697598,0.7526457401275639,0.6276685765889142
3.836969696969697,0.0720913976669311,-2.3103288339614902,-0.303557873153686,0.6276685765889142
3.837575757575758,0.27806307735443103,-0.114095923805237,-1.16336988487244,0.6276685765889142
3.838181818181818,-0.830830965614319,2.26415847072601,-0.679575939559936,0.6276685765889142
3.838787878787879,0.596600675010681,-2.08998703708649,1.17895921669006,0.6276685765889142
3.839393939393939,0.5726504796981811,2.20428298244476,1.51665697059631,0.6276685765889142
3.84,-0.562588778114319,-1.33795090427399,-0.990928478622436,0.6276685765889142
3.840606060606061,-0.155435457801819,-1.5558976816177401,-0.43767896690368596,0.6276685765889142
3.841212121212121,0.625340909385681,3.40179274806976,0.472428454971314,0.6276685765889142
3.841818181818182,-0.13627530155181902,-3.14619065036774,-0.574195080184936,0.6276685765889142
3.842424242424242,0.5319351476669311,-0.674530494117737,0.20418626747131402,0.6276685765889142
3.843030303030303,-0.672759676551819,4.07239821681976,0.5323039432525639,0.6276685765889142
3.843636363636364,-0.663179598426819,-2.24566330661774,-1.39329175987244,0.6276685765889142
3.844242424242424,1.1211099523544301,-0.327252662086487,-1.04601392784119,0.6276685765889142
3.844848484848485,-0.960162020301819,1.10736403713226,0.25208665809631403,0.6276685765889142
3.845454545454545,0.0888565343856811,-1.4960221933364901,-0.0975861934661862,0.6276685765889142
3.846060606060606,0.220582608604431,2.11806227931976,1.35858568153381,0.6276685765889142
3.846666666666667,-0.0620296960830689,-0.952352759742737,0.436503162002564,0.6276685765889142
3.847272727272727,0.493614835166931,-2.54264572849274,-1.45316724815369,0.6276685765889142
3.847878787878788,-0.28237149295806896,2.80303786525726,-0.40654371299743597,0.6276685765889142
3.848484848484849,0.052931241416931105,-1.51997238864899,0.508353747940064,0.6276685765889142
3.849090909090909,0.838497647666931,-0.468558814430237,1.01609788856506,0.6276685765889142
3.84969696969697,-0.0045492273330688705,2.98026931056976,-1.25917066612244,0.6276685765889142
3.85030303030303,-1.01524746952057,-2.64563156833649,0.0149797245025638,0.6276685765889142
3.850909090909091,0.709166592979431,0.997193138694763,-0.28679273643493597,0.6276685765889142
3.851515151515152,-0.44044278202056897,1.29417556056976,-1.80763013877869,0.6276685765889142
3.852121212121212,0.225372647666931,-2.81328293552399,0.580204333877564,0.6276685765889142
3.852727272727273,0.000240811729431133,2.8054328847885097,1.21488450965881,0.6276685765889142
3.853333333333333,-0.758980379676819,-0.276957251930237,0.18502611122131402,0.6276685765889142
3.853939393939394,0.646896085166931,-2.47079514255524,-1.44119215049744,0.6276685765889142
3.854545454545455,-0.18178067264556902,1.99591628322601,-0.34666822471618597,0.6276685765889142
3.855151515151515,-0.46199795780181896,-1.40022141208649,0.5897844120025639,0.6276685765889142
3.855757575757576,0.5726504796981811,-0.48292893161773703,0.13473070106506402,0.6276685765889142
3.856363636363636,-0.268001375770569,2.92278884181976,0.376627673721314,0.6276685765889142
3.856969696969697,-0.016524324989318898,-2.56180588474274,-0.770586681747436,0.6276685765889142
3.857575757575758,0.40739413204193103,-0.317672583961487,-1.54657300987244,0.6276685765889142
3.858181818181818,-1.0655428796768198,2.16596266994476,-0.6460456661224361,0.6276685765889142
3.858787878787879,0.515170010948181,-2.15944260349274,1.52863206825256,0.6276685765889142
3.859393939393939,0.6708462804794311,2.11327224025726,1.34661058387756,0.6276685765889142
3.86,-0.5865389734268189,-1.11760910739899,-1.19211011924744,0.6276685765889142
3.860606060606061,-0.0859798913955689,-1.60379807224274,-0.198177013778686,0.6276685765889142
3.861212121212121,0.543910245323181,3.22935134181976,-0.16464674034118598,0.6276685765889142
3.861818181818182,-0.203335848426819,-2.73664231052399,0.0365349002838138,0.6276685765889142
3.862424242424242,0.292433194541931,-0.899662330055237,0.759830798721314,0.6276685765889142
3.863030303030303,-0.658389559364319,4.0412629629135095,0.043719958877563796,0.6276685765889142
3.863636363636364,-0.399727449989319,-2.3702043222427402,-1.8172102169036901,0.6276685765889142
3.864242424242424,1.1666153234481802,-0.286537330055237,-1.29749097862244,0.6276685765889142
3.864848484848485,-0.648809481239319,1.68935378322601,0.9322722049713139,0.6276685765889142
3.865454545454545,0.165497159385681,-1.6109831308364901,-0.696341076278686,0.6276685765889142
3.866060606060606,0.31638338985443104,2.02465651760101,1.32505540809631,0.6276685765889142
3.866666666666667,0.00742587032318113,-0.6050749277114871,0.470033435440064,0.6276685765889142
3.867272727272727,0.299618253135681,-2.81328293552399,-2.15251295127869,0.6276685765889142
3.867878787878788,-0.629649324989319,2.9084187246322597,0.0365349002838138,0.6276685765889142
3.868484848484848,0.0361661046981811,-1.09126389255524,1.58371751747131,0.6276685765889142
3.869090909090909,0.690006436729431,-0.873317115211487,0.994542712783814,0.6276685765889142
3.86969696969697,-0.46199795780181896,3.01619460353851,-1.11067945518494,0.6276685765889142
3.87030303030303,-1.0128524499893201,-2.60491623630524,-0.6268855098724361,0.6276685765889142
3.870909090909091,0.673241300010681,1.2079548574447598,-1.28312086143494,0.6276685765889142
3.871515151515152,-0.37098721561431897,1.60313308010101,-0.418518810653686,0.6276685765889142
3.872121212121212,0.225372647666931,-2.70550705661774,1.2963151737213099,0.6276685765889142
3.872727272727273,0.321173428916931,2.8485432363510097,1.30350023231506,0.6276685765889142
3.873333333333333,-1.10146817264557,-0.171576392555237,-0.370618420028686,0.6276685765889142
3.873939393939394,0.733116788291931,-2.7126921152114902,-1.62560865440369,0.6276685765889142
3.874545454545455,0.0792764562606811,2.0270515371322597,-0.0401057247161862,0.6276685765889142
3.875151515151515,-0.217705965614319,-1.09126389255524,0.584994372940064,0.6276685765889142
3.875757575757576,0.690006436729431,-0.6481852792739871,0.7933610721588139,0.6276685765889142
3.876363636363636,-0.416492586708069,3.01140456447601,0.402972888565064,0.6276685765889142
3.876969696969697,0.00503085079193113,-2.7126921152114902,-1.51064771690369,0.6276685765889142
3.877575757575758,-0.109930086708069,-0.09014572849273679,-2.00402174034119,0.6276685765889142
3.878181818181818,-0.773350496864319,2.3264289785385097,0.510748767471314,0.6276685765889142
3.878787878787879,0.644501065635681,-2.07801193943024,1.53342210731506,0.6276685765889142
3.879393939393939,0.821732510948181,2.0701618886947597,0.273641833877564,0.6276685765889142
3.88,-0.917051668739319,-0.839786841773987,-0.631675548934936,0.6276685765889142
3.880606060606061,0.0361661046981811,-1.3619010995864902,0.029349841690063803,0.6276685765889142
3.881212121212121,0.49600985469818104,2.58030104885101,-0.9837434200286861,0.6276685765889142
3.881818181818182,-0.339851961708069,-2.6001261972427403,0.48200853309631403,0.6276685765889142
3.882424242424242,0.5918106359481811,-1.0721037363052401,1.76334398231506,0.6276685765889142
3.883030303030303,-1.1254183679580698,4.18017409572601,-0.574195080184936,0.6276685765889142
3.8836363636363638,-0.5266634851455689,-2.12830734958649,-2.65307203330994,0.6276685765889142
3.884242424242424,0.900768155479431,-0.454188697242737,-1.01248365440369,0.6276685765889142
3.8848484848484848,-0.708684969520569,2.11087722072601,0.9538273807525639,0.6276685765889142
3.885454545454545,0.0433511632919311,-1.94149582614899,-0.485579357528686,0.6276685765889142
3.8860606060606058,0.215792569541931,1.77557448635101,1.82561449012756,0.6276685765889142
3.886666666666667,0.258902921104431,-0.274562232398987,0.561044177627564,0.6276685765889142
3.8872727272727268,0.254112882041931,-2.88992356052399,-2.23633863487244,0.6276685765889142
3.887878787878788,-0.313506746864319,2.4629450918197597,-0.121536388778686,0.6276685765889142
3.8884848484848478,-0.0213143640518189,-0.573939673805237,1.90465013465881,0.6276685765889142
3.889090909090909,0.876817960166931,-0.954747779273987,1.00172777137756,0.6276685765889142
3.88969696969697,-0.428467684364319,2.46055007228851,-1.1154694942474401,0.6276685765889142
3.89030303030303,-1.17092373905182,-2.30314377536774,-0.852017345809936,0.6276685765889142
3.890909090909091,0.563070401573181,1.0929939199447598,-1.6160285762786901,0.6276685765889142
3.891515151515152,-0.366197176551819,1.5121223379135098,-0.7250813106536861,0.6276685765889142
3.892121212121212,0.381048917198181,-2.5402507089614903,1.10710863075256,0.6276685765889142
3.892727272727273,0.31638338985443104,2.81740798244476,1.20530443153381,0.6276685765889142
3.893333333333333,-0.962557039833069,-0.123676001930237,-0.49755445518493596,0.6276685765889142
3.893939393939394,0.706771573448181,-2.73185227146149,-1.40526685752869,0.6276685765889142
3.894545454545455,0.26848299922943103,2.00549636135101,0.146705798721314,0.6276685765889142
3.895151515151515,-0.574563875770569,-0.942772681617737,0.661634997940064,0.6276685765889142
3.895757575757576,0.613365811729431,-1.02180832614899,1.14542894325256,0.6276685765889142
3.896363636363636,-0.387752352333069,3.89756179103851,0.577809314346314,0.6276685765889142
3.896969696969697,0.00982088985443113,-2.64802658786774,-2.15969800987244,0.6276685765889142
3.897575757575758,-0.315901766395569,-0.755961158180237,-2.40878004112244,0.6276685765889142
3.898181818181818,-0.608094149208069,2.5060554433822597,1.24841478309631,0.6276685765889142
3.898787878787879,0.500799893760681,-1.82653488864899,1.84477464637756,0.6276685765889142
3.899393939393939,0.725931729698181,1.59594802150726,-0.16464674034118598,0.6276685765889142
3.9,-0.761375399208069,-0.957142798805237,-0.0856110958099362,0.915431713088312
3.900606060606061,0.0217959875106811,-1.42896164646149,-0.19578199424743598,0.915431713088312
3.901212121212121,0.345123624229431,2.41025466213226,-0.516714611434936,0.915431713088312
3.901818181818182,-0.478763094520569,-2.1905778573989902,1.78968919715881,0.915431713088312
3.902424242424242,1.02770419063568,-1.3163957284927401,1.80166429481506,0.915431713088312
3.903030303030303,-1.4894613367080698,4.22328444728851,-0.6891560176849361,0.915431713088312
3.9036363636363642,-0.404517489051819,-2.52827561130524,-2.3249543575286897,0.915431713088312
3.904242424242424,0.694796475791931,-0.533224341773987,-1.69985425987244,0.915431713088312
3.9048484848484852,-0.497923250770569,2.28810866603851,1.09273851356506,0.915431713088312
3.905454545454545,0.129571866416931,-1.75468430271149,0.256876697158814,0.915431713088312
3.9060606060606062,0.342728604698181,1.8282649160385098,1.45678148231506,0.915431713088312
3.906666666666667,-0.179385653114319,0.173306419944763,-0.284397716903686,0.915431713088312
3.9072727272727272,-0.14585537967681902,-3.3617424081802403,-2.23633863487244,0.915431713088312
3.907878787878788,-0.327876864051819,2.49168532619476,0.319147204971314,0.915431713088312
3.908484848484849,-0.0548446374893189,-0.09493576755523679,1.96692064247131,0.915431713088312
3.909090909090909,0.9319034093856811,-1.24454514255524,1.34421556434631,0.915431713088312
3.90969696969697,-0.675154696083069,2.67131179103851,-1.2352204708099401,0.915431713088312
3.91030303030303,-1.00566739139557,-2.60491623630524,-0.8472273067474361,0.915431713088312
3.910909090909091,0.565465421104431,1.20555983791351,-1.91301099815369,0.915431713088312
3.911515151515152,-0.263211336708069,1.71569899806976,0.539489001846314,0.915431713088312
3.912121212121212,0.20860751094818097,-2.44205490818024,1.56934740028381,0.915431713088312
3.912727272727273,0.412184171104431,2.30726882228851,0.38141771278381403,0.915431713088312
3.913333333333333,-1.1517635828018198,0.130196068382263,-1.06756910362244,0.915431713088312
3.913939393939394,0.709166592979431,-2.89471359958649,-1.53699293174744,0.915431713088312
3.914545454545455,0.19663241329193099,2.03423659572601,0.563439197158814,0.915431713088312
3.915151515151515,-0.344642000770569,-0.590704810523987,0.6927702518463139,0.915431713088312
3.915757575757576,0.433739346885681,-1.21580490818024,1.57653245887756,0.915431713088312
3.916363636363636,-0.31111172733306897,3.58860427150726,-0.17422681846618598,0.915431713088312
3.916969696969697,-0.100350008583069,-3.0719450448989902,-2.7871931270599397,0.915431713088312
3.917575757575758,-0.426072664833069,-0.19792160739898698,-1.84595045127869,0.915431713088312
3.918181818181818,-0.648809481239319,2.85093825588226,1.62203782997131,0.915431713088312
3.918787878787879,-0.018919344520568898,-1.91275559177399,1.95015550575256,0.915431713088312
3.919393939393939,0.656476163291931,1.57439284572601,-0.832857189559936,0.915431713088312
3.92,-0.828435946083069,-0.681715552711487,-0.9047077754974361,0.915431713088312
3.920606060606061,0.13675692501068099,-1.45770188083649,-0.449654064559936,0.915431713088312
3.921212121212121,0.472059659385681,2.3599592519760098,-0.6460456661224361,0.915431713088312
3.921818181818182,0.254112882041931,-1.4912321542739901,2.12499193153381,0.915431713088312
3.922424242424242,1.08757967891693,-1.32597580661774,1.47115159950256,0.915431713088312
3.923030303030303,-1.22121914920807,3.3946076894760098,-1.36694654502869,0.915431713088312
3.923636363636364,-0.268001375770569,-2.37259934177399,-2.38243482627869,0.915431713088312
3.924242424242424,0.792992276573181,-0.35359787693023703,-0.971768322372436,0.915431713088312
3.924848484848485,-0.27039639530181897,2.56114089260101,1.49989183387756,0.915431713088312
3.925454545454545,-0.038079500770568896,-1.95586594333649,0.5538591190338139,0.915431713088312
3.926060606060606,0.419369229698181,1.65821852931976,0.824496326065064,0.915431713088312
3.926666666666667,0.0625113195419311,0.29784743556976295,-1.29988599815369,0.915431713088312
3.927272727272727,0.294828214073181,-3.90301682224274,-1.02924879112244,0.915431713088312
3.927878787878788,-0.296741610145569,2.33600905666351,0.8077311893463139,0.915431713088312
3.928484848484848,-0.0213143640518189,0.35772292385101295,1.9166252323150599,0.915431713088312
3.929090909090909,1.05883944454193,-1.31879074802399,0.903531970596314,0.915431713088312
3.92969696969697,-0.632044344520569,2.13961745510101,-1.81481519737244,0.915431713088312
3.93030303030303,-0.794905672645569,-2.46121506443024,-0.9286579708099361,0.915431713088312
3.930909090909091,0.718746671104431,1.24388015041351,-0.775376720809936,0.915431713088312
3.931515151515152,-0.287161532020569,1.83784499416351,1.56934740028381,0.915431713088312
3.932121212121212,0.179867276573181,-2.53785568943024,1.36337572059631,0.915431713088312
3.932727272727273,0.273273038291931,1.6007380605697599,-0.380198498153686,0.915431713088312
3.933333333333333,-0.988902254676819,0.793616478538513,-1.2352204708099401,0.915431713088312
3.933939393939394,0.836102628135681,-2.64084152927399,-0.7897468379974361,0.915431713088312
3.934545454545455,0.313988370323181,1.83065993556976,1.24122972450256,0.915431713088312
3.935151515151515,-0.15064541873931903,-0.370363013648987,0.743065662002564,0.915431713088312
3.935757575757576,0.143941983604431,-1.2517302011489901,1.37535081825256,0.915431713088312
3.936363636363636,-0.27279141483306896,3.17187087306976,-0.31792799034118596,0.915431713088312
3.936969696969697,-0.0931649499893189,-3.1390055917739903,-2.51895093955994,0.915431713088312
3.937575757575758,-0.294346590614319,-0.0733805917739868,-1.10349439659119,0.915431713088312
3.938181818181818,-0.248841219520569,3.35389235744476,1.82561449012756,0.915431713088312
3.938787878787879,0.290038175010681,-2.10914719333649,1.7753190799713099,0.915431713088312
3.939393939393939,0.618155850791931,0.846306908226013,-1.40526685752869,0.915431713088312
3.94,-1.19966397342682,-0.425448462867737,-0.43767896690368596,0.915431713088312
3.940606060606061,0.194237393760681,-1.46249191989899,0.13473070106506402,0.915431713088312
3.941212121212121,0.318778409385681,2.1036921621322597,-0.16464674034118598,0.915431713088312
3.941818181818182,-0.18657071170806902,-1.48404709568024,1.50468187294006,0.915431713088312
3.942424242424242,0.759462003135681,-1.3547160409927401,0.664030017471314,0.915431713088312
3.943030303030303,-1.17092373905182,3.15271071681976,-1.21366529502869,0.915431713088312
3.943636363636364,-0.268001375770569,-2.27440354099274,-1.55136304893494,0.915431713088312
3.944242424242424,0.884003018760681,-0.758356177711487,-0.452049084091186,0.915431713088312
3.944848484848485,-0.356617098426819,2.64496657619476,1.0568132205963099,0.915431713088312
3.945454545454545,-0.40212246952056896,-1.9319157480239901,0.0652751346588138,0.915431713088312
3.946060606060606,0.15352206172943098,1.4043464590072599,0.220951404190064,0.915431713088312
3.946666666666667,-0.109930086708069,0.585249779319763,-1.16097486534119,0.915431713088312
3.947272727272727,0.151127042198181,-3.42880295505524,-0.43767896690368596,0.915431713088312
3.947878787878788,-0.129090242958069,2.74076735744476,1.18135423622131,0.915431713088312
3.948484848484848,-0.018919344520568898,0.120615990257263,1.61485277137756,0.915431713088312
3.949090909090909,0.656476163291931,-1.91275559177399,-0.0329206661224362,0.915431713088312
3.94969696969697,-0.473973055458069,2.09411208400726,-1.6974592403411901,0.915431713088312
3.95030303030303,-1.11823330936432,-1.90796555271149,-0.6101203731536861,0.915431713088312
3.950909090909091,0.608575772666931,0.937317650413513,-1.62081861534119,0.915431713088312
3.951515151515152,-0.44044278202056897,2.03663161525726,0.937062244033814,0.915431713088312
3.952121212121212,0.0313760656356811,-2.54743576755524,0.699955310440064,0.915431713088312
3.952727272727273,0.122386807823181,1.17921462306976,-0.492764416122436,0.915431713088312
3.953333333333333,-1.23798428592682,0.774456322288513,-1.03643384971619,0.915431713088312
3.953939393939394,0.895978116416931,-2.4468449472427403,-0.293977795028686,0.915431713088312
3.954545454545455,0.43613436641693104,2.03902663478851,1.59329759559631,0.915431713088312
3.955151515151515,-0.368592196083069,-0.638605201148987,0.0509050174713138,0.915431713088312
3.955757575757576,-0.23207608280181902,-1.34034592380524,0.601759509658814,0.915431713088312
3.956363636363636,0.15352206172943098,3.35628737697601,-0.507134533309936,0.915431713088312
3.956969696969697,-0.165015535926819,-3.0288346933364902,-1.9752815059661901,0.915431713088312
3.957575757575758,0.00503085079193113,-0.19313156833648698,-0.7274763301849361,0.915431713088312
3.958181818181818,-0.579353914833069,3.82092116603851,1.52863206825256,0.915431713088312
3.958787878787879,-0.169805574989319,-2.22171311130524,0.7502507205963139,0.915431713088312
3.959393939393939,0.967828702354431,0.664285423851013,-1.79086500205994,0.915431713088312
3.96,-1.0272225671768198,-0.21229172458648699,0.206581287002564,0.915431713088312
3.960606060606061,0.122386807823181,-1.16790451755524,0.575414294815064,0.915431713088312
3.961212121212121,0.345123624229431,2.33361403713226,0.582599353408814,0.915431713088312
3.961818181818182,-0.0332894617080689,-1.35711106052399,1.84237962684631,0.915431713088312
3.962424242424242,0.907953214073181,-1.58703293552399,0.0173747440338138,0.915431713088312
3.963030303030303,-0.996087313270569,2.97068923244476,-1.20169019737244,0.915431713088312
3.963636363636364,-0.23686612186431902,-1.83611496677399,-1.09630933799744,0.915431713088312
3.964242424242424,0.919928311729431,-0.662555396461487,0.18502611122131402,0.915431713088312
3.964848484848485,-0.517083407020569,2.82938308010101,0.206581287002564,0.915431713088312
3.965454545454545,-0.598514071083069,-2.35104416599274,0.15868089637756402,0.915431713088312
3.966060606060606,0.575045499229431,1.4977522207260099,0.0772502323150638,0.915431713088312
3.966666666666667,0.026586026573181102,0.805591576194763,-1.10828443565369,0.915431713088312
3.967272727272727,0.0912515539169311,-3.71381027927399,-0.349063244247436,0.915431713088312
3.967878787878788,0.012215909385681099,2.87728347072601,1.12147874794006,0.915431713088312
3.968484848484849,-0.48115811405181896,0.240366966819763,1.42085618934631,0.915431713088312
3.969090909090909,1.10913485469818,-1.82653488864899,-0.576590099716186,0.915431713088312
3.96969696969697,-0.268001375770569,1.9096955801010098,-0.8089069942474361,0.915431713088312
3.97030303030303,-1.01764248905182,-1.9654460214614902,-0.6628108028411861,0.915431713088312
3.970909090909091,0.754671964073181,0.37688308010101296,-1.3382063106536901,0.915431713088312
3.9715151515151508,-0.531453524208069,2.40546462306976,1.34421556434631,0.915431713088312
3.972121212121212,0.19663241329193099,-2.50432541599274,0.898741931533814,0.915431713088312
3.972727272727273,0.409789151573181,0.755296166038513,-0.6843659786224361,0.915431713088312
3.973333333333333,-1.4679061609268198,1.1432893301010099,-1.54896802940369,0.915431713088312
3.973939393939394,0.673241300010681,-2.48277024021149,-0.16943677940368598,0.915431713088312
3.974545454545455,0.402604092979431,2.3000837636947598,2.05074632606506,0.915431713088312
3.975151515151515,-0.289556551551819,-0.916427466773987,0.20418626747131402,0.915431713088312
3.975757575757576,0.06490633907318111,-1.5032072519302402,0.814916247940064,0.915431713088312
3.976363636363636,0.0984366125106811,3.29641188869476,-0.8879426387786861,0.915431713088312
3.976969696969697,-0.138670321083069,-3.31384201755524,-2.4015949825286897,0.915431713088312
3.977575757575758,0.318778409385681,-0.549989478492737,0.0365349002838138,0.915431713088312
3.978181818181818,-0.38056729373931897,4.23525954494476,1.96452562294006,0.915431713088312
3.978787878787879,-0.258421297645569,-2.25524338474274,0.0916203495025638,0.915431713088312
3.979393939393939,0.979803800010681,0.22120681056976302,-2.2219685176849397,0.915431713088312
3.98,-1.31941494998932,0.32658766994476296,-0.899917736434936,0.915431713088312
3.980606060606061,0.220582608604431,-1.6109831308364901,0.0748552127838138,0.915431713088312
3.981212121212121,0.22297762813568098,2.31924391994476,1.54779222450256,0.915431713088312
3.981818181818182,0.129571866416931,-0.839786841773987,1.76573900184631,0.915431713088312
3.982424242424242,0.613365811729431,-1.4529118417739901,-0.911892834091186,0.915431713088312
3.983030303030303,-0.9242367273330689,2.65454665431976,-1.68787916221619,0.915431713088312
3.983636363636364,-0.299136629676819,-1.8456950448989902,-0.8879426387786861,0.915431713088312
3.984242424242424,1.0995547765731801,-0.554779517555237,1.1166887088775599,0.915431713088312
3.984848484848485,-0.251236239051819,3.2748567129135098,0.723905505752564,0.915431713088312
3.985454545454545,-1.05356778202057,-2.25763840427399,0.290406970596314,0.915431713088312
3.986060606060606,0.49600985469818104,1.2199299551010099,-1.0388288692474401,0.915431713088312
3.9866666666666672,-0.193755770301819,0.767271263694763,-2.6842072872161897,0.915431713088312
3.987272727272727,0.194237393760681,-3.4383830331802403,0.982567615127564,0.915431713088312
3.9878787878787882,-0.18178067264556902,3.18863600978851,2.45071458778381,0.915431713088312
3.988484848484848,-0.17699063358306902,-0.243426978492737,1.73460374794006,0.915431713088312
3.9890909090909092,0.924718350791931,-1.9151506113052401,-1.78367994346619,0.915431713088312
3.98969696969697,-0.29195157108306896,1.58636794338226,-1.73817457237244,0.915431713088312
3.9903030303030302,-0.936211824989319,-1.51757736911774,-0.392173595809936,0.915431713088312
3.990909090909091,0.836102628135681,0.309822533226013,-0.236497326278686,0.915431713088312
3.991515151515152,-0.596119051551819,2.87967849025726,2.51298509559631,0.915431713088312
3.992121212121212,0.239742764854431,-2.32948899021149,0.182631091690064,0.915431713088312
3.992727272727273,0.0696963781356811,-0.0326652597427368,-2.39680494346619,0.915431713088312
3.993333333333333,-1.20445401248932,1.60792311916351,-2.1213776973724396,0.915431713088312
3.993939393939394,0.836102628135681,-2.39415451755524,1.28913011512756,0.915431713088312
3.994545454545455,0.464874600791931,2.5563508535385098,2.81715257606506,0.915431713088312
3.995151515151515,-0.354222078895569,-1.05773361911774,0.8316813846588139,0.915431713088312
3.995757575757576,-0.368592196083069,-1.30442063083649,-0.176621837997436,0.915431713088312
3.996363636363636,0.22297762813568098,2.96110915431976,-1.95133131065369,0.915431713088312
3.996969696969697,-0.497923250770569,-3.39048264255524,-1.17294996299744,0.915431713088312
3.997575757575758,0.630130948448181,-0.159601294898987,1.28913011512756,0.915431713088312
3.998181818181818,-0.866756258583069,4.4340461660385095,1.46636156044006,0.915431713088312
3.998787878787879,-0.303926668739319,-1.99418625583649,-0.641255627059936,0.915431713088312
3.999393939393939,0.840892667198181,-0.36317795505523703,-2.62912183799744,0.915431713088312
4.0,-1.05356778202057,0.441548607444763,-0.950213146591186,0.6563182754840045
4.000606060606061,0.507984952354431,-1.05773361911774,0.5514640995025639,0.6563182754840045
4.001212121212121,0.199027432823181,2.3264289785385097,2.2495329471588104,0.6563182754840045
4.001818181818182,-0.105140047645569,-0.753566138648987,1.65796312294006,0.6563182754840045
4.002424242424242,0.06730135860443111,-2.12351731052399,-1.87948072471619,0.6563182754840045
4.003030303030303,-0.720660067176819,2.54198073635101,-1.8555305294036901,0.6563182754840045
4.003636363636364,-0.129090242958069,-1.8624601816177402,0.24011156044006401,0.6563182754840045
4.004242424242424,1.01812411251068,-0.487718970680237,1.92860032997131,0.6563182754840045
4.004848484848485,-0.17220059452056902,3.26527663478851,0.197001208877564,0.6563182754840045
4.005454545454545,-1.0487777429580698,-2.77017258396149,-0.0257356075286862,0.6563182754840045
4.006060606060606,0.424159268760681,1.2510652090072598,-1.79326002159119,0.6563182754840045
4.006666666666667,-0.36140713748931896,0.781641380882263,-1.86750562705994,0.6563182754840045
4.007272727272727,0.0816714757919311,-2.83723313083649,1.37535081825256,0.6563182754840045
4.007878787878788,0.340333585166931,3.32036208400726,2.43394945106506,0.6563182754840045
4.008484848484849,-0.541033602333069,-0.0709855722427368,0.822101306533814,0.6563182754840045
4.009090909090909,0.867237882041931,-2.31272385349274,-2.43991529502869,0.6563182754840045
4.00969696969697,-0.15064541873931903,1.7683894277572598,-1.16815992393494,0.6563182754840045
4.01030303030303,-0.632044344520569,-1.12000412693024,0.0221647830963138,0.6563182754840045
4.010909090909091,0.699586514854431,-0.0614054941177368,0.644869861221314,0.6563182754840045
4.011515151515151,-0.275186434364319,3.1551057363510098,1.82321947059631,0.6563182754840045
4.012121212121212,0.309198331260681,-2.64084152927399,-0.9621882442474361,0.6563182754840045
4.012727272727273,0.151127042198181,-0.183551490211487,-2.35369459190369,0.6563182754840045
4.013333333333333,-0.9841122156143189,1.97196608791351,-0.6077253536224361,0.6563182754840045
4.013939393939394,0.584625577354431,-1.77863449802399,1.88548997840881,0.6563182754840045
4.014545454545455,0.622945889854431,2.3431941152572597,1.72502366981506,0.6563182754840045
4.015151515151515,-0.701499910926819,-1.39782639255524,-0.818487072372436,0.6563182754840045
4.015757575757576,0.026586026573181102,-1.2086198495864902,-0.5670100215911861,0.6563182754840045
4.016363636363636,0.215792569541931,2.7359773183822598,-1.35976148643494,0.6563182754840045
4.016969696969697,-0.426072664833069,-3.11266037693024,-0.109561291122436,0.6563182754840045
4.017575757575758,0.852867764854431,-0.573939673805237,1.72741868934631,0.6563182754840045
4.018181818181818,-0.881126375770569,4.18496413478851,0.479613513565064,0.6563182754840045
4.0187878787878795,-0.385357332801819,-2.12830734958649,-2.26028883018494,0.6563182754840045
4.019393939393939,0.826522550010681,-0.564359595680237,-1.96809644737244,0.6563182754840045
4.02,-0.727845125770569,1.33728591213226,0.146705798721314,0.6563182754840045
4.020606060606061,0.582230557823181,-1.33795090427399,0.503563708877564,0.6563182754840045
4.0212121212121215,0.13675692501068099,2.1204572988510098,1.8184294315338099,0.6563182754840045
4.0218181818181815,0.105621671104431,-0.715245826148987,0.678400134658814,0.6563182754840045
4.022424242424242,0.421764249229431,-2.82765305271149,-2.31537427940369,0.6563182754840045
4.023030303030303,-0.567378817176819,2.53479567775726,-0.9478181270599361,0.6563182754840045
4.023636363636364,-0.0524496179580689,-0.9858830331802371,1.55258226356506,0.6563182754840045
4.0242424242424235,1.0684195226669302,-0.425448462867737,1.66993822059631,0.6563182754840045
4.024848484848485,-0.593724032020569,2.75992751369476,-0.756216564559936,0.6563182754840045
4.025454545454546,-0.876336336708069,-2.67676682224274,-1.06996412315369,0.6563182754840045
4.026060606060606,0.843287686729431,1.11933913478851,-1.50106763877869,0.6563182754840045
4.026666666666667,-0.634439364051819,1.00437819728851,-1.29749097862244,0.6563182754840045
4.027272727272727,-0.0284994226455689,-2.62886643161774,1.72262865028381,0.6563182754840045
4.027878787878788,0.23255770626068098,3.02098464260101,1.73220872840881,0.6563182754840045
4.028484848484848,-0.742215242958069,-0.116490943336487,-0.325113048934936,0.6563182754840045
4.029090909090909,0.649291104698181,-2.81567795505524,-2.45668043174744,0.6563182754840045
4.02969696969697,0.06730135860443111,1.89293044338226,-0.693946056747436,0.6563182754840045
4.03030303030303,-0.414097567176819,-0.7655412363052371,0.814916247940064,0.6563182754840045
4.030909090909091,0.6325259679794311,-0.621840064430237,1.24362474403381,0.6563182754840045
4.031515151515151,-0.318296785926819,3.44490309963226,0.862816638565064,0.6563182754840045
4.032121212121212,0.199027432823181,-3.03122971286774,-2.37524976768494,0.6563182754840045
4.032727272727273,-0.325481844520569,-0.21229172458648699,-2.82551343955994,0.6563182754840045
4.033333333333333,-0.696709871864319,2.39827956447601,0.944247302627564,0.6563182754840045
4.033939393939394,0.718746671104431,-1.79779465427399,2.68063646278381,0.6563182754840045
4.034545454545455,0.8504727453231811,2.06297683010101,0.486798572158814,0.6563182754840045
4.035151515151515,-0.890706453895569,-1.00264816989899,-0.9454231075286861,0.6563182754840045
4.035757575757576,-0.0931649499893189,-1.57026779880524,-1.16815992393494,0.6563182754840045
4.036363636363636,0.309198331260681,2.32403395900726,-1.11786451377869,0.6563182754840045
4.036969696969697,-0.179385653114319,-2.10914719333649,1.63401292762756,0.6563182754840045
4.037575757575758,1.2360708898544301,-1.2469401620864902,2.43634447059631,0.6563182754840045
4.038181818181818,-1.3218099695205698,3.93588210353851,-0.590960216903686,0.6563182754840045
4.038787878787879,-0.677549715614319,-2.30314377536774,-3.1464460567474397,0.6563182754840045
4.039393939393939,0.637316007041931,-0.7870964120864871,-1.68069410362244,0.6563182754840045
4.04,-0.517083407020569,2.41504470119476,1.29392015419006,0.6563182754840045
4.040606060606061,-0.0859798913955689,-1.4361467050552401,0.637684802627564,0.6563182754840045
4.041212121212121,0.0433511632919311,2.04142165431976,1.83998460731506,0.6563182754840045
4.041818181818182,0.0912515539169311,0.060740501976013196,-0.679575939559936,0.6563182754840045
4.042424242424242,0.11520174922943101,-3.46951828708649,-2.44231031455994,0.6563182754840045
4.043030303030303,-0.572168856239319,2.6090412832260097,0.278431872940064,0.6563182754840045
4.043636363636364,0.0194009679794311,-0.389523169898987,2.57046556434631,0.6563182754840045
4.044242424242424,1.1211099523544301,-0.9667228769302371,1.37295579872131,0.6563182754840045
4.044848484848485,-0.596119051551819,2.17554274806976,-1.84116041221619,0.6563182754840045
4.045454545454545,-1.0918880945205698,-2.39175949802399,-1.16815992393494,0.6563182754840045
4.046060606060606,0.646896085166931,0.973242943382263,-1.6160285762786901,0.6563182754840045
4.046666666666667,-0.375777254676819,1.41153151760101,0.5059587284088141,0.6563182754840045
4.047272727272727,0.342728604698181,-2.08998703708649,1.41127611122131,0.6563182754840045
4.047878787878788,0.311593350791931,2.1468025136947597,0.343097400283814,0.6563182754840045
4.048484848484848,-1.14936856327057,0.182886498069763,-1.62800367393494,0.6563182754840045
4.049090909090909,0.824127530479431,-3.15577072849274,-1.73098951377869,0.6563182754840045
4.04969696969697,0.189447354698181,2.15877761135101,0.743065662002564,0.6563182754840045
4.05030303030303,-0.303926668739319,-0.42305344333648703,1.0568132205963099,0.6563182754840045
4.050909090909091,0.270878018760681,-1.3163957284927401,1.6771232791900599,0.6563182754840045
4.051515151515152,-0.46199795780181896,3.36347243556976,-0.5262946895599361,0.6563182754840045
4.052121212121212,0.0792764562606811,-3.22283127536774,-2.9428693965911896,0.6563182754840045
4.052727272727273,-0.30153164920806896,-0.26258713474273704,-1.57052320518494,0.6563182754840045
4.053333333333333,-0.416492586708069,3.18863600978851,2.05553636512756,0.6563182754840045
4.053939393939394,0.699586514854431,-1.53194748630524,2.01482103309631,0.6563182754840045
4.054545454545455,0.658871182823181,1.2247199941635099,-1.25198560752869,0.6563182754840045
4.055151515151515,-1.19247891483307,-0.808651587867737,-1.18492506065369,0.6563182754840045
4.055757575757576,-0.0835848718643189,-1.6325383066177401,-0.959793224716186,0.6563182754840045
4.056363636363636,0.220582608604431,2.18751784572601,-0.425703869247436,0.6563182754840045
4.056969696969697,0.175077237510681,-1.17987961521149,2.46029466590881,0.6563182754840045
4.057575757575758,0.8911880773544311,-1.3020256113052402,1.0400480838775599,0.6563182754840045
4.058181818181818,-1.4295858484268198,3.29641188869476,-1.76212476768494,0.6563182754840045
4.058787878787879,-0.387752352333069,-2.5234855722427403,-2.66504713096619,0.6563182754840045
4.059393939393939,0.919928311729431,-0.444608619117737,-0.935843029403686,0.6563182754840045
4.0600000000000005,-0.629649324989319,2.68089186916351,1.82561449012756,0.6563182754840045
4.0606060606060606,-0.339851961708069,-1.84330002536774,0.738275622940064,0.6563182754840045
4.061212121212121,0.421764249229431,1.6175031972885099,0.383812732315064,0.6563182754840045
4.061818181818182,-0.323086824989319,0.22599684963226302,-1.76691480674744,0.6563182754840045
4.0624242424242425,0.18226229610443098,-3.64914475193024,-1.44358717002869,0.6563182754840045
4.0630303030303025,-0.253631258583069,2.5060554433822597,1.31547532997131,0.6563182754840045
4.063636363636364,0.0194009679794311,0.35772292385101295,2.6782414432525603,0.6563182754840045
4.064242424242424,0.984593839073181,-1.4313566659927401,0.443688220596314,0.6563182754840045
4.064848484848485,-0.799695711708069,1.6175031972885099,-2.38243482627869,0.6563182754840045
4.0654545454545445,-0.931421785926819,-2.3438591073989903,-1.36455152549744,0.6563182754840045
4.066060606060606,0.764252042198181,1.1983747793197599,-1.58249830284119,0.6563182754840045
4.066666666666667,-0.19615078983306902,2.13961745510101,1.50947191200256,0.6563182754840045
4.067272727272727,0.275668057823181,-2.48277024021149,1.81124437294006,0.6563182754840045
4.067878787878788,0.19663241329193099,1.40674147853851,-0.796931896591186,0.6563182754840045
4.068484848484848,-1.34576016483307,0.958872826194763,-1.59686842002869,0.6563182754840045
4.069090909090909,0.694796475791931,-2.74143234958649,-0.8855476192474361,0.6563182754840045
4.06969696969697,0.354703702354431,1.8785603261947599,1.54300218544006,0.6563182754840045
4.07030303030303,-0.373382235145569,-0.494904029273987,1.36098070106506,0.6563182754840045
4.070909090909091,0.06730135860443111,-0.863737037086487,1.28194505653381,0.6563182754840045
4.071515151515152,-0.174595614051819,3.24851149806976,-1.02206373252869,0.6563182754840045
4.072121212121212,-0.193755770301819,-3.3018669198989903,-3.3955280879974397,0.6563182754840045
4.072727272727273,-0.0332894617080689,-0.0518254159927368,-1.17294996299744,0.6563182754840045
4.073333333333333,-0.325481844520569,3.4975935293197598,2.41478929481506,0.6563182754840045
4.073939393939394,0.194237393760681,-1.9007804941177402,1.79208421669006,0.6563182754840045
4.074545454545455,0.9702237218856811,0.513399193382263,-2.09263746299744,0.6563182754840045
4.075151515151515,-1.3816854578018198,-0.233846900367737,-0.5694050411224361,0.6563182754840045
4.075757575757576,0.0241910070419311,-1.47925705661774,0.120360583877564,0.6563182754840045
4.076363636363636,0.400209073448181,1.89053542385101,0.352677478408814,0.6563182754840045
4.076969696969697,-0.0596346765518189,-1.1367692636489901,2.38365404090881,0.6563182754840045
4.077575757575758,0.709166592979431,-1.1271891855239902,0.256876697158814,0.6563182754840045
4.078181818181818,-1.2715145593643198,3.04253981838226,-1.85074049034119,0.6563182754840045
4.078787878787879,-0.335061922645569,-2.38217941989899,-2.04234205284119,0.6563182754840045
4.079393939393939,0.884003018760681,-0.370363013648987,0.175446033096314,0.6563182754840045
4.08,-0.24165616092681902,3.18384597072601,1.9166252323150599,0.6563182754840045
4.080606060606061,-0.694314852333069,-2.04687668552399,0.453268298721314,0.6563182754840045
4.081212121212121,0.18226229610443098,1.2127448965072598,0.0149797245025638,0.6563182754840045
4.081818181818182,0.00982088985443113,0.635545189476013,-1.05319898643494,0.6563182754840045
4.082424242424242,0.299618253135681,-3.37371750583649,-0.519109630966186,0.6563182754840045
4.083030303030303,-0.299136629676819,2.70005202541351,1.55497728309631,0.6563182754840045
4.083636363636364,-0.109930086708069,0.214021751976013,1.97410570106506,0.6563182754840045
4.084242424242424,1.02770419063568,-1.6612785409927402,-0.715501232528686,0.6563182754840045
4.084848484848485,-0.418887606239319,1.73964919338226,-1.58489332237244,0.6563182754840045
4.085454545454545,-0.929026766395569,-2.10914719333649,-0.756216564559936,0.6563182754840045
4.086060606060606,0.637316007041931,0.882232201194763,-1.13941968955994,0.6563182754840045
4.086666666666667,-0.359012117958069,2.4461799551010097,1.70346849403381,0.6563182754840045
4.087272727272727,0.194237393760681,-2.74861740818024,0.9681974979400639,0.6563182754840045
4.087878787878788,0.318778409385681,0.738531029319763,-1.17294996299744,0.6563182754840045
4.088484848484848,-1.35055020389557,1.00677321681976,-1.87229566612244,0.6563182754840045
4.089090909090909,0.8911880773544311,-2.4468449472427403,0.374232654190064,0.6563182754840045
4.08969696969697,0.7905972570419311,2.0270515371322597,2.2231877323150604,0.6563182754840045
4.09030303030303,-0.24644619998931902,-0.993068091773987,-0.23889234580993599,0.6563182754840045
4.090909090909091,0.11759676876068101,-1.23736008396149,0.247296619033814,0.6563182754840045
4.091515151515152,-0.0045492273330688705,3.16229079494476,-0.919077892684936,0.6563182754840045
4.092121212121212,-0.263211336708069,-3.52699875583649,-2.0327619747161902,0.6563182754840045
4.092727272727273,0.345123624229431,-0.269772193336487,0.225741443252564,0.6563182754840045
4.093333333333333,-0.5458236413955689,4.0676081777572595,1.83998460731506,0.6563182754840045
4.093939393939394,-0.327876864051819,-2.11633225193024,-0.147881603622436,0.6563182754840045
4.094545454545455,1.01572909297943,0.130196068382263,-2.47584058799744,0.6563182754840045
4.095151515151515,-0.967347078895569,0.118220970726013,-0.365828380966186,0.6563182754840045
4.095757575757576,0.108016690635681,-1.27807541599274,0.783780994033814,0.6563182754840045
4.096363636363636,0.275668057823181,2.39827956447601,1.50228685340881,0.6563182754840045
4.096969696969697,-0.112325106239319,-0.8254167245864871,1.38732591590881,0.6563182754840045
4.097575757575758,0.618155850791931,-1.86006516208649,-1.13941968955994,0.6563182754840045
4.098181818181818,-0.644019442176819,2.79345778713226,-1.74775465049744,0.6563182754840045
4.098787878787879,-0.275186434364319,-2.00855637302399,-0.274817638778686,0.6563182754840045
4.099393939393939,0.785807217979431,-0.29372238864898703,1.20769945106506,0.6563182754840045
4.1,-0.414097567176819,3.04253981838226,-0.20536207237243598,0.6929432039194899
4.1006060606060615,-0.739820223426819,-2.65521164646149,-0.39696363487243597,0.6929432039194899
4.101212121212121,0.860052823448181,1.0834138418197599,-0.9454231075286861,0.6929432039194899
4.101818181818182,-0.12430020389556899,0.760086205101013,-1.66632398643494,0.6929432039194899
4.102424242424242,0.00982088985443113,-3.03841477146149,0.8101262088775639,0.6929432039194899
4.1030303030303035,0.124781827354431,2.85812331447601,1.72262865028381,0.6929432039194899
4.1036363636363635,-0.26081631717681897,0.08469069728851321,0.877186755752564,0.6929432039194899
4.104242424242424,0.639711026573181,-2.3534391855239902,-1.78607496299744,0.6929432039194899
4.104848484848485,-0.418887606239319,1.79473464260101,-1.06038404502869,0.6929432039194899
4.1054545454545455,-0.792510653114319,-1.37387619724274,0.0940153690338138,0.6929432039194899
4.1060606060606055,0.637316007041931,0.360117943382263,-0.555034923934936,0.6929432039194899
4.106666666666667,-0.174595614051819,2.73358229885101,0.980172595596314,0.6929432039194899
4.107272727272727,0.194237393760681,-2.86118332614899,-0.468814220809936,0.6929432039194899
4.107878787878788,0.06730135860443111,0.443943626976013,-1.71661939659119,0.6929432039194899
4.108484848484849,-1.29306973514557,1.66779860744476,-0.674785900497436,0.6929432039194899
4.109090909090909,0.773832120323181,-2.19536789646149,1.27715501747131,0.6929432039194899
4.10969696969697,0.725931729698181,2.3431941152572597,1.67472825965881,0.6929432039194899
4.11030303030303,-0.735030184364319,-1.16071945896149,-0.298767834091186,0.6929432039194899
4.110909090909091,-0.107535067176819,-1.5079972909927402,-0.660415783309936,0.6929432039194899
4.111515151515152,0.251717862510681,3.2077961660385097,-0.325113048934936,0.6929432039194899
4.112121212121212,-0.16262051639556901,-2.8923185800552402,-0.21494215049743598,0.6929432039194899
4.112727272727273,0.220582608604431,-0.633815162086487,0.917902087783814,0.6929432039194899
4.113333333333333,-0.8044857507705689,4.25681472072601,0.961012439346314,0.6929432039194899
4.113939393939394,-0.289556551551819,-2.3270939706802403,-1.62800367393494,0.6929432039194899
4.114545454545455,0.898373135948181,-0.418263404273987,-1.5944734004974401,0.6929432039194899
4.115151515151515,-0.593724032020569,1.12412917385101,0.288011951065064,0.6929432039194899
4.115757575757576,0.32835848751068103,-1.21580490818024,0.36225755653381403,0.6929432039194899
4.116363636363636,0.23734774532318098,2.3767243886947598,1.20290941200256,0.6929432039194899
4.116969696969697,0.15352206172943098,-0.777516333961487,0.7095353885650639,0.6929432039194899
4.117575757575758,0.608575772666931,-2.51390549411774,-1.96570142784119,0.6929432039194899
4.118181818181818,-0.418887606239319,2.52521559963226,-0.8687824825286861,0.6929432039194899
4.118787878787879,-0.107535067176819,-1.26131027927399,1.50947191200256,0.6929432039194899
4.119393939393939,0.776227139854431,-0.384733130836487,1.61964281044006,0.6929432039194899
4.12,-0.543428621864319,2.88925856838226,-0.880757580184936,0.6929432039194899
4.120606060606061,-0.866756258583069,-2.81088791599274,-0.693946056747436,0.6929432039194899
4.121212121212121,0.654081143760681,1.11933913478851,-0.739451427841186,0.6929432039194899
4.121818181818182,-0.165015535926819,1.09778395900726,-1.36215650596619,0.6929432039194899
4.122424242424242,0.0720913976669311,-3.26594162693024,1.19332933387756,0.6929432039194899
4.123030303030303,0.0720913976669311,2.98026931056976,1.64359300575256,0.6929432039194899
4.123636363636364,-0.497923250770569,-0.123676001930237,-0.35624830284118597,0.6929432039194899
4.124242424242424,0.8121524328231811,-2.6863469003677403,-1.6375837520599401,0.6929432039194899
4.124848484848485,0.139151944541931,2.09890212306976,-0.540664806747436,0.6929432039194899
4.125454545454545,-0.634439364051819,-1.0289933847427402,0.8700016971588139,0.6929432039194899
4.126060606060606,0.778622159385681,-0.45179367771148704,0.635289783096314,0.6929432039194899
4.126666666666667,-0.512293367958069,2.79824782619476,0.467638415908814,0.6929432039194899
4.127272727272727,0.139151944541931,-2.5234855722427403,-1.78846998252869,0.6929432039194899
4.127878787878788,-0.12190518436431899,0.0296052480697632,-2.10700758018494,0.6929432039194899
4.128484848484849,-1.11823330936432,2.20907302150726,0.5921794315338139,0.6929432039194899
4.129090909090909,0.869632901573181,-1.64690842380524,1.38732591590881,0.6929432039194899
4.12969696969697,0.452899503135681,2.04860671291351,0.879581775283814,0.6929432039194899
4.13030303030303,-0.8260409265518189,-1.3235807870864902,-0.7035261348724361,0.6929432039194899
4.130909090909091,-0.105140047645569,-1.51997238864899,-0.780166759872436,0.6929432039194899
4.131515151515151,0.740301846885681,2.91320876369476,-1.02206373252869,0.6929432039194899
4.132121212121212,-0.188965731239319,-2.8492082284927402,0.45087327919006404,0.6929432039194899
4.132727272727273,0.601390714073181,-1.13916428318024,2.01003099403381,0.6929432039194899
4.133333333333333,-0.893101473426819,4.15861891994476,0.297592029190064,0.6929432039194899
4.133939393939394,-0.6056991296768189,-2.31751389255524,-2.09263746299744,0.6929432039194899
4.134545454545455,0.816942471885681,-0.39191818943023704,-1.6759040645599401,0.6929432039194899
4.135151515151515,-0.581748934364319,1.61510817775726,0.817311267471314,0.6929432039194899
4.135757575757576,0.290038175010681,-1.4696769784927401,-0.052080822372436206,0.6929432039194899
4.136363636363636,0.0960415929794311,2.0869270254135097,1.70107347450256,0.6929432039194899
4.136969696969697,0.103226651573181,-0.736801001930237,0.7334855838775639,0.6929432039194899
4.137575757575758,0.25650790157318104,-2.61928635349274,-2.21957349815369,0.6929432039194899
4.138181818181818,-0.612884188270569,2.52761061916351,-0.23410230674743598,0.6929432039194899
4.138787878787879,-0.433257723426819,-0.983488013648987,1.48552171669006,0.6929432039194899
4.139393939393939,0.778622159385681,-0.8469719003677371,1.5358171268463099,0.6929432039194899
4.14,-0.488343172645569,2.44378493556976,-0.981348400497436,0.6929432039194899
4.140606060606061,-1.09667813358307,-2.54264572849274,-1.04122388877869,0.6929432039194899
4.141212121212121,0.603785733604431,1.3229157949447599,-1.24959058799744,0.6929432039194899
4.141818181818182,-0.29195157108306896,1.41153151760101,-0.5430598262786861,0.6929432039194899
4.142424242424242,0.273273038291931,-2.79172775974274,1.21009447059631,0.6929432039194899
4.143030303030303,-0.0859798913955689,2.90602370510101,1.20290941200256,0.6929432039194899
4.1436363636363645,-0.720660067176819,0.130196068382263,-0.34666822471618597,0.6929432039194899
4.144242424242424,0.666056241416931,-2.58815109958649,-1.31425611534119,0.6929432039194899
4.144848484848485,0.0409561437606811,1.9096955801010098,-0.217337170028686,0.6929432039194899
4.145454545454546,-0.548218660926819,-0.933192603492737,0.5706242557525639,0.6929432039194899
4.1460606060606064,0.5726504796981811,-0.676925513648987,1.09513353309631,0.6929432039194899
4.1466666666666665,-0.37098721561431897,3.10960036525726,0.6736100955963139,0.6929432039194899
4.1472727272727266,-0.24165616092681902,-3.03841477146149,-2.05431715049744,0.6929432039194899
4.147878787878788,-0.20573086795806902,-0.274562232398987,-2.46865552940369,0.6929432039194899
4.148484848484848,-0.7446102624893189,2.80064284572601,0.429318103408814,0.6929432039194899
4.149090909090909,0.704376553916931,-1.87922531833649,1.73220872840881,0.6929432039194899
4.14969696969697,0.747486905479431,1.6989338613510099,0.419738025283814,0.6929432039194899
4.15030303030303,-0.512293367958069,-0.7463810800552371,-0.246077404403686,0.6929432039194899
4.150909090909091,-0.12430020389556899,-1.4050114511489902,-0.559824962997436,0.6929432039194899
4.151515151515151,0.330753507041931,2.11087722072601,-1.44119215049744,0.6929432039194899
4.152121212121212,-0.299136629676819,-2.13309738864899,1.14303392372131,0.6929432039194899
4.152727272727273,1.07560458126068,-1.16071945896149,1.76573900184631,0.6929432039194899
4.153333333333333,-1.2020589929580698,3.98138747463226,-0.236497326278686,0.6929432039194899
4.153939393939394,-0.555403719520569,-2.11633225193024,-2.22675855674744,0.6929432039194899
4.154545454545455,0.804967374229431,-0.619445044898987,-1.64237379112244,0.6929432039194899
4.155151515151515,-0.483553133583069,2.3695393301010097,0.467638415908814,0.6929432039194899
4.155757575757576,0.0720913976669311,-1.86964524021149,0.161075915908814,0.6929432039194899
4.156363636363636,0.160707120323181,1.99591628322601,1.74657884559631,0.6929432039194899
4.156969696969697,0.22776766719818098,-0.121280982398987,0.455663318252564,0.6929432039194899
4.157575757575758,-0.157830477333069,-3.29947190036774,-2.1884382442474397,0.6929432039194899
4.158181818181818,-0.284766512489319,2.39109450588226,0.127545642471314,0.6929432039194899
4.158787878787879,-0.23207608280181902,-0.243426978492737,2.07469652137756,0.6929432039194899
4.159393939393939,1.06602450313568,-1.10084397068024,1.02088792762756,0.6929432039194899
4.16,-0.591329012489319,2.52521559963226,-0.856807384872436,0.6929432039194899
4.160606060606061,-0.912261629676819,-2.21452805271149,-0.978953380966186,0.6929432039194899
4.161212121212121,0.409789151573181,0.906182396507263,-1.98965162315369,0.6929432039194899
4.161818181818182,-0.363802157020569,1.52649245510101,-0.37780347862243596,0.6929432039194899
4.162424242424242,0.44810946407318103,-2.6528166269302402,1.89986009559631,0.6929432039194899
4.163030303030303,0.22776766719818098,2.16596266994476,0.994542712783814,0.6929432039194899
4.163636363636364,-1.28588467655182,0.408018334007263,-1.14420972862244,0.6929432039194899
4.164242424242424,0.43613436641693104,-2.7198771738052403,-1.56573316612244,0.6929432039194899
4.164848484848485,0.404999112510681,1.78275954494476,0.503563708877564,0.6929432039194899
4.165454545454545,-0.677549715614319,-0.5068791269302371,0.520328845596314,0.6929432039194899
4.166060606060606,0.29722323360443104,-0.9643278573989871,1.72741868934631,0.6929432039194899
4.166666666666667,-0.229681063270569,3.64608474025726,0.5682292362213139,0.6929432039194899
4.167272727272727,0.139151944541931,-3.20127609958649,-2.85185865440369,0.6929432039194899
4.167878787878788,-0.23686612186431902,-0.514064185523987,-2.0950324825286897,0.6929432039194899
4.168484848484848,-0.31111172733306897,3.0449348379135097,1.31547532997131,0.6929432039194899
4.169090909090909,0.29722323360443104,-1.72833908786774,2.1800773807525604,0.6929432039194899
4.16969696969697,0.864842862510681,1.16723952541351,-0.43767896690368596,0.6929432039194899
4.17030303030303,-1.00087735233307,-0.643395240211487,-0.293977795028686,0.6929432039194899
4.170909090909091,0.026586026573181102,-1.4744670175552401,-0.538269787216186,0.6929432039194899
4.171515151515152,0.46726962032318103,2.23541823635101,-0.442469005966186,0.6929432039194899
4.172121212121212,-0.174595614051819,-1.2684953378677402,2.1321769901275602,0.6929432039194899
4.172727272727273,0.9917788976669311,-1.65888352146149,1.74897386512756,0.6929432039194899
4.173333333333333,-1.36252530155182,3.51675368556976,-1.24959058799744,0.6929432039194899
4.173939393939394,-0.220100985145569,-2.3103288339614902,-2.5740363887786897,0.6929432039194899
4.174545454545455,0.826522550010681,-0.499694068336487,-0.897522716903686,0.6929432039194899
4.175151515151515,-0.349432039833069,2.60425124416351,0.9538273807525639,0.6929432039194899
4.175757575757576,-0.428467684364319,-1.9151506113052401,0.474823474502564,0.6929432039194899
4.176363636363636,0.570255460166931,1.97196608791351,1.1382438846588099,0.6929432039194899
4.176969696969697,0.22297762813568098,0.618780052757263,-0.959793224716186,0.6929432039194899
4.177575757575758,0.0385611242294311,-3.90541184177399,-1.7573347286224401,0.6929432039194899
4.178181818181818,-0.359012117958069,2.87249343166351,0.9514323612213139,0.6929432039194899
4.178787878787879,0.160707120323181,0.34574782619476296,2.4626896854400604,0.6929432039194899
4.179393939393939,1.03728426876068,-1.98939621677399,0.5323039432525639,0.6929432039194899
4.18,-0.550613680458069,2.11087722072601,-1.70943433799744,0.6929432039194899
4.180606060606061,-1.08949307498932,-2.21452805271149,-1.16815992393494,0.6929432039194899
4.181212121212121,0.666056241416931,1.14568434963226,-1.70464429893494,0.6929432039194899
4.181818181818182,-0.0141293054580689,1.8833503652572599,0.860421619033814,0.6929432039194899
4.182424242424242,0.18705233516693098,-2.18339279880524,1.32745042762756,0.6929432039194899
4.183030303030303,0.49600985469818104,1.82586989650726,0.0509050174713138,0.6929432039194899
4.183636363636364,-1.3553402429580699,0.604409935569763,-1.63279371299744,0.6929432039194899
4.184242424242424,0.802572354698181,-2.78454270114899,-0.658020763778686,0.6929432039194899
4.1848484848484855,0.474454678916931,2.03184157619476,1.36577074012756,0.6929432039194899
4.185454545454545,-0.385357332801819,-0.758356177711487,0.860421619033814,0.6929432039194899
4.186060606060606,0.0744864171981811,-1.37387619724274,1.52144700965881,0.6929432039194899
4.186666666666667,-0.294346590614319,3.49280349025726,-0.576590099716186,0.6929432039194899
4.1872727272727275,-0.27279141483306896,-3.17493088474274,-2.7967732051849397,0.6929432039194899
4.1878787878787875,-0.184175692176819,-0.238636939430237,-1.34299634971619,0.6929432039194899
4.188484848484848,-0.404517489051819,3.56944411525726,1.69628343544006,0.6929432039194899
4.189090909090909,-0.0045492273330688705,-2.03969162693024,1.61485277137756,0.6929432039194899
4.18969696969697,0.795387296104431,0.685840599632263,-1.1154694942474401,0.6929432039194899
4.1903030303030295,-1.1158382898330699,-0.28414231052398703,-0.535874767684936,0.6929432039194899
4.190909090909091,-0.100350008583069,-1.6157731698989901,0.0628801151275638,0.6929432039194899
4.191515151515152,0.17747225704193098,2.36714431056976,-0.691551037216186,0.6929432039194899
4.192121212121212,-0.217705965614319,-1.2684953378677402,2.11062181434631,0.6929432039194899
4.192727272727273,0.917533292198181,-1.4912321542739901,1.08555345497131,0.6929432039194899
4.193333333333333,-1.1541586023330699,3.25569655666351,-1.77170484580994,0.6929432039194899
4.193939393939394,-0.406912508583069,-2.03969162693024,-1.8938508419036901,0.6929432039194899
4.194545454545455,0.840892667198181,-0.375153052711487,-0.636465587997436,0.6929432039194899
4.195151515151515,-0.473973055458069,2.63299147853851,0.922692126846314,0.6929432039194899
4.195757575757576,-0.287161532020569,-1.9822111581802402,0.383812732315064,0.6929432039194899
4.196363636363636,0.40739413204193103,1.39476638088226,0.434108142471314,0.6929432039194899
4.196969696969697,-0.12190518436431899,0.561299584007263,-1.67829908409119,0.6929432039194899
4.197575757575758,0.19184237422943098,-3.68267502536774,-0.852017345809936,0.6929432039194899
4.198181818181818,-0.12430020389556899,2.90123366603851,1.25080980262756,0.6929432039194899
4.198787878787879,-0.148250399208069,0.158936302757263,2.23516282997131,0.6929432039194899
4.199393939393939,0.826522550010681,-1.93910080661774,-0.126326427841186,0.6874106554296032
4.2,-0.497923250770569,1.9983113027572599,-1.83876539268494,0.6874106554296032
4.200606060606061,-1.34097012577057,-2.1139372323989902,-1.20648023643494,0.6874106554296032
4.201212121212121,0.589415616416931,1.15765944728851,-1.65674390830994,0.6874106554296032
4.201818181818182,-0.428467684364319,1.98873122463226,2.1824724002838103,0.6874106554296032
4.202424242424242,0.160707120323181,-2.4133146738052402,1.1981193729400599,0.6874106554296032
4.203030303030303,0.409789151573181,1.41632155666351,-1.0555940059661901,0.6874106554296032
4.203636363636364,-1.4583260828018199,0.9301325918197629,-1.36455152549744,0.6874106554296032
4.204242424242424,0.757066983604431,-2.86836838474274,-0.344273205184936,0.6874106554296032
4.204848484848485,0.484034757041931,1.72767409572601,1.93099534950256,0.6874106554296032
4.205454545454545,-0.49073819217681897,-0.672135474586487,0.8484465213775639,0.6874106554296032
4.206060606060606,0.00982088985443113,-1.3619010995864902,0.7933610721588139,0.6874106554296032
4.206666666666667,0.124781827354431,3.12397048244476,-1.01966871299744,0.6874106554296032
4.207272727272727,-0.18178067264556902,-3.40964279880524,-2.6075666622161897,0.6874106554296032
4.207878787878788,0.28764315547943103,-0.339227759742737,-0.320323009872436,0.6874106554296032
4.208484848484848,-0.44044278202056897,3.87600661525726,2.2998283573150604,0.6874106554296032
4.209090909090909,-0.160225496864319,-2.06843186130524,0.937062244033814,0.6874106554296032
4.20969696969697,1.0947647375106802,0.44633864650726296,-2.1189826778411898,0.6874106554296032
4.21030303030303,-0.8643612390518189,-0.34401779880523703,-0.799326916122436,0.6874106554296032
4.210909090909091,0.22776766719818098,-1.50560227146149,-0.00418043174743622,0.6874106554296032
4.211515151515152,0.06730135860443111,2.21386306056976,0.618524646377564,0.6874106554296032
4.212121212121212,-0.198545809364319,-1.22059494724274,2.12499193153381,0.6874106554296032
4.212727272727273,0.769042081260681,-1.50081223239899,-0.19578199424743598,0.6874106554296032
4.213333333333333,-0.972137117958069,2.60425124416351,-2.08066236534119,0.6874106554296032
4.213939393939394,-0.21052090702056903,-2.24566330661774,-1.43400709190369,0.6874106554296032
4.214545454545455,0.960643643760681,-0.102120826148987,0.38141771278381403,0.6874106554296032
4.215151515151515,-0.22249600467681901,3.0353547597885098,1.2579948612213099,0.6874106554296032
4.215757575757576,-0.775745516395569,-2.32230393161774,0.661634997940064,0.6874106554296032
4.216363636363636,0.534330167198181,1.5121223379135098,-0.590960216903686,0.6874106554296032
4.216969696969697,-0.21052090702056903,0.8510969472885129,-2.14293287315369,0.6874106554296032
4.217575757575758,0.206212491416931,-3.59884934177399,-0.265237560653686,0.6874106554296032
4.218181818181818,-0.133880282020569,3.05930495510101,1.92141527137756,0.6874106554296032
4.218787878787879,-0.335061922645569,0.23078688869476302,1.78968919715881,0.6874106554296032
4.219393939393939,1.00854403438568,-1.67325363864899,-0.8855476192474361,0.6874106554296032
4.22,-0.45241787967681896,1.6701936269760098,-1.58249830284119,0.6874106554296032
4.220606060606061,-0.926631746864319,-2.14986252536774,-1.20887525596619,0.6874106554296032
4.221212121212121,0.716351651573181,0.501424095726013,-1.06756910362244,0.6874106554296032
4.221818181818182,-0.287161532020569,2.4797102285385098,2.1657072635650603,0.6874106554296032
4.222424242424242,0.313988370323181,-2.20255295505524,1.02807298622131,0.6874106554296032
4.223030303030303,0.31638338985443104,0.5493244863510129,-1.52741285362244,0.6874106554296032
4.223636363636364,-1.53017666873932,1.3827912832260099,-2.36327467002869,0.6874106554296032
4.224242424242424,0.934298428916931,-2.64563156833649,0.0988054080963138,0.6874106554296032
4.224848484848485,0.5127749914169311,2.42462477931976,2.4195793338775604,0.6874106554296032
4.225454545454545,-0.466787996864319,-0.808651587867737,0.740670642471314,0.6874106554296032
4.226060606060606,-0.13148526248931902,-1.11281906833649,0.5730192752838139,0.6874106554296032
4.226666666666667,0.23255770626068098,3.17905593166351,-1.50106763877869,0.6874106554296032
4.227272727272727,-0.38056729373931897,-3.35934738864899,-2.48302564659119,0.6874106554296032
4.2278787878787885,0.390628995323181,-0.29372238864898703,0.122755603408814,0.6874106554296032
4.2284848484848485,-0.485948153114319,4.0149177480697595,1.91902025184631,0.6874106554296032
4.229090909090909,-0.368592196083069,-1.9917912363052401,-0.167041759872436,0.6874106554296032
4.22969696969697,1.08757967891693,-0.24821701755523698,-1.9537263301849401,0.6874106554296032
4.2303030303030305,-1.0655428796768198,0.264317162132263,-0.26763258018493596,0.6874106554296032
4.2309090909090905,0.239742764854431,-1.43375168552399,-0.107166271591186,0.6874106554296032
4.231515151515152,0.19663241329193099,2.32163893947601,1.66754320106506,0.6874106554296032
4.232121212121212,0.273273038291931,-0.818231665992737,2.6183659549713103,0.6874106554296032
4.232727272727273,0.345123624229431,-1.76186936130524,-1.11786451377869,0.6874106554296032
4.2333333333333325,-0.821250887489319,2.43180983791351,-2.02078687705994,0.6874106554296032
4.233939393939394,-0.279976473426819,-1.79779465427399,-0.43767896690368596,0.6874106554296032
4.234545454545455,1.0396792882919301,-0.439818580055237,1.15021898231506,0.6874106554296032
4.235151515151515,-0.368592196083069,3.03774977931976,0.419738025283814,0.6874106554296032
4.235757575757576,-1.05356778202057,-2.32230393161774,0.192211169815064,0.6874106554296032
4.236363636363636,0.402604092979431,1.0283283926010098,-0.9023127559661861,0.6874106554296032
4.236969696969697,-0.426072664833069,0.798406517601013,-2.1213776973724396,0.6874106554296032
4.237575757575758,0.103226651573181,-3.11984543552399,0.477218494033814,0.6874106554296032
4.238181818181818,-0.030894442176818897,3.27725173244476,2.2758781620025603,0.6874106554296032
4.238787878787879,-0.337456942176819,-0.121280982398987,0.659239978408814,0.6874106554296032
4.239393939393939,0.646896085166931,-2.51869553318024,-2.1812531856536896,0.6874106554296032
4.24,-0.239261141395569,1.8617951894760099,-0.916682873153686,0.6874106554296032
4.240606060606061,-0.811670809364319,-1.33076584568024,-0.0951911739349362,0.6874106554296032
4.241212121212121,0.673241300010681,-0.011110083961486801,0.0916203495025638,0.6874106554296032
4.241818181818182,-0.23207608280181902,2.96350417385101,1.62443284950256,0.6874106554296032
4.242424242424242,0.32596346797943104,-2.63365647068024,-0.217337170028686,0.6874106554296032
4.243030303030303,-0.112325106239319,0.12780104885101298,-2.30579420127869,0.6874106554296032
4.243636363636364,-1.4679061609268198,1.79473464260101,-0.899917736434936,0.6874106554296032
4.244242424242424,0.697191495323181,-2.11154221286774,1.19093431434631,0.6874106554296032
4.244848484848485,0.809757413291931,2.26415847072601,1.57653245887756,0.6874106554296032
4.245454545454545,-0.818855867958069,-1.1966447519302401,-0.5238996700286861,0.6874106554296032
4.246060606060606,-0.018919344520568898,-1.3930363534927401,-0.531084728622436,0.6874106554296032
4.246666666666667,0.428949307823181,3.11918044338226,-1.16815992393494,0.6874106554296032
4.247272727272727,-0.114720125770569,-3.2515715097427402,-1.09391431846619,0.6874106554296032
4.247878787878788,0.666056241416931,-0.820626685523987,1.42804124794006,0.6874106554296032
4.248484848484849,-0.890706453895569,4.45320632228851,0.9322722049713139,0.6874106554296032
4.249090909090909,-0.574563875770569,-2.27919358005524,-1.47232740440369,0.6874106554296032
4.24969696969697,1.09236971797943,-0.396708228492737,-1.98246656455994,0.6874106554296032
4.25030303030303,-0.634439364051819,1.2199299551010099,-0.21494215049743598,0.6874106554296032
4.250909090909091,0.048141202354431104,-1.33795090427399,0.0724601932525638,0.6874106554296032
4.251515151515151,0.428949307823181,2.13243239650726,2.01003099403381,0.6874106554296032
4.252121212121212,-0.0572396570205689,-0.600284888648987,0.920297107315064,0.6874106554296032
4.252727272727273,0.39781405391693103,-2.6001261972427403,-2.3105842403411896,0.6874106554296032
4.253333333333333,-0.663179598426819,2.16596266994476,-1.42442701377869,0.6874106554296032
4.253939393939394,-0.0883749109268189,-1.35711106052399,0.9514323612213139,0.6874106554296032
4.254545454545455,1.05883944454193,-0.808651587867737,2.11062181434631,0.6874106554296032
4.255151515151515,-0.107535067176819,2.8820735097885097,-0.571800060653686,0.6874106554296032
4.255757575757576,-0.943396883583069,-2.32948899021149,-0.631675548934936,0.6874106554296032
4.256363636363636,0.488824796104431,0.975637962913513,-1.39089674034119,0.6874106554296032
4.256969696969697,-0.406912508583069,0.9109724355697629,-1.85792554893494,0.6874106554296032
4.257575757575758,0.06490633907318111,-2.92824387302399,1.22206956825256,0.6874106554296032
4.258181818181818,0.282853116416931,3.03056472072601,1.9166252323150599,0.6874106554296032
4.258787878787879,-0.675154696083069,0.113430931663513,0.304777087783814,0.6874106554296032
4.259393939393939,0.852867764854431,-2.7462223886489903,-1.56812818565369,0.6874106554296032
4.26,0.0553262609481811,1.75401931056976,-1.0172736934661901,0.6874106554296032
4.260606060606061,-0.45241787967681896,-1.0673136972427402,0.156285876846314,0.6874106554296032
4.261212121212121,0.507984952354431,-0.47095383396148705,1.38972093544006,0.6874106554296032
4.261818181818182,-0.133880282020569,3.10720534572601,1.9166252323150599,0.6874106554296032
4.262424242424242,0.165497159385681,-2.5402507089614903,-0.990928478622436,0.6874106554296032
4.263030303030303,-0.23207608280181902,-0.116490943336487,-2.4806306270599396,0.6874106554296032
4.263636363636364,-0.919446688270569,2.40067458400726,-0.193386974716186,0.6874106554296032
4.264242424242424,1.15703524532318,-1.94628586521149,2.05553636512756,0.6874106554296032
4.264848484848485,0.943878507041931,2.09411208400726,1.13584886512756,0.6874106554296032
4.265454545454545,-0.792510653114319,-0.9475627206802371,-0.181411877059936,0.6874106554296032
4.266060606060606,-0.0931649499893189,-1.49362717380524,-0.921472912216186,0.6874106554296032
4.2666666666666675,0.433739346885681,2.54437575588226,-1.43400709190369,0.6874106554296032
4.267272727272727,-0.0261044031143189,-2.58815109958649,0.561044177627564,0.6874106554296032
4.267878787878788,0.754671964073181,-0.751171119117737,1.96931566200256,0.6874106554296032
4.268484848484848,-0.9841122156143189,4.1346687246322595,0.165865954971314,0.6874106554296032
4.2690909090909095,-0.806880770301819,-2.2408732675552403,-2.87101881065369,0.6874106554296032
4.2696969696969695,0.953458585166931,-0.636210181617737,-1.93456617393494,0.6874106554296032
4.27030303030303,-0.696709871864319,1.80431472072601,0.565834216690064,0.6874106554296032
4.270909090909091,0.0696963781356811,-1.66367356052399,0.388602771377564,0.6874106554296032
4.2715151515151515,0.129571866416931,2.1635676504135097,2.1896574588775604,0.6874106554296032
4.2721212121212115,0.0577212804794311,-0.257797095680237,0.266456775283814,0.6874106554296032
4.272727272727273,0.129571866416931,-3.08152512302399,-2.4207551387786896,0.6874106554296032
4.273333333333333,-0.718265047645569,2.23302321681976,-0.222127209091186,0.6874106554296032
4.273939393939394,0.11759676876068101,-0.46137375583648704,1.97410570106506,0.6874106554296032
4.274545454545455,1.00854403438568,-0.6457902597427371,1.81124437294006,0.6874106554296032
4.275151515151515,-0.45241787967681896,2.67849684963226,-1.30467603721619,0.6874106554296032
4.275757575757576,-0.9649520593643189,-2.46600510349274,-1.21606031455994,0.6874106554296032
4.276363636363636,0.409789151573181,1.1001789785385099,-2.04473707237244,0.6874106554296032
4.276969696969697,-0.375777254676819,1.16723952541351,-0.420913830184936,0.6874106554296032
4.277575757575758,0.615760831260681,-2.68155686130524,1.83758958778381,0.6874106554296032
4.278181818181818,0.270878018760681,2.84135817775726,0.855631579971314,0.6874106554296032
4.278787878787879,-1.1469735437393198,-0.30090744724273705,-0.631675548934936,0.6874106554296032
4.279393939393939,0.776227139854431,-2.5665959238052403,-1.49388258018494,0.6874106554296032
4.28,0.0146109289169311,1.9264607168197598,-0.0951911739349362,0.6874106554296032
4.280606060606061,-0.711079989051819,-0.753566138648987,0.9729875370025639,0.6874106554296032
4.281212121212121,0.570255460166931,-0.595494849586487,1.88309495887756,0.6874106554296032
4.281818181818182,-0.359012117958069,3.34670729885101,0.046114978408813796,0.6874106554296032
4.282424242424242,0.0792764562606811,-2.85160324802399,-2.72252759971619,0.6874106554296032
4.283030303030303,-0.17220059452056902,-0.267377173805237,-2.32974439659119,0.6874106554296032
4.283636363636364,-1.0272225671768198,2.81022292385101,1.18374925575256,0.6874106554296032
4.284242424242424,0.819337491416931,-1.90796555271149,1.96692064247131,0.6874106554296032
4.284848484848485,0.804967374229431,1.43308669338226,-0.17901685752868599,0.6874106554296032
4.285454545454545,-1.15655362186432,-0.858946998023987,-0.751426525497436,0.6874106554296032
4.286060606060606,0.0313760656356811,-1.51757736911774,-0.780166759872436,0.6874106554296032
4.286666666666667,0.395419034385681,2.20907302150726,-1.04361890830994,0.6874106554296032
