Time (s),Accel X (m/s^2),Accel Y (m/s^2),Accel Z (m/s^2)
1.844125,0.222880798244476,0.0648278460502624,-0.07454124069213851
1.8447306935190793,-0.0118311158180237,0.0384826312065124,0.428412860870362
1.8453363870381587,-0.136372131443024,-0.0022327008247375597,0.234416278839112
1.845942080557238,-0.0285962525367737,0.19415890073776199,-0.14160178756713798
1.8465477740763174,0.0240941771507263,0.07201290464401239,0.15777565383911202
1.8471534675953967,-0.045361389255523694,0.0983581194877624,-0.203872295379638
1.8477591611144761,0.036069274806976304,0.0121374163627624,0.210466083526612
1.8483648546335554,0.103129821681976,-0.0213928570747376,0.200886005401612
1.8489705481526348,0.0240941771507263,0.0145324358940124,0.0715549507141115
1.849576241671714,0.14624017324447602,0.08159298276901239,0.0116794624328615
1.8501819351907935,0.163005309963226,-0.033367954730987595,-0.00269065475463845
1.8507876287098728,0.0480443724632263,-0.16988406801223802,0.0404196968078615
1.8513933222289523,-0.0980518189430237,-0.145933872699738,-0.112861553192138
1.8519990157480315,-0.0309912720680237,-0.220179478168488,-0.0889113578796385
1.852604709267111,0.0121190794944763,-0.100428501605988,-0.115256572723388
1.8532104027861902,-0.0166211548805237,0.0696178851127624,-0.0410109672546385
1.8538160963052694,0.014514099025726299,0.055247767925262405,-0.172737041473388
1.854421789824349,0.038464294338226304,-0.105218540668488,0.200886005401612
1.8550274833434282,0.0887597044944763,-0.09803348207473761,-0.165551982879638
1.8556331768625076,0.258806091213226,-0.126773716449738,0.36374733352661204
1.8562388703815869,-0.0381763306617737,0.016927455425262403,0.727790302276612
1.8568445639006663,-0.17708746347427398,0.07919796323776239,-0.115256572723388
1.8574502574197456,0.00972405996322631,-0.155513950824738,-0.0625661430358885
1.858055950938825,-0.08128668222427371,0.196553920269012,0.10508522415161199
1.8586616444579043,-0.0980518189430237,-0.136353794574738,-0.00987571334838845
1.8592673379769835,-0.11002691659927401,-0.284845005512238,-0.0793312797546385
1.859873031496063,0.0791796263694763,0.136678431987762,0.17214577102661202
1.8604787250151422,0.107919860744476,-0.0022327008247375597,0.124245380401612
1.8610844185342217,-0.0932617798805237,-0.181859165668488,-0.0458010063171385
1.861690112053301,0.0552294310569763,-0.014207798480987601,0.026049579620361498
1.8622958055723804,0.14624017324447602,0.146258510112762,0.248786396026612
1.8629014990914596,-0.019016174411773702,-0.157908970355988,-0.00508567428588845
1.863507192610539,-0.00943609628677369,-0.0764783062934876,-0.127231670379638
1.8641128861296183,-0.11481695566177401,-0.038157993793487596,0.18172584915161202
1.8647185796486978,0.105524841213226,-0.00702273988723756,0.0284445991516115
1.865324273167777,0.170190368556976,0.050457728862762403,0.188910907745362
1.8659299666868565,-0.15792730722427398,-0.193834263324738,0.248786396026612
1.8665356602059358,-0.11721197519302401,0.131888392925262,-0.0625661430358885
1.8671413537250152,-0.08607672128677371,0.127098353862762,0.0571848335266115
1.8677470472440945,-0.10763189706802401,-0.09803348207473761,-0.00269065475463845
1.8683527407631737,-0.08368170175552371,-0.105218540668488,-0.163156963348388
1.8689584342822532,-0.145952209568024,-0.0429480328559876,0.126640399932862
1.8695641278013324,-0.160322326755524,-0.016602818012237598,0.313451923370362
1.8701698213204119,-0.00225103769302369,-0.0237878766059876,0.14340553665161201
1.8707755148394911,0.117499938869476,-0.22496951723098801,0.033234638214111496
1.8713812083585706,0.194140563869476,-0.030972935199737598,0.0380246772766115
1.8719869018776498,-0.07170660409927371,-0.105218540668488,-0.213452373504638
1.8725925953967293,-0.050151428318023696,-0.215389439105988,-0.110466533660888
1.8731982889158085,-0.0214111939430237,-0.105218540668488,0.0116794624328615
1.873803982434888,-0.0956567994117737,-0.155513950824738,-0.239797588348388
1.8744096759539672,-0.0118311158180237,-0.0189978375434876,0.0452097358703615
1.8750153694730467,-0.00225103769302369,0.0121374163627624,0.0547898139953615
1.875621062992126,0.014514099025726299,0.0480627093315124,0.0140744819641115
1.8762267565112054,-0.0645215455055237,-0.0213928570747376,-0.139206768035888
1.8768324500302846,0.316286559963226,0.0600378069877624,0.0547898139953615
1.8774381435493641,0.18216546621322602,0.050457728862762403,-0.0889113578796385
1.8780438370684434,-0.189062561130524,0.0217174944877624,-0.29488303756713796
1.8786495305875228,0.0648095091819763,-0.014207798480987601,0.0715549507141115
1.879255224106602,0.117499938869476,0.0217174944877624,-0.0434059867858885
1.8798609176256815,0.036069274806976304,-0.0716882672309876,-0.0673561820983885
1.8804666111447608,0.0911547240257263,0.0265075335502624,0.0835300483703615
1.88107230466384,-0.014226135349273701,-0.028577915668487597,0.0835300483703615
1.8816779981829195,-0.0333862915992737,-0.129168735980988,-0.07454124069213851
1.8822836917019987,0.0695995482444763,0.0648278460502624,0.10269020462036199
1.8828893852210782,0.0121190794944763,-0.145933872699738,-0.163156963348388
1.8834950787401574,0.129475036525726,-0.150723911762238,0.160170673370362
1.8841007722592369,0.117499938869476,0.10314815855026199,0.14340553665161201
1.8847064657783161,0.0695995482444763,-0.0477380719184876,-0.227822490692138
1.8853121592973956,0.0576244505882263,-0.014207798480987601,0.0691599311828615
1.8859178528164748,0.0216991576194763,-0.0022327008247375597,-0.381103740692138
1.8865235463355543,-0.0238062134742737,0.0672228655815124,-0.019455791473388502
1.8871292398546335,-0.18666754159927398,-0.220179478168488,0.34458717727661203
1.887734933373713,-0.0285962525367737,-0.09084842348098761,-0.148786846160888
1.8883406268927923,0.179770446681976,-0.016602818012237598,-0.0266408500671385
1.8889463204118717,-0.155532287693024,-0.0429480328559876,-0.0769362602233885
1.889552013930951,-0.119606994724274,0.028902553081512402,0.14819557571411202
1.8901577074500304,0.105524841213226,-0.0549231305122376,-0.0505910453796385
1.8907634009691097,0.143845153713226,-0.08845340394973761,-0.0625661430358885
1.891369094488189,0.129475036525726,-0.08845340394973761,0.0811350288391115
1.8919747880072684,-0.25372808847427397,0.00255733823776244,-0.275722881317138
1.8925804815263476,-0.050151428318023696,0.055247767925262405,-0.0889113578796385
1.893186175045427,0.0480443724632263,0.167813685894012,0.337402118682862
1.8937918685645063,-0.244148010349274,0.10314815855026199,0.15777565383911202
1.8943975620835858,0.112709899806976,0.009742396831512441,-0.139206768035888
1.895003255602665,0.0169091185569763,0.00495235776901244,0.121850360870362
1.8956089491217445,0.09354974355697629,-0.016602818012237598,0.0476047554016115
1.8962146426408237,0.359396911525726,-0.117193638324738,0.10748024368286199
1.8968203361599032,0.043254333400726305,0.0456676898002624,-0.239797588348388
1.8974260296789824,-0.0597315064430237,-0.0764783062934876,0.0308396186828615
1.898031723198062,-0.00225103769302369,-0.028577915668487597,0.141010517120362
1.8986374167171411,0.09594476308822629,0.0408776507377624,-0.179922100067138
1.8992431102362206,0.165400329494476,-0.00702273988723756,0.059579853057861495
1.8998488037552999,0.0025390013694763097,0.0384826312065124,0.188910907745362
1.9004544972743793,0.0216991576194763,-0.0836633648872376,0.023654560089111498
1.9010601907934586,-0.00225103769302369,0.08877804136276239,-0.0553810844421385
1.9016658843125378,0.15103021230697602,0.0624328265190124,0.0763449897766115
1.9022715778316173,0.139055114650726,-0.09803348207473761,-0.0146657524108885
1.9028772713506965,-0.0908667603492737,-0.0453430523872376,0.0140744819641115
1.903482964869776,0.189350524806976,-0.232154575824738,-0.060171123504638505
1.9040886583888552,0.0887597044944763,-0.014207798480987601,0.20328102493286201
1.9046943519079347,0.00972405996322631,0.146258510112762,0.169750751495362
1.905300045427014,-0.00225103769302369,0.07201290464401239,0.023654560089111498
1.9059057389460934,0.038464294338226304,0.10075313901901199,-0.170342021942138
1.9065114324651726,0.0552294310569763,-0.0549231305122376,-0.172737041473388
1.907117125984252,0.043254333400726305,0.12949337339401198,0.10029518508911199
1.9077228195033313,-0.0285962525367737,0.0384826312065124,0.0499997749328615
1.9083285130224108,0.100734802150726,-0.026182896137237597,-0.0410109672546385
1.90893420654149,0.184560485744476,0.0600378069877624,-0.0793312797546385
1.9095399000605695,0.014514099025726299,-0.112403599262238,-0.153576885223388
1.9101455935796487,0.265991149806976,-0.004627720355987561,-0.0362209281921385
1.910751287098728,0.0839696654319763,0.163023646831512,-0.15118186569213798
1.9113569806178075,-0.0645215455055237,0.07201290464401239,0.10748024368286199
1.9119626741368867,-0.11002691659927401,0.0648278460502624,-0.0242458305358885
1.9125683676559662,-0.203432678318024,-0.0453430523872376,-0.170342021942138
1.9131740611750454,-0.0166211548805237,-0.117193638324738,-0.0481960258483885
1.9137797546941249,-0.0645215455055237,0.0336925921440124,-0.165551982879638
1.914385448213204,0.0815746459007263,0.0217174944877624,-0.0625661430358885
1.9149911417322836,0.139055114650726,0.179788783550262,-0.220637432098388
1.9155968352513628,-0.0381763306617737,0.127098353862762,0.428412860870362
1.9162025287704423,-0.0166211548805237,0.00255733823776244,0.663124774932862
1.9168082222895215,0.287546325588226,-0.0716882672309876,0.141010517120362
1.9174139158086008,0.170190368556976,0.0241125140190124,-0.0913063774108885
1.9180196093276802,-0.042966369724273694,-0.107613560199738,-0.0913063774108885
1.9186253028467595,-0.0693115845680237,-0.155513950824738,-0.0913063774108885
1.919230996365839,0.038464294338226304,0.000162318706512438,0.234416278839112
1.9198366898849182,0.103129821681976,-0.035762974262237596,0.193700946807862
1.9204423834039976,0.0815746459007263,0.0360876116752624,0.17693581008911202
1.9210480769230769,0.014514099025726299,0.0336925921440124,0.0883200874328615
1.9216537704421564,-0.143557190036774,-0.102823521137238,-0.0553810844421385
1.9222594639612356,-0.0238062134742737,-0.100428501605988,0.0859250679016115
1.922865157480315,0.0648095091819763,0.0696178851127624,-0.00987571334838845
1.9234708509993943,0.0719945677757263,0.055247767925262405,0.16735573196411202
1.9240765445184738,-0.00225103769302369,-0.0716882672309876,-0.0865163383483885
1.924682238037553,0.105524841213226,-0.0189978375434876,-0.0146657524108885
1.9252879315566322,-0.102841858005524,-0.0764783062934876,0.229626239776612
1.9258936250757117,-0.0980518189430237,-0.105218540668488,0.00928444290161155
1.926499318594791,-0.07889166269302371,0.174998744487762,0.021259540557861497
1.9271050121138704,0.170190368556976,0.00495235776901244,-0.000295635223388454
1.9277107056329497,0.0911547240257263,-0.0836633648872376,-0.0625661430358885
1.9283163991520291,-0.193852600193024,0.0456676898002624,-0.0984914360046385
1.9289220926711084,0.000143981838226313,0.0241125140190124,-0.18710715866088798
1.9295277861901878,-0.0549414673805237,0.0265075335502624,0.210466083526612
1.930133479709267,0.14145013418197602,0.07201290464401239,0.188910907745362
1.9307391732283465,-0.0597315064430237,-0.17467410707473802,0.0356296577453615
1.9313448667474258,-0.150742248630524,-0.143538853168488,-0.0865163383483885
1.931950560266505,-0.224987854099274,-0.0525281109809876,-0.0170607719421385
1.9325562537855845,-0.138767150974274,0.10075313901901199,0.0380246772766115
1.9331619473046637,0.0288842162132263,0.146258510112762,-0.0434059867858885
1.9337676408237432,-0.0285962525367737,0.115123256206512,0.0356296577453615
1.9343733343428224,-0.0333862915992737,-0.0118127789497376,-0.0865163383483885
1.934979027861902,-0.122002014255524,-0.368670689105988,-0.07214622116088851
1.9355847213809811,-0.0405713501930237,0.0336925921440124,-0.127231670379638
1.9361904149000606,-0.11721197519302401,0.10075313901901199,-0.0553810844421385
1.9367961084191399,0.0025390013694763097,-0.0597131695747376,0.00928444290161155
1.9374018019382193,0.179770446681976,0.0959630999565124,0.191305927276612
1.9380074954572986,-0.155532287693024,0.09356808042526239,-0.0362209281921385
1.938613188976378,-0.0956567994117737,-0.028577915668487597,-0.108071514129638
1.9392188824954573,0.00972405996322631,-0.035762974262237596,0.0787400093078615
1.9398245760145367,0.107919860744476,0.09356808042526239,0.0883200874328615
1.940430269533616,-0.00225103769302369,0.0145324358940124,-0.021850811004638503
1.9410359630526952,0.004934020900726309,-0.0213928570747376,0.188910907745362
1.9416416565717747,0.134265075588226,0.0360876116752624,0.023654560089111498
1.942247350090854,-0.100446838474274,-0.150723911762238,-0.0673561820983885
1.9428530436099334,-0.18666754159927398,-0.114798618793488,0.0499997749328615
1.9434587371290126,-0.11721197519302401,-0.117193638324738,-0.232612529754638
1.944064430648092,0.287546325588226,0.07680294370651239,-0.0841213188171385
1.944670124167171,0.0576244505882263,-0.08845340394973761,-0.342783428192138
1.945275817686251,-0.0357813111305237,-0.203414341449738,-0.110466533660888
1.94588151120533,-0.15313726816177398,0.0576427874565124,-0.00987571334838845
1.946487204724409,-0.119606994724274,-0.0525281109809876,-0.000295635223388454
1.947092898243489,0.0480443724632263,-0.0573181500434876,0.24160133743286202
1.947698591762568,-0.143557190036774,0.08398800230026239,-0.0242458305358885
1.948304285281647,0.043254333400726305,-0.0118127789497376,0.16735573196411202
1.948909978800727,-0.0381763306617737,-0.0621081891059876,0.138615497589112
1.949515672319806,0.00732904043197631,-0.131563755512238,0.114665302276612
1.950121365838886,0.16779534902572601,-0.117193638324738,0.164960712432862
1.950727059357965,0.0240941771507263,0.0432726702690124,-0.19668723678588798
1.951332752877044,0.16779534902572601,-0.0405530133247376,-0.0984914360046385
1.951938446396124,0.148635192775726,-0.0621081891059876,0.117060321807862
1.952544139915203,-0.0645215455055237,0.110333217144012,-0.0505910453796385
1.953149833434282,0.0025390013694763097,0.0624328265190124,-0.163156963348388
1.953755526953362,0.0025390013694763097,-0.0645032086372376,-0.0769362602233885
1.954361220472441,-0.15792730722427398,-0.105218540668488,0.136220478057862
1.95496691399152,-0.0381763306617737,-0.08845340394973761,0.026049579620361498
1.9555726075106,-0.0285962525367737,0.12949337339401198,-0.0242458305358885
1.956178301029679,-0.14834722909927398,-0.0525281109809876,0.0547898139953615
1.956783994548758,0.014514099025726299,-0.0213928570747376,-0.0673561820983885
1.957389688067838,0.163005309963226,0.172603724956512,-0.153576885223388
1.957995381586917,0.0504393919944763,-0.117193638324738,-0.139206768035888
1.958601075105996,-0.0214111939430237,-0.205809360980988,0.0667649116516115
1.959206768625076,0.299521423244476,-0.0213928570747376,0.061974872589111496
1.959812462144155,0.25401605215072603,-0.124378696918488,0.0523947944641115
1.960418155663234,-0.0549414673805237,0.00495235776901244,0.0476047554016115
1.961023849182314,-0.07170660409927371,-0.0022327008247375597,-0.00508567428588845
1.961629542701393,-0.0621265259742737,-0.193834263324738,0.121850360870362
1.962235236220472,-0.102841858005524,0.016927455425262403,-0.13202170944213798
1.962840929739552,-0.15313726816177398,0.136678431987762,-0.0960964164733885
1.963446623258631,-0.0166211548805237,0.0312975726127624,0.17214577102661202
1.96405231677771,0.0480443724632263,0.07919796323776239,-0.00987571334838845
1.96465801029679,0.004934020900726309,0.0360876116752624,-0.0673561820983885
1.965263703815869,-0.0669165650367737,-0.09324344301223761,-0.0386159477233885
1.965869397334949,-0.08607672128677371,0.174998744487762,0.21286110305786202
1.966475090854028,-0.141162170505524,0.0959630999565124,0.119455341339112
1.967080784373107,0.043254333400726305,0.0480627093315124,0.0715549507141115
1.967686477892187,-0.014226135349273701,0.170208705425262,0.0691599311828615
1.968292171411266,-0.133977111911774,-0.153118931293488,0.0476047554016115
1.968897864930345,0.0719945677757263,-0.148328892230988,0.22244118118286202
1.969503558449425,-0.0118311158180237,-0.0716882672309876,-0.24698264694213798
1.970109251968504,0.0121190794944763,-0.100428501605988,-0.0529860649108885
1.970714945487583,0.0193041380882263,0.227689174175262,0.198490985870362
1.971320639006663,-0.00943609628677369,0.12949337339401198,-0.019455791473388502
1.971926332525742,-0.136372131443024,0.18457882261276198,-0.00748069381713845
1.972532026044821,-0.0621265259742737,0.0217174944877624,0.131430438995362
1.973137719563901,0.0672045287132263,-0.026182896137237597,-0.00508567428588845
1.97374341308298,-0.0549414673805237,-0.143538853168488,0.14340553665161201
1.974349106602059,0.038464294338226304,-0.08605838441848761,-0.060171123504638505
1.974954800121139,0.0767846068382263,0.0456676898002624,-0.00987571334838845
1.975560493640218,0.189350524806976,0.10314815855026199,0.0452097358703615
1.976166187159297,0.0791796263694763,0.08877804136276239,0.493078388214112
1.976771880678377,-0.0166211548805237,-0.0836633648872376,0.258366474151612
1.977377574197456,0.105524841213226,-0.102823521137238,-0.462534404754638
1.977983267716535,-0.136372131443024,-0.033367954730987595,-0.00748069381713845
1.978588961235615,-0.13158209238052399,0.009742396831512441,0.145800556182862
1.9791946547546941,0.18216546621322602,-0.0764783062934876,0.0763449897766115
1.979800348273773,0.19653558340072602,0.050457728862762403,-0.158366924285888
1.980406041792853,0.0624144896507263,0.055247767925262405,0.0571848335266115
1.981011735311932,-0.0285962525367737,0.07440792417526239,0.023654560089111498
1.981617428831012,-0.0573364869117737,0.117518275737762,-0.14639182662963798
1.982223122350091,0.040859313869476305,-0.0477380719184876,0.0140744819641115
1.98282881586917,-0.0693115845680237,0.179788783550262,0.119455341339112
1.98343450938825,-0.0285962525367737,0.07201290464401239,0.0931101264953615
1.984040202907329,-0.0238062134742737,-0.0477380719184876,0.179330829620362
1.984645896426408,-0.11721197519302401,0.009742396831512441,0.155380634307862
1.985251589945488,0.19653558340072602,-0.0525281109809876,0.114665302276612
1.9858572834645671,0.301916442775726,0.115123256206512,-0.208662334442138
1.986462976983646,0.0480443724632263,-0.227364536762238,-0.225427471160888
1.987068670502726,0.038464294338226304,-0.0501330914497376,0.0571848335266115
1.987674364021805,0.13666009511947602,-0.09084842348098761,0.10269020462036199
1.988280057540884,0.0025390013694763097,-0.028577915668487597,0.026049579620361498
1.988885751059964,-0.07889166269302371,-0.0022327008247375597,0.0188645210266115
1.989491444579043,-0.0932617798805237,-0.08845340394973761,0.0811350288391115
1.990097138098122,-0.150742248630524,-0.0189978375434876,-0.0505910453796385
1.990702831617202,-0.07649664316177371,-0.0453430523872376,0.129035419464112
1.991308525136281,-0.047756408786773695,0.0312975726127624,0.0188645210266115
1.99191421865536,-0.045361389255523694,-0.0764783062934876,0.10508522415161199
1.9925199121744401,0.0672045287132263,-0.038157993793487596,0.0356296577453615
1.993125605693519,-0.122002014255524,0.0265075335502624,0.0380246772766115
1.993731299212598,-0.129187072849274,-0.212994419574738,0.205676044464112
1.994336992731678,0.0216991576194763,-0.0501330914497376,0.0907151069641115
1.994942686250757,0.043254333400726305,0.07919796323776239,0.121850360870362
1.995548379769836,-0.251333068943024,0.0480627093315124,0.0116794624328615
1.996154073288916,0.038464294338226304,-0.00941775941848756,-0.0362209281921385
1.996759766807995,0.0552294310569763,0.177393764019012,0.0979001655578615
1.997365460327075,-0.23696295175552398,0.10554317808151199,0.0859250679016115
1.997971153846154,-0.00704107675552369,-0.0716882672309876,-0.0529860649108885
1.998576847365233,0.0528344115257263,0.277984584331512,-0.0146657524108885
1.9991825408843131,-0.0884717408180237,0.08398800230026239,-0.13202170944213798
1.999788234403392,-0.165112365818024,-0.160303989887238,0.00449440383911155
2.000393927922471,0.000143981838226313,0.0408776507377624,0.263156513214112
2.000999621441551,0.184560485744476,0.313909877300262,0.131430438995362
2.00160531496063,0.09354974355697629,-0.112403599262238,-0.129626689910888
2.002211008479709,-0.00464605722427369,-0.028577915668487597,-0.00987571334838845
2.002816701998789,0.0743895873069763,0.143863490581512,0.191305927276612
2.003422395517868,-0.0908667603492737,-0.119588657855988,0.112270282745362
2.004028089036947,0.100734802150726,0.08159298276901239,0.188910907745362
2.004633782556027,0.0480443724632263,0.0121374163627624,0.10269020462036199
2.005239476075106,-0.0645215455055237,-0.00941775941848756,-0.223032451629638
2.005845169594185,0.000143981838226313,0.016927455425262403,-0.115256572723388
2.006450863113265,0.0025390013694763097,-0.0237878766059876,-0.00987571334838845
2.007056556632344,-0.100446838474274,-0.0405530133247376,-0.0458010063171385
2.007662250151423,-0.08607672128677371,-0.09563846254348761,0.17214577102661202
2.008267943670503,-0.210617736911774,0.270799525737762,0.0907151069641115
2.008873637189582,-0.136372131443024,0.0648278460502624,0.0571848335266115
2.009479330708661,-0.244148010349274,0.227689174175262,-0.0314308891296385
2.010085024227741,-0.196247619724274,0.08398800230026239,-0.0505910453796385
2.01069071774682,-0.047756408786773695,-0.332745396137238,-0.108071514129638
2.011296411265899,-0.0908667603492737,0.24924434995651198,-0.0697512016296385
2.011902104784979,0.0528344115257263,0.196553920269012,0.0859250679016115
2.012507798304058,-0.0549414673805237,-0.0213928570747376,-0.07454124069213851
2.013113491823137,-0.251333068943024,-0.112403599262238,0.0571848335266115
2.013719185342217,-0.277678283786774,-0.0836633648872376,0.0452097358703615
2.014324878861296,-0.203432678318024,-0.102823521137238,-0.0242458305358885
2.014930572380376,-0.0262012330055237,-0.0573181500434876,-0.167947002410888
2.015536265899455,-0.160322326755524,0.09356808042526239,0.0859250679016115
2.016141959418534,-0.330368713474274,-0.0764783062934876,0.21765114212036202
2.016747652937614,-0.23696295175552398,-0.119588657855988,-0.0505910453796385
2.017353346456693,-0.277678283786774,0.18457882261276198,-0.0266408500671385
2.017959039975772,-0.239357971286774,-0.0453430523872376,-0.000295635223388454
2.018564733494852,-0.378269104099274,-0.117193638324738,0.10508522415161199
2.019170427013931,-0.248938049411774,0.19415890073776199,0.033234638214111496
2.01977612053301,-0.280073303318024,0.0265075335502624,0.00449440383911155
2.02038181405209,-0.224987854099274,0.0600378069877624,0.17214577102661202
2.020987507571169,-0.478859924411774,-0.0189978375434876,0.0571848335266115
2.021593201090248,-0.29444342050552397,0.115123256206512,-0.0458010063171385
2.022198894609328,-0.30402349863052397,0.0576427874565124,0.124245380401612
2.022804588128407,-0.320788635349274,-0.131563755512238,0.0859250679016115
2.023410281647486,-0.174692443943024,0.0312975726127624,-0.17752708053588798
2.024015975166566,-0.35431890878677397,0.18457882261276198,0.0476047554016115
2.024621668685645,-0.15313726816177398,0.115123256206512,-0.105676494598388
2.025227362204724,-0.0621265259742737,-0.124378696918488,0.0116794624328615
2.025833055723804,-0.30402349863052397,0.0384826312065124,-0.0122707328796385
2.026438749242883,-0.299233459568024,-0.0716882672309876,-0.0769362602233885
2.027044442761962,-0.24654302988052398,-0.0549231305122376,0.033234638214111496
2.027650136281042,-0.270493225193024,-0.100428501605988,-0.108071514129638
2.028255829800121,-0.15313726816177398,-0.126773716449738,0.18172584915161202
2.0288615233192,-0.447724670505524,-0.222574497699738,0.0859250679016115
2.02946721683828,-0.234567932224274,-0.112403599262238,0.0476047554016115
2.030072910357359,-0.289653381443024,0.050457728862762403,0.150590595245362
2.030678603876439,-0.126792053318024,-0.138748814105988,0.114665302276612
2.031284297395518,-0.351923889255524,0.07201290464401239,-0.0505910453796385
2.031889990914597,-0.392639221286774,-0.014207798480987601,-0.163156963348388
2.032495684433677,-0.28486334238052397,0.0432726702690124,0.0380246772766115
2.033101377952756,-0.505205139255524,-0.110008579730988,-0.0553810844421385
2.033707071471835,-0.457304748630524,-0.09563846254348761,-0.230217510223388
2.034312764990915,-0.308813537693024,0.0193224749565124,0.521818622589112
2.034918458509994,-0.375874084568024,-0.162699009418488,0.327822040557862
2.035524152029073,-0.296838440036774,0.0073473773002624395,-0.00269065475463845
2.036129845548153,-0.18187750253677398,0.325884974956512,0.627199481964112
2.036735539067232,-0.337553772068024,0.00495235776901244,-0.0481960258483885
2.037341232586311,-0.34473883066177397,-0.256104771137238,-0.120046611785888
2.037946926105391,-0.239357971286774,0.18457882261276198,0.15298561477661202
2.03855261962447,-0.311208557224274,0.0672228655815124,-0.0434059867858885
2.039158313143549,-0.5123901978492741,-0.205809360980988,0.023654560089111498
2.039764006662629,-0.14834722909927398,-0.236944614887238,-0.0793312797546385
2.040369700181708,-0.428564514255524,-0.033367954730987595,0.136220478057862
2.040975393700787,-0.430959533786774,-0.114798618793488,0.169750751495362
2.041581087219867,-0.258518127536774,-0.0477380719184876,0.14819557571411202
2.042186780738946,-0.5578955689430241,0.000162318706512438,0.287106708526612
2.0427924742580252,-0.387849182224274,0.000162318706512438,0.10269020462036199
2.043398167777105,-0.20822271738052398,0.146258510112762,0.059579853057861495
2.044003861296184,-0.17229742441177398,0.09356808042526239,0.0428147163391115
2.044609554815263,-0.387849182224274,-0.08605838441848761,0.10987526321411199
2.045215248334343,-0.287258361911774,-0.157908970355988,0.0428147163391115
2.045820941853422,-0.380664123630524,0.165418666362762,0.0883200874328615
2.046426635372502,-0.407009338474274,0.208529017925262,0.0356296577453615
2.047032328891581,-0.263308166599274,0.052852748394012404,-0.13202170944213798
2.04763802241066,-0.224987854099274,0.0217174944877624,0.117060321807862
2.04824371592974,-0.0238062134742737,0.0073473773002624395,0.129035419464112
2.048849409448819,-0.17229742441177398,0.0959630999565124,-0.0266408500671385
2.0494551029678982,-0.24175299081802398,-0.121983677387238,-0.170342021942138
2.050060796486978,-0.0932617798805237,0.0384826312065124,-0.105676494598388
2.050666490006057,0.0887597044944763,0.07680294370651239,-0.0817262992858885
2.051272183525136,0.000143981838226313,-0.201019321918488,-0.0984914360046385
2.051877877044216,-0.08607672128677371,0.237269252300262,0.026049579620361498
2.052483570563295,-0.165112365818024,-0.0716882672309876,-0.057776103973388504
2.053089264082374,-0.179482483005524,0.139073451519012,-0.0697512016296385
2.053694957601454,-0.045361389255523694,0.119913295269012,0.141010517120362
2.054300651120533,-0.22738287363052398,-0.141143833637238,0.0452097358703615
2.054906344639612,-0.18187750253677398,0.117518275737762,0.0308396186828615
2.055512038158692,-0.0309912720680237,0.0336925921440124,-0.117651592254638
2.0561177316777712,-0.100446838474274,0.0456676898002624,0.0523947944641115
2.05672342519685,0.0719945677757263,0.0480627093315124,0.16256569290161202
2.05732911871593,0.0336742552757263,0.136678431987762,0.0883200874328615
2.057934812235009,0.0719945677757263,0.179788783550262,0.14819557571411202
2.058540505754088,-0.15792730722427398,0.115123256206512,-0.0410109672546385
2.059146199273168,-0.014226135349273701,0.0576427874565124,-0.0362209281921385
2.059751892792247,0.18216546621322602,-0.09563846254348761,0.119455341339112
2.060357586311326,0.0480443724632263,0.10075313901901199,-0.0529860649108885
2.060963279830406,0.0025390013694763097,-0.124378696918488,-0.0841213188171385
2.061568973349485,-0.100446838474274,-0.133958775043488,-0.0625661430358885
2.062174666868565,0.0839696654319763,0.08877804136276239,0.138615497589112
2.0627803603876442,-0.0645215455055237,-0.0716882672309876,0.22723122024536202
2.063386053906723,-0.169902404880524,-0.110008579730988,0.188910907745362
2.063991747425803,-0.042966369724273694,-0.0405530133247376,-0.0673561820983885
2.064597440944882,-0.00464605722427369,0.09356808042526239,-0.208662334442138
2.065203134463961,-0.019016174411773702,-0.315980259418488,-0.179922100067138
2.065808827983041,0.014514099025726299,-0.241734653949738,0.28471168899536203
2.06641452150212,-0.0405713501930237,0.016927455425262403,0.126640399932862
2.067020215021199,-0.047756408786773695,0.0241125140190124,-0.115256572723388
2.067625908540279,0.160610290431976,0.0408776507377624,0.0811350288391115
2.068231602059358,0.040859313869476305,-0.004627720355987561,-0.165551982879638
2.068837295578437,-0.0693115845680237,-0.0213928570747376,0.0931101264953615
2.0694429890975172,-0.0956567994117737,0.0360876116752624,0.0428147163391115
2.070048682616596,-0.0214111939430237,0.0312975726127624,0.145800556182862
2.070654376135675,-0.07170660409927371,0.10314815855026199,0.164960712432862
2.071260069654755,0.0863646849632263,0.112728236675262,0.0164695014953615
2.071865763173834,0.203720641994476,0.107938197612762,0.141010517120362
2.072471456692913,0.0121190794944763,-0.22975955629348802,-0.112861553192138
2.073077150211993,0.09833978261947629,-0.172279087543488,-0.0434059867858885
2.073682843731072,0.014514099025726299,0.208529017925262,0.224836200714112
2.074288537250151,0.014514099025726299,-0.131563755512238,-0.0122707328796385
2.074894230769231,0.038464294338226304,-0.0812683453559876,0.023654560089111498
2.07549992428831,0.0240941771507263,0.24924434995651198,0.20328102493286201
2.076105617807389,0.0911547240257263,0.10314815855026199,0.0907151069641115
2.076711311326469,0.0887597044944763,0.009742396831512441,0.0667649116516115
2.077317004845548,-0.0357813111305237,-0.0189978375434876,0.0739499702453615
2.077922698364627,-0.11002691659927401,0.124703334331512,-0.0434059867858885
2.078528391883707,-0.0238062134742737,-0.189044224262238,-0.0553810844421385
2.079134085402786,-0.17229742441177398,-0.121983677387238,-0.172737041473388
2.079739778921866,-0.105236877536774,0.07201290464401239,0.021259540557861497
2.080345472440945,-0.0956567994117737,0.0312975726127624,0.196095966339112
2.080951165960024,-0.0118311158180237,-0.133958775043488,0.200886005401612
2.081556859479104,0.0672045287132263,-0.112403599262238,-0.0290358695983885
2.082162552998183,0.036069274806976304,-0.004627720355987561,-0.0410109672546385
2.082768246517262,0.19174554433822602,0.0121374163627624,-0.021850811004638503
2.083373940036342,0.0169091185569763,-0.033367954730987595,-0.251772686004638
2.083979633555421,0.160610290431976,0.0193224749565124,-0.117651592254638
2.0845853270745,-0.0285962525367737,0.167813685894012,0.129035419464112
2.08519102059358,-0.014226135349273701,0.07919796323776239,0.0404196968078615
2.085796714112659,0.045649352931976306,-0.0429480328559876,-0.0122707328796385
2.086402407631738,-0.0381763306617737,-0.09563846254348761,0.126640399932862
2.087008101150818,0.165400329494476,0.143863490581512,0.10029518508911199
2.087613794669897,-0.042966369724273694,-0.0549231305122376,0.253576435089112
2.088219488188976,0.0887597044944763,0.0121374163627624,0.184120868682862
2.088825181708056,-0.124397033786774,0.218109096050262,-0.153576885223388
2.089430875227135,-0.129187072849274,0.000162318706512438,0.0763449897766115
2.090036568746214,0.0887597044944763,-0.114798618793488,-0.0338259086608885
2.090642262265294,-0.124397033786774,0.07680294370651239,0.0739499702453615
2.091247955784373,-0.169902404880524,0.08398800230026239,0.21286110305786202
2.091853649303452,-0.11721197519302401,-0.102823521137238,0.198490985870362
2.092459342822532,0.0719945677757263,-0.136353794574738,0.10748024368286199
2.093065036341611,-0.0908667603492737,0.07919796323776239,-0.000295635223388454
2.09367072986069,-0.047756408786773695,0.09356808042526239,0.20807106399536202
2.09427642337977,0.115104919338226,-0.121983677387238,-0.127231670379638
2.094882116898849,0.127080016994476,-0.0453430523872376,-0.0242458305358885
2.095487810417929,0.09594476308822629,-0.028577915668487597,0.766110614776612
2.096093503937008,0.117499938869476,0.0073473773002624395,0.804430927276612
2.096699197456087,-0.0214111939430237,-0.0740832867622376,0.282316669464112
2.097304890975167,-0.16271734628677398,-0.110008579730988,0.117060321807862
2.097910584494246,-0.0908667603492737,0.028902553081512402,0.026049579620361498
2.098516278013325,-0.0285962525367737,0.0241125140190124,-0.0122707328796385
2.099121971532405,-0.00225103769302369,-0.131563755512238,0.0356296577453615
2.099727665051484,0.026489196681976298,-0.0812683453559876,0.263156513214112
2.100333358570563,0.0648095091819763,-0.026182896137237597,0.0404196968078615
2.100939052089643,-0.052546447849273696,-0.00702273988723756,0.224836200714112
2.101544745608722,-0.22259283456802398,0.232479213237762,0.133825458526612
2.102150439127801,-0.0621265259742737,0.0576427874565124,0.00449440383911155
2.102756132646881,-0.08128668222427371,-0.0501330914497376,0.18172584915161202
2.10336182616596,-0.169902404880524,-0.0668982281684876,0.0859250679016115
2.103967519685039,0.117499938869476,-0.0573181500434876,0.059579853057861495
2.104573213204119,0.139055114650726,-0.167489048480988,-0.00269065475463845
2.105178906723198,0.0911547240257263,-0.0022327008247375597,-0.0505910453796385
2.105784600242277,-0.00225103769302369,0.136678431987762,0.0284445991516115
2.106390293761357,-0.00704107675552369,0.009742396831512441,0.0308396186828615
2.106995987280436,0.0312792357444763,0.10554317808151199,-0.117651592254638
2.107601680799515,0.038464294338226304,-0.16509402894973801,-0.0266408500671385
2.108207374318595,-0.045361389255523694,-0.22975955629348802,-0.0553810844421385
2.108813067837674,-0.14834722909927398,0.0193224749565124,-0.0146657524108885
2.109418761356753,-0.0573364869117737,-0.162699009418488,0.0380246772766115
2.110024454875833,-0.0381763306617737,-0.0501330914497376,0.0380246772766115
2.110630148394912,-0.11721197519302401,-0.138748814105988,0.0140744819641115
2.111235841913992,-0.17708746347427398,-0.272869907855988,-0.117651592254638
2.111841535433071,-0.08128668222427371,-0.112403599262238,-0.0625661430358885
2.11244722895215,0.148635192775726,-0.016602818012237598,-0.019455791473388502
2.1130529224712298,0.0025390013694763097,0.10075313901901199,0.119455341339112
2.113658615990309,-0.0693115845680237,-0.320770298480988,0.126640399932862
2.1142643095093883,-0.00704107675552369,0.0696178851127624,0.0308396186828615
2.114870003028468,-0.105236877536774,0.167813685894012,0.131430438995362
2.115475696547547,-0.07410162363052371,-0.220179478168488,0.16735573196411202
2.116081390066626,0.0288842162132263,-0.136353794574738,-0.00508567428588845
2.116687083585706,0.220485778713226,-0.145933872699738,-0.0481960258483885
2.117292777104785,-0.0549414673805237,-0.117193638324738,0.129035419464112
2.117898470623864,0.040859313869476305,0.07919796323776239,0.0428147163391115
2.118504164142944,0.17737542715072602,-0.0213928570747376,0.0428147163391115
2.119109857662023,-0.0645215455055237,-0.145933872699738,-0.172737041473388
2.119715551181102,-0.0333862915992737,0.165418666362762,-0.170342021942138
2.120321244700182,-0.15313726816177398,0.0672228655815124,-0.21584739303588799
2.1209269382192613,0.0528344115257263,-0.0573181500434876,0.0499997749328615
2.12153263173834,0.09354974355697629,0.07440792417526239,0.0380246772766115
2.12213832525742,-0.07170660409927371,0.052852748394012404,0.0140744819641115
2.122744018776499,-0.0405713501930237,0.10075313901901199,0.14340553665161201
2.1233497122955782,0.0193041380882263,0.055247767925262405,-0.0362209281921385
2.123955405814658,0.0240941771507263,-0.117193638324738,-0.208662334442138
2.124561099333737,0.0312792357444763,-0.033367954730987595,-0.13681174850463798
2.125166792852816,0.15103021230697602,-0.0692932476997376,-0.218242412567138
2.125772486371896,-0.00943609628677369,0.206133998394012,0.502658466339112
2.126378179890975,-0.17229742441177398,0.234874232769012,0.248786396026612
2.126983873410055,-0.050151428318023696,-0.0453430523872376,-0.345178447723388
2.1275895669291343,0.026489196681976298,-0.0477380719184876,0.160170673370362
2.128195260448213,-0.0357813111305237,-0.035762974262237596,0.0428147163391115
2.128800953967293,-0.15313726816177398,-0.124378696918488,0.0979001655578615
2.129406647486372,-0.07410162363052371,-0.133958775043488,0.0955051460266115
2.1300123410054512,0.189350524806976,-0.09324344301223761,0.121850360870362
2.130618034524531,0.0336742552757263,-0.107613560199738,-0.110466533660888
2.13122372804361,-0.10763189706802401,0.0265075335502624,0.0571848335266115
2.131829421562689,0.0336742552757263,-0.155513950824738,0.270341571807862
2.132435115081769,0.0719945677757263,0.08398800230026239,0.150590595245362
2.133040808600848,0.0216991576194763,0.136678431987762,0.174540790557862
2.133646502119927,0.043254333400726305,-0.117193638324738,0.15777565383911202
2.1342521956390073,-0.0166211548805237,0.0217174944877624,0.124245380401612
2.134857889158086,-0.0405713501930237,-0.119588657855988,0.133825458526612
2.135463582677165,0.0193041380882263,-0.0453430523872376,0.10508522415161199
2.136069276196245,0.103129821681976,0.10075313901901199,-0.15597190475463799
2.1366749697153242,0.18216546621322602,0.124703334331512,-0.0793312797546385
2.137280663234403,0.014514099025726299,-0.0189978375434876,0.16256569290161202
2.137886356753483,-0.0166211548805237,-0.0573181500434876,0.0979001655578615
2.138492050272562,0.117499938869476,0.0480627093315124,0.117060321807862
2.139097743791641,0.036069274806976304,0.148653529644012,0.160170673370362
2.139703437310721,-0.0573364869117737,0.0456676898002624,0.234416278839112
2.1403091308298,-0.0166211548805237,0.0241125140190124,0.16256569290161202
2.140914824348879,0.0576244505882263,0.0265075335502624,0.255971454620362
2.141520517867959,-0.0357813111305237,0.163023646831512,0.20328102493286201
2.142126211387038,0.13187005605697602,0.0600378069877624,0.0571848335266115
2.142731904906118,0.129475036525726,-0.0621081891059876,0.0428147163391115
2.143337598425197,0.13187005605697602,-0.026182896137237597,-0.0697512016296385
2.143943291944276,-0.07410162363052371,-0.0405530133247376,-0.0266408500671385
2.144548985463356,-0.014226135349273701,-0.0189978375434876,0.023654560089111498
2.145154678982435,0.0672045287132263,-0.0429480328559876,-0.021850811004638503
2.145760372501514,-0.124397033786774,-0.0740832867622376,-0.0122707328796385
2.146366066020594,0.189350524806976,-0.030972935199737598,0.0931101264953615
2.146971759539673,-0.251333068943024,0.124703334331512,-0.0146657524108885
2.147577453058752,-0.189062561130524,0.0193224749565124,-0.13202170944213798
2.148183146577832,0.220485778713226,0.0672228655815124,0.0835300483703615
2.148788840096911,0.045649352931976306,0.0672228655815124,0.026049579620361498
2.14939453361599,0.09833978261947629,0.158233607769012,0.258366474151612
2.15000022713507,-0.0166211548805237,0.028902553081512402,-0.0362209281921385
2.150605920654149,0.0025390013694763097,0.117518275737762,-0.14160178756713798
2.151211614173228,-0.0357813111305237,0.09117306089401239,0.179330829620362
2.151817307692308,-0.155532287693024,0.0073473773002624395,-0.0937013969421385
2.152423001211387,0.0863646849632263,0.0408776507377624,0.023654560089111498
2.153028694730466,-0.11242193613052401,-0.280054966449738,-0.000295635223388454
2.153634388249546,-0.15792730722427398,-0.09563846254348761,0.141010517120362
2.154240081768625,0.143845153713226,-0.0501330914497376,-0.167947002410888
2.154845775287704,-0.13158209238052399,-0.138748814105988,-0.0625661430358885
2.155451468806784,-0.100446838474274,-0.0788733258247376,0.653544696807862
2.156057162325863,0.115104919338226,0.0408776507377624,0.564928974151612
2.156662855844942,-0.0309912720680237,0.07440792417526239,0.174540790557862
2.157268549364022,0.103129821681976,0.016927455425262403,0.10029518508911199
2.157874242883101,0.045649352931976306,0.000162318706512438,0.026049579620361498
2.15847993640218,0.09833978261947629,0.24924434995651198,0.21286110305786202
2.15908562992126,-0.10763189706802401,-0.035762974262237596,0.41404274368286204
2.159691323440339,0.00972405996322631,-0.102823521137238,0.26555153274536203
2.160297016959419,0.0767846068382263,0.000162318706512438,0.23202125930786202
2.160902710478498,-0.150742248630524,-0.205809360980988,0.0643698921203615
2.161508403997577,0.0600194701194763,-0.203414341449738,0.00688942337036155
2.162114097516657,-0.18666754159927398,0.0576427874565124,0.191305927276612
2.162719791035736,-0.277678283786774,-0.0405530133247376,0.0547898139953615
2.163325484554815,0.134265075588226,-0.0189978375434876,0.0571848335266115
2.163931178073895,0.239645934963226,0.0480627093315124,0.23681129837036202
2.164536871592974,-0.126792053318024,0.151048549175262,-0.0649611625671385
2.165142565112053,0.100734802150726,-0.0118127789497376,0.150590595245362
2.165748258631133,0.117499938869476,-0.153118931293488,0.0715549507141115
2.166353952150212,-0.042966369724273694,-0.0573181500434876,0.0116794624328615
2.166959645669291,-0.0932617798805237,-0.0549231305122376,0.0523947944641115
2.167565339188371,-0.205827697849274,0.0696178851127624,-0.120046611785888
2.16817103270745,-0.0166211548805237,0.234874232769012,-0.148786846160888
2.168776726226529,0.0576244505882263,0.213319056987762,0.0643698921203615
2.169382419745609,0.0288842162132263,-0.110008579730988,0.0188645210266115
2.169988113264688,-0.052546447849273696,0.0983581194877624,-0.019455791473388502
2.170593806783767,0.038464294338226304,-0.00941775941848756,0.00688942337036155
2.171199500302847,-0.0333862915992737,-0.153118931293488,-0.0338259086608885
2.171805193821926,-0.0285962525367737,0.0696178851127624,-0.208662334442138
2.172410887341005,-0.133977111911774,-0.0597131695747376,-0.0673561820983885
2.173016580860085,0.036069274806976304,-0.131563755512238,0.129035419464112
2.1736222743791638,0.0791796263694763,-0.0692932476997376,0.0188645210266115
2.174227967898244,-0.0166211548805237,-0.294425083637238,0.10508522415161199
2.174833661417323,0.105524841213226,0.232479213237762,0.18172584915161202
2.175439354936402,0.00972405996322631,-0.0118127789497376,0.186515888214112
2.176045048455482,0.244435974025726,-0.0740832867622376,-0.0314308891296385
2.176650741974561,0.129475036525726,0.0600378069877624,-0.0865163383483885
2.17725643549364,-0.0645215455055237,-0.0189978375434876,0.0308396186828615
2.17786212901272,0.0672045287132263,0.0576427874565124,0.17693581008911202
2.178467822531799,0.0240941771507263,-0.0405530133247376,-0.0242458305358885
2.179073516050878,-0.0932617798805237,0.117518275737762,-0.134416728973388
2.179679209569958,0.09833978261947629,-0.033367954730987595,0.289501728057862
2.1802849030890368,0.139055114650726,0.000162318706512438,0.15777565383911202
2.180890596608116,-0.124397033786774,-0.0118127789497376,0.0883200874328615
2.181496290127196,0.09833978261947629,-0.09563846254348761,0.0907151069641115
2.182101983646275,0.105524841213226,-0.0836633648872376,0.16735573196411202
2.182707677165354,-0.0238062134742737,0.0336925921440124,0.0476047554016115
2.183313370684434,-0.00464605722427369,-0.126773716449738,0.0499997749328615
2.183919064203513,-0.08368170175552371,-0.246524693012238,0.330217060089112
2.184524757722592,0.230065856838226,0.052852748394012404,-0.105676494598388
2.185130451241672,0.026489196681976298,0.07919796323776239,-0.021850811004638503
2.185736144760751,-0.0381763306617737,0.12949337339401198,0.428412860870362
2.18634183827983,-0.050151428318023696,0.266009486675262,0.0979001655578615
2.1869475317989098,-0.155532287693024,0.0121374163627624,0.0284445991516115
2.187553225317989,-0.00704107675552369,-0.0788733258247376,0.155380634307862
2.1881589188370683,-0.119606994724274,-0.0501330914497376,0.124245380401612
2.188764612356148,0.026489196681976298,-0.0788733258247376,-0.0242458305358885
2.189370305875227,0.09833978261947629,-0.117193638324738,-0.13681174850463798
2.189975999394306,0.014514099025726299,-0.184254185199738,0.0284445991516115
2.190581692913386,0.0480443724632263,-0.014207798480987601,-0.15118186569213798
2.191187386432465,0.115104919338226,0.0312975726127624,0.0284445991516115
2.191793079951545,-0.0214111939430237,-0.102823521137238,0.10987526321411199
2.192398773470624,-0.00704107675552369,0.009742396831512441,0.0787400093078615
2.193004466989703,0.155820251369476,-0.133958775043488,-0.0362209281921385
2.1936101605087828,0.045649352931976306,-0.0022327008247375597,-0.060171123504638505
2.194215854027862,-0.0262012330055237,0.124703334331512,-0.167947002410888
2.1948215475469413,-0.0573364869117737,0.052852748394012404,0.0643698921203615
2.195427241066021,0.00732904043197631,0.0217174944877624,0.368537372589112
2.1960329345851,-0.0357813111305237,-0.026182896137237597,0.00209938430786155
2.196638628104179,0.174980407619476,0.0983581194877624,0.126640399932862
2.197244321623259,0.13187005605697602,0.0145324358940124,0.0643698921203615
2.197850015142338,-0.0309912720680237,-0.145933872699738,-0.0170607719421385
2.198455708661417,0.036069274806976304,-0.004627720355987561,0.0284445991516115
2.199061402180497,-0.11242193613052401,0.172603724956512,0.0643698921203615
2.199667095699576,0.115104919338226,-0.0740832867622376,-0.108071514129638
2.200272789218655,0.198930602931976,-0.00702273988723756,-0.060171123504638505
2.200878482737735,-0.08607672128677371,-0.0405530133247376,0.0547898139953615
2.2014841762568143,-0.0956567994117737,-0.030972935199737598,-0.0793312797546385
2.202089869775893,0.0576244505882263,-0.0597131695747376,0.193700946807862
2.202695563294973,-0.0932617798805237,0.0624328265190124,-0.000295635223388454
2.203301256814052,-0.047756408786773695,-0.0668982281684876,-0.0290358695983885
2.203906950333131,0.249226013088226,-0.205809360980988,0.145800556182862
2.204512643852211,0.20611566152572602,0.115123256206512,0.10748024368286199
2.20511833737129,0.00972405996322631,-0.033367954730987595,-0.021850811004638503
2.205724030890369,0.0528344115257263,-0.215389439105988,0.0428147163391115
2.206329724409449,0.0672045287132263,-0.0118127789497376,0.033234638214111496
2.206935417928528,0.09354974355697629,0.07680294370651239,0.0523947944641115
2.207541111447607,0.179770446681976,0.016927455425262403,0.330217060089112
2.2081468049666872,0.163005309963226,0.182183803081512,0.129035419464112
2.208752498485766,0.038464294338226304,0.0456676898002624,0.164960712432862
2.209358192004846,-0.0118311158180237,0.0121374163627624,0.061974872589111496
2.209963885523925,-0.07889166269302371,-0.260894810199738,0.14340553665161201
2.210569579043004,0.115104919338226,-0.09563846254348761,0.346982196807862
2.211175272562084,-0.0956567994117737,0.07680294370651239,0.0715549507141115
2.211780966081163,-0.315998596286774,-0.110008579730988,0.124245380401612
2.212386659600242,-0.100446838474274,0.119913295269012,0.22723122024536202
2.212992353119322,-0.100446838474274,0.009742396831512441,-0.160761943817138
2.213598046638401,-0.00943609628677369,-0.0189978375434876,-0.225427471160888
2.21420374015748,0.0552294310569763,0.0456676898002624,-0.203872295379638
2.2148094336765602,0.158215270900726,-0.030972935199737598,-0.175132061004638
2.215415127195639,-0.105236877536774,0.179788783550262,0.00928444290161155
2.216020820714718,-0.0621265259742737,0.115123256206512,0.155380634307862
2.216626514233798,0.0336742552757263,0.0121374163627624,-0.000295635223388454
2.217232207752877,-0.143557190036774,-0.110008579730988,-0.0984914360046385
2.217837901271956,0.045649352931976306,-0.325560337543488,0.10269020462036199
2.218443594791036,0.165400329494476,-0.030972935199737598,-0.0458010063171385
2.219049288310115,0.036069274806976304,-0.196229282855988,-0.000295635223388454
2.219654981829194,0.0336742552757263,-0.0621081891059876,-0.0529860649108885
2.220260675348274,-0.0309912720680237,0.0983581194877624,-0.0266408500671385
2.220866368867353,0.0121190794944763,-0.148328892230988,0.033234638214111496
2.221472062386432,0.0839696654319763,-0.0716882672309876,0.0140744819641115
2.222077755905512,-0.0549414673805237,-0.0764783062934876,0.117060321807862
2.222683449424591,0.0504393919944763,-0.107613560199738,0.0356296577453615
2.223289142943671,0.0121190794944763,0.0959630999565124,0.026049579620361498
2.22389483646275,0.230065856838226,0.08159298276901239,0.033234638214111496
2.224500529981829,0.17258538808822602,-0.0549231305122376,-0.232612529754638
2.225106223500909,-0.0357813111305237,0.00495235776901244,0.150590595245362
2.225711917019988,0.0839696654319763,-0.0022327008247375597,-0.13202170944213798
2.226317610539067,0.115104919338226,0.10314815855026199,0.117060321807862
2.226923304058147,0.15103021230697602,-0.105218540668488,0.330217060089112
2.227528997577226,0.0576244505882263,-0.315980259418488,0.0284445991516115
2.228134691096305,-0.014226135349273701,-0.035762974262237596,0.210466083526612
2.228740384615385,-0.145952209568024,-0.030972935199737598,-0.0817262992858885
2.229346078134464,-0.145952209568024,-0.126773716449738,-0.00748069381713845
2.229951771653543,0.22767083730697601,0.0624328265190124,0.00688942337036155
2.230557465172623,0.21090570058822602,-0.16988406801223802,-0.0362209281921385
2.231163158691702,-0.129187072849274,-0.0118127789497376,-0.19668723678588798
2.231768852210781,0.0336742552757263,0.0432726702690124,-0.110466533660888
2.232374545729861,0.184560485744476,-0.177069126605988,-0.122441631317138
2.23298023924894,0.15103021230697602,0.0624328265190124,-0.19189719772338798
2.233585932768019,0.0695995482444763,-0.0668982281684876,0.0452097358703615
2.234191626287099,0.0216991576194763,0.0432726702690124,0.0883200874328615
2.234797319806178,-0.136372131443024,0.07201290464401239,0.023654560089111498
2.235403013325257,-0.10763189706802401,0.052852748394012404,0.0787400093078615
2.236008706844337,0.0767846068382263,-0.0477380719184876,-0.103281475067138
2.236614400363416,0.0863646849632263,-0.126773716449738,-0.160761943817138
2.237220093882495,0.0791796263694763,-0.004627720355987561,0.0356296577453615
2.237825787401575,0.23246087636947602,-0.0645032086372376,0.17214577102661202
2.238431480920654,0.09354974355697629,0.24924434995651198,-0.000295635223388454
2.239037174439733,-0.050151428318023696,0.0121374163627624,0.0499997749328615
2.239642867958813,-0.0980518189430237,0.0600378069877624,0.0404196968078615
2.240248561477892,-0.0549414673805237,0.141468471050262,0.0691599311828615
2.240854254996972,0.004934020900726309,-0.09803348207473761,0.126640399932862
2.241459948516051,0.0336742552757263,0.110333217144012,-0.13681174850463798
2.24206564203513,-0.0884717408180237,-0.0405530133247376,0.133825458526612
2.24267133555421,-0.00464605722427369,-0.119588657855988,0.0499997749328615
2.243277029073289,0.14145013418197602,0.218109096050262,-0.256562725067138
2.243882722592368,-0.014226135349273701,0.08877804136276239,0.0883200874328615
2.244488416111448,-0.042966369724273694,-0.210599400043488,0.351772235870362
2.245094109630527,-0.14834722909927398,-0.0621081891059876,-0.32362327194213797
2.245699803149606,0.105524841213226,-0.016602818012237598,0.497868427276612
2.246305496668686,-0.045361389255523694,0.110333217144012,0.682284931182862
2.246911190187765,-0.102841858005524,0.0600378069877624,-0.0434059867858885
2.2475168837068438,-0.119606994724274,-0.155513950824738,0.0571848335266115
2.248122577225924,-0.00464605722427369,-0.112403599262238,0.0907151069641115
2.248728270745003,0.00732904043197631,0.052852748394012404,-0.0338259086608885
2.249333964264082,-0.00225103769302369,-0.0692932476997376,-0.0290358695983885
2.249939657783162,0.220485778713226,-0.08845340394973761,0.023654560089111498
2.250545351302241,-0.15792730722427398,0.0360876116752624,0.0571848335266115
2.25115104482132,-0.129187072849274,0.0648278460502624,0.22723122024536202
2.2517567383404,0.158215270900726,0.0241125140190124,0.10029518508911199
2.252362431859479,-0.105236877536774,-0.028577915668487597,-0.120046611785888
2.252968125378558,-0.141162170505524,-0.004627720355987561,-0.07214622116088851
2.253573818897638,-0.0262012330055237,-0.236944614887238,-0.0697512016296385
2.2541795124167168,0.222880798244476,-0.0453430523872376,-0.00269065475463845
2.254785205935796,0.213300720119476,0.0073473773002624395,-0.00508567428588845
2.255390899454876,0.0624144896507263,0.0983581194877624,-0.139206768035888
2.255996592973955,0.23246087636947602,0.0576427874565124,-0.13681174850463798
2.256602286493035,0.0815746459007263,0.0600378069877624,-0.352363506317138
2.257207980012114,0.0815746459007263,0.0600378069877624,0.0979001655578615
2.257813673531193,0.26359613027572604,-0.0405530133247376,0.17693581008911202
2.258419367050273,-0.08607672128677371,0.24445431089401198,-0.148786846160888
2.259025060569352,-0.0405713501930237,-0.246524693012238,0.117060321807862
2.259630754088431,0.153425231838226,-0.038157993793487596,0.251181415557862
2.260236447607511,0.0216991576194763,0.0384826312065124,0.0907151069641115
2.2608421411265898,-0.0118311158180237,0.07680294370651239,0.0308396186828615
2.261447834645669,0.0216991576194763,0.141468471050262,0.0284445991516115
2.262053528164749,0.100734802150726,-0.313585239887238,0.00928444290161155
2.262659221683828,0.0695995482444763,0.0312975726127624,-0.0122707328796385
2.263264915202907,0.203720641994476,0.0360876116752624,0.21765114212036202
2.263870608721987,0.100734802150726,-0.0716882672309876,-0.00748069381713845
2.264476302241066,-0.133977111911774,-0.08845340394973761,0.145800556182862
2.265081995760145,0.15103021230697602,0.0265075335502624,0.447573017120362
2.265687689279225,0.0815746459007263,-0.09803348207473761,0.0835300483703615
2.266293382798304,-0.143557190036774,-0.0597131695747376,-0.14160178756713798
2.266899076317383,0.0336742552757263,-0.028577915668487597,0.0907151069641115
2.267504769836463,-0.00704107675552369,-0.107613560199738,0.169750751495362
2.268110463355542,0.0193041380882263,0.141468471050262,0.026049579620361498
2.2687161568746212,-0.00943609628677369,0.028902553081512402,-0.0793312797546385
2.269321850393701,-0.0908667603492737,-0.030972935199737598,-0.110466533660888
2.26992754391278,0.0672045287132263,-0.035762974262237596,0.145800556182862
2.270533237431859,0.0839696654319763,0.251639369487762,0.0284445991516115
2.271138930950939,0.036069274806976304,-0.0118127789497376,-0.00508567428588845
2.271744624470018,0.215695739650726,-0.17467410707473802,-0.0266408500671385
2.272350317989098,0.0480443724632263,-0.0764783062934876,-0.14639182662963798
2.272956011508177,-0.019016174411773702,0.016927455425262403,-0.019455791473388502
2.273561705027256,0.0719945677757263,-0.148328892230988,0.0284445991516115
2.274167398546336,0.0216991576194763,-0.0692932476997376,0.14340553665161201
2.274773092065415,0.045649352931976306,0.09356808042526239,0.155380634307862
2.2753787855844942,-0.08607672128677371,0.107938197612762,0.337402118682862
2.275984479103574,0.026489196681976298,0.08638302183151239,0.023654560089111498
2.276590172622653,0.040859313869476305,-0.117193638324738,-0.00987571334838845
2.277195866141732,-0.0597315064430237,0.124703334331512,0.0691599311828615
2.277801559660812,0.0887597044944763,-0.186649204730988,-0.00748069381713845
2.278407253179891,0.0672045287132263,-0.0453430523872376,0.15777565383911202
2.27901294669897,0.0695995482444763,0.07440792417526239,-0.0458010063171385
2.27961864021805,0.13666009511947602,0.0408776507377624,0.184120868682862
2.280224333737129,-0.0884717408180237,-0.186649204730988,0.16256569290161202
2.280830027256208,-0.00464605722427369,-0.124378696918488,-0.0481960258483885
2.281435720775288,0.14145013418197602,0.266009486675262,0.0955051460266115
2.2820414142943672,0.134265075588226,0.0241125140190124,0.16735573196411202
2.282647107813446,-0.019016174411773702,0.131888392925262,0.0739499702453615
2.283252801332526,-0.0285962525367737,-0.033367954730987595,-0.15597190475463799
2.283858494851605,0.045649352931976306,-0.172279087543488,0.021259540557861497
2.284464188370684,0.0863646849632263,-0.181859165668488,-0.0889113578796385
2.285069881889764,0.0911547240257263,0.225294154644012,-0.060171123504638505
2.285675575408843,-0.07170660409927371,0.0073473773002624395,0.21286110305786202
2.286281268927922,0.277966247463226,-0.016602818012237598,-0.00508567428588845
2.286886962447002,0.107919860744476,0.170208705425262,-0.0146657524108885
2.287492655966081,-0.105236877536774,-0.162699009418488,-0.0984914360046385
2.28809834948516,0.0169091185569763,-0.016602818012237598,-0.00748069381713845
2.2887040430042402,-0.11002691659927401,0.0456676898002624,0.121850360870362
2.289309736523319,-0.0238062134742737,0.163023646831512,0.18172584915161202
2.289915430042399,0.0312792357444763,-0.100428501605988,-0.0146657524108885
2.290521123561478,-0.0285962525367737,-0.102823521137238,-0.0841213188171385
2.291126817080557,0.0240941771507263,0.00255733823776244,0.0979001655578615
2.291732510599637,-0.193852600193024,-0.0692932476997376,0.119455341339112
2.292338204118716,-0.00225103769302369,0.127098353862762,-0.019455791473388502
2.292943897637795,0.117499938869476,0.08398800230026239,0.0284445991516115
2.293549591156875,-0.0884717408180237,0.10075313901901199,0.198490985870362
2.294155284675954,0.165400329494476,0.112728236675262,0.174540790557862
2.294760978195033,0.105524841213226,-0.00941775941848756,0.15777565383911202
2.2953666717141132,0.0672045287132263,-0.028577915668487597,0.0787400093078615
2.295972365233192,-0.0980518189430237,-0.016602818012237598,-0.0242458305358885
2.296578058752271,-0.0549414673805237,0.124703334331512,-0.0673561820983885
2.297183752271351,0.0624144896507263,0.165418666362762,0.0284445991516115
2.29778944579043,-0.0956567994117737,0.0696178851127624,-0.0481960258483885
2.298395139309509,0.000143981838226313,-0.09324344301223761,0.126640399932862
2.299000832828589,0.0695995482444763,-0.0525281109809876,0.243996356964112
2.299606526347668,-0.0669165650367737,0.148653529644012,-0.00508567428588845
2.300212219866747,-0.16750738534927398,-0.102823521137238,0.0643698921203615
2.300817913385827,-0.042966369724273694,-0.172279087543488,0.186515888214112
2.301423606904906,0.143845153713226,0.115123256206512,0.22723122024536202
2.302029300423985,0.0504393919944763,-0.306400181293488,0.00928444290161155
2.302634993943065,0.0576244505882263,-0.133958775043488,0.0691599311828615
2.303240687462144,-0.0262012330055237,-0.0118127789497376,0.117060321807862
2.303846380981224,-0.047756408786773695,-0.256104771137238,-0.199082256317138
2.304452074500303,-0.045361389255523694,-0.0668982281684876,0.150590595245362
2.305057768019382,0.043254333400726305,0.10314815855026199,-0.18710715866088798
2.305663461538462,0.09833978261947629,0.225294154644012,0.0859250679016115
2.306269155057541,-0.22259283456802398,-0.0525281109809876,0.193700946807862
2.30687484857662,-0.07170660409927371,0.0336925921440124,-0.0817262992858885
2.3074805420957,0.165400329494476,0.07680294370651239,0.339797138214112
2.308086235614779,0.184560485744476,0.09356808042526239,0.155380634307862
2.308691929133858,0.0121190794944763,-0.09803348207473761,0.0691599311828615
2.309297622652938,-0.0285962525367737,-0.0237878766059876,0.24160133743286202
2.309903316172017,0.000143981838226313,0.220504115581512,0.021259540557861497
2.310509009691096,0.0025390013694763097,0.191763881206512,-0.100886455535888
2.311114703210176,0.0336742552757263,-0.117193638324738,0.15298561477661202
2.311720396729255,-0.100446838474274,-0.16988406801223802,-0.0769362602233885
2.312326090248334,-0.0309912720680237,-0.00941775941848756,0.191305927276612
2.312931783767414,-0.0549414673805237,0.0073473773002624395,0.0667649116516115
2.313537477286493,-0.0956567994117737,-0.004627720355987561,-0.0625661430358885
2.314143170805572,0.000143981838226313,-0.00941775941848756,0.0811350288391115
2.314748864324652,0.160610290431976,-0.0189978375434876,0.0859250679016115
2.315354557843731,0.21090570058822602,0.07919796323776239,0.129035419464112
2.31596025136281,0.110314880275726,0.196553920269012,-0.0362209281921385
2.31656594488189,0.0312792357444763,-0.157908970355988,0.131430438995362
2.317171638400969,-0.13158209238052399,-0.16988406801223802,0.141010517120362
2.317777331920048,0.22767083730697601,0.158233607769012,0.258366474151612
2.318383025439128,0.165400329494476,-0.0405530133247376,-0.0242458305358885
2.318988718958207,-0.18666754159927398,-0.028577915668487597,-0.115256572723388
2.319594412477286,0.0169091185569763,0.170208705425262,0.138615497589112
2.320200105996366,0.127080016994476,0.146258510112762,0.112270282745362
2.320805799515445,-0.0285962525367737,0.0600378069877624,0.10748024368286199
2.321411493034525,0.0216991576194763,-0.09563846254348761,-0.0122707328796385
2.322017186553604,-0.0118311158180237,0.146258510112762,0.239206317901612
2.322622880072683,0.0672045287132263,0.0265075335502624,0.224836200714112
2.323228573591763,0.127080016994476,0.050457728862762403,-0.21584739303588799
2.323834267110842,-0.0381763306617737,0.09117306089401239,0.0188645210266115
2.324439960629921,-0.07170660409927371,-0.143538853168488,0.229626239776612
2.325045654149001,-0.11721197519302401,0.016927455425262403,-0.0841213188171385
2.32565134766808,0.0600194701194763,0.112728236675262,0.0739499702453615
2.326257041187159,-0.07170660409927371,0.0480627093315124,0.0907151069641115
2.326862734706239,-0.10763189706802401,-0.121983677387238,0.282316669464112
2.327468428225318,-0.014226135349273701,-0.00702273988723756,0.0835300483703615
2.328074121744397,0.000143981838226313,-0.0405530133247376,0.0164695014953615
2.328679815263477,0.20611566152572602,-0.119588657855988,0.10748024368286199
2.329285508782556,-0.124397033786774,0.151048549175262,-0.000295635223388454
2.329891202301635,-0.047756408786773695,0.009742396831512441,0.0955051460266115
2.330496895820715,0.0480443724632263,-0.0525281109809876,0.0763449897766115
2.331102589339794,-0.10763189706802401,-0.0549231305122376,-0.0122707328796385
2.331708282858873,0.258806091213226,0.0600378069877624,0.026049579620361498
2.332313976377953,0.00972405996322631,0.141468471050262,-0.0338259086608885
2.332919669897032,0.0193041380882263,-0.0740832867622376,0.0979001655578615
2.333525363416111,0.203720641994476,0.00255733823776244,0.246391376495362
2.334131056935191,-0.0333862915992737,-0.035762974262237596,0.200886005401612
2.33473675045427,-0.0405713501930237,-0.124378696918488,-0.0529860649108885
2.335342443973349,-0.105236877536774,0.141468471050262,0.198490985870362
2.335948137492429,-0.10763189706802401,0.165418666362762,0.196095966339112
2.336553831011508,0.0528344115257263,0.08159298276901239,-0.0960964164733885
2.337159524530587,0.115104919338226,0.09356808042526239,-0.0410109672546385
2.337765218049667,0.129475036525726,0.016927455425262403,-0.0673561820983885
2.338370911568746,0.038464294338226304,0.0696178851127624,0.299081806182862
2.338976605087826,-0.102841858005524,0.000162318706512438,0.332612079620362
2.339582298606905,0.040859313869476305,-0.033367954730987595,0.129035419464112
2.340187992125984,-0.045361389255523694,0.112728236675262,-0.0146657524108885
2.340793685645064,-0.0693115845680237,-0.191439243793488,0.059579853057861495
2.341399379164143,0.0025390013694763097,-0.155513950824738,-0.0362209281921385
2.342005072683222,0.0911547240257263,0.07201290464401239,0.210466083526612
2.342610766202302,-0.0597315064430237,-0.0022327008247375597,0.0428147163391115
2.343216459721381,0.043254333400726305,-0.100428501605988,-0.057776103973388504
2.34382215324046,0.0648095091819763,0.158233607769012,0.0667649116516115
2.34442784675954,0.0839696654319763,-0.004627720355987561,0.0140744819641115
2.345033540278619,0.0025390013694763097,-0.0764783062934876,-0.0410109672546385
2.345639233797698,0.0695995482444763,0.050457728862762403,0.0547898139953615
2.346244927316778,0.18216546621322602,-0.172279087543488,0.0356296577453615
2.3468506208358573,0.0480443724632263,-0.0549231305122376,-0.0314308891296385
2.347456314354936,0.184560485744476,0.117518275737762,0.0499997749328615
2.3480620078740158,-0.0645215455055237,0.0336925921440124,0.10748024368286199
2.348667701393095,-0.11242193613052401,-0.184254185199738,0.021259540557861497
2.3492733949121742,-0.11481695566177401,-0.114798618793488,0.0140744819641115
2.349879088431254,-0.0549414673805237,-0.0716882672309876,0.10987526321411199
2.350484781950333,0.14145013418197602,-0.0573181500434876,-0.0697512016296385
2.351090475469413,0.0312792357444763,0.254034389019012,0.14340553665161201
2.351696168988492,0.0169091185569763,0.0432726702690124,0.00928444290161155
2.352301862507571,0.127080016994476,0.0480627093315124,-0.160761943817138
2.35290755602665,-0.07410162363052371,-0.124378696918488,-0.158366924285888
2.3535132495457303,-0.0621265259742737,-0.29203006410598803,-0.00269065475463845
2.354118943064809,-0.047756408786773695,0.08398800230026239,0.0499997749328615
2.3547246365838888,0.045649352931976306,0.136678431987762,-0.0170607719421385
2.355330330102968,0.09594476308822629,0.155838588237762,0.00449440383911155
2.3559360236220472,-0.0980518189430237,-0.131563755512238,0.0691599311828615
2.356541717141127,0.045649352931976306,-0.299215122699738,0.16256569290161202
2.357147410660206,0.0839696654319763,-0.0573181500434876,0.188910907745362
2.357753104179285,0.036069274806976304,0.016927455425262403,0.00209938430786155
2.358358797698365,0.036069274806976304,-0.0573181500434876,0.0380246772766115
2.358964491217444,-0.136372131443024,-0.0645032086372376,0.193700946807862
2.359570184736523,0.0719945677757263,-0.014207798480987601,-0.0146657524108885
2.3601758782556033,-0.00943609628677369,0.0193224749565124,0.0140744819641115
2.360781571774682,-0.07889166269302371,0.07680294370651239,-0.00508567428588845
2.361387265293761,0.100734802150726,0.174998744487762,0.0547898139953615
2.361992958812841,0.0695995482444763,0.141468471050262,-0.019455791473388502
2.3625986523319202,-0.23696295175552398,0.0265075335502624,-0.15118186569213798
2.363204345850999,-0.174692443943024,-0.0213928570747376,0.10748024368286199
2.363810039370079,0.00732904043197631,0.172603724956512,-0.0458010063171385
2.364415732889158,0.043254333400726305,0.10075313901901199,0.18172584915161202
2.365021426408237,0.0193041380882263,-0.033367954730987595,0.026049579620361498
2.365627119927317,0.0216991576194763,-0.035762974262237596,0.131430438995362
2.366232813446396,-0.00225103769302369,-0.251314732074738,0.24160133743286202
2.366838506965475,-0.13158209238052399,-0.0237878766059876,-0.0242458305358885
2.367444200484555,-0.17708746347427398,-0.0645032086372376,-0.18231711959838798
2.368049894003634,-0.042966369724273694,-0.038157993793487596,0.0380246772766115
2.368655587522714,0.000143981838226313,0.18457882261276198,0.260761493682862
2.3692612810417932,0.0815746459007263,-0.193834263324738,-0.27332786178588797
2.369866974560872,-0.08607672128677371,-0.210599400043488,0.0763449897766115
2.370472668079951,-0.332763733005524,0.0073473773002624395,0.0763449897766115
2.371078361599031,-0.07410162363052371,0.016927455425262403,-0.057776103973388504
2.37168405511811,0.16779534902572601,-0.0477380719184876,0.179330829620362
2.37228974863719,0.014514099025726299,-0.126773716449738,0.00688942337036155
2.372895442156269,-0.13158209238052399,-0.117193638324738,0.023654560089111498
2.373501135675348,0.0576244505882263,-0.09084842348098761,-0.0553810844421385
2.374106829194428,0.0528344115257263,-0.0740832867622376,0.0643698921203615
2.374712522713507,-0.0908667603492737,-0.0740832867622376,0.20807106399536202
2.375318216232586,-0.0357813111305237,-0.270474888324738,-0.0673561820983885
2.3759239097516662,0.09594476308822629,-0.0692932476997376,0.0979001655578615
2.376529603270745,0.004934020900726309,0.0456676898002624,0.220046161651612
2.377135296789824,0.14624017324447602,-0.0549231305122376,0.112270282745362
2.377740990308904,0.208510681056976,-0.08845340394973761,-0.0960964164733885
2.378346683827983,-0.0597315064430237,-0.133958775043488,-0.110466533660888
2.378952377347062,-0.17229742441177398,0.000162318706512438,0.0811350288391115
2.379558070866142,0.0169091185569763,-0.0788733258247376,-0.0841213188171385
2.380163764385221,0.0480443724632263,-0.09563846254348761,-0.0625661430358885
2.3807694579043,0.09594476308822629,-0.141143833637238,0.126640399932862
2.38137515142338,0.0624144896507263,0.177393764019012,-0.057776103973388504
2.381980844942459,-0.07410162363052371,0.337860072612762,0.033234638214111496
2.382586538461538,-0.11721197519302401,-0.126773716449738,-0.244587627410888
2.383192231980618,0.15103021230697602,0.028902553081512402,-0.19189719772338798
2.383797925499697,0.19653558340072602,0.287564662456512,0.246391376495362
2.384403619018776,0.0288842162132263,0.167813685894012,-0.117651592254638
2.385009312537856,-0.0597315064430237,0.10314815855026199,-0.0937013969421385
2.385615006056935,-0.0573364869117737,0.0217174944877624,0.239206317901612
2.386220699576015,0.00732904043197631,-0.129168735980988,0.20328102493286201
2.386826393095094,0.0648095091819763,-0.301610142230988,0.17214577102661202
2.387432086614173,-0.07410162363052371,-0.09324344301223761,-0.00987571334838845
2.388037780133253,-0.11481695566177401,-0.028577915668487597,-0.0673561820983885
2.388643473652332,0.0815746459007263,0.0648278460502624,0.117060321807862
2.389249167171411,0.09594476308822629,0.000162318706512438,-0.0529860649108885
2.389854860690491,0.119894958400726,-0.035762974262237596,0.00688942337036155
2.39046055420957,0.13666009511947602,0.0121374163627624,-0.0793312797546385
2.391066247728649,0.203720641994476,-0.179464146137238,-0.0434059867858885
2.391671941247729,-0.124397033786774,0.201343959331512,-0.14639182662963798
2.392277634766808,-0.0693115845680237,0.009742396831512441,-0.110466533660888
2.392883328285887,0.18695550527572602,-0.030972935199737598,0.0571848335266115
2.393489021804967,0.100734802150726,-0.0501330914497376,-0.170342021942138
2.394094715324046,0.0695995482444763,0.07680294370651239,-0.0386159477233885
2.394700408843125,0.0121190794944763,0.050457728862762403,0.5385837593078621
2.395306102362205,-0.0956567994117737,-0.193834263324738,0.39488258743286203
2.395911795881284,-0.102841858005524,0.00495235776901244,0.121850360870362
2.396517489400363,-0.019016174411773702,-0.129168735980988,0.160170673370362
2.397123182919443,0.036069274806976304,0.0408776507377624,-0.0362209281921385
2.397728876438522,-0.124397033786774,-0.189044224262238,0.10748024368286199
2.398334569957601,-0.22738287363052398,-0.0189978375434876,0.0883200874328615
2.398940263476681,0.215695739650726,0.0480627093315124,0.136220478057862
2.39954595699576,0.014514099025726299,-0.121983677387238,-0.0434059867858885
2.400151650514839,-0.0980518189430237,0.0624328265190124,-0.179922100067138
2.400757344033919,0.115104919338226,-0.0645032086372376,-0.15597190475463799
2.401363037552998,0.0839696654319763,-0.0597131695747376,-0.0817262992858885
2.401968731072078,-0.00943609628677369,-0.0525281109809876,0.138615497589112
2.402574424591157,0.110314880275726,-0.0692932476997376,0.0571848335266115
2.403180118110236,0.119894958400726,-0.0788733258247376,0.14819557571411202
2.403785811629316,-0.0333862915992737,-0.0477380719184876,0.164960712432862
2.404391505148395,0.208510681056976,0.009742396831512441,0.186515888214112
2.404997198667474,0.0887597044944763,0.107938197612762,0.0356296577453615
2.405602892186554,0.043254333400726305,-0.038157993793487596,-0.019455791473388502
2.406208585705633,0.004934020900726309,-0.110008579730988,0.188910907745362
2.406814279224712,0.043254333400726305,-0.0621081891059876,0.00209938430786155
2.407419972743792,0.040859313869476305,0.0073473773002624395,0.0931101264953615
2.408025666262871,-0.00225103769302369,-0.107613560199738,0.14340553665161201
2.4086313597819498,0.038464294338226304,-0.210599400043488,0.121850360870362
2.40923705330103,0.14624017324447602,0.028902553081512402,0.0116794624328615
2.409842746820109,0.107919860744476,0.0696178851127624,-0.160761943817138
2.410448440339188,-0.0932617798805237,0.0432726702690124,0.126640399932862
2.411054133858268,0.0887597044944763,-0.189044224262238,0.0428147163391115
2.411659827377347,0.0672045287132263,-0.100428501605988,-0.103281475067138
2.412265520896426,-0.122002014255524,0.124703334331512,0.22244118118286202
2.412871214415506,-0.0262012330055237,0.0073473773002624395,-0.0769362602233885
2.413476907934585,-0.045361389255523694,-0.038157993793487596,-0.24698264694213798
2.4140826014536643,-0.0118311158180237,-0.133958775043488,-0.0410109672546385
2.414688294972744,-0.0693115845680237,-0.0118127789497376,0.0787400093078615
2.4152939884918228,0.026489196681976298,0.167813685894012,0.10987526321411199
2.415899682010902,0.119894958400726,0.170208705425262,-0.13681174850463798
2.416505375529982,-0.00943609628677369,0.0432726702690124,-0.0266408500671385
2.417111069049061,-0.136372131443024,-0.0645032086372376,0.0452097358703615
2.41771676256814,0.0624144896507263,0.0312975726127624,0.10987526321411199
2.41832245608722,0.09594476308822629,0.136678431987762,0.16735573196411202
2.418928149606299,-0.0166211548805237,-0.0237878766059876,0.129035419464112
2.419533843125379,0.15103021230697602,-0.210599400043488,0.289501728057862
2.420139536644458,0.115104919338226,-0.119588657855988,-0.0913063774108885
2.4207452301635373,0.25401605215072603,0.09356808042526239,0.021259540557861497
2.421350923682617,-0.145952209568024,0.0959630999565124,0.0476047554016115
2.4219566172016957,-0.11481695566177401,0.151048549175262,0.0188645210266115
2.422562310720775,-0.0549414673805237,-0.181859165668488,0.10508522415161199
2.423168004239855,-0.11721197519302401,-0.105218540668488,0.0571848335266115
2.423773697758934,0.0815746459007263,-0.112403599262238,0.20328102493286201
2.424379391278013,-0.0884717408180237,-0.198624302387238,-0.20147727584838798
2.424985084797093,-0.0621265259742737,-0.0716882672309876,-0.321228252410888
2.425590778316172,0.0336742552757263,0.0265075335502624,0.200886005401612
2.426196471835251,-0.07649664316177371,0.0384826312065124,0.35416725540161204
2.426802165354331,-0.08128668222427371,-0.244129673480988,0.114665302276612
2.4274078588734103,-0.0908667603492737,-0.198624302387238,-0.0841213188171385
2.428013552392489,-0.141162170505524,0.158233607769012,-0.175132061004638
2.4286192459115687,-0.00225103769302369,-0.0405530133247376,0.0547898139953615
2.429224939430648,-0.0405713501930237,-0.09803348207473761,0.10269020462036199
2.4298306329497272,-0.00225103769302369,0.136678431987762,0.160170673370362
2.430436326468807,-0.0621265259742737,-0.0692932476997376,0.14340553665161201
2.431042019987886,-0.0573364869117737,0.251639369487762,0.279921649932862
2.431647713506965,0.0288842162132263,-0.0453430523872376,0.174540790557862
2.432253407026045,-0.0621265259742737,-0.026182896137237597,-0.0122707328796385
2.432859100545124,0.0240941771507263,-0.038157993793487596,-0.13202170944213798
2.433464794064203,0.0216991576194763,-0.23454959535598802,-0.14160178756713798
2.4340704875832833,-0.07889166269302371,0.0696178851127624,0.193700946807862
2.434676181102362,-0.0118311158180237,0.146258510112762,0.00928444290161155
2.4352818746214417,-0.0357813111305237,0.000162318706512438,0.16735573196411202
2.435887568140521,0.0025390013694763097,-0.035762974262237596,0.0499997749328615
2.4364932616596002,0.0336742552757263,-0.033367954730987595,0.129035419464112
2.43709895517868,0.09354974355697629,0.0576427874565124,0.141010517120362
2.437704648697759,-0.0262012330055237,-0.0501330914497376,-0.103281475067138
2.438310342216838,-0.0262012330055237,-0.0237878766059876,-0.115256572723388
2.438916035735918,0.0528344115257263,0.220504115581512,-0.07454124069213851
2.439521729254997,-0.19145758066177399,-0.0812683453559876,0.0883200874328615
2.440127422774076,-0.11721197519302401,-0.126773716449738,0.0811350288391115
2.4407331162931563,0.115104919338226,-0.0405530133247376,0.0739499702453615
2.441338809812235,0.0480443724632263,-0.0645032086372376,0.21286110305786202
2.441944503331314,-0.13158209238052399,-0.117193638324738,0.0739499702453615
2.442550196850394,-0.0549414673805237,0.009742396831512441,-0.021850811004638503
2.4431558903694732,0.174980407619476,-0.030972935199737598,0.234416278839112
2.443761583888552,0.0288842162132263,-0.09324344301223761,0.21765114212036202
2.444367277407632,-0.198642639255524,0.0648278460502624,0.0715549507141115
2.444972970926711,0.13666009511947602,0.0360876116752624,-0.0649611625671385
2.44557866444579,0.0887597044944763,-0.126773716449738,0.0499997749328615
2.44618435796487,-0.0908667603492737,0.0408776507377624,0.00449440383911155
2.446790051483949,0.100734802150726,0.337860072612762,-0.0434059867858885
2.447395745003028,-0.11002691659927401,-0.0477380719184876,-0.112861553192138
2.448001438522108,-0.00225103769302369,-0.162699009418488,-0.0769362602233885
2.448607132041187,0.036069274806976304,-0.0597131695747376,0.0811350288391115
2.449212825560267,-0.193852600193024,-0.0501330914497376,-0.060171123504638505
2.4498185190793462,0.0552294310569763,0.0121374163627624,-0.021850811004638503
2.450424212598425,-0.07889166269302371,-0.030972935199737598,-0.0937013969421385
2.451029906117504,0.036069274806976304,0.122308314800262,0.0116794624328615
2.451635599636584,0.127080016994476,0.213319056987762,0.14340553665161201
2.452241293155663,-0.00464605722427369,-0.121983677387238,0.121850360870362
2.452846986674743,0.174980407619476,-0.133958775043488,0.0452097358703615
2.453452680193822,0.12228997793197599,0.160628627300262,-0.0146657524108885
2.454058373712901,-0.19145758066177399,0.028902553081512402,-0.07454124069213851
2.454664067231981,-0.150742248630524,0.0145324358940124,-0.417029033660888
2.45526976075106,0.0121190794944763,-0.0549231305122376,0.188910907745362
2.455875454270139,-0.0621265259742737,-0.0429480328559876,0.0931101264953615
2.456481147789219,0.0121190794944763,-0.131563755512238,-0.148786846160888
2.457086841308298,0.0528344115257263,-0.0716882672309876,0.17214577102661202
2.457692534827377,-0.00943609628677369,0.139073451519012,-0.0553810844421385
2.458298228346457,-0.0693115845680237,-0.028577915668487597,0.0907151069641115
2.458903921865536,0.0839696654319763,-0.153118931293488,-0.00987571334838845
2.459509615384615,0.13666009511947602,-0.145933872699738,-0.00987571334838845
2.460115308903695,-0.0238062134742737,-0.0836633648872376,0.0116794624328615
2.460721002422774,0.14145013418197602,-0.0812683453559876,-0.0937013969421385
2.461326695941853,0.13187005605697602,-0.0836633648872376,0.14819557571411202
2.461932389460933,0.09354974355697629,-0.0022327008247375597,0.14340553665161201
2.462538082980012,0.21090570058822602,0.19415890073776199,-0.021850811004638503
2.463143776499091,-0.0262012330055237,0.00495235776901244,0.0428147163391115
2.463749470018171,-0.205827697849274,0.08877804136276239,0.10987526321411199
2.46435516353725,-0.050151428318023696,0.110333217144012,-0.0242458305358885
2.464960857056329,-0.07649664316177371,0.0265075335502624,-0.0122707328796385
2.465566550575409,0.0312792357444763,0.117518275737762,0.18172584915161202
2.466172244094488,0.09354974355697629,0.0121374163627624,-0.0170607719421385
2.466777937613568,0.129475036525726,-0.08845340394973761,0.129035419464112
2.467383631132647,0.038464294338226304,-0.0213928570747376,0.188910907745362
2.467989324651726,-0.0333862915992737,-0.0189978375434876,0.0356296577453615
2.468595018170806,0.026489196681976298,-0.157908970355988,0.026049579620361498
2.469200711689885,-0.11721197519302401,0.07201290464401239,-0.103281475067138
2.469806405208964,-0.143557190036774,-0.117193638324738,0.0523947944641115
2.470412098728044,0.100734802150726,-0.102823521137238,0.0715549507141115
2.471017792247123,0.215695739650726,0.0672228655815124,0.0452097358703615
2.471623485766202,0.0911547240257263,-0.0477380719184876,-0.0386159477233885
2.472229179285282,0.0528344115257263,0.009742396831512441,0.0523947944641115
2.472834872804361,-0.11242193613052401,0.119913295269012,0.0571848335266115
2.47344056632344,-0.0333862915992737,0.124703334331512,0.0883200874328615
2.47404625984252,0.026489196681976298,0.0312975726127624,0.282316669464112
2.474651953361599,0.0312792357444763,0.08159298276901239,0.059579853057861495
2.475257646880678,0.163005309963226,0.10314815855026199,-0.060171123504638505
2.475863340399758,-0.0956567994117737,0.08877804136276239,0.18172584915161202
2.476469033918837,-0.0118311158180237,-0.0597131695747376,0.10748024368286199
2.477074727437916,0.225275817775726,-0.0405530133247376,0.0883200874328615
2.477680420956996,-0.0693115845680237,-0.00941775941848756,-0.0338259086608885
2.478286114476075,-0.141162170505524,-0.222574497699738,-0.00508567428588845
2.478891807995154,0.0312792357444763,-0.00941775941848756,0.0979001655578615
2.479497501514234,0.026489196681976298,0.0624328265190124,0.0140744819641115
2.480103195033313,-0.16271734628677398,-0.00941775941848756,-0.120046611785888
2.480708888552392,-0.224987854099274,-0.08605838441848761,-0.0266408500671385
2.481314582071472,-0.0118311158180237,0.136678431987762,0.136220478057862
2.481920275590551,0.0240941771507263,0.258824428081512,0.22723122024536202
2.482525969109631,-0.08128668222427371,-0.189044224262238,0.0739499702453615
2.48313166262871,-0.0908667603492737,-0.0429480328559876,-0.0338259086608885
2.483737356147789,0.0193041380882263,0.119913295269012,0.10748024368286199
2.484343049666869,0.15103021230697602,-0.17467410707473802,0.552953876495362
2.484948743185948,0.004934020900726309,-0.110008579730988,0.272736591339112
2.485554436705027,-0.0908667603492737,0.0073473773002624395,0.0116794624328615
2.486160130224107,-0.141162170505524,-0.09563846254348761,0.200886005401612
2.4867658237431858,-0.15313726816177398,-0.153118931293488,-0.108071514129638
2.487371517262265,0.026489196681976298,-0.035762974262237596,0.023654560089111498
2.487977210781345,0.165400329494476,-0.205809360980988,0.00209938430786155
2.488582904300424,-0.07649664316177371,-0.0645032086372376,-0.00748069381713845
2.4891885978195027,0.16779534902572601,0.182183803081512,0.021259540557861497
2.489794291338583,0.115104919338226,-0.0788733258247376,0.0476047554016115
2.490399984857662,-0.019016174411773702,-0.038157993793487596,0.0164695014953615
2.491005678376741,0.09354974355697629,0.0959630999565124,0.138615497589112
2.491611371895821,0.0743895873069763,-0.0189978375434876,0.20328102493286201
2.4922170654149003,0.20132562246322602,0.0600378069877624,0.126640399932862
2.492822758933979,0.0025390013694763097,0.07440792417526239,-0.0242458305358885
2.4934284524530588,0.014514099025726299,0.107938197612762,-0.0458010063171385
2.494034145972138,-0.00704107675552369,0.016927455425262403,0.0811350288391115
2.4946398394912173,-0.0381763306617737,-0.296820103168488,0.141010517120362
2.495245533010297,0.0288842162132263,0.0408776507377624,0.224836200714112
2.4958512265293757,-0.07170660409927371,-0.08605838441848761,0.00928444290161155
2.496456920048455,-0.150742248630524,-0.181859165668488,-0.0481960258483885
2.497062613567535,-0.0645215455055237,-0.0237878766059876,0.0476047554016115
2.497668307086614,0.194140563869476,0.174998744487762,-0.0386159477233885
2.498274000605693,0.0528344115257263,0.117518275737762,0.033234638214111496
2.4988796941247733,0.115104919338226,-0.205809360980988,-0.175132061004638
2.499485387643852,0.15103021230697602,0.08159298276901239,-0.057776103973388504
2.5000910811629318,-0.0669165650367737,0.146258510112762,-0.0242458305358885
2.500696774682011,0.0695995482444763,-0.033367954730987595,-0.0697512016296385
2.5013024682010903,0.0672045287132263,0.0336925921440124,-0.117651592254638
2.50190816172017,-0.0309912720680237,-0.0573181500434876,-0.15118186569213798
2.5025138552392487,0.0815746459007263,0.0384826312065124,-0.0937013969421385
2.503119548758328,0.0600194701194763,0.256429408550262,0.10269020462036199
2.503725242277408,-0.20822271738052398,0.0408776507377624,0.21765114212036202
2.504330935796487,-0.07170660409927371,0.0983581194877624,0.0931101264953615
2.504936629315566,0.0719945677757263,0.0456676898002624,0.0763449897766115
2.5055423228346463,-0.014226135349273701,-0.09084842348098761,-0.170342021942138
2.506148016353725,-0.0549414673805237,0.0145324358940124,0.131430438995362
2.506753709872804,0.0193041380882263,-0.0429480328559876,0.0715549507141115
2.507359403391884,-0.143557190036774,-0.0716882672309876,0.021259540557861497
2.5079650969109633,0.0576244505882263,-0.155513950824738,0.124245380401612
2.508570790430042,0.0216991576194763,-0.121983677387238,0.0667649116516115
2.5091764839491217,-0.0118311158180237,-0.133958775043488,-0.0529860649108885
2.509782177468201,0.14624017324447602,0.055247767925262405,0.0859250679016115
2.5103878709872802,0.107919860744476,0.177393764019012,0.308661884307862
2.51099356450636,-0.0597315064430237,-0.167489048480988,0.10029518508911199
2.511599258025439,-0.00225103769302369,0.07919796323776239,0.0835300483703615
2.512204951544518,0.287546325588226,-0.00702273988723756,0.229626239776612
2.512810645063598,-0.224987854099274,-0.08605838441848761,-0.00508567428588845
2.513416338582677,0.0672045287132263,0.00255733823776244,-0.170342021942138
2.514022032101756,0.19653558340072602,-0.0692932476997376,-0.227822490692138
2.5146277256208363,-0.050151428318023696,0.206133998394012,-0.31404319381713797
2.515233419139915,0.0911547240257263,0.07440792417526239,0.196095966339112
2.515839112658994,0.0767846068382263,-0.110008579730988,0.210466083526612
2.516444806178074,0.0863646849632263,-0.00702273988723756,0.0979001655578615
2.517050499697153,0.0672045287132263,0.0384826312065124,0.117060321807862
2.517656193216233,0.115104919338226,-0.141143833637238,-0.108071514129638
2.518261886735312,0.309101501369476,-0.0429480328559876,-0.0338259086608885
2.518867580254391,-0.0262012330055237,0.12949337339401198,-0.0290358695983885
2.519473273773471,0.0767846068382263,0.00255733823776244,0.0811350288391115
2.52007896729255,0.143845153713226,-0.0477380719184876,0.0164695014953615
2.520684660811629,-0.220197815036774,0.0193224749565124,-0.14160178756713798
2.5212903543307092,0.129475036525726,0.0073473773002624395,0.169750751495362
2.521896047849788,-0.0621265259742737,0.00495235776901244,-0.0434059867858885
2.522501741368867,-0.0118311158180237,0.0648278460502624,-0.0793312797546385
2.523107434887947,0.0672045287132263,0.206133998394012,0.10508522415161199
2.523713128407026,-0.16750738534927398,-0.09563846254348761,0.10269020462036199
2.524318821926105,-0.019016174411773702,0.028902553081512402,-0.0984914360046385
2.524924515445185,-0.00704107675552369,-0.0788733258247376,-0.0865163383483885
2.525530208964264,-0.0262012330055237,-0.256104771137238,-0.0841213188171385
2.526135902483343,-0.102841858005524,0.0696178851127624,0.0284445991516115
2.526741596002423,-0.0956567994117737,-0.162699009418488,0.00928444290161155
2.527347289521502,0.0240941771507263,-0.038157993793487596,-0.0673561820983885
2.527952983040581,-0.126792053318024,0.0600378069877624,0.119455341339112
2.528558676559661,-0.00225103769302369,0.12949337339401198,0.023654560089111498
2.52916437007874,-0.165112365818024,0.148653529644012,0.246391376495362
2.52977006359782,-0.21301275644302398,-0.0573181500434876,0.26555153274536203
2.530375757116899,0.0336742552757263,-0.212994419574738,0.196095966339112
2.530981450635978,-0.0309912720680237,-0.004627720355987561,-0.0960964164733885
2.531587144155058,0.0240941771507263,-0.030972935199737598,0.23681129837036202
2.532192837674137,-0.0262012330055237,0.158233607769012,0.29429176712036204
2.532798531193216,0.0528344115257263,0.0648278460502624,-0.0146657524108885
2.533404224712296,-0.045361389255523694,0.127098353862762,0.251181415557862
2.534009918231375,-0.0118311158180237,0.208529017925262,0.0811350288391115
2.534615611750454,0.12468499746322599,-0.004627720355987561,0.0859250679016115
2.535221305269534,-0.160322326755524,-0.09803348207473761,0.20807106399536202
2.535826998788613,0.0336742552757263,-0.0237878766059876,0.0547898139953615
2.536432692307692,-0.0309912720680237,-0.143538853168488,-0.20147727584838798
2.537038385826772,-0.0214111939430237,-0.23454959535598802,-0.15118186569213798
2.537644079345851,-0.0956567994117737,-0.0022327008247375597,0.0739499702453615
2.53824977286493,-0.215407775974274,-0.0668982281684876,0.033234638214111496
2.53885546638401,0.0791796263694763,-0.0453430523872376,-0.00748069381713845
2.539461159903089,0.0719945677757263,-0.0716882672309876,0.0667649116516115
2.540066853422168,0.13666009511947602,-0.08845340394973761,0.23202125930786202
2.540672546941248,0.28515130605697603,-0.179464146137238,0.00688942337036155
2.541278240460327,0.148635192775726,0.0983581194877624,-0.000295635223388454
2.541883933979406,-0.0405713501930237,0.0456676898002624,0.126640399932862
2.542489627498486,-0.0262012330055237,-0.157908970355988,-0.115256572723388
2.543095321017565,0.0767846068382263,-0.0405530133247376,0.0284445991516115
2.543701014536644,-0.0932617798805237,0.08398800230026239,0.0523947944641115
2.544306708055724,-0.00225103769302369,0.136678431987762,-0.223032451629638
2.544912401574803,0.139055114650726,0.0672228655815124,-0.0362209281921385
2.545518095093882,-0.0238062134742737,0.0336925921440124,0.636779560089112
2.546123788612962,0.0743895873069763,0.148653529644012,0.0667649116516115
2.546729482132041,0.00732904043197631,0.09117306089401239,-0.15597190475463799
2.547335175651121,-0.0693115845680237,-0.00702273988723756,-0.0817262992858885
2.5479408691702,0.00732904043197631,0.0265075335502624,-0.108071514129638
2.548546562689279,0.000143981838226313,0.0384826312065124,0.191305927276612
2.549152256208359,-0.11002691659927401,-0.014207798480987601,0.0116794624328615
2.549757949727438,-0.00225103769302369,-0.241734653949738,0.0547898139953615
2.550363643246517,0.129475036525726,0.0384826312065124,0.0691599311828615
2.550969336765597,-0.0381763306617737,-0.038157993793487596,0.0931101264953615
2.551575030284676,-0.07410162363052371,0.000162318706512438,0.033234638214111496
2.552180723803755,0.0504393919944763,0.0432726702690124,0.0499997749328615
2.552786417322835,0.000143981838226313,-0.280054966449738,0.0476047554016115
2.553392110841914,0.160610290431976,-0.196229282855988,0.164960712432862
2.5539978043609928,-0.0597315064430237,-0.0836633648872376,-0.0146657524108885
2.554603497880073,-0.08128668222427371,-0.148328892230988,-0.0529860649108885
2.555209191399152,-0.0884717408180237,-0.172279087543488,-0.175132061004638
2.555814884918231,0.043254333400726305,0.09356808042526239,0.0116794624328615
2.556420578437311,-0.0381763306617737,0.0145324358940124,0.258366474151612
2.55702627195639,-0.0980518189430237,0.148653529644012,-0.158366924285888
2.557631965475469,0.13666009511947602,0.09117306089401239,-0.134416728973388
2.558237658994549,-0.0669165650367737,-0.143538853168488,0.16256569290161202
2.558843352513628,0.0839696654319763,-0.131563755512238,0.0499997749328615
2.5594490460327073,0.15103021230697602,-0.0501330914497376,-0.120046611785888
2.560054739551787,-0.042966369724273694,-0.0237878766059876,-0.0146657524108885
2.5606604330708658,-0.136372131443024,0.198948939800262,0.150590595245362
2.561266126589945,-0.08368170175552371,-0.00941775941848756,0.196095966339112
2.561871820109025,-0.0405713501930237,-0.16509402894973801,0.10987526321411199
2.562477513628104,-0.08368170175552371,-0.186649204730988,-0.0913063774108885
2.563083207147184,0.000143981838226313,0.055247767925262405,-0.227822490692138
2.563688900666263,0.115104919338226,0.0959630999565124,0.160170673370362
2.564294594185342,0.09354974355697629,-0.033367954730987595,0.021259540557861497
2.564900287704422,0.129475036525726,-0.0237878766059876,-0.0673561820983885
2.565505981223501,-0.00704107675552369,-0.030972935199737598,0.141010517120362
2.5661116747425803,0.0743895873069763,0.0312975726127624,0.136220478057862
2.56671736826166,-0.0238062134742737,-0.0213928570747376,-0.0769362602233885
2.5673230617807388,0.110314880275726,-0.0549231305122376,-0.20147727584838798
2.567928755299818,0.0504393919944763,0.0121374163627624,-0.103281475067138
2.568534448818898,0.148635192775726,-0.033367954730987595,-0.13681174850463798
2.569140142337977,0.163005309963226,-0.172279087543488,-0.0146657524108885
2.5697458358570557,-0.119606994724274,-0.0549231305122376,0.0380246772766115
2.570351529376136,0.09594476308822629,-0.179464146137238,-0.0769362602233885
2.570957222895215,0.0743895873069763,0.177393764019012,0.0452097358703615
2.571562916414294,-0.0597315064430237,0.0265075335502624,0.210466083526612
2.572168609933374,0.100734802150726,0.0384826312065124,0.16735573196411202
2.5727743034524533,0.026489196681976298,0.0983581194877624,0.0164695014953615
2.573379996971532,0.155820251369476,0.00255733823776244,0.0164695014953615
2.5739856904906118,0.213300720119476,0.08877804136276239,-0.266142803192138
2.574591384009691,0.117499938869476,-0.038157993793487596,-0.232612529754638
2.5751970775287703,0.0695995482444763,0.0959630999565124,0.536188739776612
2.57580277104785,-0.0573364869117737,0.08398800230026239,0.533793720245362
2.576408464566929,0.0169091185569763,-0.102823521137238,0.0380246772766115
2.577014158086008,0.0480443724632263,0.124703334331512,0.272736591339112
2.577619851605088,0.038464294338226304,0.277984584331512,0.246391376495362
2.578225545124167,-0.0573364869117737,0.028902553081512402,-0.153576885223388
2.578831238643246,0.0648095091819763,0.0480627093315124,-0.275722881317138
2.5794369321623263,-0.052546447849273696,-0.193834263324738,-0.282907939910888
2.580042625681405,0.014514099025726299,-0.0405530133247376,0.0380246772766115
2.5806483192004848,-0.019016174411773702,0.196553920269012,0.18172584915161202
2.581254012719564,0.14145013418197602,0.000162318706512438,0.0164695014953615
2.5818597062386432,0.20132562246322602,0.167813685894012,0.129035419464112
2.582465399757723,0.036069274806976304,0.112728236675262,0.131430438995362
2.583071093276802,0.0025390013694763097,-0.112403599262238,0.0164695014953615
2.583676786795881,-0.133977111911774,-0.16509402894973801,0.0955051460266115
2.584282480314961,0.163005309963226,-0.038157993793487596,0.10029518508911199
2.58488817383404,0.038464294338226304,-0.112403599262238,0.119455341339112
2.585493867353119,0.12228997793197599,0.0312975726127624,0.129035419464112
2.5860995608721993,0.12468499746322599,0.08159298276901239,-0.0362209281921385
2.586705254391278,-0.22738287363052398,0.0241125140190124,-0.0505910453796385
2.587310947910357,0.0767846068382263,0.07440792417526239,0.10508522415161199
2.587916641429437,0.174980407619476,0.165418666362762,-0.0553810844421385
2.5885223349485162,0.17737542715072602,0.182183803081512,0.0188645210266115
2.589128028467595,0.14145013418197602,-0.148328892230988,-0.110466533660888
2.589733721986675,0.0624144896507263,-0.0692932476997376,-0.235007549285888
2.590339415505754,0.0480443724632263,-0.0668982281684876,0.0188645210266115
2.590945109024833,0.014514099025726299,-0.035762974262237596,0.117060321807862
2.591550802543913,0.0719945677757263,0.139073451519012,-0.108071514129638
2.592156496062992,0.045649352931976306,-0.0597131695747376,0.0667649116516115
2.592762189582071,-0.00464605722427369,-0.198624302387238,0.0715549507141115
2.593367883101151,0.0863646849632263,-0.160303989887238,-0.20147727584838798
2.59397357662023,0.0695995482444763,-0.09563846254348761,0.131430438995362
2.59457927013931,-0.045361389255523694,-0.0836633648872376,0.210466083526612
2.5951849636583892,-0.124397033786774,0.0217174944877624,-0.13681174850463798
2.595790657177468,-0.014226135349273701,0.07440792417526239,-0.00269065475463845
2.596396350696547,0.0911547240257263,-0.131563755512238,-0.00508567428588845
2.597002044215627,0.0648095091819763,-0.0118127789497376,-0.127231670379638
2.597607737734706,-0.0645215455055237,-0.0597131695747376,0.124245380401612
2.598213431253786,-0.0214111939430237,-0.0501330914497376,0.033234638214111496
2.598819124772865,-0.0285962525367737,0.0456676898002624,-0.00508567428588845
2.599424818291944,-0.0693115845680237,-0.236944614887238,-0.0122707328796385
2.600030511811024,-0.0405713501930237,0.0672228655815124,0.14819557571411202
2.600636205330103,-0.047756408786773695,-0.172279087543488,0.251181415557862
2.601241898849182,0.0025390013694763097,0.00255733823776244,-0.122441631317138
2.6018475923682622,0.127080016994476,0.08877804136276239,-0.00269065475463845
2.602453285887341,0.17737542715072602,-0.220179478168488,0.0739499702453615
2.60305897940642,0.0193041380882263,-0.0453430523872376,-0.21584739303588799
2.6036646729255,0.218090759181976,-0.16509402894973801,-0.165551982879638
2.604270366444579,0.036069274806976304,0.110333217144012,0.430807880401612
2.604876059963658,-0.18187750253677398,-0.08605838441848761,0.828381122589112
2.605481753482738,0.0336742552757263,-0.0668982281684876,0.660729755401612
2.606087447001817,0.0121190794944763,0.146258510112762,0.694260028839112
2.606693140520896,0.040859313869476305,0.08159298276901239,0.0739499702453615
2.607298834039976,0.0336742552757263,0.112728236675262,-0.170342021942138
2.607904527559055,-0.052546447849273696,0.0360876116752624,0.131430438995362
2.608510221078134,0.18695550527572602,0.148653529644012,0.0643698921203615
2.609115914597214,0.12468499746322599,0.208529017925262,0.061974872589111496
2.609721608116293,-0.0621265259742737,-0.08605838441848761,-0.00508567428588845
2.610327301635373,-0.0908667603492737,-0.0237878766059876,0.0188645210266115
2.610932995154452,-0.205827697849274,0.0600378069877624,-0.0984914360046385
2.611538688673531,0.0528344115257263,-0.0189978375434876,0.10748024368286199
2.612144382192611,0.0911547240257263,0.10314815855026199,-0.00987571334838845
2.61275007571169,-0.00225103769302369,-0.004627720355987561,-0.203872295379638
2.613355769230769,0.0504393919944763,0.000162318706512438,0.119455341339112
2.613961462749849,0.036069274806976304,-0.126773716449738,-0.00987571334838845
2.614567156268928,0.0672045287132263,-0.210599400043488,-0.21584739303588799
2.615172849788007,-0.0669165650367737,-0.177069126605988,0.0140744819641115
2.615778543307087,0.0719945677757263,-0.0740832867622376,0.00449440383911155
2.616384236826166,0.0552294310569763,0.0145324358940124,-0.0314308891296385
2.616989930345245,-0.047756408786773695,0.07919796323776239,0.20807106399536202
2.617595623864325,0.103129821681976,0.0696178851127624,0.191305927276612
2.618201317383404,0.0121190794944763,0.0648278460502624,0.0667649116516115
2.618807010902483,0.14145013418197602,0.0576427874565124,0.0955051460266115
2.619412704421563,0.110314880275726,-0.09563846254348761,0.191305927276612
2.620018397940642,-0.0262012330055237,-0.117193638324738,0.0116794624328615
2.620624091459721,0.134265075588226,-0.0118127789497376,0.0428147163391115
2.621229784978801,0.12468499746322599,0.0983581194877624,0.0547898139953615
2.62183547849788,-0.174692443943024,-0.124378696918488,-0.0793312797546385
2.622441172016959,-0.014226135349273701,0.0959630999565124,-0.0529860649108885
2.623046865536039,0.18216546621322602,0.0241125140190124,-0.0266408500671385
2.623652559055118,-0.019016174411773702,-0.131563755512238,-0.0913063774108885
2.624258252574197,0.0743895873069763,0.124703334331512,0.021259540557861497
2.624863946093277,-0.08128668222427371,0.052852748394012404,0.169750751495362
2.625469639612356,0.160610290431976,0.0312975726127624,0.0356296577453615
2.626075333131435,0.13187005605697602,0.0336925921440124,0.20807106399536202
2.626681026650515,0.026489196681976298,-0.136353794574738,0.0667649116516115
2.627286720169594,-0.0166211548805237,-0.0549231305122376,0.229626239776612
2.627892413688674,-0.042966369724273694,-0.08845340394973761,0.311056903839112
2.628498107207753,0.134265075588226,-0.08845340394973761,-0.0481960258483885
2.629103800726832,0.0600194701194763,0.0384826312065124,0.0715549507141115
2.629709494245912,-0.0357813111305237,0.201343959331512,0.0907151069641115
2.630315187764991,0.0169091185569763,-0.0477380719184876,0.033234638214111496
2.63092088128407,-0.0980518189430237,-0.162699009418488,0.16256569290161202
2.63152657480315,-0.189062561130524,0.165418666362762,0.243996356964112
2.632132268322229,0.09833978261947629,0.0576427874565124,0.277526630401612
2.632737961841308,0.0839696654319763,0.0408776507377624,0.22244118118286202
2.633343655360388,0.09354974355697629,-0.189044224262238,-0.0673561820983885
2.633949348879467,-0.196247619724274,0.0576427874565124,0.5002634468078621
2.6345550423985458,-0.124397033786774,0.174998744487762,0.0931101264953615
2.635160735917626,0.189350524806976,0.00495235776901244,0.121850360870362
2.635766429436705,0.00972405996322631,-0.117193638324738,-0.158366924285888
2.636372122955784,-0.00225103769302369,-0.124378696918488,-0.170342021942138
2.636977816474864,-0.0166211548805237,-0.028577915668487597,-0.0362209281921385
2.637583509993943,0.0480443724632263,-0.038157993793487596,-0.251772686004638
2.638189203513022,0.0839696654319763,-0.0764783062934876,0.164960712432862
2.638794897032102,-0.0645215455055237,-0.119588657855988,-0.07454124069213851
2.639400590551181,0.0576244505882263,0.09117306089401239,-0.000295635223388454
2.6400062840702603,-0.00225103769302369,0.016927455425262403,-0.15118186569213798
2.64061197758934,-0.18666754159927398,-0.160303989887238,-0.15118186569213798
2.6412176711084188,-0.00704107675552369,-0.0621081891059876,-0.184712139129638
2.641823364627498,0.119894958400726,0.0648278460502624,-0.0505910453796385
2.642429058146578,-0.19145758066177399,0.000162318706512438,-0.019455791473388502
2.643034751665657,-0.102841858005524,-0.0692932476997376,-0.07454124069213851
2.643640445184736,-0.0285962525367737,-0.102823521137238,-0.057776103973388504
2.644246138703816,-0.0693115845680237,0.0672228655815124,0.179330829620362
2.644851832222895,-0.22259283456802398,0.122308314800262,-0.0386159477233885
2.645457525741975,-0.00464605722427369,-0.016602818012237598,-0.057776103973388504
2.646063219261054,0.174980407619476,-0.0118127789497376,0.191305927276612
2.6466689127801333,-0.0262012330055237,0.110333217144012,-0.0242458305358885
2.647274606299213,0.0312792357444763,-0.268079868793488,0.0452097358703615
2.6478802998182918,0.09354974355697629,-0.215389439105988,-0.0122707328796385
2.648485993337371,-0.0262012330055237,0.273194545269012,0.0356296577453615
2.649091686856451,-0.047756408786773695,0.258824428081512,0.00209938430786155
2.64969738037553,0.0791796263694763,-0.016602818012237598,-0.07454124069213851
2.650303073894609,0.09594476308822629,-0.0692932476997376,0.191305927276612
2.650908767413689,0.163005309963226,0.0576427874565124,0.0883200874328615
2.651514460932768,-0.13158209238052399,-0.186649204730988,0.0571848335266115
2.652120154451847,0.0911547240257263,0.0360876116752624,-0.0122707328796385
2.652725847970927,0.16779534902572601,-0.026182896137237597,0.0356296577453615
2.6533315414900063,-0.07649664316177371,-0.0621081891059876,0.059579853057861495
2.653937235009085,0.0336742552757263,-0.0716882672309876,0.16735573196411202
2.6545429285281648,-0.019016174411773702,-0.0429480328559876,0.141010517120362
2.655148622047244,-0.0285962525367737,0.08638302183151239,-0.0122707328796385
2.6557543155663232,0.0240941771507263,0.0193224749565124,0.0787400093078615
2.656360009085403,0.043254333400726305,0.201343959331512,0.0404196968078615
2.656965702604482,0.143845153713226,-0.033367954730987595,0.023654560089111498
2.657571396123562,0.0528344115257263,-0.112403599262238,0.0356296577453615
2.658177089642641,-0.0333862915992737,-0.196229282855988,0.00209938430786155
2.65878278316172,-0.0214111939430237,-0.263289829730988,-0.0434059867858885
2.659388476680799,-0.08607672128677371,-0.141143833637238,0.033234638214111496
2.6599941701998793,-0.0285962525367737,0.139073451519012,0.0835300483703615
2.660599863718958,-0.045361389255523694,0.143863490581512,0.0931101264953615
2.6612055572380378,0.0552294310569763,-0.09803348207473761,0.22244118118286202
2.661811250757117,0.112709899806976,0.0217174944877624,0.112270282745362
2.6624169442761962,-0.07170660409927371,0.143863490581512,0.0164695014953615
2.663022637795276,-0.105236877536774,-0.0645032086372376,0.184120868682862
2.663628331314355,-0.0956567994117737,-0.208204380512238,0.35416725540161204
2.664234024833434,-0.0238062134742737,-0.08845340394973761,0.193700946807862
2.664839718352514,-0.0262012330055237,0.115123256206512,0.416437763214112
2.665445411871593,-0.08128668222427371,-0.033367954730987595,0.545768817901612
2.666051105390672,0.0121190794944763,-0.114798618793488,0.603249286651612
2.6666567989097523,0.038464294338226304,0.0073473773002624395,0.272736591339112
2.667262492428831,-0.0357813111305237,-0.0405530133247376,-0.235007549285888
2.66786818594791,0.0839696654319763,0.10554317808151199,0.0763449897766115
2.66847387946699,0.0815746459007263,-0.028577915668487597,0.248786396026612
2.6690795729860692,-0.13158209238052399,-0.016602818012237598,0.00688942337036155
2.669685266505148,-0.0884717408180237,-0.0237878766059876,-0.0458010063171385
2.670290960024228,0.14145013418197602,-0.0645032086372376,-0.021850811004638503
2.670896653543307,-0.0262012330055237,-0.0022327008247375597,0.0188645210266115
2.671502347062386,-0.0357813111305237,-0.0692932476997376,0.138615497589112
2.672108040581466,0.038464294338226304,0.19415890073776199,-0.17752708053588798
2.672713734100545,-0.169902404880524,0.163023646831512,-0.110466533660888
2.673319427619624,-0.07410162363052371,-0.0429480328559876,0.0691599311828615
2.673925121138704,0.143845153713226,-0.0597131695747376,0.239206317901612
2.674530814657783,-0.00464605722427369,-0.0716882672309876,0.349377216339112
2.675136508176863,-0.0956567994117737,-0.157908970355988,0.0380246772766115
2.6757422016959422,0.170190368556976,-0.0764783062934876,0.145800556182862
2.676347895215021,0.045649352931976306,0.016927455425262403,0.15298561477661202
2.6769535887341,-0.0166211548805237,-0.09324344301223761,-0.00748069381713845
2.67755928225318,-0.07649664316177371,-0.201019321918488,0.0547898139953615
2.678164975772259,-0.0573364869117737,-0.0022327008247375597,0.023654560089111498
2.678770669291339,-0.0357813111305237,0.09117306089401239,-0.0553810844421385
2.679376362810418,-0.141162170505524,-0.016602818012237598,0.0547898139953615
2.679982056329497,0.0767846068382263,0.0672228655815124,0.023654560089111498
2.680587749848577,0.0648095091819763,-0.09084842348098761,0.0547898139953615
2.681193443367656,-0.15313726816177398,-0.198624302387238,0.23681129837036202
2.681799136886735,-0.198642639255524,-0.0692932476997376,-0.0673561820983885
2.6824048304058152,-0.100446838474274,0.0696178851127624,-0.0505910453796385
2.683010523924894,-0.122002014255524,-0.0022327008247375597,-0.00508567428588845
2.683616217443973,-0.00464605722427369,0.115123256206512,-0.0362209281921385
2.684221910963053,0.09594476308822629,0.000162318706512438,0.121850360870362
2.684827604482132,0.09594476308822629,-0.22975955629348802,0.0571848335266115
2.685433298001211,-0.0381763306617737,0.0983581194877624,0.0787400093078615
2.686038991520291,-0.10763189706802401,0.000162318706512438,0.00928444290161155
2.68664468503937,0.0648095091819763,-0.0692932476997376,0.0308396186828615
2.687250378558449,-0.052546447849273696,0.0456676898002624,-0.0625661430358885
2.687856072077529,-0.052546447849273696,-0.09084842348098761,-0.0649611625671385
2.688461765596608,-0.10763189706802401,0.00255733823776244,0.0164695014953615
2.689067459115687,-0.07170660409927371,0.167813685894012,-0.129626689910888
2.689673152634767,0.153425231838226,0.115123256206512,0.17214577102661202
2.690278846153846,0.0336742552757263,0.10554317808151199,0.023654560089111498
2.690884539672925,-0.0214111939430237,0.201343959331512,0.0571848335266115
2.691490233192005,0.0719945677757263,0.009742396831512441,-0.0697512016296385
2.692095926711084,0.0216991576194763,-0.00941775941848756,-0.0290358695983885
2.692701620230164,-0.0573364869117737,0.359415248394012,0.17214577102661202
2.693307313749243,-0.0262012330055237,0.107938197612762,-0.00987571334838845
2.693913007268322,-0.0573364869117737,0.00495235776901244,0.485893329620362
2.694518700787402,-0.00225103769302369,-0.0501330914497376,-0.019455791473388502
2.695124394306481,-0.050151428318023696,0.07680294370651239,-0.0170607719421385
2.69573008782556,0.004934020900726309,0.10554317808151199,0.0476047554016115
2.69633578134464,-0.0214111939430237,-0.026182896137237597,-0.366733623504638
2.696941474863719,-0.0262012330055237,0.222899135112762,0.0955051460266115
2.697547168382798,0.0767846068382263,-0.0836633648872376,0.10987526321411199
2.698152861901878,0.0288842162132263,-0.0237878766059876,0.021259540557861497
2.698758555420957,0.0528344115257263,-0.0429480328559876,0.0476047554016115
2.699364248940036,0.0240941771507263,-0.0405530133247376,0.061974872589111496
2.699969942459116,0.12228997793197599,0.0265075335502624,0.17693581008911202
2.700575635978195,0.103129821681976,0.00255733823776244,0.0667649116516115
2.701181329497274,0.036069274806976304,0.191763881206512,-0.0841213188171385
2.701787023016354,0.103129821681976,-0.0501330914497376,0.131430438995362
2.702392716535433,-0.045361389255523694,-0.181859165668488,0.220046161651612
2.702998410054512,0.0552294310569763,0.009742396831512441,-0.0434059867858885
2.703604103573592,0.12228997793197599,0.163023646831512,-0.0673561820983885
2.704209797092671,-0.0908667603492737,0.09356808042526239,-0.07454124069213851
2.70481549061175,0.213300720119476,0.0265075335502624,0.133825458526612
2.70542118413083,-0.08368170175552371,0.00255733823776244,0.184120868682862
2.706026877649909,0.0169091185569763,-0.004627720355987561,0.0835300483703615
2.706632571168988,0.184560485744476,-0.0668982281684876,0.10508522415161199
2.707238264688068,0.115104919338226,-0.0692932476997376,-0.21584739303588799
2.707843958207147,0.163005309963226,0.000162318706512438,0.00209938430786155
2.708449651726227,0.004934020900726309,-0.035762974262237596,0.138615497589112
2.709055345245306,-0.136372131443024,-0.124378696918488,0.0811350288391115
2.709661038764385,-0.141162170505524,0.174998744487762,-0.139206768035888
2.710266732283465,0.16779534902572601,0.119913295269012,0.0667649116516115
2.710872425802544,0.115104919338226,0.009742396831512441,0.229626239776612
2.711478119321623,-0.052546447849273696,0.107938197612762,-0.060171123504638505
2.712083812840703,0.14145013418197602,-0.0621081891059876,-0.134416728973388
2.712689506359782,0.0312792357444763,-0.0716882672309876,-0.14160178756713798
2.713295199878861,0.0169091185569763,-0.112403599262238,0.0452097358703615
2.713900893397941,0.036069274806976304,0.0073473773002624395,0.155380634307862
2.71450658691702,-0.00225103769302369,0.110333217144012,0.0907151069641115
2.7151122804360988,0.230065856838226,-0.00702273988723756,0.0428147163391115
2.715717973955179,0.0624144896507263,0.0384826312065124,-0.0481960258483885
2.716323667474258,0.004934020900726309,0.0193224749565124,0.0715549507141115
2.716929360993337,-0.0118311158180237,-0.172279087543488,0.0907151069641115
2.717535054512417,0.0121190794944763,-0.110008579730988,0.133825458526612
2.718140748031496,0.119894958400726,0.210924037456512,-0.0386159477233885
2.718746441550575,-0.042966369724273694,0.07201290464401239,-0.124836650848388
2.719352135069655,-0.0573364869117737,0.201343959331512,0.0547898139953615
2.719957828588734,-0.014226135349273701,0.136678431987762,-0.00987571334838845
2.7205635221078133,0.0480443724632263,-0.0812683453559876,-0.00987571334838845
2.721169215626893,0.139055114650726,0.0217174944877624,0.0116794624328615
2.7217749091459718,-0.105236877536774,-0.105218540668488,0.0308396186828615
2.722380602665051,0.0624144896507263,0.151048549175262,0.00688942337036155
2.722986296184131,0.15103021230697602,0.136678431987762,0.10269020462036199
2.72359198970321,-0.100446838474274,0.009742396831512441,0.0499997749328615
2.724197683222289,-0.00704107675552369,0.07201290464401239,0.387697528839112
2.724803376741369,-0.11721197519302401,-0.107613560199738,0.033234638214111496
2.725409070260448,0.0576244505882263,-0.110008579730988,0.27513161087036203
2.726014763779528,0.0648095091819763,0.0959630999565124,0.766110614776612
2.726620457298607,-0.08607672128677371,-0.0429480328559876,0.0931101264953615
2.7272261508176863,-0.052546447849273696,0.18936886167526198,0.0643698921203615
2.727831844336766,-0.11002691659927401,0.122308314800262,0.174540790557862
2.7284375378558448,0.0672045287132263,0.052852748394012404,-0.000295635223388454
2.729043231374924,-0.07649664316177371,-0.038157993793487596,-0.0505910453796385
2.729648924894004,0.0887597044944763,-0.0213928570747376,-0.07214622116088851
2.730254618413083,0.179770446681976,0.12949337339401198,0.200886005401612
2.730860311932162,-0.122002014255524,0.139073451519012,-0.0769362602233885
2.731466005451242,0.0288842162132263,0.119913295269012,0.133825458526612
2.732071698970321,0.0288842162132263,0.0648278460502624,0.160170673370362
2.7326773924894,-0.00704107675552369,-0.0118127789497376,-0.0146657524108885
2.73328308600848,-0.07170660409927371,-0.028577915668487597,0.138615497589112
2.7338887795275593,0.21090570058822602,0.246849330425262,-0.0338259086608885
2.734494473046638,0.155820251369476,-0.00941775941848756,-0.13202170944213798
2.7351001665657177,-0.0549414673805237,-0.0189978375434876,0.0476047554016115
2.735705860084797,-0.0381763306617737,0.172603724956512,0.16256569290161202
2.7363115536038762,-0.0285962525367737,-0.265684849262238,0.141010517120362
2.736917247122956,0.0672045287132263,0.122308314800262,0.179330829620362
2.737522940642035,-0.00943609628677369,0.246849330425262,0.0188645210266115
2.738128634161115,-0.126792053318024,-0.248919712543488,0.00449440383911155
2.738734327680194,0.000143981838226313,-0.026182896137237597,-0.00987571334838845
2.739340021199273,0.0719945677757263,-0.0740832867622376,-0.000295635223388454
2.739945714718352,0.0336742552757263,-0.09803348207473761,0.141010517120362
2.7405514082374323,-0.00943609628677369,0.0336925921440124,0.15777565383911202
2.741157101756511,-0.0597315064430237,0.158233607769012,-0.0242458305358885
2.7417627952755907,0.213300720119476,-0.0525281109809876,0.0883200874328615
2.74236848879467,0.0839696654319763,-0.102823521137238,-0.179922100067138
2.7429741823137492,0.184560485744476,0.136678431987762,-0.122441631317138
2.743579875832829,0.163005309963226,0.009742396831512441,-0.0362209281921385
2.744185569351908,-0.08607672128677371,-0.0645032086372376,0.0308396186828615
2.744791262870987,-0.0645215455055237,-0.0716882672309876,-0.117651592254638
2.745396956390067,0.0672045287132263,-0.145933872699738,0.0523947944641115
2.746002649909146,-0.00943609628677369,-0.004627720355987561,0.0835300483703615
2.746608343428225,-0.0693115845680237,-0.00941775941848756,0.061974872589111496
2.7472140369473053,0.09594476308822629,0.0408776507377624,-0.0146657524108885
2.747819730466384,0.0624144896507263,0.08638302183151239,-0.110466533660888
2.748425423985463,-0.00464605722427369,-0.0022327008247375597,-0.00987571334838845
2.749031117504543,0.00732904043197631,0.0336925921440124,-0.134416728973388
2.7496368110236222,-0.0238062134742737,0.146258510112762,0.0284445991516115
2.750242504542701,0.00732904043197631,0.0145324358940124,0.0523947944641115
2.750848198061781,0.110314880275726,0.0696178851127624,-0.0769362602233885
2.75145389158086,0.0528344115257263,0.07680294370651239,0.023654560089111498
2.752059585099939,-0.00943609628677369,0.050457728862762403,0.14819557571411202
2.752665278619019,0.0887597044944763,-0.181859165668488,-0.0481960258483885
2.753270972138098,-0.045361389255523694,-0.138748814105988,0.10748024368286199
2.753876665657177,-0.0238062134742737,0.160628627300262,0.507448505401612
2.754482359176257,0.00732904043197631,-0.112403599262238,-0.13681174850463798
2.755088052695336,0.14624017324447602,-0.016602818012237598,-0.218242412567138
2.755693746214416,0.15103021230697602,-0.035762974262237596,-0.117651592254638
2.7562994397334952,-0.0118311158180237,-0.112403599262238,-0.0386159477233885
2.756905133252574,0.0216991576194763,0.055247767925262405,0.179330829620362
2.757510826771653,0.14624017324447602,-0.117193638324738,0.0188645210266115
2.758116520290733,-0.0166211548805237,-0.035762974262237596,-0.019455791473388502
2.758722213809812,0.0624144896507263,0.0121374163627624,0.00688942337036155
2.759327907328892,0.0528344115257263,0.0360876116752624,0.0883200874328615
2.759933600847971,-0.315998596286774,0.122308314800262,-0.0242458305358885
2.76053929436705,-0.0309912720680237,-0.162699009418488,0.0308396186828615
2.76114498788613,0.13666009511947602,-0.129168735980988,0.0979001655578615
2.761750681405209,0.112709899806976,0.256429408550262,0.14340553665161201
2.762356374924288,0.026489196681976298,0.153443568706512,0.0428147163391115
2.7629620684433682,-0.08368170175552371,-0.107613560199738,-0.000295635223388454
2.763567761962447,-0.122002014255524,-0.0189978375434876,0.0284445991516115
2.764173455481526,-0.08607672128677371,0.115123256206512,-0.0146657524108885
2.764779149000606,0.038464294338226304,0.07919796323776239,0.0380246772766115
2.765384842519685,0.000143981838226313,-0.033367954730987595,-0.0889113578796385
2.765990536038764,0.127080016994476,0.0672228655815124,0.00928444290161155
2.766596229557844,0.040859313869476305,-0.033367954730987595,0.021259540557861497
2.767201923076923,0.0887597044944763,0.0241125140190124,-0.110466533660888
2.767807616596002,0.0791796263694763,0.052852748394012404,-0.0649611625671385
2.768413310115082,-0.08368170175552371,-0.117193638324738,-0.175132061004638
2.769019003634161,0.026489196681976298,-0.09324344301223761,-0.100886455535888
2.76962469715324,-0.17229742441177398,-0.0621081891059876,-0.0386159477233885
2.77023039067232,-0.014226135349273701,-0.0716882672309876,-0.115256572723388
2.770836084191399,0.09354974355697629,0.10554317808151199,-0.13202170944213798
2.771441777710478,-0.07170660409927371,0.0648278460502624,0.026049579620361498
2.772047471229558,0.0193041380882263,0.0696178851127624,-0.21584739303588799
2.772653164748637,0.026489196681976298,-0.014207798480987601,0.184120868682862
2.773258858267717,0.0528344115257263,-0.0836633648872376,0.0140744819641115
2.773864551786796,-0.11242193613052401,-0.035762974262237596,-0.251772686004638
2.774470245305875,-0.122002014255524,0.0600378069877624,0.0428147163391115
2.775075938824954,0.0193041380882263,0.232479213237762,0.145800556182862
2.775681632344034,-0.07889166269302371,-0.227364536762238,0.23202125930786202
2.776287325863113,0.103129821681976,-0.038157993793487596,-0.0960964164733885
2.776893019382193,0.0576244505882263,0.0265075335502624,0.026049579620361498
2.777498712901272,-0.00225103769302369,-0.167489048480988,0.0667649116516115
2.778104406420351,0.0600194701194763,0.112728236675262,-0.0625661430358885
2.778710099939431,0.107919860744476,0.07201290464401239,0.0476047554016115
2.77931579345851,0.16779534902572601,-0.09563846254348761,0.0739499702453615
2.779921486977589,0.0121190794944763,0.0193224749565124,0.114665302276612
2.780527180496669,-0.23217291269302398,0.225294154644012,0.289501728057862
2.781132874015748,-0.019016174411773702,0.08398800230026239,-0.00987571334838845
2.781738567534827,0.038464294338226304,0.0241125140190124,-0.021850811004638503
2.782344261053907,-0.138767150974274,-0.026182896137237597,-0.0362209281921385
2.782949954572986,-0.141162170505524,-0.09563846254348761,-0.060171123504638505
2.783555648092065,0.09833978261947629,-0.026182896137237597,0.033234638214111496
2.784161341611145,0.0480443724632263,-0.0645032086372376,-0.18710715866088798
2.784767035130224,0.117499938869476,-0.014207798480987601,-0.230217510223388
2.785372728649303,0.038464294338226304,0.13428341245651199,-0.235007549285888
2.785978422168383,-0.258518127536774,-0.014207798480987601,0.320636981964112
2.786584115687462,0.110314880275726,-0.0621081891059876,0.449968036651612
2.787189809206541,-0.196247619724274,0.016927455425262403,0.160170673370362
