Time (s),Accel X (m/s^2),Accel Y (m/s^2),Accel Z (m/s^2)
13.94675,-0.12807179832458498,0.168759625053406,-0.0246198652267452
13.947355693519079,-0.022690938949585,0.0897239805221558,-0.0365949628829952
13.94796138703816,-0.12807179832458498,0.0729588438034058,-0.16353099803924498
13.948567080557238,-0.147231954574585,0.221450054740906,0.0592058183670048
13.949172774076317,-0.24782277488708498,-0.0276319765090942,0.0544157793045048
13.949778467595397,-0.17836720848083498,-0.28150404682159397,0.23643726367950502
13.950384161114476,-0.087356466293335,-0.0180518983840942,0.193326912117005
13.950989854633555,0.087479959487915,0.123254253959656,-0.07012523632049521
13.951595548152634,-0.135256856918335,-0.0300269960403442,0.109501228523255
13.952201241671714,-0.322068380355835,-0.130617816352844,0.0783659746170048
13.952806935190793,-0.14962697410583498,-0.197678363227844,0.164586677742005
13.953412628709872,0.00365427589416503,-0.0731373476028442,0.128661384773255
13.954018322228952,0.161725564956665,-0.0683473085403442,0.00651538867950479
13.954624015748031,0.087479959487915,-0.0491871522903442,-0.0006696699142452131
13.95522970926711,0.013234354019165,0.178339703178406,0.028070564460754798
13.95583540278619,-0.070591329574585,0.0921190000534058,0.514259529304505
13.95644109630527,-0.137651876449585,0.183129742240906,0.691490974617005
13.957046789824348,-0.025085958480835,-0.116247699165344,-0.127605705070495
13.957652483343429,-0.034666036605835,0.0537986875534058,0.126266365242005
13.958258176862508,-0.130466817855835,0.15438950786590602,0.178956794929505
13.958863870381586,-0.166392110824585,0.041823589897155795,0.0735759355545048
13.959469563900665,-0.00592580223083497,-0.0539771913528442,0.16698169727325501
13.960075257419746,0.056344705581665,-0.192888324165344,-0.16832103710174498
13.960680950938825,0.113825174331665,0.0274534727096558,0.037650642585754804
13.961286644457903,0.14017038917541502,-0.259948871040344,0.147821541023255
13.961892337976984,0.080294900894165,-0.190493304634094,0.152611580085755
13.962498031496063,0.12101023292541499,-0.022841937446594202,0.17177173633575502
13.963103725015142,0.046764627456665,-0.0587672304153442,0.0544157793045048
13.963709418534222,-0.015505880355835,0.0681688047409058,0.042440681648254805
13.964315112053301,-0.13286183738708499,0.118464214897156,0.16698169727325501
13.96492080557238,-0.130466817855835,-0.0851124452590942,0.207697029304505
13.96552649909146,-0.063406270980835,-0.161753070259094,0.0759709550857548
13.966132192610539,0.07071482276916499,-0.0515821718215942,0.23164722461700502
13.966737886129618,0.24076120948791502,-0.0827174257278442,0.11429126758575499
13.967343579648698,0.010839334487915,0.0753538633346558,-0.199456291007995
13.967949273167777,-0.11609670066833501,0.0154783750534058,0.0592058183670048
13.968554966686856,0.07310984230041499,-0.0132618593215942,0.0639958574295048
13.969160660205935,0.013234354019165,-0.06355726947784421,-0.10844554882049501
13.969766353725015,-0.080171407699585,-0.16414808979034398,0.0783659746170048
13.970372047244094,0.106640115737915,-0.288689105415344,0.0759709550857548
13.970977740763173,0.20483591651916502,-0.046792132759094204,0.00891040821075479
13.971583434282254,0.0012592563629150299,0.142414410209656,-0.11563060741424501
13.972189127801332,0.061134744644165004,0.0945140195846558,-0.053360099601745196
13.972794821320411,0.214415994644165,0.0250584531784058,-0.07252025585174521
13.973400514839492,0.109035135269165,-0.190493304634094,-0.10605052928924501
13.97400620835857,0.13538035011291502,-0.0539771913528442,0.0735759355545048
13.97461190187765,0.015629373550415,0.00110825786590575,0.0879460527420048
13.97521759539673,0.142565408706665,-0.0276319765090942,-0.146765861320495
13.975823288915809,-0.00113576316833497,0.151994488334656,0.044835701179504805
13.976428982434888,-0.199922384262085,-0.0491871522903442,0.11908130664825499
13.977034675953966,-0.063406270980835,-0.0587672304153442,-0.189876212882995
13.977640369473047,0.104245096206665,0.151994488334656,-0.0270148847579952
13.978246062992126,0.17130564308166502,0.0993040586471558,-0.0341999433517452
13.978851756511204,0.07071482276916499,0.156784527397156,0.286732673835755
13.979457450030285,0.183280740737915,-0.0420020936965942,-0.0222248456954952
13.980063143549364,0.23118113136291502,-0.0899024843215942,-0.0270148847579952
13.980668837068443,0.018024393081665,0.022663433647155798,0.0879460527420048
13.981274530587523,-0.199922384262085,-0.00607680072784425,-0.0006696699142452131
13.981880224106602,0.027604471206665,0.173549664115906,0.229252205085755
13.98248591762568,0.075504861831665,0.19989487895965602,0.174166755867005
13.98309161114476,-0.092146505355835,-0.00128676166534425,0.267572517585755
13.98369730466384,0.214415994644165,-0.0348170351028442,0.0687858964920048
13.984302998182919,0.233576150894165,-0.0108668397903442,-0.07731029491424521
13.984908691701998,0.027604471206665,-0.0180518983840942,0.0544157793045048
13.985514385221078,-0.104121603012085,-0.32221937885284396,-0.0126447675704952
13.986120078740157,-0.049036153793334994,-0.0132618593215942,0.430433845710755
13.986725772259236,0.094665018081665,0.14001939067840602,0.23164722461700502
13.987331465778317,0.075504861831665,-0.0755323671340942,0.456779060554505
13.987937159297395,0.202440896987915,0.13043931255340602,0.653170662117005
13.988542852816474,0.07310984230041499,0.101699078178406,-0.213826408195495
13.989148546335555,0.147355447769165,0.00589829692840575,0.19572193164825502
13.989754239854634,0.264711404800415,-0.0539771913528442,0.289127693367005
13.990359933373712,0.015629373550415,-0.00128676166534425,-0.07970531444549521
13.990965626892791,-0.130466817855835,-0.0132618593215942,-0.156345939445495
13.991571320411872,-0.087356466293335,-0.0396070741653442,0.13105640430450502
13.99217701393095,-0.072986349105835,-0.13540785541534398,0.11668628711700499
13.99278270745003,0.132985330581665,-0.21923353900909398,0.150216560554505
13.99338840096911,-0.017900899887085,-0.0036817811965942503,0.0352556230545048
13.993994094488189,-0.051431173324584994,0.0897239805221558,0.12387134571075499
13.994599788007267,-0.18794728660583498,0.0154783750534058,0.267572517585755
13.995205481526348,-0.070591329574585,-0.17372816791534398,-0.156345939445495
13.995811175045427,0.087479959487915,-0.0563722108840942,0.040045662117004804
13.996416868564506,-0.020295919418335,0.013083355522155801,0.133451423835755
13.997022562083586,0.00604929542541503,0.0106883359909058,-0.16353099803924498
13.997628255602665,-0.18315724754333498,0.0561937070846558,-0.0653351972579952
13.998233949121744,-0.075381368637085,0.0490086484909058,0.0592058183670048
13.998839642640823,-0.11370168113708501,-0.0827174257278442,0.042440681648254805
13.999445336159903,-0.087356466293335,-0.106667621040344,-0.0365949628829952
14.000051029678982,0.142565408706665,0.0250584531784058,-0.130000724601745
14.00065672319806,0.077899881362915,-0.00847182025909425,0.0232805253982548
14.001262416717141,-0.14962697410583498,-0.0204469179153442,0.102316169929505
14.00186811023622,0.051554666519165,-0.183308246040344,0.0831560136795048
14.002473803755299,0.20962595558166502,0.008293316459655751,0.0616008378982548
14.00307949727438,0.077899881362915,0.0825389219284058,-0.0940754316329952
14.003685190793458,-0.00353078269958497,-0.0132618593215942,0.011305427742004801
14.004290884312537,-0.070591329574585,-0.0611622499465942,0.255597419929505
14.004896577831618,0.16651560401916501,-0.133012835884094,0.169376716804505
14.005502271350696,-0.053826192855834995,0.008293316459655751,-0.12281566600799501
14.006107964869775,-0.039456075668335,-0.0300269960403442,0.0879460527420048
14.006713658388854,0.00844431495666502,-0.142592914009094,-0.0677302167892452
14.007319351907935,-0.204712423324585,0.0250584531784058,-0.165926017570495
14.007925045427013,-0.11609670066833501,0.00110825786590575,-0.053360099601745196
14.008530738946092,-0.029875997543335,-0.118642718696594,-0.0270148847579952
14.009136432465173,0.173700662612915,-0.00128676166534425,0.0232805253982548
14.009742125984252,0.056344705581665,0.0657737852096558,0.011305427742004801
14.01034781950333,0.010839334487915,0.168759625053406,0.198116951179505
14.010953513022411,-0.137651876449585,-0.0611622499465942,0.0592058183670048
14.01155920654149,-0.025085958480835,0.151994488334656,0.0208855058670048
14.012164900060569,0.216811014175415,0.041823589897155795,0.138241462898255
14.01277059357965,0.085084939956665,-0.202468402290344,-0.0892853925704952
14.013376287098728,-0.063406270980835,0.101699078178406,-0.0150397871017452
14.013981980617807,0.037184549331665005,0.041823589897155795,0.11429126758575499
14.014587674136887,0.137775369644165,-0.202468402290344,-0.053360099601745196
14.015193367655966,0.06831980323791499,-0.22881361713409398,0.0735759355545048
14.015799061175045,-0.032271017074585,-0.06355726947784421,0.485519294929505
14.016404754694124,-0.020295919418335,-0.15456801166534398,0.205302009773255
14.017010448213204,0.07310984230041499,0.0561937070846558,-0.170716056632995
14.017616141732283,-0.025085958480835,-0.06355726947784421,0.09513111133575479
14.018221835251362,-0.025085958480835,-0.142592914009094,0.0520207597732548
14.018827528770442,0.022814432144165,-0.0108668397903442,0.19572193164825502
14.019433222289521,0.046764627456665,-0.0755323671340942,-0.048570060539245195
14.0200389158086,0.12101023292541499,0.0274534727096558,0.037650642585754804
14.02064460932768,0.161725564956665,-0.14498793354034398,0.09273609180450479
14.02125030284676,0.053949686050415,-0.22402357807159398,0.0544157793045048
14.021855996365838,0.125800271987915,0.0346385313034058,0.205302009773255
14.022461689884919,0.06592478370666499,-0.0946925233840942,0.11189624805450499
14.023067383403998,0.027604471206665,0.0154783750534058,0.207697029304505
14.023673076923076,0.029999490737915,0.111279156303406,0.17656177539825502
14.024278770442155,-0.10651662254333501,-0.15935805072784398,-0.0365949628829952
14.024884463961236,0.020419412612915,-0.0659522890090942,0.164586677742005
14.025490157480315,-0.11130666160583501,0.0753538633346558,0.104711189460755
14.026095850999393,0.056344705581665,0.0250584531784058,-0.0916804121017452
14.026701544518474,0.147355447769165,-0.226418597602844,0.0879460527420048
14.027307238037553,-0.039456075668335,0.173549664115906,0.0568107988357548
14.027912931556632,-0.12807179832458498,-0.0396070741653442,0.145426521492005
14.028518625075712,0.101850076675415,-0.13540785541534398,-0.0270148847579952
14.029124318594791,0.092269998550415,0.123254253959656,0.0687858964920048
14.02973001211387,-0.171182149887085,0.0154783750534058,-0.00785472850799521
14.03033570563295,0.075504861831665,-0.116247699165344,-0.0246198652267452
14.030941399152029,0.202440896987915,0.0993040586471558,0.222067146492005
14.031547092671108,-0.008320821762084981,0.13522935161590602,-0.0365949628829952
14.032152786190187,-0.080171407699585,-0.0946925233840942,-0.06294017772674519
14.032758479709267,0.058739725112915,0.0729588438034058,-0.134790763664245
14.033364173228346,-0.068196310043335,-0.109062640571594,-0.10844554882049501
14.033969866747425,0.018024393081665,-0.0300269960403442,0.0544157793045048
14.034575560266505,-0.029875997543335,-0.0156568788528442,0.18135181446075502
14.035181253785584,0.082689920425415,-0.185703265571594,-0.11802562694549501
14.035786947304663,0.00604929542541503,-0.185703265571594,0.0304655839920048
14.036392640823744,-0.156812032699585,0.0537986875534058,0.0520207597732548
14.036998334342822,-0.18315724754333498,0.0274534727096558,-0.101260490226745
14.037604027861901,-0.199922384262085,0.147204449272156,0.0592058183670048
14.038209721380982,-0.084961446762085,0.13522935161590602,0.0184904863357548
14.03881541490006,-0.082566427230835,-0.0372120546340942,0.126266365242005
14.03942110841914,0.039579568862915006,0.022663433647155798,0.0759709550857548
14.040026801938218,0.101850076675415,-0.121037738227844,0.198116951179505
14.040632495457299,0.0012592563629150299,-0.137802874946594,0.0807609941482548
14.041238188976378,-0.099331563949585,-0.00128676166534425,-0.017434806632995202
14.041843882495456,-0.029875997543335,-0.00128676166534425,-0.0294099042892452
14.042449576014537,-0.065801290512085,-0.022841937446594202,0.0352556230545048
14.043055269533616,0.027604471206665,0.013083355522155801,0.025675544929504798
14.043660963052695,0.14496042823791502,-0.044397113227844204,-0.08210033397674521
14.044266656571775,0.16651560401916501,-0.0731373476028442,0.159796638679505
14.044872350090854,-0.008320821762084981,-0.0324220155715942,-0.048570060539245195
14.045478043609933,-0.125676778793335,0.0993040586471558,-0.019829826164245203
14.046083737129013,0.034789529800415005,0.156784527397156,-0.050965080070495196
14.046689430648092,0.037184549331665005,0.0035032773971557496,-0.254541740226745
14.04729512416717,-0.020295919418335,-0.0611622499465942,0.356188240242005
14.047900817686251,-0.015505880355835,0.0873289609909058,0.222067146492005
14.04850651120533,-0.120886739730835,0.19031480083465602,0.188536873054505
14.049112204724409,-0.104121603012085,0.106489117240906,0.0783659746170048
14.04971789824349,0.00844431495666502,-0.133012835884094,0.0184904863357548
14.050323591762568,0.022814432144165,-0.20965346088409398,0.17177173633575502
14.050929285281647,0.147355447769165,0.0585887266159058,0.193326912117005
14.051534978800726,-0.10651662254333501,-0.111457660102844,0.291522712898255
14.052140672319807,0.125800271987915,-0.0851124452590942,-0.08210033397674521
14.052746365838885,0.192860818862915,0.101699078178406,0.025675544929504798
14.053352059357964,-0.04664113426208499,0.0537986875534058,0.11189624805450499
14.053957752877043,0.00365427589416503,-0.0731373476028442,-0.17311107616424498
14.054563446396124,0.116220193862915,-0.0563722108840942,-0.170716056632995
14.055169139915202,0.094665018081665,0.341201031303406,0.12147632617950499
14.055774833434281,0.041974588394165006,0.14001939067840602,0.0568107988357548
14.056380526953362,-0.00113576316833497,-0.121037738227844,-0.0677302167892452
14.05698622047244,0.061134744644165004,-0.183308246040344,-0.00545970897674521
14.05759191399152,0.097060037612915,-0.0515821718215942,0.12147632617950499
14.0581976075106,-0.16399709129333498,0.123254253959656,-0.0677302167892452
14.058803301029679,-0.008320821762084981,0.0298484922409058,-0.07731029491424521
14.059408994548757,-0.11370168113708501,0.14959946880340602,0.133451423835755
14.060014688067838,0.013234354019165,0.0897239805221558,0.217277107429505
14.060620381586917,0.142565408706665,0.13043931255340602,0.0472307207107548
14.061226075105996,0.04436960792541501,0.125649273490906,-0.130000724601745
14.061831768625076,-0.17357716941833498,0.0729588438034058,0.205302009773255
14.062437462144155,-0.04664113426208499,0.00589829692840575,0.23643726367950502
14.063043155663234,0.049159646987915,0.0849339414596558,-0.07731029491424521
14.063648849182314,-0.175972188949585,-0.0036817811965942503,0.13584644336700502
14.064254542701393,0.010839334487915,-0.0372120546340942,0.214882087898255
14.064860236220472,0.132985330581665,0.259770367240906,0.0137004472732548
14.065465929739553,-0.029875997543335,0.0585887266159058,-0.017434806632995202
14.066071623258631,-0.056221212387084996,0.0585887266159058,0.0735759355545048
14.06667731677771,-0.058616231918334996,-0.0875074647903442,0.11189624805450499
14.067283010296789,-0.077776388168335,-0.0779273866653442,0.0520207597732548
14.06788870381587,0.0012592563629150299,-0.0755323671340942,0.09273609180450479
14.068494397334948,0.118615213394165,-0.192888324165344,0.13105640430450502
14.069100090854027,0.00365427589416503,-0.16893812885284398,0.341818123054505
14.069705784373106,0.022814432144165,-0.0922975038528442,0.188536873054505
14.070311477892187,-0.15920705223083498,0.175944683647156,0.18135181446075502
14.070917171411265,0.056344705581665,-0.15456801166534398,0.0831560136795048
14.071522864930344,0.293451639175415,-0.192888324165344,-0.12281566600799501
14.072128558449425,0.029999490737915,0.151994488334656,-0.0389899824142452
14.072734251968503,0.075504861831665,-0.0707423280715942,-0.00545970897674521
14.073339945487582,0.101850076675415,-0.171333148384094,0.188536873054505
14.073945639006663,0.173700662612915,-0.0922975038528442,0.0232805253982548
14.074551332525742,0.022814432144165,-0.14498793354034398,-0.11563060741424501
14.07515702604482,0.022814432144165,0.0969090391159058,0.025675544929504798
14.075762719563901,-0.135256856918335,0.0681688047409058,0.504679451179505
14.07636841308298,0.154540506362915,0.132834332084656,-0.0365949628829952
14.076974106602059,0.037184549331665005,-0.0707423280715942,-0.07252025585174521
14.07757980012114,-0.032271017074585,-0.240788714790344,0.31307788867950503
14.078185493640218,0.058739725112915,-0.0563722108840942,-0.07252025585174521
14.078791187159297,0.053949686050415,-0.0563722108840942,0.188536873054505
14.079396880678377,0.104245096206665,-0.0108668397903442,0.0903410722732548
14.080002574197456,0.104245096206665,-0.0180518983840942,-0.170716056632995
14.080608267716535,0.082689920425415,-0.274318988227844,-0.151555900382995
14.081213961235616,-0.12807179832458498,-0.13540785541534398,-0.00545970897674521
14.081819654754694,0.037184549331665005,0.0298484922409058,-0.21861644725799498
14.082425348273773,0.092269998550415,0.008293316459655751,0.0160954668045048
14.083031041792852,0.12340525245666499,0.173549664115906,0.162191658210755
14.083636735311932,0.17130564308166502,-0.0851124452590942,-0.0964704511642452
14.084242428831011,0.147355447769165,-0.025236956977844203,0.157401619148255
14.08484812235009,-0.063406270980835,0.013083355522155801,-0.11563060741424501
14.085453815869169,-0.11130666160583501,-0.192888324165344,-0.0988654706954952
14.08605950938825,-0.11370168113708501,-0.23360365619659398,-0.010249748039245199
14.086665202907328,0.022814432144165,-0.128222796821594,-0.08210033397674521
14.087270896426407,0.147355447769165,-0.0420020936965942,0.193326912117005
14.087876589945488,0.00604929542541503,-0.0324220155715942,0.152611580085755
14.088482283464566,0.04436960792541501,0.22384507427215602,0.18135181446075502
14.089087976983645,-0.049036153793334994,0.0154783750534058,-0.0413850019454952
14.089693670502726,0.094665018081665,-0.0827174257278442,-0.0246198652267452
14.090299364021805,0.077899881362915,0.041823589897155795,0.212487068367005
14.090905057540883,-0.094541524887085,0.0035032773971557496,0.164586677742005
14.091510751059964,0.06592478370666499,0.00589829692840575,0.037650642585754804
14.092116444579043,0.116220193862915,-0.0300269960403442,-0.0246198652267452
14.092722138098122,0.23118113136291502,0.13043931255340602,0.00891040821075479
14.093327831617202,0.051554666519165,0.0681688047409058,0.0783659746170048
14.093933525136281,0.037184549331665005,0.0537986875534058,-0.127605705070495
14.09453921865536,0.104245096206665,0.142414410209656,-0.0222248456954952
14.09514491217444,0.058739725112915,0.151994488334656,0.109501228523255
14.09575060569352,0.06592478370666499,-0.0132618593215942,-0.048570060539245195
14.096356299212598,0.106640115737915,-0.0036817811965942503,0.104711189460755
14.096961992731678,-0.013110860824585,-0.022841937446594202,0.0568107988357548
14.097567686250757,-0.022690938949585,0.0106883359909058,-0.170716056632995
14.098173379769836,0.06592478370666499,0.0801439023971558,-0.0389899824142452
14.098779073288915,-0.072986349105835,0.0346385313034058,-0.0270148847579952
14.099384766807995,-0.092146505355835,0.0753538633346558,-0.101260490226745
14.099990460327074,0.080294900894165,0.0370335508346558,0.18614185352325502
14.100596153846153,0.029999490737915,-0.30066420307159397,0.147821541023255
14.101201847365234,-0.027480978012085,-0.0946925233840942,-0.00785472850799521
14.101807540884312,0.192860818862915,0.0609837461471558,-0.048570060539245195
14.102413234403391,0.018024393081665,0.0801439023971558,-0.0988654706954952
14.10301892792247,0.20483591651916502,0.101699078178406,0.025675544929504798
14.10362462144155,0.022814432144165,-0.0276319765090942,0.0184904863357548
14.10423031496063,-0.137651876449585,-0.00847182025909425,-0.0318049238204952
14.104836008479708,0.20962595558166502,-0.044397113227844204,0.138241462898255
14.105441701998789,-0.025085958480835,0.0490086484909058,-0.0006696699142452131
14.106047395517868,0.077899881362915,0.0777488828659058,-0.07491527538299521
14.106653089036946,-0.10651662254333501,0.022663433647155798,-0.0246198652267452
14.107258782556027,-0.094541524887085,0.013083355522155801,0.437618904304505
14.107864476075106,0.147355447769165,-0.26234389057159396,0.12387134571075499
14.108470169594185,-0.051431173324584994,-0.130617816352844,-0.046175041007995195
14.109075863113265,0.106640115737915,-0.0851124452590942,0.250807380867005
14.109681556632344,-0.190342306137085,0.020268414115905797,-0.23298656444549498
14.110287250151423,0.034789529800415005,0.142414410209656,0.0137004472732548
14.110892943670503,0.207230936050415,0.0729588438034058,-0.165926017570495
14.111498637189582,-0.11370168113708501,0.00589829692840575,-0.369502677726745
14.11210433070866,-0.041851095199585,-0.111457660102844,-0.0940754316329952
14.112710024227741,0.046764627456665,-0.121037738227844,-0.134790763664245
14.11331571774682,0.154540506362915,-0.274318988227844,0.14063648242950502
14.113921411265899,-0.044246114730835,0.15917954692840602,0.0663908769607548
14.11452710478498,0.125800271987915,0.116069195365906,0.025675544929504798
14.115132798304058,0.04436960792541501,-0.161753070259094,0.222067146492005
14.115738491823137,-0.037061056137085,-0.235998675727844,0.0879460527420048
14.116344185342216,0.00604929542541503,0.226240093803406,0.257992439460755
14.116949878861297,-0.11370168113708501,0.151994488334656,0.0639958574295048
14.117555572380375,-0.032271017074585,0.0537986875534058,-0.197061271476745
14.118161265899454,-0.053826192855834995,0.166364605522156,0.0711809160232548
14.118766959418533,0.12101023292541499,-0.14977797260284398,0.126266365242005
14.119372652937614,0.113825174331665,0.020268414115905797,0.12387134571075499
14.119978346456692,-0.084961446762085,0.0178733945846558,-0.0557551191329952
14.120584039975771,0.085084939956665,-0.106667621040344,0.13105640430450502
14.121189733494852,0.0012592563629150299,0.022663433647155798,0.0711809160232548
14.12179542701393,-0.041851095199585,0.0609837461471558,-0.19227123241424499
14.12240112053301,0.147355447769165,-0.216838519477844,-0.046175041007995195
14.12300681405209,-0.10651662254333501,-0.16414808979034398,0.0352556230545048
14.123612507571169,-0.240637716293335,0.108884136772156,0.11429126758575499
14.124218201090248,0.087479959487915,-0.0539771913528442,0.0496257402420048
14.124823894609328,0.07071482276916499,-0.137802874946594,0.09513111133575479
14.125429588128407,0.013234354019165,-0.207258441352844,0.13105640430450502
14.126035281647486,-0.18794728660583498,-0.0899024843215942,0.09513111133575479
14.126640975166566,0.00604929542541503,-0.0899024843215942,0.0735759355545048
14.127246668685645,0.010839334487915,-0.10187758197784401,0.00891040821075479
14.127852362204724,-0.082566427230835,0.008293316459655751,0.0304655839920048
14.128458055723804,0.015629373550415,0.0250584531784058,0.219672126960755
14.129063749242883,0.039579568862915006,0.0705638242721558,0.0687858964920048
14.129669442761962,0.156935525894165,-0.00607680072784425,0.09273609180450479
14.130275136281043,-0.147231954574585,0.113674175834656,0.17656177539825502
14.130880829800121,-0.029875997543335,-0.116247699165344,0.332238044929505
14.1314865233192,0.116220193862915,0.0298484922409058,-0.11084056835174501
14.132092216838279,0.188070779800415,0.15917954692840602,-0.125210685539245
14.13269791035736,-0.077776388168335,-0.0994825624465942,-0.103655509757995
14.133303603876438,0.06831980323791499,0.0777488828659058,-0.08449535350799521
14.133909297395517,0.14975046730041502,0.0250584531784058,0.24122730274200502
14.134514990914596,-0.18794728660583498,0.0370335508346558,0.178956794929505
14.135120684433677,0.020419412612915,-0.0515821718215942,0.222067146492005
14.135726377952755,0.092269998550415,-0.0611622499465942,-0.0557551191329952
14.136332071471834,-0.092146505355835,-0.00847182025909425,-0.170716056632995
14.136937764990915,-0.068196310043335,-0.156963031196594,-0.048570060539245195
14.137543458509993,0.118615213394165,0.00110825786590575,0.600480232429505
14.138149152029072,0.049159646987915,0.0753538633346558,0.159796638679505
14.138754845548153,-0.027480978012085,0.28611558208465604,0.042440681648254805
14.139360539067232,0.025209451675415,-0.0851124452590942,0.16698169727325501
14.13996623258631,0.04436960792541501,-0.0707423280715942,-0.13239574413299499
14.140571926105391,-0.015505880355835,0.262165386772156,0.126266365242005
14.14117761962447,-0.053826192855834995,-0.111457660102844,0.0855510332107548
14.141783313143549,0.063529764175415,-0.00607680072784425,0.0687858964920048
14.14238900666263,0.00604929542541503,-0.20486342182159398,0.0232805253982548
14.142994700181708,-0.044246114730835,-0.0348170351028442,0.0759709550857548
14.143600393700787,-0.010715841293335,0.123254253959656,0.17656177539825502
14.144206087219867,0.159330545425415,0.0490086484909058,0.00651538867950479
14.144811780738946,0.06592478370666499,0.123254253959656,0.0544157793045048
14.145417474258025,-0.142441915512085,-0.0970875429153442,-0.12281566600799501
14.146023167777106,-0.010715841293335,-0.0156568788528442,-0.11563060741424501
14.146628861296184,0.125800271987915,-0.0372120546340942,0.0807609941482548
14.147234554815263,0.111430154800415,-0.0683473085403442,0.00412036914825479
14.147840248334342,0.051554666519165,-0.21923353900909398,0.0472307207107548
14.148445941853423,0.058739725112915,-0.0372120546340942,-0.050965080070495196
14.149051635372501,0.010839334487915,0.113674175834656,0.150216560554505
14.14965732889158,0.041974588394165006,-0.116247699165344,-0.144370841789245
14.150263022410659,-0.013110860824585,-0.152172992134094,-0.0916804121017452
14.15086871592974,0.00365427589416503,0.0561937070846558,0.133451423835755
14.151474409448818,0.104245096206665,-0.0396070741653442,0.0831560136795048
14.152080102967897,-0.235847677230835,0.207079937553406,0.0711809160232548
14.152685796486978,-0.152021993637085,0.0394285703659058,-0.0581501386642452
14.153291490006056,0.075504861831665,-0.188098285102844,0.16698169727325501
14.153897183525135,0.010839334487915,0.24061021099090601,0.09513111133575479
14.154502877044216,-0.00353078269958497,-0.176123187446594,0.0639958574295048
14.155108570563295,0.053949686050415,-0.123432757759094,-0.08449535350799521
14.155714264082373,0.094665018081665,-0.0108668397903442,0.028070564460754798
14.156319957601454,0.020419412612915,-0.0539771913528442,0.198116951179505
14.156925651120533,0.025209451675415,0.022663433647155798,0.138241462898255
14.157531344639612,0.12340525245666499,-0.106667621040344,0.157401619148255
14.158137038158692,0.147355447769165,0.0154783750534058,0.16698169727325501
14.158742731677771,0.018024393081665,-0.0587672304153442,0.138241462898255
14.15934842519685,0.039579568862915006,-0.20486342182159398,0.157401619148255
14.15995411871593,0.092269998550415,-0.0587672304153442,0.0304655839920048
14.16055981223501,0.022814432144165,0.0945140195846558,-0.16353099803924498
14.161165505754088,-0.22387257957458498,0.0705638242721558,0.0232805253982548
14.161771199273169,-0.056221212387084996,-0.243183734321594,0.0879460527420048
14.162376892792247,0.113825174331665,-0.06355726947784421,-0.0341999433517452
14.162982586311326,-0.049036153793334994,0.142414410209656,0.0472307207107548
14.163588279830405,-0.15441701316833498,-0.0779273866653442,0.274757576179505
14.164193973349485,-0.00113576316833497,-0.0515821718215942,-0.0365949628829952
14.164799666868564,0.118615213394165,-0.14977797260284398,0.00651538867950479
14.165405360387643,0.058739725112915,-0.16414808979034398,0.23643726367950502
14.166011053906722,0.056344705581665,0.00589829692840575,0.0903410722732548
14.166616747425802,-0.065801290512085,-0.00607680072784425,-0.0581501386642452
14.167222440944881,0.085084939956665,-0.16893812885284398,0.212487068367005
14.16782813446396,0.061134744644165004,0.008293316459655751,0.748971443367005
14.16843382798304,0.018024393081665,0.171154644584656,0.0903410722732548
14.16903952150212,-0.190342306137085,0.0729588438034058,0.0184904863357548
14.169645215021198,-0.23824269676208498,0.197499859428406,-0.0318049238204952
14.170250908540279,-0.034666036605835,0.259770367240906,-0.0294099042892452
14.170856602059358,-0.027480978012085,-0.0108668397903442,0.11429126758575499
14.171462295578436,0.010839334487915,-0.121037738227844,-0.16353099803924498
14.172067989097517,0.109035135269165,-0.113852679634094,0.0831560136795048
14.172673682616596,0.156935525894165,-0.0731373476028442,0.162191658210755
14.173279376135675,0.089874979019165,-0.0420020936965942,0.028070564460754798
14.173885069654755,0.077899881362915,0.151994488334656,0.0639958574295048
14.174490763173834,-0.049036153793334994,0.0633787656784058,0.18614185352325502
14.175096456692913,0.14017038917541502,-0.19528334369659398,0.0328606035232548
14.175702150211993,0.147355447769165,-0.0300269960403442,-0.053360099601745196
14.176307843731072,-0.061011251449585,0.0394285703659058,0.09513111133575479
14.176913537250151,-0.065801290512085,-0.14498793354034398,0.174166755867005
14.177519230769231,0.094665018081665,-0.0180518983840942,0.155006599617005
14.17812492428831,-0.015505880355835,0.0561937070846558,0.202906990242005
14.178730617807389,-0.053826192855834995,0.15438950786590602,-0.0557551191329952
14.17933631132647,-0.082566427230835,-0.152172992134094,-0.0270148847579952
14.179942004845548,0.049159646987915,0.044218609428405796,-0.0006696699142452131
14.180547698364627,-0.096936544418335,0.20468491802215602,-0.00785472850799521
14.181153391883706,-0.120886739730835,-0.0515821718215942,0.0208855058670048
14.181759085402787,0.063529764175415,0.18073472270965601,-0.0988654706954952
14.182364778921865,0.118615213394165,-0.022841937446594202,0.0496257402420048
14.182970472440944,0.307821756362915,-0.044397113227844204,0.0496257402420048
14.183576165960023,0.13538035011291502,-0.00847182025909425,-0.0988654706954952
14.184181859479104,0.173700662612915,-0.0899024843215942,0.0831560136795048
14.184787552998182,0.0012592563629150299,0.0250584531784058,-0.017434806632995202
14.185393246517261,0.082689920425415,-0.0180518983840942,-0.07491527538299521
14.185998940036342,-0.144836935043335,-0.17372816791534398,0.0304655839920048
14.18660463355542,-0.022690938949585,-0.113852679634094,0.207697029304505
14.1872103270745,0.12101023292541499,-0.221628558540344,0.0879460527420048
14.18781602059358,-0.11130666160583501,-0.10187758197784401,-0.0222248456954952
14.188421714112659,0.046764627456665,0.123254253959656,0.0304655839920048
14.189027407631738,-0.061011251449585,-0.15456801166534398,0.0496257402420048
14.189633101150818,0.147355447769165,0.046613628959655797,0.238832283210755
14.190238794669897,0.085084939956665,0.274140484428406,0.12387134571075499
14.190844488188976,0.015629373550415,0.24540025005340602,-0.0341999433517452
14.191450181708056,0.13059031105041502,0.013083355522155801,-0.00785472850799521
14.192055875227135,0.085084939956665,-0.137802874946594,-0.0270148847579952
14.192661568746214,-0.099331563949585,0.044218609428405796,0.09992115039825479
14.193267262265294,-0.096936544418335,0.00110825786590575,0.183746833992005
14.193872955784373,-0.008320821762084981,-0.0156568788528442,-0.010249748039245199
14.194478649303452,0.147355447769165,-0.14019789447784398,0.042440681648254805
14.195084342822533,0.257526346206665,0.0585887266159058,0.12147632617950499
14.195690036341611,0.228786111831665,0.0705638242721558,0.509469490242005
14.19629572986069,-0.037061056137085,-0.0180518983840942,0.559764900398255
14.196901423379769,-0.072986349105835,0.156784527397156,0.0160954668045048
14.19750711689885,0.032394510269165004,0.0154783750534058,0.19572193164825502
14.198112810417928,-0.10651662254333501,-0.0946925233840942,0.00651538867950479
14.198718503937007,-0.125676778793335,-0.00607680072784425,-0.216221427726745
14.199324197456086,0.010839334487915,0.0705638242721558,0.0352556230545048
14.199929890975167,0.032394510269165004,-0.176123187446594,0.102316169929505
14.200535584494245,-0.140046895980835,0.0370335508346558,0.09273609180450479
14.201141278013324,0.010839334487915,0.0633787656784058,0.0520207597732548
14.201746971532405,-0.025085958480835,-0.23839369525909399,0.0017253496170047899
14.202352665051484,-0.025085958480835,-0.20486342182159398,0.159796638679505
14.202958358570562,0.020419412612915,-0.0108668397903442,0.040045662117004804
14.203564052089643,0.034789529800415005,0.22384507427215602,0.09992115039825479
14.204169745608722,0.19525583839416502,0.0729588438034058,-0.00785472850799521
14.2047754391278,-0.037061056137085,0.0035032773971557496,-0.271306876945495
14.205381132646881,-0.049036153793334994,0.0298484922409058,0.133451423835755
14.20598682616596,-0.075381368637085,0.0681688047409058,0.183746833992005
14.206592519685039,-0.058616231918334996,0.041823589897155795,0.0807609941482548
14.20719821320412,0.19046579933166502,0.128044293022156,0.0160954668045048
14.207803906723198,0.18088572120666502,-0.0563722108840942,0.0711809160232548
14.208409600242277,-0.072986349105835,-0.250368792915344,-0.16832103710174498
14.209015293761357,0.14496042823791502,0.19031480083465602,-0.08449535350799521
14.209620987280436,0.19046579933166502,-0.0180518983840942,0.0711809160232548
14.210226680799515,-0.123281759262085,-0.264738910102844,-0.0006696699142452131
14.210832374318596,-0.080171407699585,0.0753538633346558,0.0472307207107548
14.211438067837674,-0.065801290512085,-0.0180518983840942,0.09513111133575479
14.212043761356753,0.07071482276916499,0.0681688047409058,-0.048570060539245195
14.212649454875832,0.125800271987915,0.111279156303406,0.138241462898255
14.213255148394913,0.113825174331665,0.013083355522155801,0.212487068367005
14.213860841913991,0.075504861831665,0.0561937070846558,0.0831560136795048
14.21446653543307,0.04436960792541501,-0.0420020936965942,0.217277107429505
14.215072228952149,-0.104121603012085,-0.0539771913528442,0.217277107429505
14.21567792247123,0.075504861831665,0.022663433647155798,0.126266365242005
14.216283615990308,0.19046579933166502,-0.14498793354034398,0.0639958574295048
14.216889309509387,0.125800271987915,-0.0659522890090942,0.037650642585754804
14.217495003028468,0.06831980323791499,0.314855816459656,0.011305427742004801
14.218100696547546,-0.075381368637085,0.24061021099090601,-0.230591544914245
14.218706390066625,0.202440896987915,-0.185703265571594,-0.0318049238204952
14.219312083585706,-0.065801290512085,-0.113852679634094,-0.22340648632049498
14.219917777104785,-0.087356466293335,0.0753538633346558,-0.273701896476745
14.220523470623863,0.13059031105041502,-0.0659522890090942,0.370558357429505
14.221129164142944,-0.039456075668335,0.0873289609909058,0.29391773242950503
14.221734857662023,-0.04664113426208499,-0.00607680072784425,-0.11802562694549501
14.222340551181102,-0.144836935043335,0.0106883359909058,-0.07491527538299521
14.222946244700182,0.06831980323791499,0.00110825786590575,0.380138435554505
14.223551938219261,0.183280740737915,-0.276714007759094,-0.13239574413299499
14.22415763173834,-0.008320821762084981,0.0490086484909058,-0.017434806632995202
14.22476332525742,-0.21429250144958498,-0.171333148384094,0.09513111133575479
14.2253690187765,-0.142441915512085,-0.0683473085403442,-0.050965080070495196
14.225974712295578,0.18088572120666502,0.0537986875534058,0.250807380867005
14.226580405814659,-0.015505880355835,-0.142592914009094,-0.201851310539245
14.227186099333737,-0.008320821762084981,-0.06355726947784421,0.526234626960755
14.227791792852816,0.099455057144165,-0.0827174257278442,0.380138435554505
14.228397486371895,0.015629373550415,-0.0491871522903442,-0.0653351972579952
14.229003179890976,-0.00592580223083497,0.0993040586471558,0.147821541023255
14.229608873410054,-0.195132345199585,-0.00128676166534425,0.0160954668045048
14.230214566929133,0.06831980323791499,-0.104272601509094,-0.0294099042892452
14.230820260448212,0.080294900894165,0.022663433647155798,-0.046175041007995195
14.231425953967292,0.051554666519165,0.0729588438034058,0.133451423835755
14.232031647486371,0.061134744644165004,-0.166543109321594,-0.189876212882995
14.23263734100545,-0.025085958480835,-0.0491871522903442,0.042440681648254805
14.23324303452453,-0.125676778793335,0.0753538633346558,0.0208855058670048
14.23384872804361,0.06831980323791499,0.0585887266159058,0.0137004472732548
14.234454421562688,0.097060037612915,0.14001939067840602,0.174166755867005
14.235060115081769,-0.058616231918334996,-0.324614398384094,0.040045662117004804
14.235665808600848,0.034789529800415005,-0.0994825624465942,0.212487068367005
14.236271502119926,0.14017038917541502,0.0993040586471558,0.0184904863357548
14.236877195639007,-0.056221212387084996,0.0657737852096558,0.037650642585754804
14.237482889158086,-0.18315724754333498,-0.0132618593215942,0.284337654304505
14.238088582677165,0.061134744644165004,-0.346169574165344,0.0592058183670048
14.238694276196245,-0.125676778793335,-0.121037738227844,0.0208855058670048
14.239299969715324,0.022814432144165,-0.0587672304153442,0.147821541023255
14.239905663234403,0.147355447769165,-0.0659522890090942,-0.0294099042892452
14.240511356753483,0.20962595558166502,-0.116247699165344,0.238832283210755
14.241117050272562,0.099455057144165,-0.334194476509094,-0.07731029491424521
14.241722743791641,-0.084961446762085,0.0633787656784058,-0.043780021476745194
14.242328437310722,-0.10891164207458501,0.18073472270965601,0.12387134571075499
14.2429341308298,-0.058616231918334996,0.044218609428405796,-0.137185783195495
14.243539824348879,-0.147231954574585,-0.0659522890090942,0.0616008378982548
14.244145517867958,-0.142441915512085,0.044218609428405796,0.164586677742005
14.244751211387038,-0.135256856918335,0.104094097709656,0.150216560554505
14.245356904906117,-0.10891164207458501,-0.0611622499465942,0.0592058183670048
14.245962598425196,0.032394510269165004,0.0609837461471558,-0.0006696699142452131
14.246568291944275,-0.063406270980835,-0.0132618593215942,0.107106208992005
14.247173985463355,0.025209451675415,-0.00607680072784425,0.09992115039825479
14.247779678982434,-0.044246114730835,-0.044397113227844204,0.0137004472732548
14.248385372501513,0.080294900894165,-0.0875074647903442,-0.07491527538299521
14.248991066020594,0.039579568862915006,-0.0324220155715942,0.00891040821075479
14.249596759539672,0.032394510269165004,-0.0707423280715942,0.188536873054505
14.250202453058751,0.027604471206665,0.044218609428405796,0.0759709550857548
14.250808146577832,-0.025085958480835,-0.0803224061965942,0.210092048835755
14.25141384009691,0.192860818862915,-0.118642718696594,0.23164722461700502
14.25201953361599,-0.101726583480835,0.0106883359909058,-0.053360099601745196
14.25262522713507,-0.264587911605835,-0.044397113227844204,0.0184904863357548
14.253230920654149,0.039579568862915006,-0.0180518983840942,0.150216560554505
14.253836614173228,0.046764627456665,0.0777488828659058,-0.07731029491424521
14.254442307692308,-0.00353078269958497,0.137624371147156,-0.046175041007995195
14.255048001211387,0.00604929542541503,-0.0156568788528442,0.126266365242005
14.255653694730466,0.04436960792541501,0.0657737852096558,-0.206641349601745
14.256259388249546,0.020419412612915,0.0537986875534058,-0.307232169914245
14.256865081768625,-0.032271017074585,-0.06355726947784421,0.0208855058670048
14.257470775287704,0.104245096206665,0.0753538633346558,0.315472908210755
14.258076468806784,0.17130564308166502,-0.14498793354034398,0.150216560554505
14.258682162325863,0.080294900894165,0.0729588438034058,-0.10844554882049501
14.259287855844942,-0.084961446762085,0.13043931255340602,0.145426521492005
14.259893549364023,0.051554666519165,0.0585887266159058,-0.017434806632995202
14.260499242883101,0.106640115737915,-0.00607680072784425,0.387323494148255
14.26110493640218,0.013234354019165,0.013083355522155801,0.0663908769607548
14.261710629921259,0.020419412612915,0.101699078178406,-0.0988654706954952
14.26231632344034,0.161725564956665,0.168759625053406,0.0017253496170047899
14.262922016959418,0.06592478370666499,0.202289898490906,0.0137004472732548
14.263527710478497,-0.015505880355835,0.111279156303406,0.243622322273255
14.264133403997576,-0.051431173324584994,-0.0779273866653442,0.0879460527420048
14.264739097516657,0.029999490737915,-0.0420020936965942,-0.019829826164245203
14.265344791035735,0.041974588394165006,-0.123432757759094,0.210092048835755
14.265950484554814,-0.17357716941833498,-0.226418597602844,-0.0365949628829952
14.266556178073895,0.063529764175415,0.128044293022156,-0.0270148847579952
14.267161871592974,0.018024393081665,0.113674175834656,-0.0341999433517452
14.267767565112052,0.037184549331665005,-0.104272601509094,-0.06294017772674519
14.268373258631133,0.013234354019165,0.044218609428405796,0.147821541023255
14.268978952150212,-0.015505880355835,-0.022841937446594202,-0.050965080070495196
14.26958464566929,-0.075381368637085,-0.0803224061965942,0.13105640430450502
14.270190339188371,-0.00113576316833497,0.33641099224090604,0.028070564460754798
14.27079603270745,0.039579568862915006,-0.0036817811965942503,0.0639958574295048
14.271401726226529,-0.089751485824585,-0.0587672304153442,-0.050965080070495196
14.27200741974561,0.154540506362915,0.104094097709656,-0.12042064647674501
14.272613113264688,0.0012592563629150299,-0.0156568788528442,-0.0940754316329952
14.273218806783767,-0.041851095199585,0.020268414115905797,-0.101260490226745
14.273824500302847,-0.013110860824585,0.0298484922409058,-0.34555248241424497
14.274430193821926,0.013234354019165,0.0921190000534058,-0.225801505851745
14.275035887341005,0.109035135269165,-0.0779273866653442,0.0544157793045048
14.275641580860086,-0.013110860824585,0.0370335508346558,0.169376716804505
14.276247274379164,0.104245096206665,0.0274534727096558,0.0352556230545048
14.276852967898243,0.14975046730041502,-0.15935805072784398,-0.165926017570495
14.277458661417322,0.17609568214416502,-0.0204469179153442,0.162191658210755
14.278064354936403,0.056344705581665,-0.104272601509094,0.13105640430450502
14.278670048455481,0.113825174331665,-0.0683473085403442,0.0520207597732548
14.27927574197456,0.18567576026916502,-0.125827777290344,-0.0294099042892452
14.279881435493639,0.183280740737915,-0.111457660102844,-0.144370841789245
14.28048712901272,0.152145486831665,-0.0755323671340942,0.0472307207107548
14.281092822531798,0.082689920425415,0.0945140195846558,0.234042244148255
14.281698516050877,0.051554666519165,0.125649273490906,0.332238044929505
14.282304209569958,0.037184549331665005,-0.044397113227844204,0.0160954668045048
14.282909903089037,0.046764627456665,-0.17851820697784399,0.128661384773255
14.283515596608115,-0.015505880355835,-0.0875074647903442,0.198116951179505
14.284121290127196,0.07071482276916499,0.0322435117721558,0.104711189460755
14.284726983646275,0.010839334487915,-0.17372816791534398,0.157401619148255
14.285332677165353,0.12101023292541499,-0.0779273866653442,0.0879460527420048
14.285938370684434,0.025209451675415,-0.0875074647903442,0.011305427742004801
14.286544064203513,-0.125676778793335,-0.0707423280715942,0.401693611335755
14.287149757722592,0.13538035011291502,0.123254253959656,0.430433845710755
14.287755451241672,0.025209451675415,0.118464214897156,0.435223884773255
14.288361144760751,-0.04664113426208499,0.123254253959656,0.159796638679505
14.28896683827983,-0.166392110824585,-0.0755323671340942,0.00651538867950479
14.28957253179891,-0.051431173324584994,0.0705638242721558,-0.07012523632049521
14.29017822531799,0.07310984230041499,0.0633787656784058,-0.252146720695495
14.290783918837068,-0.056221212387084996,0.250190289115906,0.0520207597732548
14.291389612356149,0.111430154800415,0.0897239805221558,0.0568107988357548
14.291995305875227,-0.058616231918334996,0.00589829692840575,-0.137185783195495
14.292600999394306,0.125800271987915,0.13043931255340602,-0.0270148847579952
14.293206692913385,0.077899881362915,-0.00128676166534425,0.145426521492005
14.293812386432466,0.053949686050415,-0.0036817811965942503,-0.230591544914245
14.294418079951544,0.046764627456665,0.125649273490906,0.037650642585754804
14.295023773470623,0.085084939956665,0.0609837461471558,-0.010249748039245199
14.295629466989702,0.116220193862915,-0.0779273866653442,-0.0126447675704952
14.296235160508783,0.015629373550415,0.0394285703659058,-0.0892853925704952
14.296840854027861,0.00604929542541503,-0.0755323671340942,-0.170716056632995
14.29744654754694,-0.077776388168335,-0.0659522890090942,-0.00306468944549521
14.29805224106602,-0.056221212387084996,-0.118642718696594,-0.06294017772674519
14.2986579345851,0.020419412612915,0.101699078178406,-0.0892853925704952
14.299263628104178,-0.11130666160583501,0.020268414115905797,0.0520207597732548
14.299869321623259,-0.101726583480835,-0.00607680072784425,0.205302009773255
14.300475015142338,0.255131326675415,0.0801439023971558,0.0783659746170048
14.301080708661416,0.058739725112915,-0.0803224061965942,-0.197061271476745
14.301686402180497,0.020419412612915,-0.20965346088409398,-0.053360099601745196
14.302292095699576,0.0012592563629150299,-0.0875074647903442,-0.00545970897674521
14.302897789218655,-0.075381368637085,-0.0563722108840942,-0.0150397871017452
14.303503482737735,-0.00113576316833497,0.0250584531784058,0.09513111133575479
14.304109176256814,-0.084961446762085,0.0585887266159058,0.0639958574295048
14.304714869775893,0.13059031105041502,-0.226418597602844,0.0496257402420048
14.305320563294973,0.109035135269165,-0.0539771913528442,-0.053360099601745196
14.305926256814052,0.111430154800415,0.022663433647155798,0.040045662117004804
14.306531950333131,0.28147654151916496,0.0609837461471558,0.12387134571075499
14.307137643852212,-0.082566427230835,-0.0108668397903442,-0.249751701164245
14.30774333737129,-0.029875997543335,-0.0659522890090942,0.11668628711700499
14.30834903089037,0.058739725112915,0.0178733945846558,0.238832283210755
14.308954724409448,-0.216687520980835,-0.0491871522903442,-0.0581501386642452
14.309560417928529,0.049159646987915,0.0873289609909058,0.12147632617950499
14.310166111447607,0.00604929542541503,0.120859234428406,-0.07970531444549521
14.310771804966686,-0.077776388168335,-0.0396070741653442,0.102316169929505
14.311377498485765,0.125800271987915,-0.0324220155715942,0.13584644336700502
14.311983192004845,0.010839334487915,0.0322435117721558,0.011305427742004801
14.312588885523924,0.041974588394165006,0.13522935161590602,-0.0605451581954952
14.313194579043003,0.032394510269165004,-0.0731373476028442,-0.19227123241424499
14.313800272562084,-0.039456075668335,-0.0922975038528442,0.0903410722732548
14.314405966081162,-0.12807179832458498,0.0490086484909058,0.157401619148255
14.315011659600241,-0.068196310043335,0.046613628959655797,0.0544157793045048
14.315617353119322,0.061134744644165004,-0.16893812885284398,0.157401619148255
14.3162230466384,-0.072986349105835,0.0537986875534058,-0.206641349601745
14.31682874015748,-0.082566427230835,-0.00847182025909425,-0.00306468944549521
14.31743443367656,-0.041851095199585,0.0346385313034058,0.301102791023255
14.318040127195639,-0.080171407699585,0.202289898490906,0.238832283210755
14.318645820714718,0.274291482925415,-0.025236956977844203,0.20051197071075502
14.319251514233798,0.022814432144165,0.0945140195846558,-0.0988654706954952
14.319857207752877,-0.010715841293335,-0.0539771913528442,-0.12042064647674501
14.320462901271956,-0.013110860824585,0.15917954692840602,0.0855510332107548
14.321068594791036,-0.19273732566833499,0.013083355522155801,0.22685718555450501
14.321674288310115,0.101850076675415,0.0106883359909058,0.09513111133575479
14.322279981829194,0.061134744644165004,-0.0899024843215942,-0.175506095695495
14.322885675348275,0.16651560401916501,0.0250584531784058,-0.125210685539245
14.323491368867353,-0.13286183738708499,-0.0875074647903442,-0.170716056632995
14.324097062386432,-0.041851095199585,-0.125827777290344,-0.048570060539245195
14.324702755905511,-0.092146505355835,-0.0779273866653442,0.274757576179505
14.325308449424591,-0.00113576316833497,-0.0180518983840942,-0.0150397871017452
14.32591414294367,0.164120584487915,0.15917954692840602,0.0903410722732548
14.326519836462749,-0.072986349105835,-0.0755323671340942,0.109501228523255
14.327125529981828,-0.080171407699585,-0.0204469179153442,0.0879460527420048
14.327731223500908,0.094665018081665,-0.125827777290344,0.0687858964920048
14.328336917019987,0.154540506362915,-0.0875074647903442,0.11429126758575499
14.328942610539066,-0.099331563949585,0.0801439023971558,0.0496257402420048
14.329548304058147,-0.039456075668335,0.295695660209656,-0.0318049238204952
14.330153997577225,0.111430154800415,0.161574566459656,-0.12042064647674501
14.330759691096304,0.00844431495666502,0.14959946880340602,0.0759709550857548
14.331365384615385,-0.11370168113708501,0.0537986875534058,0.210092048835755
14.331971078134464,0.061134744644165004,-0.06355726947784421,0.0735759355545048
14.332576771653542,-0.092146505355835,-0.176123187446594,0.23643726367950502
14.333182465172623,-0.034666036605835,-0.0994825624465942,-0.0318049238204952
14.333788158691702,0.082689920425415,-0.0396070741653442,0.128661384773255
14.33439385221078,-0.00592580223083497,-0.10187758197784401,-0.0605451581954952
14.334999545729861,-0.00113576316833497,0.0561937070846558,-0.0006696699142452131
14.33560523924894,0.07310984230041499,-0.0180518983840942,0.174166755867005
14.336210932768019,0.137775369644165,-0.104272601509094,-0.046175041007995195
14.3368166262871,0.00365427589416503,-0.0803224061965942,-0.0557551191329952
14.337422319806178,0.025209451675415,0.00589829692840575,0.222067146492005
14.338028013325257,-0.15920705223083498,-0.109062640571594,0.044835701179504805
14.338633706844337,-0.032271017074585,-0.0779273866653442,0.0520207597732548
14.339239400363416,0.173700662612915,-0.166543109321594,0.18135181446075502
14.339845093882495,0.010839334487915,-0.14019789447784398,-0.053360099601745196
14.340450787401576,0.13538035011291502,0.0681688047409058,-0.017434806632995202
14.341056480920654,0.015629373550415,0.211869976615906,0.0496257402420048
14.341662174439733,0.039579568862915006,0.19510483989715602,0.11668628711700499
14.342267867958812,0.06831980323791499,0.104094097709656,-0.0988654706954952
14.342873561477893,0.037184549331665005,-0.0731373476028442,-0.0318049238204952
14.343479254996971,-0.065801290512085,-0.0899024843215942,0.104711189460755
14.34408494851605,-0.18794728660583498,0.0346385313034058,0.0687858964920048
14.344690642035129,-0.140046895980835,-0.0276319765090942,-0.134790763664245
14.34529633555421,0.18088572120666502,0.0490086484909058,0.037650642585754804
14.345902029073288,0.132985330581665,-0.0803224061965942,-0.0557551191329952
14.346507722592367,-0.017900899887085,0.041823589897155795,-0.08210033397674521
14.347113416111448,0.063529764175415,0.116069195365906,0.499889412117005
14.347719109630527,0.19046579933166502,-0.0587672304153442,0.00412036914825479
14.348324803149605,0.13538035011291502,0.116069195365906,-0.22340648632049498
14.348930496668686,-0.11130666160583501,0.044218609428405796,0.12147632617950499
14.349536190187765,0.116220193862915,0.0370335508346558,0.281942634773255
14.350141883706844,0.039579568862915006,-0.0396070741653442,0.104711189460755
14.350747577225924,-0.068196310043335,-0.00847182025909425,-0.16832103710174498
14.351353270745003,0.061134744644165004,-0.00847182025909425,0.18614185352325502
14.351958964264082,0.051554666519165,-0.192888324165344,0.0232805253982548
14.352564657783162,0.049159646987915,0.046613628959655797,-0.0222248456954952
14.353170351302241,-0.094541524887085,0.18073472270965601,0.133451423835755
14.35377604482132,-0.156812032699585,0.0681688047409058,-0.0294099042892452
14.3543817383404,-0.00353078269958497,0.0873289609909058,0.0807609941482548
14.35498743185948,-0.072986349105835,0.0514036680221558,0.210092048835755
14.355593125378558,-0.061011251449585,-0.0946925233840942,0.0879460527420048
14.356198818897639,0.022814432144165,0.0394285703659058,-0.0557551191329952
14.356804512416717,-0.077776388168335,0.233425152397156,-0.00306468944549521
14.357410205935796,0.022814432144165,0.0106883359909058,0.09513111133575479
14.358015899454875,-0.092146505355835,-0.14498793354034398,-0.08449535350799521
14.358621592973956,-0.013110860824585,-0.29108412494659397,-0.266516837882995
14.359227286493034,0.14017038917541502,-0.13540785541534398,-0.08689037303924521
14.359832980012113,0.013234354019165,-0.0707423280715942,0.00651538867950479
14.360438673531192,0.00844431495666502,0.020268414115905797,-0.046175041007995195
14.361044367050273,-0.04664113426208499,0.0945140195846558,0.0017253496170047899
14.361650060569351,-0.123281759262085,-0.104272601509094,0.0472307207107548
14.36225575408843,0.099455057144165,0.202289898490906,-0.00785472850799521
14.36286144760751,0.049159646987915,-0.118642718696594,0.0855510332107548
14.36346714112659,0.00365427589416503,-0.14019789447784398,0.12387134571075499
14.364072834645668,0.022814432144165,-0.125827777290344,0.289127693367005
14.364678528164749,-0.180762228012085,-0.0994825624465942,0.0544157793045048
14.365284221683828,0.025209451675415,0.19031480083465602,-0.046175041007995195
14.365889915202906,-0.058616231918334996,-0.0970875429153442,0.169376716804505
14.366495608721987,-0.044246114730835,0.0298484922409058,0.126266365242005
14.367101302241066,0.07071482276916499,0.125649273490906,0.0544157793045048
14.367706995760145,0.013234354019165,0.254980328178406,0.12387134571075499
14.368312689279225,-0.094541524887085,0.0633787656784058,0.12147632617950499
14.368918382798304,-0.089751485824585,-0.161753070259094,-0.046175041007995195
14.369524076317383,-0.11609670066833501,0.116069195365906,0.13584644336700502
14.370129769836463,-0.008320821762084981,-0.0132618593215942,0.159796638679505
14.370735463355542,0.077899881362915,-0.197678363227844,0.0639958574295048
14.371341156874621,0.087479959487915,-0.279109027290344,0.0735759355545048
14.371946850393702,-0.16878713035583498,-0.0994825624465942,-0.0916804121017452
14.37255254391278,-0.18794728660583498,0.0274534727096558,0.00891040821075479
14.37315823743186,0.17609568214416502,-0.0348170351028442,0.042440681648254805
14.373763930950938,-0.104121603012085,0.123254253959656,0.143031501960755
14.374369624470019,0.221601053237915,-0.0755323671340942,0.210092048835755
14.374975317989097,0.238366189956665,0.128044293022156,-0.309627189445495
14.375581011508176,0.14975046730041502,-0.0563722108840942,-0.149160880851745
14.376186705027255,-0.00592580223083497,0.013083355522155801,0.0137004472732548
14.376792398546336,-0.025085958480835,0.353176128959656,-0.06294017772674519
14.377398092065414,0.053949686050415,0.0969090391159058,0.339423103523255
14.378003785584493,-0.11370168113708501,0.0993040586471558,0.574135017585755
14.378609479103574,0.104245096206665,-0.0946925233840942,0.16698169727325501
14.379215172622652,0.104245096206665,0.0370335508346558,-0.10844554882049501
14.379820866141731,-0.056221212387084996,-0.109062640571594,-0.07970531444549521
14.380426559660812,-0.084961446762085,-0.21444349994659398,0.0903410722732548
14.38103225317989,0.051554666519165,0.0178733945846558,0.0759709550857548
14.38163794669897,0.00604929542541503,0.020268414115905797,-0.0940754316329952
14.38224364021805,-0.053826192855834995,-0.106667621040344,0.011305427742004801
14.382849333737129,0.029999490737915,-0.0779273866653442,0.143031501960755
14.383455027256208,-0.16399709129333498,-0.0755323671340942,0.09752613086700479
14.384060720775288,-0.053826192855834995,0.0035032773971557496,-0.141975822257995
14.384666414294367,0.188070779800415,-0.152172992134094,-0.046175041007995195
14.385272107813446,-0.089751485824585,-0.046792132759094204,0.0687858964920048
14.385877801332526,-0.058616231918334996,-0.0970875429153442,0.0687858964920048
14.386483494851605,0.080294900894165,0.0514036680221558,-0.0318049238204952
14.387089188370684,0.053949686050415,0.156784527397156,-0.019829826164245203
14.387694881889765,-0.032271017074585,-0.0515821718215942,-0.00545970897674521
14.388300575408843,-0.10891164207458501,0.020268414115905797,-0.149160880851745
14.388906268927922,-0.089751485824585,-0.0875074647903442,-0.130000724601745
14.389511962447001,0.056344705581665,-0.0707423280715942,-0.07731029491424521
14.390117655966082,0.037184549331665005,0.0681688047409058,-0.0581501386642452
14.39072334948516,0.015629373550415,0.041823589897155795,-0.137185783195495
14.391329043004239,-0.084961446762085,-0.123432757759094,0.133451423835755
14.391934736523318,-0.175972188949585,-0.10187758197784401,0.09513111133575479
14.392540430042398,-0.034666036605835,0.0106883359909058,0.143031501960755
14.393146123561477,-0.199922384262085,0.013083355522155801,-0.0126447675704952
14.393751817080556,-0.008320821762084981,0.046613628959655797,-0.11084056835174501
14.394357510599637,0.16651560401916501,0.0346385313034058,0.011305427742004801
14.394963204118715,-0.087356466293335,0.0753538633346558,-0.0605451581954952
14.395568897637794,-0.013110860824585,0.0274534727096558,-0.0246198652267452
14.396174591156875,0.00365427589416503,-0.0659522890090942,0.0304655839920048
14.396780284675954,0.058739725112915,0.202289898490906,-0.0413850019454952
14.397385978195032,-0.137651876449585,0.044218609428405796,0.0855510332107548
14.397991671714113,-0.094541524887085,-0.0539771913528442,0.29391773242950503
14.398597365233192,0.089874979019165,-0.0899024843215942,0.0184904863357548
14.39920305875227,0.283871561050415,-0.0994825624465942,0.238832283210755
14.399808752271351,0.164120584487915,-0.161753070259094,0.155006599617005
14.40041444579043,0.029999490737915,0.0849339414596558,0.0568107988357548
14.401020139309509,-0.025085958480835,-0.14019789447784398,0.044835701179504805
14.40162583282859,0.17130564308166502,-0.192888324165344,-0.0150397871017452
14.402231526347668,0.080294900894165,0.0945140195846558,0.262782478523255
14.402837219866747,-0.039456075668335,-0.16893812885284398,-0.0294099042892452
14.403442913385827,0.020419412612915,-0.046792132759094204,-0.0341999433517452
14.404048606904906,-0.21429250144958498,0.15438950786590602,0.107106208992005
14.404654300423985,0.07071482276916499,-0.0515821718215942,0.044835701179504805
14.405259993943066,-0.053826192855834995,0.0322435117721558,0.09752613086700479
14.405865687462144,0.041974588394165006,-0.00128676166534425,-0.221011466789245
14.406471380981223,0.056344705581665,0.0777488828659058,-0.209036369132995
14.407077074500302,-0.068196310043335,0.104094097709656,-0.0365949628829952
14.40768276801938,0.027604471206665,-0.0276319765090942,-0.153950919914245
14.408288461538461,0.06592478370666499,0.106489117240906,-0.08449535350799521
14.40889415505754,-0.096936544418335,-0.0180518983840942,-0.08449535350799521
14.409499848576619,-0.144836935043335,-0.0707423280715942,-0.153950919914245
14.4101055420957,-0.123281759262085,-0.0348170351028442,0.028070564460754798
14.410711235614778,-0.04664113426208499,-0.0587672304153442,0.0616008378982548
14.411316929133857,0.125800271987915,-0.259948871040344,0.040045662117004804
14.411922622652938,-0.00113576316833497,0.0035032773971557496,0.09992115039825479
14.412528316172017,0.041974588394165006,-0.0851124452590942,0.193326912117005
14.413134009691095,-0.044246114730835,-0.0827174257278442,0.0520207597732548
14.413739703210176,-0.020295919418335,0.0993040586471558,-0.0653351972579952
14.414345396729255,0.109035135269165,-0.025236956977844203,0.183746833992005
14.414951090248334,0.099455057144165,0.0250584531784058,0.0496257402420048
14.415556783767414,0.082689920425415,-0.156963031196594,0.11908130664825499
14.416162477286493,0.14017038917541502,0.0921190000534058,0.193326912117005
14.416768170805572,0.13538035011291502,0.0705638242721558,-0.0294099042892452
14.417373864324652,0.104245096206665,-0.20965346088409398,-0.046175041007995195
14.417979557843731,0.116220193862915,0.0609837461471558,-0.043780021476745194
14.41858525136281,-0.10651662254333501,-0.111457660102844,0.09273609180450479
14.41919094488189,0.12340525245666499,-0.0755323671340942,0.00891040821075479
14.41979663840097,-0.032271017074585,-0.0324220155715942,-0.185086173820495
14.420402331920048,0.037184549331665005,-0.0372120546340942,-0.0294099042892452
14.421008025439129,0.06831980323791499,0.0681688047409058,0.214882087898255
14.421613718958207,-0.020295919418335,-0.288689105415344,-0.0318049238204952
14.422219412477286,0.018024393081665,-0.207258441352844,-0.0318049238204952
14.422825105996365,-0.017900899887085,-0.044397113227844204,0.308287849617005
14.423430799515446,0.097060037612915,-0.121037738227844,0.12147632617950499
14.424036493034524,-0.084961446762085,-0.0132618593215942,-0.010249748039245199
14.424642186553603,0.061134744644165004,-0.0611622499465942,-0.043780021476745194
14.425247880072682,0.12101023292541499,0.0274534727096558,0.0687858964920048
14.425853573591763,-0.101726583480835,0.0106883359909058,0.0711809160232548
14.426459267110841,-0.039456075668335,-0.192888324165344,-0.101260490226745
14.42706496062992,-0.04664113426208499,-0.06355726947784421,0.24122730274200502
14.427670654149,-0.041851095199585,-0.0276319765090942,0.0879460527420048
14.42827634766808,0.168910623550415,-0.00847182025909425,0.09273609180450479
14.428882041187158,-0.032271017074585,0.00110825786590575,0.042440681648254805
14.429487734706239,0.025209451675415,-0.0156568788528442,-0.18269115428924498
14.430093428225318,-0.025085958480835,-0.106667621040344,0.11668628711700499
14.430699121744397,0.04436960792541501,0.0106883359909058,0.17177173633575502
14.431304815263477,0.087479959487915,0.183129742240906,0.0783659746170048
14.431910508782556,0.137775369644165,-0.0827174257278442,-0.0605451581954952
14.432516202301635,0.216811014175415,-0.176123187446594,-0.0341999433517452
14.433121895820715,-0.075381368637085,-0.0779273866653442,-0.0413850019454952
14.433727589339794,0.056344705581665,0.0945140195846558,0.042440681648254805
14.434333282858873,0.058739725112915,0.0801439023971558,0.16698169727325501
14.434938976377953,0.04436960792541501,0.125649273490906,-0.019829826164245203
14.435544669897032,0.247946268081665,0.18552476177215602,0.0160954668045048
14.436150363416111,0.16651560401916501,0.247795269584656,-0.323997306632995
14.436756056935192,-0.084961446762085,0.104094097709656,-0.386267814445495
14.43736175045427,-0.00592580223083497,-0.0036817811965942503,0.14063648242950502
14.43796744397335,-0.140046895980835,0.0561937070846558,0.538209724617005
14.438573137492428,-0.092146505355835,0.106489117240906,0.257992439460755
14.439178831011509,0.137775369644165,0.0729588438034058,0.0328606035232548
14.439784524530587,0.025209451675415,-0.188098285102844,0.040045662117004804
14.440390218049666,0.032394510269165004,0.0705638242721558,-0.137185783195495
14.440995911568745,0.082689920425415,0.0657737852096558,-0.08449535350799521
14.441601605087826,0.161725564956665,0.022663433647155798,-0.050965080070495196
14.442207298606904,0.142565408706665,0.0274534727096558,0.128661384773255
14.442812992125983,0.087479959487915,0.113674175834656,0.0496257402420048
14.443418685645064,-0.25979787254333503,0.0561937070846558,0.0807609941482548
14.444024379164143,-0.15920705223083498,0.0849339414596558,0.107106208992005
14.444630072683221,0.032394510269165004,0.008293316459655751,0.011305427742004801
14.445235766202302,0.049159646987915,-0.190493304634094,-0.0940754316329952
14.44584145972138,0.085084939956665,0.00110825786590575,-0.216221427726745
14.44644715324046,0.116220193862915,-0.231208636665344,-0.22340648632049498
14.44705284675954,0.116220193862915,-0.0731373476028442,0.09752613086700479
14.447658540278619,-0.017900899887085,-0.113852679634094,0.0472307207107548
14.448264233797698,-0.152021993637085,-0.109062640571594,-0.0413850019454952
14.448869927316778,-0.207107442855835,0.264560406303406,0.042440681648254805
14.449475620835857,-0.013110860824585,0.046613628959655797,-0.151555900382995
14.450081314354936,-0.135256856918335,0.137624371147156,-0.165926017570495
14.450687007874016,0.018024393081665,0.19989487895965602,0.104711189460755
14.451292701393095,0.037184549331665005,-0.0587672304153442,0.147821541023255
14.451898394912174,0.125800271987915,-0.0204469179153442,-0.0294099042892452
14.452504088431255,0.178490701675415,-0.0132618593215942,-0.0126447675704952
14.453109781950333,0.13059031105041502,-0.0396070741653442,-0.213826408195495
14.453715475469412,0.07310984230041499,0.128044293022156,-0.189876212882995
14.454321168988491,-0.080171407699585,0.00110825786590575,0.0879460527420048
14.454926862507572,0.013234354019165,0.00589829692840575,0.11429126758575499
14.45553255602665,0.039579568862915006,0.0825389219284058,0.09513111133575479
14.45613824954573,0.089874979019165,0.202289898490906,0.222067146492005
14.456743943064808,-0.00113576316833497,0.0873289609909058,0.0568107988357548
14.457349636583888,0.197650857925415,-0.15456801166534398,0.044835701179504805
14.457955330102967,0.20962595558166502,-0.0372120546340942,-0.0940754316329952
14.458561023622046,0.099455057144165,0.044218609428405796,-0.259331779289245
14.459166717141127,0.018024393081665,0.0825389219284058,0.0663908769607548
14.459772410660205,0.00604929542541503,-0.00128676166534425,-0.13239574413299499
14.460378104179284,0.07071482276916499,-0.161753070259094,-0.0988654706954952
14.460983797698365,0.0012592563629150299,0.0969090391159058,0.22685718555450501
14.461589491217444,-0.008320821762084981,0.125649273490906,0.0735759355545048
14.462195184736522,0.080294900894165,0.0250584531784058,0.0184904863357548
14.462800878255603,0.029999490737915,-0.123432757759094,0.202906990242005
14.463406571774682,-0.061011251449585,-0.147382953071594,-0.0222248456954952
14.46401226529376,-0.034666036605835,0.00589829692840575,0.00891040821075479
14.464617958812841,0.128195291519165,0.0250584531784058,0.257992439460755
14.46522365233192,-0.013110860824585,0.173549664115906,-0.0940754316329952
14.465829345850999,0.049159646987915,-0.0396070741653442,-0.362317619132995
14.46643503937008,0.085084939956665,-0.0204469179153442,0.47354419727325503
14.467040732889158,-0.175972188949585,0.0561937070846558,0.380138435554505
14.467646426408237,0.104245096206665,0.0969090391159058,0.162191658210755
14.468252119927318,0.286266580581665,-0.16893812885284398,0.219672126960755
14.468857813446396,-0.020295919418335,0.020268414115905797,-0.0892853925704952
14.469463506965475,-0.025085958480835,0.254980328178406,-0.07012523632049521
14.470069200484556,0.159330545425415,-0.0156568788528442,-0.16353099803924498
14.470674894003634,0.089874979019165,-0.0803224061965942,0.0687858964920048
14.471280587522713,0.022814432144165,-0.152172992134094,0.037650642585754804
14.471886281041792,0.101850076675415,-0.104272601509094,0.0807609941482548
14.47249197456087,0.037184549331665005,0.125649273490906,0.00412036914825479
14.473097668079951,-0.099331563949585,-0.0659522890090942,-0.0006696699142452131
14.47370336159903,0.051554666519165,0.008293316459655751,0.0137004472732548
14.474309055118109,0.097060037612915,0.0035032773971557496,0.207697029304505
14.47491474863719,0.156935525894165,0.0633787656784058,0.00891040821075479
14.475520442156268,-0.00113576316833497,0.0681688047409058,0.143031501960755
14.476126135675347,0.037184549331665005,-0.267133929634094,0.289127693367005
14.476731829194428,-0.020295919418335,0.0633787656784058,0.0328606035232548
14.477337522713507,-0.025085958480835,0.113674175834656,0.0160954668045048
14.477943216232585,0.168910623550415,0.0921190000534058,0.0160954668045048
14.478548909751666,0.037184549331665005,0.175944683647156,0.162191658210755
14.479154603270745,-0.020295919418335,0.173549664115906,-0.08210033397674521
14.479760296789824,-0.152021993637085,0.0154783750534058,-0.08449535350799521
14.480365990308904,-0.039456075668335,-0.161753070259094,0.152611580085755
14.480971683827983,0.077899881362915,0.0490086484909058,0.11429126758575499
14.481577377347062,-0.025085958480835,-0.104272601509094,0.09513111133575479
14.482183070866142,-0.04664113426208499,0.0681688047409058,0.14063648242950502
14.482788764385221,-0.053826192855834995,0.0298484922409058,0.040045662117004804
14.4833944579043,-0.140046895980835,-0.0922975038528442,-0.07252025585174521
14.48400015142338,0.04436960792541501,0.161574566459656,0.0855510332107548
14.48460584494246,-0.04664113426208499,-0.0803224061965942,0.0807609941482548
14.485211538461538,-0.120886739730835,-0.0755323671340942,-0.10844554882049501
14.485817231980619,0.099455057144165,0.0250584531784058,0.17656177539825502
14.486422925499697,0.142565408706665,0.20947495708465602,-0.08449535350799521
14.487028619018776,0.22639109230041501,0.13043931255340602,0.00651538867950479
14.487634312537855,0.147355447769165,-0.0108668397903442,-0.019829826164245203
14.488240006056934,-0.037061056137085,0.0035032773971557496,-0.0940754316329952
14.488845699576014,-0.161602071762085,-0.0420020936965942,0.0783659746170048
14.489451393095093,0.080294900894165,-0.259948871040344,-0.06294017772674519
14.490057086614172,0.075504861831665,-0.133012835884094,0.145426521492005
14.490662780133253,0.0012592563629150299,0.123254253959656,0.18614185352325502
14.491268473652331,-0.096936544418335,-0.106667621040344,0.0568107988357548
14.49187416717141,-0.089751485824585,-0.0875074647903442,0.0208855058670048
14.49247986069049,-0.11849172019958501,0.104094097709656,0.12387134571075499
14.49308555420957,-0.008320821762084981,0.008293316459655751,-0.125210685539245
14.493691247728648,0.075504861831665,0.118464214897156,-0.11323558788299501
14.494296941247729,-0.12807179832458498,-0.0611622499465942,0.217277107429505
14.494902634766808,-0.065801290512085,-0.0994825624465942,-0.053360099601745196
14.495508328285887,-0.051431173324584994,0.132834332084656,0.0616008378982548
14.496114021804967,0.027604471206665,0.0657737852096558,0.614850349617005
14.496719715324046,0.111430154800415,-0.128222796821594,0.159796638679505
14.497325408843125,-0.195132345199585,-0.109062640571594,0.368163337898255
14.497931102362205,-0.180762228012085,-0.190493304634094,0.360978279304505
14.498536795881284,0.034789529800415005,-0.283899066352844,-0.07491527538299521
14.499142489400363,0.07071482276916499,0.123254253959656,0.20051197071075502
14.499748182919443,0.17130564308166502,0.118464214897156,0.0831560136795048
14.500353876438522,0.092269998550415,-0.0276319765090942,0.037650642585754804
14.500959569957601,0.06831980323791499,0.13043931255340602,0.0687858964920048
14.501565263476682,0.07310984230041499,0.044218609428405796,-0.0318049238204952
14.50217095699576,-0.077776388168335,-0.20486342182159398,0.0232805253982548
14.50277665051484,-0.044246114730835,0.0921190000534058,0.09992115039825479
14.503382344033918,-0.077776388168335,-0.0994825624465942,0.0352556230545048
14.503988037552997,-0.041851095199585,-0.255158831977844,0.0232805253982548
14.504593731072077,0.13538035011291502,0.0561937070846558,-0.0916804121017452
14.505199424591156,0.0012592563629150299,0.118464214897156,0.23643726367950502
14.505805118110235,0.125800271987915,0.020268414115905797,-0.0653351972579952
14.506410811629316,0.14496042823791502,-0.0372120546340942,-0.189876212882995
14.507016505148394,0.12340525245666499,0.0106883359909058,0.13105640430450502
14.507622198667473,-0.056221212387084996,-0.123432757759094,-0.017434806632995202
14.508227892186554,-0.195132345199585,0.0274534727096558,-0.0294099042892452
14.508833585705633,-0.087356466293335,0.137624371147156,0.0352556230545048
14.509439279224711,-0.092146505355835,0.0370335508346558,0.0831560136795048
14.510044972743792,0.056344705581665,0.0274534727096558,0.037650642585754804
14.51065066626287,0.010839334487915,-0.0563722108840942,0.0903410722732548
14.51125635978195,-0.049036153793334994,-0.216838519477844,-0.101260490226745
14.51186205330103,0.07071482276916499,-0.16414808979034398,-0.266516837882995
14.512467746820109,0.101850076675415,-0.0491871522903442,-0.0413850019454952
14.513073440339188,-0.010715841293335,-0.025236956977844203,-0.07970531444549521
14.513679133858268,0.022814432144165,0.254980328178406,0.0017253496170047899
14.514284827377347,0.216811014175415,0.0514036680221558,0.250807380867005
14.514890520896426,0.037184549331665005,-0.0731373476028442,-0.22340648632049498
14.515496214415506,0.101850076675415,-0.180913226509094,-0.0270148847579952
14.516101907934585,0.14975046730041502,-0.0156568788528442,0.24601734180450502
14.516707601453664,-0.18794728660583498,0.18073472270965601,0.0616008378982548
14.517313294972745,-0.12807179832458498,-0.10187758197784401,0.0520207597732548
14.517918988491823,0.128195291519165,0.111279156303406,0.104711189460755
14.518524682010902,0.12340525245666499,-0.0348170351028442,0.11429126758575499
14.519130375529981,-0.010715841293335,-0.128222796821594,0.0160954668045048
14.519736069049062,0.104245096206665,-0.0970875429153442,0.0831560136795048
14.52034176256814,-0.044246114730835,-0.0611622499465942,0.0472307207107548
14.52094745608722,-0.226267599105835,-0.212048480415344,-0.08689037303924521
14.521553149606298,0.04436960792541501,0.0945140195846558,-0.0605451581954952
14.522158843125379,0.20004587745666502,0.183129742240906,0.159796638679505
14.522764536644457,0.00365427589416503,-0.00128676166534425,0.143031501960755
14.523370230163536,0.022814432144165,-0.0348170351028442,0.0639958574295048
14.523975923682617,-0.034666036605835,-0.0922975038528442,0.11908130664825499
14.524581617201695,-0.142441915512085,-0.202468402290344,-0.019829826164245203
14.525187310720774,-0.056221212387084996,-0.116247699165344,0.00412036914825479
14.525793004239855,0.010839334487915,-0.0132618593215942,-0.0006696699142452131
14.526398697758934,-0.034666036605835,-0.176123187446594,-0.13239574413299499
14.527004391278012,-0.185552267074585,0.0250584531784058,0.0352556230545048
14.527610084797093,0.029999490737915,-0.0420020936965942,0.375348396492005
14.528215778316172,0.085084939956665,-0.0539771913528442,0.0544157793045048
14.52882147183525,0.046764627456665,-0.0132618593215942,-0.0006696699142452131
14.529427165354331,0.188070779800415,0.0849339414596558,0.229252205085755
14.53003285887341,0.14975046730041502,0.21426499614715602,-0.00545970897674521
14.530638552392489,0.00604929542541503,-0.0803224061965942,-0.10605052928924501
14.53124424591157,-0.056221212387084996,-0.118642718696594,-0.139580802726745
14.531849939430648,0.032394510269165004,0.0561937070846558,0.028070564460754798
14.532455632949727,0.085084939956665,0.0274534727096558,-0.050965080070495196
14.533061326468808,-0.008320821762084981,0.00110825786590575,-0.06294017772674519
14.533667019987886,0.032394510269165004,-0.0946925233840942,0.13584644336700502
14.534272713506965,-0.130466817855835,-0.166543109321594,0.214882087898255
14.534878407026044,0.027604471206665,-0.118642718696594,0.0496257402420048
14.535484100545125,0.212020975112915,-0.0372120546340942,-0.017434806632995202
14.536089794064203,0.029999490737915,-0.0922975038528442,-0.050965080070495196
14.536695487583282,-0.070591329574585,-0.156963031196594,-0.256936759757995
14.537301181102361,0.063529764175415,-0.0539771913528442,-0.00306468944549521
14.537906874621441,0.00604929542541503,0.0681688047409058,-0.07252025585174521
14.53851256814052,-0.032271017074585,-0.0491871522903442,-0.0270148847579952
14.539118261659599,0.152145486831665,-0.128222796821594,0.178956794929505
14.53972395517868,-0.008320821762084981,-0.133012835884094,0.0855510332107548
14.540329648697758,-0.137651876449585,-0.0396070741653442,0.126266365242005
14.540935342216837,0.109035135269165,0.0681688047409058,0.0879460527420048
14.541541035735918,0.056344705581665,0.041823589897155795,-0.12281566600799501
14.542146729254997,-0.020295919418335,0.0154783750534058,-0.161135978507995
14.542752422774075,-0.082566427230835,0.008293316459655751,0.19093189258575502
14.543358116293156,0.106640115737915,-0.044397113227844204,0.267572517585755
14.543963809812235,0.025209451675415,0.0609837461471558,0.0807609941482548
14.544569503331314,-0.135256856918335,0.022663433647155798,-0.151555900382995
14.545175196850394,0.063529764175415,0.0825389219284058,0.152611580085755
14.545780890369473,-0.027480978012085,0.19031480083465602,0.193326912117005
14.546386583888552,0.034789529800415005,-0.0420020936965942,-0.16353099803924498
14.546992277407632,0.027604471206665,-0.156963031196594,0.044835701179504805
14.547597970926711,0.032394510269165004,-0.022841937446594202,0.0160954668045048
14.54820366444579,0.154540506362915,0.125649273490906,0.11668628711700499
14.54880935796487,0.104245096206665,0.161574566459656,0.128661384773255
14.54941505148395,0.06831980323791499,0.15917954692840602,0.0639958574295048
14.550020745003028,-0.017900899887085,-0.111457660102844,0.0616008378982548
14.550626438522109,-0.140046895980835,-0.176123187446594,-0.00545970897674521
14.551232132041187,0.111430154800415,0.0154783750534058,0.152611580085755
14.551837825560266,0.132985330581665,0.0897239805221558,0.157401619148255
14.552443519079345,-0.130466817855835,-0.121037738227844,0.109501228523255
14.553049212598424,-0.053826192855834995,-0.0587672304153442,0.09992115039825479
14.553654906117504,0.233576150894165,0.19510483989715602,0.162191658210755
14.554260599636583,0.027604471206665,-0.0803224061965942,0.128661384773255
14.554866293155662,-0.14962697410583498,-0.0420020936965942,0.14063648242950502
14.555471986674743,-0.075381368637085,-0.113852679634094,-0.0916804121017452
14.556077680193821,-0.00113576316833497,-0.00607680072784425,-0.125210685539245
14.5566833737129,-0.00592580223083497,0.022663433647155798,-0.283281974601745
14.55728906723198,0.13538035011291502,-0.0994825624465942,0.298707771492005
14.55789476075106,-0.029875997543335,-0.025236956977844203,0.104711189460755
14.558500454270138,-0.120886739730835,-0.0994825624465942,0.169376716804505
14.559106147789219,-0.226267599105835,-0.142592914009094,0.193326912117005
14.559711841308298,0.07071482276916499,-0.0899024843215942,-0.130000724601745
14.560317534827377,0.092269998550415,0.0705638242721558,0.351398201179505
14.560923228346457,-0.013110860824585,0.0993040586471558,-0.00785472850799521
14.561528921865536,0.137775369644165,0.274140484428406,0.042440681648254805
14.562134615384615,-0.077776388168335,-0.109062640571594,-0.048570060539245195
14.562740308903695,-0.032271017074585,-0.14498793354034398,0.00412036914825479
14.563346002422774,-0.063406270980835,-0.0611622499465942,0.0472307207107548
14.563951695941853,0.116220193862915,0.00589829692840575,0.0616008378982548
14.564557389460933,0.118615213394165,0.13043931255340602,0.0616008378982548
14.565163082980012,0.07071482276916499,-0.15935805072784398,-0.141975822257995
14.565768776499091,0.07071482276916499,-0.0204469179153442,0.0639958574295048
14.566374470018172,0.037184549331665005,-0.10187758197784401,-0.050965080070495196
14.56698016353725,0.013234354019165,-0.125827777290344,0.14063648242950502
14.56758585705633,-0.082566427230835,0.128044293022156,0.12147632617950499
14.568191550575408,-0.017900899887085,0.0921190000534058,-0.07970531444549521
14.568797244094487,0.097060037612915,-0.00847182025909425,0.17177173633575502
14.569402937613567,0.12101023292541499,-0.111457660102844,-0.0222248456954952
14.570008631132646,-0.041851095199585,0.0178733945846558,-0.0150397871017452
14.570614324651725,-0.135256856918335,0.168759625053406,-0.0318049238204952
14.571220018170806,0.097060037612915,0.0537986875534058,0.126266365242005
14.571825711689884,0.039579568862915006,0.00589829692840575,0.0544157793045048
14.572431405208963,-0.14962697410583498,-0.0300269960403442,0.0592058183670048
14.573037098728044,-0.120886739730835,0.13043931255340602,0.178956794929505
14.573642792247123,0.053949686050415,-0.0683473085403442,0.107106208992005
14.574248485766201,-0.120886739730835,-0.0108668397903442,-0.0006696699142452131
14.574854179285282,0.053949686050415,-0.0396070741653442,-0.00545970897674521
14.57545987280436,0.034789529800415005,-0.0539771913528442,0.178956794929505
14.57606556632344,-0.099331563949585,0.104094097709656,0.09752613086700479
14.57667125984252,-0.017900899887085,-0.14019789447784398,0.0496257402420048
14.577276953361599,0.07310984230041499,-0.0899024843215942,-0.08689037303924521
14.577882646880678,0.077899881362915,0.216660015678406,-0.017434806632995202
14.578488340399758,-0.015505880355835,0.238215191459656,0.150216560554505
14.579094033918837,0.082689920425415,0.00589829692840575,0.0711809160232548
14.579699727437916,-0.051431173324584994,-0.133012835884094,-0.146765861320495
14.580305420956996,-0.061011251449585,-0.264738910102844,-0.010249748039245199
14.580911114476075,-0.190342306137085,-0.0946925233840942,-0.07970531444549521
14.581516807995154,0.032394510269165004,0.0490086484909058,-0.019829826164245203
14.582122501514235,0.173700662612915,0.0657737852096558,0.392113533210755
14.582728195033313,-0.101726583480835,0.008293316459655751,-0.0246198652267452
14.583333888552392,0.097060037612915,-0.0539771913528442,-0.0270148847579952
14.583939582071471,0.039579568862915006,0.262165386772156,0.0639958574295048
14.584545275590552,0.032394510269165004,0.0801439023971558,-0.06294017772674519
14.58515096910963,-0.029875997543335,-0.113852679634094,0.11429126758575499
14.58575666262871,-0.087356466293335,0.041823589897155795,-0.141975822257995
14.586362356147788,0.087479959487915,0.0609837461471558,-0.407822990226745
14.586968049666869,-0.020295919418335,-0.0683473085403442,-0.249751701164245
14.587573743185947,0.029999490737915,-0.0156568788528442,0.466359138679505
14.588179436705026,0.029999490737915,0.0514036680221558,0.147821541023255
14.588785130224107,-0.037061056137085,-0.245578753852844,-0.199456291007995
14.589390823743186,-0.252612813949585,0.0035032773971557496,0.126266365242005
14.589996517262264,-0.051431173324584994,-0.0970875429153442,-0.10605052928924501
14.590602210781345,-0.087356466293335,-0.0755323671340942,-0.151555900382995
14.591207904300424,-0.063406270980835,0.14959946880340602,0.11668628711700499
14.591813597819502,0.101850076675415,-0.0707423280715942,0.104711189460755
14.592419291338583,0.080294900894165,-0.025236956977844203,0.0328606035232548
14.593024984857662,0.14017038917541502,0.216660015678406,-0.0413850019454952
14.59363067837674,-0.080171407699585,0.15438950786590602,-0.103655509757995
14.594236371895821,0.0012592563629150299,0.0849339414596558,0.265177498054505
14.5948420654149,0.104245096206665,-0.0827174257278442,0.0711809160232548
14.595447758933979,0.0012592563629150299,-0.0491871522903442,0.22685718555450501
14.59605345245306,0.082689920425415,-0.0946925233840942,0.155006599617005
14.596659145972138,0.07310984230041499,-0.257553851509094,-0.0126447675704952
14.597264839491217,0.238366189956665,0.0346385313034058,-0.11084056835174501
14.597870533010298,0.046764627456665,0.0633787656784058,-0.0892853925704952
14.598476226529376,-0.027480978012085,0.0322435117721558,0.13105640430450502
14.599081920048455,0.0012592563629150299,0.19031480083465602,0.00412036914825479
14.599687613567534,-0.10891164207458501,0.0274534727096558,-0.101260490226745
14.600293307086615,0.020419412612915,0.046613628959655797,-0.10844554882049501
14.600899000605693,-0.077776388168335,0.044218609428405796,0.0783659746170048
14.601504694124772,0.046764627456665,-0.10187758197784401,0.0735759355545048
14.602110387643851,0.142565408706665,0.238215191459656,0.00891040821075479
14.602716081162932,0.04436960792541501,0.0969090391159058,0.143031501960755
14.60332177468201,0.077899881362915,-0.207258441352844,0.210092048835755
14.60392746820109,-0.094541524887085,0.183129742240906,0.109501228523255
14.60453316172017,0.010839334487915,0.123254253959656,0.279547615242005
14.605138855239248,0.029999490737915,-0.0420020936965942,0.198116951179505
14.605744548758327,-0.10651662254333501,-0.0420020936965942,0.207697029304505
14.606350242277408,0.156935525894165,0.0035032773971557496,0.224462166023255
14.606955935796487,-0.123281759262085,-0.0276319765090942,0.042440681648254805
14.607561629315565,0.056344705581665,-0.279109027290344,-0.048570060539245195
14.608167322834646,0.27189646339416496,0.0394285703659058,-0.23298656444549498
14.608773016353725,0.06831980323791499,-0.0300269960403442,-0.08449535350799521
14.609378709872804,0.106640115737915,-0.0611622499465942,0.037650642585754804
14.609984403391884,-0.053826192855834995,0.0969090391159058,-0.204246330070495
14.610590096910963,-0.013110860824585,-0.0563722108840942,-0.161135978507995
14.611195790430042,0.025209451675415,0.14959946880340602,-0.010249748039245199
14.611801483949122,-0.171182149887085,0.14480942974090602,-0.08210033397674521
14.612407177468201,-0.013110860824585,-0.250368792915344,-0.0318049238204952
14.61301287098728,-0.020295919418335,0.0178733945846558,0.128661384773255
14.61361856450636,0.221601053237915,0.00589829692840575,-0.0389899824142452
14.61422425802544,0.17130564308166502,-0.0300269960403442,-0.0940754316329952
14.614829951544518,-0.044246114730835,0.166364605522156,0.0352556230545048
14.615435645063597,0.046764627456665,-0.0372120546340942,-0.10844554882049501
14.616041338582678,0.24555124855041502,-0.116247699165344,-0.23777660350799498
14.616647032101756,0.212020975112915,0.0394285703659058,-0.206641349601745
14.617252725620835,0.099455057144165,-0.121037738227844,-0.048570060539245195
14.617858419139914,0.118615213394165,-0.10187758197784401,0.217277107429505
14.618464112658994,-0.053826192855834995,-0.0587672304153442,0.126266365242005
14.619069806178073,-0.152021993637085,-0.338984515571594,0.0160954668045048
14.619675499697152,-0.10651662254333501,-0.046792132759094204,-0.156345939445495
14.620281193216233,-0.11370168113708501,0.120859234428406,-0.0940754316329952
14.620886886735311,-0.053826192855834995,0.0537986875534058,0.145426521492005
14.62149258025439,0.041974588394165006,-0.0611622499465942,0.0160954668045048
14.62209827377347,-0.044246114730835,0.0394285703659058,-0.019829826164245203
14.62270396729255,-0.065801290512085,0.118464214897156,0.0735759355545048
14.623309660811628,0.015629373550415,-0.0396070741653442,-0.271306876945495
14.623915354330709,-0.255007833480835,-0.14977797260284398,-0.08449535350799521
14.624521047849788,-0.161602071762085,0.0537986875534058,0.00412036914825479
14.625126741368867,-0.077776388168335,0.0298484922409058,-0.134790763664245
14.625732434887947,-0.101726583480835,-0.00128676166534425,0.0831560136795048
14.626338128407026,0.07310984230041499,-0.128222796821594,-0.0988654706954952
14.626943821926105,0.077899881362915,-0.0875074647903442,-0.189876212882995
14.627549515445185,0.097060037612915,0.0561937070846558,-0.0365949628829952
14.628155208964264,-0.10651662254333501,0.0394285703659058,-0.06294017772674519
14.628760902483343,-0.04664113426208499,0.0274534727096558,-0.101260490226745
14.629366596002424,-0.190342306137085,-0.0803224061965942,-0.23298656444549498
14.629972289521502,0.12340525245666499,-0.15456801166534398,-0.0964704511642452
14.630577983040581,0.125800271987915,0.0322435117721558,0.17177173633575502
14.631183676559662,-0.135256856918335,-0.0036817811965942503,0.157401619148255
14.63178937007874,0.075504861831665,-0.104272601509094,0.042440681648254805
14.63239506359782,0.22639109230041501,-0.0132618593215942,-0.0150397871017452
14.633000757116898,-0.013110860824585,-0.109062640571594,-0.00785472850799521
14.633606450635977,-0.020295919418335,-0.0899024843215942,-0.0006696699142452131
14.634212144155057,-0.025085958480835,0.137624371147156,-0.10844554882049501
14.634817837674136,-0.010715841293335,0.0298484922409058,-0.048570060539245195
14.635423531193215,0.04436960792541501,-0.123432757759094,0.102316169929505
14.636029224712296,-0.015505880355835,0.0250584531784058,0.0472307207107548
14.636634918231374,0.061134744644165004,0.137624371147156,0.13105640430450502
14.637240611750453,0.099455057144165,-0.0396070741653442,-0.11802562694549501
14.637846305269534,0.094665018081665,-0.269528949165344,-0.050965080070495196
14.638451998788613,0.00844431495666502,-0.0348170351028442,0.0831560136795048
14.639057692307691,0.092269998550415,-0.00128676166534425,0.0711809160232548
14.639663385826772,-0.022690938949585,-0.0132618593215942,-0.23777660350799498
14.64026907934585,0.020419412612915,-0.0180518983840942,0.0304655839920048
14.64087477286493,-0.029875997543335,0.281325543022156,0.17656177539825502
14.64148046638401,-0.120886739730835,0.18073472270965601,-0.139580802726745
14.642086159903089,0.14496042823791502,0.0346385313034058,-0.11563060741424501
14.642691853422168,0.099455057144165,0.21426499614715602,0.037650642585754804
14.643297546941248,-0.017900899887085,0.113674175834656,0.0903410722732548
14.643903240460327,-0.029875997543335,0.13522935161590602,-0.0581501386642452
14.644508933979406,0.104245096206665,0.132834332084656,0.0759709550857548
14.645114627498486,0.046764627456665,-0.0922975038528442,0.09752613086700479
14.645720321017565,-0.017900899887085,-0.00847182025909425,0.581320076179505
14.646326014536644,0.061134744644165004,0.0945140195846558,0.104711189460755
14.646931708055725,-0.049036153793334994,0.046613628959655797,0.178956794929505
14.647537401574803,-0.13286183738708499,-0.0803224061965942,0.499889412117005
14.648143095093882,-0.075381368637085,-0.0396070741653442,0.102316169929505
14.648748788612961,0.125800271987915,-0.0563722108840942,0.0568107988357548
14.64935448213204,0.317401834487915,-0.0899024843215942,-0.048570060539245195
14.64996017565112,0.252736307144165,-0.0659522890090942,-0.0557551191329952
14.6505658691702,0.046764627456665,-0.128222796821594,-0.197061271476745
14.651171562689278,0.109035135269165,-0.0994825624465942,0.0807609941482548
14.651777256208359,-0.013110860824585,-0.0156568788528442,0.207697029304505
14.652382949727437,0.250341287612915,-0.17372816791534398,0.234042244148255
14.652988643246516,0.207230936050415,-0.0659522890090942,-0.101260490226745
14.653594336765597,-0.125676778793335,0.0873289609909058,-0.12042064647674501
14.654200030284676,0.101850076675415,-0.245578753852844,0.13105640430450502
14.654805723803754,-0.041851095199585,-0.142592914009094,-0.130000724601745
14.655411417322835,0.147355447769165,0.118464214897156,0.0687858964920048
14.656017110841914,0.00604929542541503,-0.0132618593215942,0.011305427742004801
14.656622804360993,-0.010715841293335,-0.0396070741653442,-0.048570060539245195
14.657228497880073,0.22639109230041501,-0.0683473085403442,-0.0294099042892452
14.657834191399152,0.111430154800415,-0.0132618593215942,-0.11084056835174501
14.65843988491823,0.053949686050415,-0.0851124452590942,0.147821541023255
14.659045578437311,-0.032271017074585,-0.25276381244659396,0.00651538867950479
14.65965127195639,0.027604471206665,0.216660015678406,0.157401619148255
14.660256965475469,-0.068196310043335,0.0106883359909058,0.23643726367950502
14.66086265899455,-0.015505880355835,-0.156963031196594,0.0472307207107548
14.661468352513628,0.094665018081665,0.243005230522156,-0.050965080070495196
14.662074046032707,-0.104121603012085,0.0729588438034058,-0.0294099042892452
14.662679739551788,-0.14962697410583498,0.26695542583465603,0.0783659746170048
14.663285433070866,-0.061011251449585,0.281325543022156,0.174166755867005
14.663891126589945,-0.020295919418335,-0.128222796821594,-0.161135978507995
14.664496820109024,0.041974588394165006,-0.123432757759094,-0.15874095897674498
14.665102513628105,0.06831980323791499,0.228635113334656,0.291522712898255
14.665708207147183,-0.087356466293335,-0.0324220155715942,0.301102791023255
14.666313900666262,-0.00353078269958497,-0.264738910102844,0.0232805253982548
14.666919594185341,0.063529764175415,0.041823589897155795,0.00891040821075479
14.667525287704422,0.00604929542541503,-0.0994825624465942,-0.0126447675704952
14.6681309812235,0.159330545425415,0.19031480083465602,0.0352556230545048
14.66873667474258,-0.025085958480835,0.221450054740906,0.011305427742004801
14.66934236826166,-0.04664113426208499,0.0753538633346558,0.219672126960755
14.669948061780739,-0.156812032699585,0.0490086484909058,0.0783659746170048
14.670553755299817,-0.11609670066833501,0.0897239805221558,-0.0389899824142452
14.671159448818898,-0.075381368637085,0.0849339414596558,0.16698169727325501
14.671765142337977,0.113825174331665,-0.0491871522903442,0.037650642585754804
14.672370835857055,0.188070779800415,-0.0611622499465942,0.18135181446075502
14.672976529376136,0.0012592563629150299,0.151994488334656,-0.050965080070495196
14.673582222895215,0.094665018081665,0.00589829692840575,0.0160954668045048
14.674187916414294,0.041974588394165006,0.0705638242721558,0.11668628711700499
14.674793609933374,-0.00113576316833497,0.20947495708465602,0.19572193164825502
14.675399303452453,-0.096936544418335,0.274140484428406,0.18614185352325502
14.676004996971532,-0.020295919418335,0.0609837461471558,0.0017253496170047899
14.676610690490612,0.109035135269165,-0.044397113227844204,-0.17790111522674498
14.677216384009691,-0.034666036605835,0.26695542583465603,0.47354419727325503
14.67782207752877,-0.175972188949585,-0.025236956977844203,0.279547615242005
14.67842777104785,0.168910623550415,0.0035032773971557496,-0.230591544914245
14.67903346456693,0.046764627456665,-0.118642718696594,0.0496257402420048
14.679639158086008,-0.20950246238708498,0.0537986875534058,-0.312022208976745
14.680244851605087,-0.010715841293335,0.0514036680221558,-0.0341999433517452
14.680850545124168,0.046764627456665,-0.0036817811965942503,0.00412036914825479
14.681456238643246,-0.015505880355835,-0.137802874946594,-0.11084056835174501
14.682061932162325,-0.041851095199585,-0.19528334369659398,0.102316169929505
14.682667625681404,0.04436960792541501,0.106489117240906,0.0687858964920048
14.683273319200485,0.00844431495666502,-0.06355726947784421,0.0568107988357548
14.683879012719563,0.010839334487915,-0.142592914009094,0.0663908769607548
14.684484706238642,0.077899881362915,0.046613628959655797,0.0711809160232548
14.685090399757723,-0.12807179832458498,0.0777488828659058,0.19093189258575502
14.685696093276801,-0.293328145980835,0.046613628959655797,-0.161135978507995
14.68630178679588,-0.056221212387084996,0.192709820365906,-0.0006696699142452131
14.68690748031496,0.053949686050415,0.21905503520965602,0.037650642585754804
14.68751317383404,0.116220193862915,0.0753538633346558,-0.010249748039245199
14.688118867353118,0.029999490737915,0.0585887266159058,0.157401619148255
14.688724560872199,0.020419412612915,0.00110825786590575,0.11189624805450499
14.689330254391278,-0.008320821762084981,-0.23360365619659398,0.289127693367005
14.689935947910357,0.04436960792541501,0.041823589897155795,-0.0126447675704952
14.690541641429437,0.20004587745666502,0.14001939067840602,-0.144370841789245
14.691147334948516,0.14975046730041502,-0.0180518983840942,0.0017253496170047899
14.691753028467595,0.094665018081665,-0.0683473085403442,0.0831560136795048
14.692358721986675,-0.025085958480835,-0.046792132759094204,0.0711809160232548
14.692964415505754,-0.068196310043335,-0.0611622499465942,0.212487068367005
14.693570109024833,-0.00592580223083497,-0.00607680072784425,0.107106208992005
14.694175802543914,0.156935525894165,0.0585887266159058,-0.15874095897674498
14.694781496062992,-0.077776388168335,-0.00847182025909425,0.044835701179504805
14.695387189582071,0.125800271987915,0.116069195365906,0.188536873054505
14.69599288310115,0.099455057144165,-0.0372120546340942,0.202906990242005
14.69659857662023,-0.255007833480835,-0.0348170351028442,0.12387134571075499
14.69720427013931,0.075504861831665,0.156784527397156,-0.0605451581954952
14.697809963658388,-0.025085958480835,0.0035032773971557496,0.042440681648254805
14.698415657177467,-0.00113576316833497,0.0849339414596558,0.210092048835755
14.699021350696547,-0.075381368637085,0.22384507427215602,0.0520207597732548
14.699627044215626,-0.080171407699585,0.0729588438034058,0.0137004472732548
14.700232737734705,0.046764627456665,-0.166543109321594,-0.0964704511642452
14.700838431253786,-0.00592580223083497,0.142414410209656,-0.101260490226745
14.701444124772864,0.00844431495666502,0.137624371147156,0.128661384773255
14.702049818291943,0.06592478370666499,-0.0180518983840942,-0.0389899824142452
14.702655511811024,0.027604471206665,0.0322435117721558,0.13105640430450502
14.703261205330103,-0.037061056137085,0.0777488828659058,-0.017434806632995202
14.703866898849181,-0.152021993637085,-0.123432757759094,-0.13239574413299499
14.704472592368262,-0.084961446762085,-0.13540785541534398,0.329843025398255
14.70507828588734,-0.051431173324584994,0.008293316459655751,0.466359138679505
14.70568397940642,-0.00592580223083497,-0.0659522890090942,-0.11084056835174501
14.7062896729255,0.053949686050415,-0.0276319765090942,0.349003181648255
14.706895366444579,-0.065801290512085,0.0490086484909058,-0.010249748039245199
14.707501059963658,0.116220193862915,0.020268414115905797,0.0304655839920048
14.708106753482738,0.07071482276916499,-0.0970875429153442,0.612455330085755
14.708712447001817,0.13538035011291502,-0.118642718696594,0.11668628711700499
14.709318140520896,0.19525583839416502,0.0561937070846558,0.162191658210755
14.709923834039976,0.14496042823791502,0.24540025005340602,-0.161135978507995
14.710529527559055,-0.104121603012085,0.14001939067840602,0.147821541023255
14.711135221078134,0.14496042823791502,0.0969090391159058,-0.00545970897674521
14.711740914597215,0.202440896987915,0.192709820365906,-0.0365949628829952
14.712346608116293,0.128195291519165,0.0585887266159058,-0.0389899824142452
14.712952301635372,0.075504861831665,-0.123432757759094,-0.194666251945495
14.713557995154451,-0.11370168113708501,0.013083355522155801,-0.07731029491424521
14.71416368867353,0.197650857925415,0.238215191459656,-0.07970531444549521
14.71476938219261,0.085084939956665,0.14001939067840602,0.0232805253982548
14.71537507571169,0.034789529800415005,-0.190493304634094,-0.12281566600799501
14.715980769230768,0.013234354019165,-0.13540785541534398,0.042440681648254805
14.716586462749849,0.097060037612915,-0.104272601509094,0.155006599617005
14.717192156268927,0.118615213394165,0.168759625053406,-0.156345939445495
14.717797849788006,-0.041851095199585,0.0178733945846558,-0.0365949628829952
14.718403543307087,-0.010715841293335,0.0178733945846558,0.0520207597732548
14.719009236826166,-0.068196310043335,-0.0731373476028442,-0.019829826164245203
14.719614930345244,0.173700662612915,0.0825389219284058,-0.06294017772674519
14.720220623864325,0.12340525245666499,0.250190289115906,0.147821541023255
14.720826317383404,-0.21429250144958498,0.111279156303406,0.229252205085755
14.721432010902483,-0.017900899887085,-0.0108668397903442,-0.07252025585174521
14.722037704421563,0.039579568862915006,-0.269528949165344,0.17656177539825502
14.722643397940642,0.056344705581665,-0.0946925233840942,0.219672126960755
14.72324909145972,0.06831980323791499,0.0035032773971557496,0.11189624805450499
14.723854784978801,0.252736307144165,0.0849339414596558,-0.0270148847579952
14.72446047849788,0.128195291519165,-0.152172992134094,-0.134790763664245
14.725066172016959,-0.18315724754333498,-0.207258441352844,0.025675544929504798
14.72567186553604,0.027604471206665,0.14959946880340602,0.198116951179505
14.726277559055118,0.053949686050415,0.0322435117721558,0.037650642585754804
14.726883252574197,0.137775369644165,-0.0707423280715942,-0.15874095897674498
14.727488946093278,0.025209451675415,0.0681688047409058,-0.103655509757995
14.728094639612356,-0.123281759262085,0.13522935161590602,0.11908130664825499
14.728700333131435,0.010839334487915,-0.046792132759094204,0.044835701179504805
14.729306026650514,-0.037061056137085,-0.0372120546340942,-0.0964704511642452
14.729911720169593,0.018024393081665,0.113674175834656,-0.019829826164245203
14.730517413688673,0.00365427589416503,0.125649273490906,-0.0940754316329952
14.731123107207752,0.092269998550415,-0.0420020936965942,-0.07970531444549521
14.731728800726831,0.19046579933166502,-0.0204469179153442,0.0903410722732548
14.732334494245912,-0.010715841293335,-0.0348170351028442,-0.0246198652267452
14.73294018776499,-0.11130666160583501,-0.264738910102844,-0.0581501386642452
14.73354588128407,-0.068196310043335,0.0394285703659058,0.0328606035232548
14.73415157480315,-0.017900899887085,0.187919781303406,0.19572193164825502
14.734757268322229,0.051554666519165,-0.243183734321594,0.18614185352325502
14.735362961841307,0.092269998550415,0.0274534727096558,0.102316169929505
14.735968655360388,0.132985330581665,0.137624371147156,-0.144370841789245
14.736574348879467,-0.075381368637085,0.0035032773971557496,-0.07731029491424521
14.737180042398546,0.089874979019165,-0.0420020936965942,-0.0222248456954952
14.737785735917626,0.113825174331665,-0.10187758197784401,0.00891040821075479
14.738391429436705,-0.00592580223083497,-0.0707423280715942,0.044835701179504805
14.738997122955784,0.14496042823791502,-0.00128676166534425,-0.197061271476745
14.739602816474864,-0.013110860824585,0.21426499614715602,0.18135181446075502
14.740208509993943,0.159330545425415,0.161574566459656,0.0831560136795048
14.740814203513022,-0.070591329574585,0.106489117240906,-0.144370841789245
14.741419897032102,0.029999490737915,-0.00607680072784425,-0.146765861320495
14.742025590551181,0.018024393081665,0.0106883359909058,-0.053360099601745196
14.74263128407026,0.14017038917541502,-0.0132618593215942,-0.0605451581954952
14.74323697758934,0.06831980323791499,0.175944683647156,0.011305427742004801
14.74384267110842,-0.221477560043335,0.046613628959655797,0.12147632617950499
14.744448364627498,0.12340525245666499,0.0657737852096558,-0.0677302167892452
14.745054058146577,-0.044246114730835,-0.025236956977844203,-0.12042064647674501
14.745659751665658,-0.15920705223083498,-0.121037738227844,-0.0389899824142452
14.746265445184736,0.032394510269165004,0.046613628959655797,-0.21861644725799498
14.746871138703815,0.061134744644165004,-0.022841937446594202,-0.050965080070495196
14.747476832222894,-0.104121603012085,-0.044397113227844204,0.0711809160232548
14.748082525741975,0.053949686050415,0.0394285703659058,-0.0006696699142452131
14.748688219261053,-0.053826192855834995,0.142414410209656,0.037650642585754804
14.749293912780132,-0.216687520980835,-0.06355726947784421,-0.043780021476745194
14.749899606299213,0.097060037612915,-0.0036817811965942503,0.0328606035232548
14.750505299818292,0.051554666519165,-0.022841937446594202,0.0807609941482548
14.75111099333737,0.116220193862915,-0.123432757759094,0.219672126960755
14.75171668685645,0.255131326675415,0.128044293022156,-0.0653351972579952
14.75232238037553,-0.099331563949585,-0.0204469179153442,-0.12042064647674501
14.752928073894608,-0.15441701316833498,-0.104272601509094,0.0855510332107548
14.753533767413689,0.020419412612915,-0.0587672304153442,-0.0557551191329952
14.754139460932768,0.00365427589416503,0.013083355522155801,-0.017434806632995202
14.754745154451847,0.07071482276916499,0.13522935161590602,0.262782478523255
14.755350847970927,-0.11130666160583501,-0.16414808979034398,0.0160954668045048
14.755956541490006,-0.010715841293335,0.0729588438034058,0.0160954668045048
14.756562235009085,-0.044246114730835,0.18552476177215602,0.298707771492005
14.757167928528165,-0.020295919418335,-0.0372120546340942,-0.13239574413299499
14.757773622047244,0.063529764175415,-0.113852679634094,-0.0294099042892452
14.758379315566323,-0.10651662254333501,-0.00607680072784425,0.11429126758575499
14.758985009085404,0.010839334487915,-0.0779273866653442,0.11668628711700499
14.759590702604482,-0.025085958480835,-0.17851820697784399,-0.053360099601745196
14.760196396123561,-0.00113576316833497,0.0945140195846558,0.0184904863357548
14.76080208964264,0.00604929542541503,0.113674175834656,-0.07491527538299521
14.76140778316172,-0.056221212387084996,-0.0132618593215942,0.09992115039825479
14.7620134766808,0.020419412612915,-0.0300269960403442,0.11429126758575499
14.762619170199878,0.080294900894165,0.0154783750534058,-0.12042064647674501
14.763224863718957,0.039579568862915006,-0.104272601509094,0.13105640430450502
14.763830557238037,0.056344705581665,-0.113852679634094,-0.07491527538299521
14.764436250757116,-0.123281759262085,0.0178733945846558,0.0639958574295048
14.765041944276195,-0.013110860824585,0.041823589897155795,0.0616008378982548
14.765647637795276,-0.044246114730835,-0.0539771913528442,-0.048570060539245195
14.766253331314354,0.089874979019165,-0.0899024843215942,-0.07731029491424521
14.766859024833433,0.19046579933166502,-0.0324220155715942,-0.137185783195495
14.767464718352514,0.06592478370666499,-0.0156568788528442,0.389718513679505
14.768070411871593,0.082689920425415,0.0178733945846558,0.337028083992005
14.768676105390671,-0.130466817855835,-0.0611622499465942,-0.134790763664245
14.769281798909752,0.025209451675415,-0.0970875429153442,-0.0294099042892452
14.76988749242883,0.12101023292541499,-0.106667621040344,0.011305427742004801
14.77049318594791,0.0012592563629150299,-0.00847182025909425,-0.0605451581954952
14.77109887946699,0.00365427589416503,-0.0300269960403442,0.11189624805450499
14.771704572986069,-0.010715841293335,-0.0396070741653442,0.164586677742005
14.772310266505148,0.101850076675415,-0.0683473085403442,-0.0389899824142452
14.772915960024228,0.07310984230041499,0.0322435117721558,0.0544157793045048
14.773521653543307,0.137775369644165,-0.0132618593215942,-0.0653351972579952
14.774127347062386,0.137775369644165,0.00589829692840575,-0.053360099601745196
14.774733040581467,0.101850076675415,0.0154783750534058,0.0616008378982548
14.775338734100545,-0.089751485824585,0.008293316459655751,-0.017434806632995202
14.775944427619624,-0.252612813949585,-0.10187758197784401,-0.141975822257995
14.776550121138705,0.00604929542541503,-0.0132618593215942,0.0687858964920048
14.777155814657783,0.034789529800415005,0.111279156303406,0.0711809160232548
14.777761508176862,-0.020295919418335,-0.16893812885284398,-0.201851310539245
14.778367201695941,-0.00592580223083497,0.101699078178406,-0.07252025585174521
14.77897289521502,-0.058616231918334996,0.13522935161590602,0.042440681648254805
14.7795785887341,-0.101726583480835,0.0178733945846558,0.346608162117005
14.78018428225318,0.109035135269165,-0.0276319765090942,0.0831560136795048
14.780789975772258,0.04436960792541501,-0.0875074647903442,0.0831560136795048
14.781395669291339,-0.037061056137085,-0.0922975038528442,0.274757576179505
14.782001362810417,0.154540506362915,-0.00847182025909425,-0.07012523632049521
14.782607056329496,0.092269998550415,0.0154783750534058,-0.07252025585174521
14.783212749848577,0.032394510269165004,0.111279156303406,0.0184904863357548
14.783818443367656,0.039579568862915006,0.137624371147156,-0.010249748039245199
14.784424136886734,-0.068196310043335,0.111279156303406,-0.0246198652267452
14.785029830405815,0.082689920425415,-0.133012835884094,-0.048570060539245195
14.785635523924894,-0.096936544418335,-0.152172992134094,-0.359922599601745
14.786241217443973,-0.10891164207458501,0.0657737852096558,-0.137185783195495
14.786846910963053,0.032394510269165004,0.101699078178406,0.107106208992005
14.787452604482132,0.027604471206665,0.0537986875534058,-0.0126447675704952
14.78805829800121,0.053949686050415,-0.152172992134094,0.0352556230545048
14.788663991520291,-0.065801290512085,0.123254253959656,0.11668628711700499
14.78926968503937,0.039579568862915006,-0.0539771913528442,0.0616008378982548
14.789875378558449,0.17130564308166502,-0.0922975038528442,-0.10605052928924501
14.79048107207753,-0.056221212387084996,-0.0204469179153442,-0.0150397871017452
14.791086765596608,0.132985330581665,0.0801439023971558,-0.010249748039245199
14.791692459115687,0.23118113136291502,0.0801439023971558,0.31307788867950503
14.792298152634768,-0.072986349105835,-0.022841937446594202,-0.06294017772674519
14.792903846153846,-0.025085958480835,0.137624371147156,-0.07731029491424521
14.793509539672925,0.04436960792541501,0.0633787656784058,-0.0341999433517452
14.794115233192004,-0.11370168113708501,0.0106883359909058,-0.153950919914245
14.794720926711083,-0.11849172019958501,0.022663433647155798,0.0855510332107548
14.795326620230163,0.063529764175415,0.0609837461471558,-0.156345939445495
14.795932313749242,0.109035135269165,-0.147382953071594,0.042440681648254805
14.796538007268321,0.010839334487915,-0.0970875429153442,-0.29525707225799497
14.797143700787402,-0.104121603012085,-0.0276319765090942,0.13584644336700502
14.79774939430648,0.142565408706665,0.0969090391159058,0.281942634773255
14.79835508782556,0.168910623550415,0.046613628959655797,0.037650642585754804
14.79896078134464,-0.00592580223083497,-0.022841937446594202,0.159796638679505
14.799566474863719,-0.013110860824585,-0.15935805072784398,-0.0940754316329952
14.800172168382797,-0.166392110824585,-0.0204469179153442,-0.16832103710174498
14.800777861901878,-0.039456075668335,0.101699078178406,-0.08449535350799521
14.801383555420957,-0.161602071762085,0.0514036680221558,0.028070564460754798
14.801989248940036,-0.077776388168335,-0.0156568788528442,-0.07012523632049521
14.802594942459116,-0.008320821762084981,0.0993040586471558,-0.185086173820495
14.803200635978195,-0.147231954574585,-0.0036817811965942503,0.00651538867950479
14.803806329497274,0.128195291519165,-0.137802874946594,0.0663908769607548
14.804412023016354,0.075504861831665,0.0561937070846558,-0.0318049238204952
14.805017716535433,0.032394510269165004,0.0035032773971557496,0.0807609941482548
14.805623410054512,-0.051431173324584994,-0.0396070741653442,-0.23298656444549498
14.806229103573592,-0.027480978012085,-0.0994825624465942,0.037650642585754804
14.806834797092671,0.046764627456665,0.0657737852096558,0.157401619148255
14.80744049061175,0.212020975112915,0.0897239805221558,-0.0365949628829952
14.80804618413083,-0.00113576316833497,0.0609837461471558,-0.0605451581954952
14.80865187764991,-0.096936544418335,-0.0899024843215942,-0.189876212882995
14.809257571168988,0.092269998550415,-0.0324220155715942,-0.0126447675704952
14.809863264688067,0.111430154800415,0.202289898490906,0.126266365242005
14.810468958207146,0.075504861831665,0.008293316459655751,0.0639958574295048
14.811074651726226,-0.092146505355835,-0.123432757759094,-0.00785472850799521
14.811680345245305,-0.034666036605835,-0.171333148384094,-0.0150397871017452
14.812286038764384,0.118615213394165,0.250190289115906,0.126266365242005
14.812891732283465,0.037184549331665005,-0.00128676166534425,0.224462166023255
14.813497425802543,-0.032271017074585,0.101699078178406,-0.103655509757995
14.814103119321622,0.061134744644165004,0.0322435117721558,0.152611580085755
14.814708812840703,-0.049036153793334994,-0.161753070259094,0.0472307207107548
14.815314506359782,0.094665018081665,0.20947495708465602,0.028070564460754798
14.81592019987886,0.053949686050415,-0.0420020936965942,0.107106208992005
14.816525893397941,0.022814432144165,-0.0994825624465942,-0.08210033397674521
14.81713158691702,-0.034666036605835,0.041823589897155795,0.128661384773255
14.817737280436099,-0.130466817855835,0.14959946880340602,0.212487068367005
14.818342973955179,-0.020295919418335,-0.21923353900909398,0.0639958574295048
14.818948667474258,0.051554666519165,0.0897239805221558,-0.07252025585174521
14.819554360993337,0.013234354019165,0.20947495708465602,-0.161135978507995
14.820160054512417,-0.16399709129333498,-0.13540785541534398,0.011305427742004801
14.820765748031496,0.00365427589416503,0.19031480083465602,0.392113533210755
14.821371441550575,0.14975046730041502,-0.0994825624465942,-0.0006696699142452131
14.821977135069655,-0.008320821762084981,-0.16414808979034398,-0.0413850019454952
14.822582828588734,0.00844431495666502,0.108884136772156,0.0735759355545048
14.823188522107813,0.010839334487915,-0.0300269960403442,0.0184904863357548
14.823794215626894,-0.058616231918334996,0.0993040586471558,-0.134790763664245
14.824399909145972,0.022814432144165,-0.104272601509094,-0.175506095695495
14.825005602665051,0.013234354019165,0.044218609428405796,-0.101260490226745
14.82561129618413,-0.252612813949585,-0.044397113227844204,-0.197061271476745
14.82621698970321,-0.161602071762085,-0.0420020936965942,-0.235381583976745
14.82682268322229,-0.032271017074585,0.137624371147156,-0.357527580070495
14.827428376741368,0.13059031105041502,-0.00607680072784425,0.0544157793045048
14.828034070260447,0.041974588394165006,-0.0539771913528442,0.13584644336700502
14.828639763779528,0.12340525245666499,0.013083355522155801,0.0592058183670048
14.829245457298606,0.168910623550415,-0.0324220155715942,0.133451423835755
14.829851150817685,0.013234354019165,0.020268414115905797,0.17177173633575502
14.830456844336766,0.20962595558166502,0.13043931255340602,-0.0341999433517452
14.831062537855844,0.041974588394165006,0.111279156303406,-0.0988654706954952
14.831668231374923,-0.22866261863708498,0.0346385313034058,-0.235381583976745
14.832273924894004,-0.032271017074585,0.166364605522156,0.0496257402420048
14.832879618413083,0.027604471206665,-0.025236956977844203,0.229252205085755
14.833485311932161,0.168910623550415,0.0370335508346558,-0.08449535350799521
14.834091005451242,0.207230936050415,-0.20965346088409398,0.174166755867005
14.83469669897032,-0.034666036605835,0.0394285703659058,-0.319207267570495
14.8353023924894,0.164120584487915,0.15438950786590602,0.207697029304505
14.83590808600848,-0.049036153793334994,-0.130617816352844,0.19093189258575502
14.836513779527559,0.07310984230041499,0.221450054740906,-0.0677302167892452
14.837119473046638,0.17130564308166502,-0.15456801166534398,0.162191658210755
14.837725166565718,0.228786111831665,-0.0132618593215942,0.0639958574295048
14.838330860084797,0.12101023292541499,0.151994488334656,-0.07252025585174521
14.838936553603876,0.07071482276916499,-0.0851124452590942,-0.149160880851745
14.839542247122957,-0.13286183738708499,-0.116247699165344,0.09513111133575479
14.840147940642035,-0.15441701316833498,0.0753538633346558,0.107106208992005
14.840753634161114,-0.027480978012085,0.0250584531784058,0.0639958574295048
14.841359327680193,-0.21429250144958498,0.18552476177215602,-0.017434806632995202
14.841965021199274,-0.008320821762084981,-0.0276319765090942,0.150216560554505
14.842570714718352,0.089874979019165,-0.0420020936965942,0.0352556230545048
14.843176408237431,0.034789529800415005,-0.00847182025909425,0.11429126758575499
14.84378210175651,-0.041851095199585,-0.00847182025909425,0.18614185352325502
14.84438779527559,0.053949686050415,0.013083355522155801,0.09273609180450479
14.84499348879467,-0.101726583480835,0.101699078178406,0.17656177539825502
14.845599182313748,0.20962595558166502,0.0873289609909058,0.028070564460754798
14.846204875832829,0.101850076675415,-0.118642718696594,-0.0270148847579952
14.846810569351907,0.015629373550415,-0.343774554634094,-0.0677302167892452
14.847416262870986,0.164120584487915,-0.111457660102844,0.00412036914825479
14.848021956390067,-0.039456075668335,0.118464214897156,0.0783659746170048
14.848627649909146,0.132985330581665,-0.0827174257278442,-0.197061271476745
14.849233343428224,0.097060037612915,-0.0946925233840942,-0.010249748039245199
14.849839036947305,-0.082566427230835,0.0035032773971557496,0.044835701179504805
14.850444730466384,-0.166392110824585,0.0394285703659058,-0.17311107616424498
14.851050423985463,-0.211897481918335,-0.15456801166534398,0.0759709550857548
14.851656117504543,-0.16878713035583498,-0.0803224061965942,-0.0581501386642452
14.852261811023622,0.061134744644165004,0.0609837461471558,-0.0581501386642452
14.8528675045427,-0.140046895980835,-0.00128676166534425,0.0759709550857548
14.853473198061781,-0.11609670066833501,0.020268414115905797,-0.10605052928924501
14.85407889158086,-0.15441701316833498,0.120859234428406,0.0616008378982548
14.854684585099939,-0.17357716941833498,0.0178733945846558,-0.017434806632995202
14.85529027861902,0.101850076675415,0.0633787656784058,0.0137004472732548
14.855895972138098,0.049159646987915,0.0657737852096558,0.128661384773255
14.856501665657177,-0.041851095199585,-0.106667621040344,0.0735759355545048
14.857107359176258,0.04436960792541501,-0.0348170351028442,-0.249751701164245
14.857713052695336,0.077899881362915,0.0537986875534058,0.18614185352325502
14.858318746214415,-0.013110860824585,-0.142592914009094,0.193326912117005
14.858924439733494,0.082689920425415,-0.0324220155715942,-0.309627189445495
14.859530133252573,0.097060037612915,0.14480942974090602,-0.103655509757995
14.860135826771653,-0.070591329574585,-0.13540785541534398,-0.139580802726745
14.860741520290732,-0.025085958480835,-0.0946925233840942,-0.319207267570495
14.861347213809811,0.13538035011291502,-0.202468402290344,-0.333577384757995
14.861952907328892,-0.120886739730835,-0.17372816791534398,-0.16353099803924498
14.86255860084797,-0.070591329574585,-0.00847182025909425,-0.019829826164245203
14.86316429436705,-0.00353078269958497,-0.0851124452590942,0.0735759355545048
14.86376998788613,0.154540506362915,0.31725083599090603,0.574135017585755
14.864375681405209,-0.22387257957458498,-0.425205218696594,-0.206641349601745
14.864981374924287,0.04436960792541501,0.274140484428406,-0.185086173820495
14.865587068443368,-0.204712423324585,-0.0875074647903442,-0.357527580070495
14.866192761962447,0.212020975112915,-0.022841937446594202,-0.0150397871017452
14.866798455481526,0.087479959487915,0.0825389219284058,0.0232805253982548
14.867404149000606,-0.166392110824585,-0.0348170351028442,0.0879460527420048
14.868009842519685,0.197650857925415,0.156784527397156,0.169376716804505
14.868615536038764,-0.072986349105835,-0.0994825624465942,-0.48446361522674497
14.869221229557844,0.212020975112915,0.0537986875534058,0.490309333992005
14.869826923076923,-0.5016948451995851,-0.652732074165344,-0.22819652538299498
14.870432616596002,0.425177713394165,0.41784165630340603,-0.271306876945495
14.871038310115082,-0.204712423324585,0.14480942974090602,-0.410218009757995
14.871644003634161,-0.080171407699585,-0.226418597602844,-0.23777660350799498
14.87224969715324,0.173700662612915,-0.0875074647903442,0.0616008378982548
14.87285539067232,-0.271772970199585,-0.20486342182159398,0.0520207597732548
14.8734610841914,0.202440896987915,0.480112164115906,0.308287849617005
14.874066777710478,-0.26937795066833503,-0.0994825624465942,0.042440681648254805
14.874672471229557,0.595224100112915,-0.528191058540344,0.370558357429505
14.875278164748636,-0.717246603012085,-0.317429339790344,-1.3299055097580001
14.875883858267716,0.456312967300415,0.7818846250534061,0.612455330085755
14.876489551786795,-0.362783712387085,-0.295874164009094,-0.695225333976745
14.877095245305874,0.183280740737915,-0.0300269960403442,0.332238044929505
14.877700938824955,0.23118113136291502,-0.130617816352844,0.25320240039825503
14.878306632344033,-0.27895802879333503,-0.221628558540344,-0.642534904289245
14.878912325863112,0.487448221206665,0.499272320365906,0.418458748054505
14.879518019382193,0.159330545425415,0.156784527397156,-0.11084056835174501
14.880123712901272,-0.47774464988708504,-0.602436664009094,-0.328787345695495
14.88072940642035,0.058739725112915,0.530407574272156,-0.0557551191329952
14.881335099939431,0.147355447769165,-0.247973773384094,0.49270435352325503
14.88194079345851,-0.46816457176208504,-0.0827174257278442,-0.747915763664245
14.882546486977589,0.504213357925415,0.384311382865906,0.691490974617005
14.883152180496669,-0.6885063686370849,-0.0132618593215942,-0.850901603507995
14.883757874015748,0.518583475112915,0.9399559141159061,1.01002857227325
14.884363567534827,0.025209451675415,-1.75923109760284,-0.515598869132995
14.884969261053907,-0.374758810043335,0.975881207084656,-0.685645255851745
14.885574954572986,0.06592478370666499,-0.940134417915344,0.873512458992005
14.886180648092065,-0.063406270980835,1.10281724224091,-1.37062084178925
