Time (s),Accel X (m/s^2),Accel Y (m/s^2),Accel Z (m/s^2),CI Value
2.122,-0.0812269002914429,-0.30672042160034196,-0.0471874045372013,1.661584295033847
2.1226060606060604,-0.0213514120101929,-0.000157921600341806,-0.025632228755951298,1.661584295033847
2.123212121212121,-0.11954721279144301,0.100432898712158,0.276140232181549,1.661584295033847
2.123818181818182,-0.0644617635726929,-0.0121330192565918,-0.0663475607872013,1.661584295033847
2.1244242424242423,-0.0213514120101929,0.0190022346496582,-0.0591625021934513,1.661584295033847
2.125030303030303,-0.0381165487289429,-0.103143761444092,0.118068943119049,1.661584295033847
2.1256363636363633,-0.174632662010193,-0.0193180778503418,-0.0591625021934513,1.661584295033847
2.1262424242424243,-0.059671724510192904,-0.158229210662842,-0.0639525412559513,1.661584295033847
2.1268484848484848,0.179830228614807,0.220183875274658,-0.0495824240684513,1.661584295033847
2.1274545454545453,0.0504991739273071,0.052532508087158196,0.0773536110877987,1.661584295033847
2.1280606060606058,-0.200977876853943,-0.163019249725342,-0.10945791234970101,1.661584295033847
2.1286666666666667,0.060079252052307096,0.07648270339965821,0.09651376733779869,1.661584295033847
2.129272727272727,0.31395132236480705,0.0501374885559082,0.158784275150299,1.661584295033847
2.1298787878787877,-0.016561372947692898,-0.0121330192565918,0.0031080056190487203,1.661584295033847
2.130484848484848,0.0816344278335571,-0.11751387863159199,-0.15017324438095098,1.661584295033847
2.131090909090909,0.0145738809585571,-0.309115441131592,-0.0567674826622013,1.661584295033847
2.1316969696969696,0.0169689004898071,-0.155834191131592,-0.042397365474701305,1.661584295033847
2.13230303030303,0.0385240762710571,0.105222937774658,-0.08790273656845131,1.661584295033847
2.1329090909090906,0.00020376377105711798,0.133963172149658,0.371941013431549,1.661584295033847
2.1335151515151516,0.0361290567398071,0.0692976448059082,-0.0519774435997013,1.661584295033847
2.134121212121212,0.0672643106460571,-0.00255294113159181,-0.202863674068451,1.661584295033847
2.1347272727272726,0.0936095254898071,-0.0336881950378418,-0.044792385005951306,1.661584295033847
2.135333333333333,-0.035721529197692906,-0.127093956756592,-0.0280272482872013,1.661584295033847
2.1359393939393936,-0.0524866659164429,0.00463211746215819,-0.0495824240684513,1.661584295033847
2.1365454545454545,0.060079252052307096,0.145938269805908,0.043823337650298694,1.661584295033847
2.137151515151515,0.0864244668960571,-0.179784386444092,0.103698825931549,1.661584295033847
2.1377575757575755,0.112769681739807,-0.25642501144409197,0.0055030251502987204,1.661584295033847
2.1383636363636365,-0.0524866659164429,0.217788855743408,0.197104587650299,1.661584295033847
2.138969696969697,0.117559720802307,0.0213972541809082,0.0797486306190487,1.661584295033847
2.1395757575757575,0.0337340372085571,-0.0720085075378418,0.125254001712799,1.661584295033847
2.140181818181818,-0.009376314353942879,-0.100748741912842,0.127649021244049,1.661584295033847
2.140787878787879,0.37382681064605705,-0.148649132537842,-0.0304222678184513,1.661584295033847
2.1413939393939394,0.112769681739807,-0.014528038787841799,-0.0711375998497013,1.661584295033847
2.142,-0.129127290916443,-0.129488976287842,0.0677735329627987,1.661584295033847
2.1426060606060604,0.012178861427307099,-0.016923058319091803,0.0294532204627987,1.661584295033847
2.143212121212121,0.131929837989807,-0.0696134880065918,0.0222681618690487,1.661584295033847
2.143818181818182,0.0385240762710571,-0.239659874725342,0.106093845462799,1.661584295033847
2.1444242424242423,-0.057276704978942904,-0.158229210662842,0.106093845462799,1.661584295033847
2.145030303030303,0.177435209083557,-0.165414269256592,0.09651376733779869,1.661584295033847
2.1456363636363633,0.0960045450210571,-0.17259932785034202,0.0342432595252987,1.661584295033847
2.1462424242424243,-0.00698129482269288,0.0357673713684082,0.0653785134315487,1.661584295033847
2.146848484848485,0.0983995645523071,-0.0600334098815918,0.201894626712799,1.661584295033847
2.1474545454545453,-0.109967134666443,0.052532508087158196,0.0749585915565487,1.661584295033847
2.148060606060606,-0.059671724510192904,-0.00255294113159181,-0.0519774435997013,1.661584295033847
2.1486666666666667,-0.0932019979476929,-0.11511885910034199,0.08932870874404869,1.661584295033847
2.1492727272727272,-0.11475717372894301,-0.038478234100341804,0.0174781228065487,1.661584295033847
2.1498787878787877,0.06965933017730709,0.11480301589965801,0.113278904056549,1.661584295033847
2.150484848484848,-0.0453016073226929,-0.09116866378784179,0.19470956811904902,1.661584295033847
2.151090909090909,0.0457091348648071,-0.201339562225342,0.115673923587799,1.661584295033847
2.1516969696969697,0.129534818458557,-0.17259932785034202,0.043823337650298694,1.661584295033847
2.15230303030303,0.0504991739273071,-0.146254113006592,0.14920419702529902,1.661584295033847
2.1529090909090907,0.230125638771057,0.133963172149658,0.13483407983779902,1.661584295033847
2.1535151515151516,0.0840294473648071,-0.146254113006592,-0.0471874045372013,1.661584295033847
2.154121212121212,-0.0668567831039429,-0.014528038787841799,0.223449802494049,1.661584295033847
2.1547272727272726,0.012178861427307099,-0.0480583122253418,0.142019138431549,1.661584295033847
2.155333333333333,0.165460111427307,-0.11751387863159199,0.106093845462799,1.661584295033847
2.1559393939393936,0.0049938028335571195,0.27287430496215803,0.13004404077529902,1.661584295033847
2.1565454545454545,-0.11475717372894301,0.00702713699340819,0.000712986087798724,1.661584295033847
2.157151515151515,-0.179422701072693,0.0381623908996582,0.12285898218154899,1.661584295033847
2.1577575757575755,-0.009376314353942879,0.141148230743408,-0.0280272482872013,1.661584295033847
2.1583636363636365,-0.11475717372894301,-0.134279015350342,0.0055030251502987204,1.661584295033847
2.158969696969697,-0.212952974510193,0.0213972541809082,0.108488864994049,1.661584295033847
2.1595757575757575,0.06965933017730709,-0.09356368331909179,-0.040002345943451305,1.661584295033847
2.160181818181818,-0.030931490135192898,-0.038478234100341804,-0.15496328344345098,1.661584295033847
2.1607878787878785,0.136719877052307,-0.155834191131592,0.0701685524940487,1.661584295033847
2.1613939393939394,0.0337340372085571,-0.143859093475342,0.165969333744049,1.661584295033847
2.162,0.0481041543960571,0.10761795730590801,-0.226813869380951,1.661584295033847
2.1626060606060604,0.0481041543960571,0.0381623908996582,0.27853525171279897,1.661584295033847
2.163212121212121,-0.018956392478942898,-0.0265031364440918,0.690478611087799,1.661584295033847
2.163818181818182,-0.00698129482269288,-0.165414269256592,-0.0759276389122013,1.661584295033847
2.1644242424242424,0.155880033302307,-0.0600334098815918,0.048613376712798695,1.661584295033847
2.165030303030303,0.136719877052307,0.13156815261840799,0.019873142337798702,1.661584295033847
2.1656363636363634,-0.14828744716644301,-0.12469893722534199,-0.040002345943451305,1.661584295033847
2.1662424242424243,0.112769681739807,-0.0767985466003418,0.285720310306549,1.661584295033847
2.166848484848485,0.15108999423980699,0.0501374885559082,-0.0926927756309513,1.661584295033847
2.1674545454545453,0.0361290567398071,0.0573225471496582,0.0174781228065487,1.661584295033847
2.168060606060606,0.0792394083023071,0.0980378791809082,0.0653785134315487,1.661584295033847
2.1686666666666667,-0.109967134666443,-0.170204308319092,0.156389255619049,1.661584295033847
2.1692727272727272,0.0433141153335571,-0.146254113006592,0.051008396244048695,1.661584295033847
2.1698787878787877,0.177435209083557,0.07648270339965821,0.0557984353065487,1.661584295033847
2.1704848484848482,-0.059671724510192904,0.0501374885559082,0.0869336892127987,1.661584295033847
2.171090909090909,-0.14828744716644301,0.07887772293090821,-0.00407705297470128,1.661584295033847
2.1716969696969697,-0.14828744716644301,-0.11272383956909199,0.261770114994049,1.661584295033847
2.17230303030303,0.0217589395523071,0.016607215118408198,0.17075937280654901,1.661584295033847
2.1729090909090907,-0.0453016073226929,-0.230079796600342,0.17554941186904902,1.661584295033847
2.173515151515151,-0.169842622947693,-0.014528038787841799,-0.0519774435997013,1.661584295033847
2.174121212121212,0.163065091896057,0.18186356277465798,-0.0328172873497013,1.661584295033847
2.1747272727272726,0.062474271583557096,-0.25882003097534195,-0.0591625021934513,1.661584295033847
2.175333333333333,0.0169689004898071,0.268084265899658,-0.0519774435997013,1.661584295033847
2.1759393939393936,-0.018956392478942898,0.0118171760559082,0.0557984353065487,1.661584295033847
2.1765454545454546,-0.016561372947692898,0.105222937774658,-0.0639525412559513,1.661584295033847
2.177151515151515,-0.030931490135192898,0.052532508087158196,0.053403415775298696,1.661584295033847
2.1777575757575756,-0.009376314353942879,-0.0696134880065918,0.00789804468154872,1.661584295033847
2.1783636363636365,-0.0453016073226929,0.0573225471496582,0.0725635720252987,1.661584295033847
2.178969696969697,-0.270433443260193,-0.0408732536315918,-0.0160521506309513,1.661584295033847
2.1795757575757575,-0.0381165487289429,0.18665360183715798,-0.171728420162201,1.661584295033847
2.180181818181818,-0.0716468221664429,-0.0600334098815918,0.0581934548377987,1.661584295033847
2.1807878787878785,0.153485013771057,-0.0408732536315918,0.09411874780654869,1.661584295033847
2.1813939393939394,-0.0453016073226929,0.174678504180908,0.19470956811904902,1.661584295033847
2.182,-0.0117713338851929,0.0501374885559082,0.14920419702529902,1.661584295033847
2.1826060606060604,0.012178861427307099,-0.139069054412842,-0.08071767797470131,1.661584295033847
2.183212121212121,-0.11954721279144301,-0.12230391769409199,0.132439060306549,1.661584295033847
2.183818181818182,0.07205434970855709,0.198628699493408,0.225844822025299,1.661584295033847
2.1844242424242424,-0.124337251853943,0.0237922737121582,0.0821436501502987,1.661584295033847
2.185030303030303,0.0193639200210571,-0.222894738006592,-0.16933340063095098,1.661584295033847
2.1856363636363634,0.170250150489807,-0.08877364425659179,-0.0543724631309513,1.661584295033847
2.186242424242424,-0.0237464315414429,0.0692976448059082,0.14920419702529902,1.661584295033847
2.186848484848485,-0.196187837791443,-0.038478234100341804,-0.013657131099701299,1.661584295033847
2.1874545454545453,-0.145892427635193,-0.203734581756592,0.0174781228065487,1.661584295033847
2.188060606060606,-0.124337251853943,0.0573225471496582,0.14441415796279902,1.661584295033847
2.1886666666666668,-0.11475717372894301,0.08366776199340821,0.115673923587799,1.661584295033847
2.1892727272727273,0.160670072364807,-0.184574425506592,0.0222681618690487,1.661584295033847
2.1898787878787878,0.153485013771057,-0.11511885910034199,-0.0735326193809513,1.661584295033847
2.1904848484848483,-0.26085336513519297,0.08845780105590821,0.0821436501502987,1.661584295033847
2.191090909090909,-0.138707369041443,-0.129488976287842,0.177944431400299,1.661584295033847
2.1916969696969697,0.11995474033355699,-0.220499718475342,0.20428964624404902,1.661584295033847
2.19230303030303,-0.0764368612289429,-0.000157921600341806,-0.00407705297470128,1.661584295033847
2.1929090909090907,-0.157867525291443,-0.0815885856628418,0.352780857181549,1.661584295033847
2.193515151515151,0.0648692911148071,0.0429524299621582,-0.0495824240684513,1.661584295033847
2.194121212121212,-0.018956392478942898,0.174678504180908,-0.15017324438095098,1.661584295033847
2.1947272727272726,-0.143497408103943,-0.13188399581909202,0.347990818119049,1.661584295033847
2.195333333333333,0.12234975986480699,-0.299535363006592,0.0102930642127987,1.661584295033847
2.1959393939393936,0.134324857521057,-0.10553878097534199,0.137229099369049,1.661584295033847
2.1965454545454546,-0.009376314353942879,-0.0552433708190918,0.051008396244048695,1.661584295033847
2.197151515151515,0.131929837989807,-0.0432682731628418,0.108488864994049,1.661584295033847
2.1977575757575756,0.206175443458557,0.212998816680908,0.0701685524940487,1.661584295033847
2.198363636363636,-0.0237464315414429,0.11719803543090801,-0.140593166255951,1.661584295033847
2.198969696969697,0.143904935646057,-0.11511885910034199,-0.0543724631309513,1.661584295033847
2.1995757575757575,0.131929837989807,-0.0600334098815918,0.17075937280654901,1.661584295033847
2.200181818181818,0.139114896583557,-0.028898155975341802,0.051008396244048695,1.661584295033847
2.2007878787878785,0.112769681739807,-0.0504533317565918,0.0294532204627987,1.661584295033847
2.2013939393939395,-0.0955970174789429,-0.17259932785034202,-0.0543724631309513,1.661584295033847
2.202,0.00020376377105711798,-0.0552433708190918,0.0031080056190487203,1.661584295033847
2.2026060606060605,-0.0860169393539429,0.150728308868408,0.256980075931549,1.661584295033847
2.203212121212121,0.0960045450210571,-0.0791935661315918,-0.0280272482872013,1.661584295033847
2.203818181818182,-0.0955970174789429,-0.0815885856628418,0.27853525171279897,1.661584295033847
2.2044242424242424,-0.157867525291443,0.0333723518371582,0.103698825931549,1.661584295033847
2.205030303030303,-0.00219125576019288,-0.09116866378784179,-0.162148342037201,1.661584295033847
2.2056363636363634,-0.11954721279144301,0.00463211746215819,0.118068943119049,1.661584295033847
2.206242424242424,0.00738882236480712,0.0980378791809082,-0.0950877951622013,1.661584295033847
2.206848484848485,-0.057276704978942904,0.18186356277465798,0.12046396265029899,1.661584295033847
2.2074545454545453,0.00738882236480712,0.08127274246215821,0.0653785134315487,1.661584295033847
2.208060606060606,-0.057276704978942904,-0.08877364425659179,0.08932870874404869,1.661584295033847
2.208666666666667,-0.0261414510726929,0.129173133087158,0.173154392337799,1.661584295033847
2.2092727272727273,0.107979642677307,0.138753211212158,0.106093845462799,1.661584295033847
2.2098787878787878,0.07444936923980709,-0.141464073944092,0.163574314212799,1.661584295033847
2.2104848484848483,-0.0237464315414429,-0.0193180778503418,-0.09029775609970131,1.661584295033847
2.2110909090909088,-0.0932019979476929,0.136358191680908,0.13962411890029902,1.661584295033847
2.2116969696969697,0.055289212989807095,0.0645076057434082,0.0869336892127987,1.661584295033847
2.21230303030303,-0.035721529197692906,0.0213972541809082,-0.0471874045372013,1.661584295033847
2.2129090909090907,0.0385240762710571,-0.11990889816284199,-0.013657131099701299,1.661584295033847
2.213515151515151,0.06965933017730709,-0.0791935661315918,-0.126223049068451,1.661584295033847
2.214121212121212,-0.179422701072693,0.0429524299621582,-0.0160521506309513,1.661584295033847
2.2147272727272727,-0.102782076072693,0.10761795730590801,0.29051034936904896,1.661584295033847
2.215333333333333,-0.0524866659164429,-0.129488976287842,0.285720310306549,1.661584295033847
2.2159393939393937,0.105584623146057,-0.198944542694092,-0.0160521506309513,1.661584295033847
2.2165454545454546,0.12234975986480699,-0.0265031364440918,0.19949960718154902,1.661584295033847
2.217151515151515,-0.035721529197692906,0.0621125862121582,0.09890878686904869,1.661584295033847
2.2177575757575756,-0.0405115682601929,0.0573225471496582,-0.0567674826622013,1.661584295033847
2.218363636363636,-0.0932019979476929,0.265689246368408,0.0270582009315487,1.661584295033847
2.218969696969697,0.112769681739807,0.193838660430908,-0.0208421896934513,1.661584295033847
2.2195757575757575,-0.220138033103943,-0.0648234489440918,-0.0112621115684513,1.661584295033847
2.220181818181818,-0.222533052635193,-0.09356368331909179,-0.11903799047470101,1.661584295033847
2.2207878787878785,-0.016561372947692898,-0.08398360519409179,0.08932870874404869,1.661584295033847
2.2213939393939395,-0.246483247947693,0.0453474494934082,0.0390332985877987,1.661584295033847
2.222,-0.0812269002914429,0.00223709793090819,0.0414283181190487,1.661584295033847
2.222606060606061,0.146299955177307,-0.00255294113159181,0.333620700931549,1.661584295033847
2.223212121212121,0.175040189552307,0.08127274246215821,0.494087009525299,1.661584295033847
2.223818181818182,0.00978384189605712,0.09085282058715821,0.25937509546279897,1.661584295033847
2.224424242424242,-0.11715219326019301,-0.09835372238159179,0.0366382790565487,1.661584295033847
2.225030303030303,-0.0884119588851929,-0.0600334098815918,0.053403415775298696,1.661584295033847
2.225636363636364,0.11995474033355699,-0.165414269256592,-0.10466787328720101,1.661584295033847
2.226242424242424,0.0361290567398071,-0.09356368331909179,-0.0998778342247013,1.661584295033847
2.226848484848485,-0.167447603416443,0.38065018386840804,-0.035212306880951304,1.661584295033847
2.227454545454545,0.15108999423980699,0.0477424690246582,-0.0783226584434513,1.661584295033847
2.228060606060606,0.057684232521057095,-0.194154503631592,-0.10706289281845101,1.661584295033847
2.228666666666667,-0.0476966268539429,-0.0312931755065918,0.137229099369049,1.661584295033847
2.229272727272727,-0.167447603416443,-0.141464073944092,0.187524509525299,1.661584295033847
2.229878787878788,-0.131522310447693,-0.213314659881592,0.0174781228065487,1.661584295033847
2.230484848484848,0.194200345802307,-0.0504533317565918,0.132439060306549,1.661584295033847
2.231090909090909,0.062474271583557096,-0.0121330192565918,0.0557984353065487,1.661584295033847
2.2316969696969697,-0.186607759666443,0.16749344558715798,-0.08550771703720131,1.661584295033847
2.23230303030303,-0.0405115682601929,0.09085282058715821,0.12285898218154899,1.661584295033847
2.2329090909090907,0.07444936923980709,0.016607215118408198,-0.0735326193809513,1.661584295033847
2.2335151515151517,0.0313390176773071,0.08845780105590821,0.19470956811904902,1.661584295033847
2.2341212121212117,-0.143497408103943,0.07408768386840821,0.326435642337799,1.661584295033847
2.2347272727272727,0.0433141153335571,-0.09835372238159179,-0.0543724631309513,1.661584295033847
2.2353333333333327,0.00738882236480712,-0.127093956756592,0.0821436501502987,1.661584295033847
2.2359393939393937,-0.27282846279144296,0.0405574104309082,0.326435642337799,1.661584295033847
2.236545454545455,-0.0476966268539429,-0.10793380050659199,0.14920419702529902,1.661584295033847
2.237151515151515,-0.018956392478942898,-0.0504533317565918,-0.0567674826622013,1.661584295033847
2.237757575757576,0.11995474033355699,-0.18217940597534202,0.13962411890029902,1.661584295033847
2.238363636363636,0.00020376377105711798,-0.0480583122253418,0.288115329837799,1.661584295033847
2.238969696969697,-0.0548816854476929,0.0669026252746582,-0.0280272482872013,1.661584295033847
2.239575757575758,0.107979642677307,-0.0121330192565918,0.0174781228065487,1.661584295033847
2.240181818181818,0.0193639200210571,-0.016923058319091803,0.165969333744049,1.661584295033847
2.240787878787879,-0.112362154197693,0.0669026252746582,0.0653785134315487,1.661584295033847
2.241393939393939,-0.0117713338851929,-0.0576383903503418,0.125254001712799,1.661584295033847
2.242,0.249285795021057,-0.08877364425659179,0.197104587650299,1.661584295033847
2.242606060606061,-0.0405115682601929,0.00223709793090819,0.192314548587799,1.661584295033847
2.243212121212121,-0.138707369041443,0.0669026252746582,-0.0639525412559513,1.661584295033847
2.243818181818182,0.0983995645523071,0.0453474494934082,0.221054782962799,1.661584295033847
2.244424242424242,-0.0860169393539429,-0.134279015350342,0.297695407962799,1.661584295033847
2.245030303030303,-0.0740418416976929,0.18186356277465798,-0.025632228755951298,1.661584295033847
2.245636363636364,-0.0141663534164429,0.0357673713684082,0.0246631814002987,1.661584295033847
2.246242424242424,-0.009376314353942879,-0.139069054412842,-0.18849355688095099,1.661584295033847
2.246848484848485,-0.00219125576019288,-0.11032882003784199,0.127649021244049,1.661584295033847
2.247454545454545,-0.016561372947692898,0.00702713699340819,0.115673923587799,1.661584295033847
2.248060606060606,0.0049938028335571195,0.11959305496215801,-0.044792385005951306,1.661584295033847
2.248666666666667,0.0672643106460571,-0.00255294113159181,-0.0160521506309513,1.661584295033847
2.249272727272727,0.0936095254898071,-0.0552433708190918,-0.126223049068451,1.661584295033847
2.249878787878788,-0.0141663534164429,-0.0552433708190918,0.12046396265029899,1.661584295033847
2.250484848484848,0.0361290567398071,-0.11272383956909199,0.043823337650298694,1.661584295033847
2.251090909090909,0.057684232521057095,-0.0504533317565918,0.0055030251502987204,1.661584295033847
2.2516969696969698,0.0433141153335571,-0.127093956756592,-0.11664297094345101,1.661584295033847
2.25230303030303,0.134324857521057,-0.165414269256592,0.247399997806549,1.661584295033847
2.2529090909090908,-0.109967134666443,0.08845780105590821,0.383916111087799,1.661584295033847
2.2535151515151517,0.055289212989807095,-0.220499718475342,0.053403415775298696,1.661584295033847
2.2541212121212117,0.0912145059585571,-0.11272383956909199,0.165969333744049,1.661584295033847
2.2547272727272727,-0.0237464315414429,-0.323485558319092,0.0102930642127987,1.661584295033847
2.2553333333333327,0.131929837989807,-0.11272383956909199,0.000712986087798724,1.661584295033847
2.2559393939393937,0.0481041543960571,0.234553992462158,0.108488864994049,1.661584295033847
2.256545454545455,0.163065091896057,-0.0696134880065918,-0.00886709203720128,1.661584295033847
2.2571515151515147,0.07205434970855709,0.205813758087158,0.0821436501502987,1.661584295033847
2.257757575757576,-0.11475717372894301,0.07648270339965821,0.0653785134315487,1.661584295033847
2.2583636363636357,-0.100387056541443,0.08366776199340821,0.019873142337798702,1.661584295033847
2.258969696969697,0.026548978614807102,-0.000157921600341806,0.223449802494049,1.661584295033847
2.259575757575758,-0.016561372947692898,-0.0576383903503418,0.18512948999404902,1.661584295033847
2.260181818181818,0.012178861427307099,-0.0193180778503418,-0.00407705297470128,1.661584295033847
2.260787878787879,-0.0500916463851929,-0.12469893722534199,0.103698825931549,1.661584295033847
2.261393939393939,-0.0860169393539429,0.165098426055908,-0.037607326412201304,1.661584295033847
2.262,-0.0405115682601929,0.0477424690246582,0.216264743900299,1.661584295033847
2.262606060606061,-0.0381165487289429,-0.12469893722534199,0.019873142337798702,1.661584295033847
2.263212121212121,0.0409190958023071,0.129173133087158,-0.0950877951622013,1.661584295033847
2.263818181818182,0.0313390176773071,0.105222937774658,0.13004404077529902,1.661584295033847
2.264424242424242,-0.0764368612289429,0.030977332305908198,0.113278904056549,1.661584295033847
2.265030303030303,-0.059671724510192904,-0.000157921600341806,0.158784275150299,1.661584295033847
2.265636363636364,0.191805326271057,0.054927527618408196,0.206684665775299,1.661584295033847
2.266242424242424,0.0433141153335571,-0.016923058319091803,0.0605884743690487,1.661584295033847
2.266848484848485,0.0528941934585571,0.0333723518371582,0.048613376712798695,1.661584295033847
2.267454545454545,0.227730619239807,0.205813758087158,0.09172372827529869,1.661584295033847
2.268060606060606,0.062474271583557096,0.100432898712158,-0.21962881078720098,1.661584295033847
2.268666666666667,0.0385240762710571,-0.000157921600341806,-0.15496328344345098,1.661584295033847
2.269272727272727,0.215755521583557,-0.0456632926940918,0.048613376712798695,1.661584295033847
2.269878787878788,0.0960045450210571,-0.00255294113159181,-0.10227285375595101,1.661584295033847
2.270484848484848,0.062474271583557096,0.00223709793090819,-0.26034414281845103,1.661584295033847
2.271090909090909,0.198990384864807,0.11240799636840801,-0.0280272482872013,1.661584295033847
2.2716969696969698,-0.018956392478942898,0.126778113555908,-0.17412343969345098,1.661584295033847
2.27230303030303,0.0049938028335571195,-0.143859093475342,-0.00647207250595128,1.661584295033847
2.2729090909090908,0.100794584083557,-0.028898155975341802,0.17075937280654901,1.661584295033847
2.2735151515151517,-0.0213514120101929,0.028582312774658197,-0.0280272482872013,1.661584295033847
2.2741212121212118,0.062474271583557096,-0.158229210662842,0.132439060306549,1.661584295033847
2.2747272727272727,-0.0836219198226929,-0.08637862472534179,-0.0112621115684513,1.661584295033847
2.2753333333333328,-0.00698129482269288,0.00223709793090819,-0.152568263912201,1.661584295033847
2.2759393939393937,0.0864244668960571,-0.014528038787841799,0.046218357181548694,1.661584295033847
2.276545454545455,-0.157867525291443,-0.014528038787841799,0.115673923587799,1.661584295033847
2.2771515151515147,0.0983995645523071,0.133963172149658,0.18033945093154902,1.661584295033847
2.277757575757576,0.160670072364807,0.0333723518371582,-0.0328172873497013,1.661584295033847
2.2783636363636357,0.00738882236480712,-0.136674034881592,-0.202863674068451,1.661584295033847
2.278969696969697,0.0217589395523071,0.0118171760559082,0.103698825931549,1.661584295033847
2.279575757575758,-0.057276704978942904,0.0357673713684082,0.17554941186904902,1.661584295033847
2.280181818181818,0.0193639200210571,-0.163019249725342,0.048613376712798695,1.661584295033847
2.280787878787879,-0.0213514120101929,0.052532508087158196,-0.181308498287201,1.661584295033847
2.281393939393939,-0.129127290916443,-0.0600334098815918,0.336015720462799,1.661584295033847
2.282,0.012178861427307099,-0.13188399581909202,0.29051034936904896,1.661584295033847
2.282606060606061,-0.153077486228943,-0.10553878097534199,-0.0735326193809513,1.661584295033847
2.283212121212121,-0.016561372947692898,-0.158229210662842,0.33122568140029895,1.661584295033847
2.283818181818182,0.115164701271057,-0.0193180778503418,0.156389255619049,1.661584295033847
2.284424242424242,-0.0764368612289429,0.126778113555908,0.206684665775299,1.661584295033847
2.285030303030303,0.179830228614807,0.08366776199340821,0.422236423587799,1.661584295033847
2.285636363636364,0.07205434970855709,-0.103143761444092,0.0725635720252987,1.661584295033847
2.286242424242424,-0.29438363857269295,0.0237922737121582,0.0845386696815487,1.661584295033847
2.286848484848485,-0.0213514120101929,0.210603797149658,0.12285898218154899,1.661584295033847
2.287454545454545,0.062474271583557096,0.0621125862121582,-0.0184471701622013,1.661584295033847
2.288060606060606,-0.0285364706039429,-0.155834191131592,0.225844822025299,1.661584295033847
2.288666666666667,-0.033326509666442905,-0.134279015350342,0.106093845462799,1.661584295033847
2.289272727272727,0.0145738809585571,0.0429524299621582,0.0605884743690487,1.661584295033847
2.289878787878788,0.0840294473648071,-0.0552433708190918,0.0126880837440487,1.661584295033847
2.290484848484848,0.0481041543960571,-0.0672184684753418,0.17075937280654901,1.661584295033847
2.291090909090909,0.0049938028335571195,-0.0121330192565918,-0.025632228755951298,1.661584295033847
2.29169696969697,0.0241539590835571,-0.174994347381592,0.151599216556549,1.661584295033847
2.29230303030303,-0.059671724510192904,-0.09835372238159179,0.30009042749404896,1.661584295033847
2.292909090909091,-0.0716468221664429,-0.151044152069092,-0.0591625021934513,1.661584295033847
2.2935151515151517,0.0960045450210571,-0.00255294113159181,-0.152568263912201,1.661584295033847
2.294121212121212,0.141509916114807,0.0333723518371582,-0.0112621115684513,1.661584295033847
2.2947272727272727,-0.0836219198226929,0.0213972541809082,0.221054782962799,1.661584295033847
2.295333333333333,0.194200345802307,0.179468543243408,0.108488864994049,1.661584295033847
2.2959393939393937,0.00738882236480712,0.150728308868408,-0.142988185787201,1.661584295033847
2.2965454545454547,-0.205767915916443,0.0333723518371582,0.0845386696815487,1.661584295033847
2.2971515151515147,0.177435209083557,-0.000157921600341806,0.110883884525299,1.661584295033847
2.2977575757575757,0.0983995645523071,0.0333723518371582,-0.166938381099701,1.661584295033847
2.2983636363636357,0.208570462989807,-0.00255294113159181,0.12285898218154899,1.661584295033847
2.2989696969696967,0.07684438877105709,-0.18217940597534202,0.118068943119049,1.661584295033847
2.299575757575758,0.0864244668960571,-0.0480583122253418,0.0653785134315487,1.661584295033847
2.3001818181818177,0.012178861427307099,0.19144364089965799,-0.0687425803184513,1.661584295033847
2.300787878787879,0.028943998146057102,-0.09595870285034179,-0.0567674826622013,1.661584295033847
2.3013939393939387,0.028943998146057102,0.030977332305908198,0.137229099369049,1.661584295033847
2.302,-0.0716468221664429,0.136358191680908,0.09651376733779869,1.661584295033847
2.302606060606061,0.07444936923980709,0.155518347930908,0.146809177494049,1.661584295033847
2.303212121212121,-0.00219125576019288,-0.165414269256592,-0.0567674826622013,1.661584295033847
2.303818181818182,0.028943998146057102,0.052532508087158196,-0.08790273656845131,1.661584295033847
2.304424242424242,0.00738882236480712,0.11001297683715801,0.137229099369049,1.661584295033847
2.305030303030303,-0.205767915916443,-0.16780928878784201,0.14441415796279902,1.661584295033847
2.305636363636364,0.141509916114807,0.08845780105590821,-0.0639525412559513,1.661584295033847
2.306242424242424,0.07684438877105709,-0.0265031364440918,-0.0711375998497013,1.661584295033847
2.306848484848485,0.055289212989807095,0.24652909011840798,-0.0208421896934513,1.661584295033847
2.307454545454545,0.0912145059585571,-0.12230391769409199,0.283325290775299,1.661584295033847
2.308060606060606,-0.229718111228943,-0.179784386444092,0.110883884525299,1.661584295033847
2.308666666666667,0.0337340372085571,-0.016923058319091803,0.0581934548377987,1.661584295033847
2.309272727272727,-0.030931490135192898,0.054927527618408196,0.0246631814002987,1.661584295033847
2.309878787878788,0.00259878330230712,0.0405574104309082,0.14920419702529902,1.661584295033847
2.310484848484848,-0.0788318807601929,-0.280375206756592,0.019873142337798702,1.661584295033847
2.311090909090909,-0.217743013572693,-0.0720085075378418,-0.00407705297470128,1.661584295033847
2.31169696969697,0.160670072364807,0.0357673713684082,0.35038583765029896,1.661584295033847
2.31230303030303,0.175040189552307,0.0190022346496582,0.132439060306549,1.661584295033847
2.312909090909091,0.0409190958023071,0.0213972541809082,0.587492771244049,1.661584295033847
2.3135151515151517,0.213360502052307,0.0190022346496582,0.798254489994049,1.661584295033847
2.314121212121212,0.0960045450210571,0.0645076057434082,0.101303806400299,1.661584295033847
2.3147272727272727,0.0504991739273071,0.0453474494934082,0.09890878686904869,1.661584295033847
2.315333333333333,0.026548978614807102,0.09324784011840821,0.256980075931549,1.661584295033847
2.3159393939393937,-0.059671724510192904,0.014212195587158201,-0.0974828146934513,1.661584295033847
2.3165454545454547,0.0433141153335571,-0.00973799972534181,0.0318482399940487,1.661584295033847
2.3171515151515147,-0.172237642478943,0.0405574104309082,0.225844822025299,1.661584295033847
2.3177575757575757,-0.174632662010193,0.00702713699340819,0.182734470462799,1.661584295033847
2.3183636363636357,0.00738882236480712,0.0405574104309082,0.019873142337798702,1.661584295033847
2.3189696969696967,0.110374662208557,0.0381623908996582,-0.11664297094345101,1.661584295033847
2.319575757575758,0.0960045450210571,0.0501374885559082,0.0222681618690487,1.661584295033847
2.3201818181818177,0.0936095254898071,0.0429524299621582,0.106093845462799,1.661584295033847
2.320787878787879,0.07444936923980709,0.0261872932434082,0.197104587650299,1.661584295033847
2.321393939393939,0.00978384189605712,0.08366776199340821,0.0342432595252987,1.661584295033847
2.322,0.189410306739807,-0.000157921600341806,0.12285898218154899,1.661584295033847
2.322606060606061,0.100794584083557,0.0453474494934082,0.0749585915565487,1.661584295033847
2.323212121212121,-0.0213514120101929,-0.0312931755065918,-0.10945791234970101,1.661584295033847
2.323818181818182,0.0169689004898071,-0.0480583122253418,-0.040002345943451305,1.661584295033847
2.324424242424242,-0.121942232322693,0.054927527618408196,-0.08550771703720131,1.661584295033847
2.325030303030303,0.028943998146057102,0.100432898712158,0.247399997806549,1.661584295033847
2.325636363636364,0.0504991739273071,0.0118171760559082,0.292905368900299,1.661584295033847
2.326242424242424,0.0361290567398071,0.0477424690246582,0.09411874780654869,1.661584295033847
2.326848484848485,-0.0668567831039429,0.160308386993408,-0.176518459224701,1.661584295033847
2.327454545454545,0.0840294473648071,0.0621125862121582,0.0629834939002987,1.661584295033847
2.328060606060606,0.163065091896057,-0.0432682731628418,0.24979501733779902,1.661584295033847
2.328666666666667,0.0169689004898071,0.0501374885559082,0.0102930642127987,1.661584295033847
2.329272727272727,-0.145892427635193,0.0645076057434082,0.0701685524940487,1.661584295033847
2.329878787878788,-0.157867525291443,0.054927527618408196,0.108488864994049,1.661584295033847
2.330484848484848,0.155880033302307,-0.016923058319091803,-0.0639525412559513,1.661584295033847
2.331090909090909,0.100794584083557,0.00942215652465819,-0.025632228755951298,1.661584295033847
2.33169696969697,0.230125638771057,0.265689246368408,-0.00647207250595128,1.661584295033847
2.33230303030303,-0.016561372947692898,0.0692976448059082,0.127649021244049,1.661584295033847
2.332909090909091,-0.109967134666443,0.08845780105590821,0.24021493921279902,1.661584295033847
2.3335151515151518,0.0217589395523071,0.08606278152465821,0.206684665775299,1.661584295033847
2.334121212121212,0.00020376377105711798,0.169888465118408,0.09172372827529869,1.661584295033847
2.3347272727272728,-0.100387056541443,-0.160624230194092,0.127649021244049,1.661584295033847
2.335333333333333,-0.0884119588851929,0.0980378791809082,0.048613376712798695,1.661584295033847
2.3359393939393938,0.143904935646057,0.17228348464965798,0.13483407983779902,1.661584295033847
2.3365454545454547,0.191805326271057,-0.198944542694092,0.0318482399940487,1.661584295033847
2.3371515151515148,0.0337340372085571,-0.00255294113159181,-0.044792385005951306,1.661584295033847
2.3377575757575757,-0.00698129482269288,0.0692976448059082,0.00789804468154872,1.661584295033847
2.3383636363636358,0.110374662208557,-0.11511885910034199,0.18512948999404902,1.661584295033847
2.3389696969696967,0.177435209083557,-0.00255294113159181,0.12046396265029899,1.661584295033847
2.339575757575758,0.00738882236480712,0.0453474494934082,-0.0495824240684513,1.661584295033847
2.3401818181818177,0.110374662208557,-0.0767985466003418,0.043823337650298694,1.661584295033847
2.340787878787879,0.062474271583557096,0.198628699493408,0.216264743900299,1.661584295033847
2.3413939393939387,-0.0979920370101929,-0.0576383903503418,0.0749585915565487,1.661584295033847
2.342,-0.0213514120101929,-0.028898155975341802,0.218659763431549,1.661584295033847
2.342606060606061,-0.0836219198226929,-0.0480583122253418,0.324040622806549,1.661584295033847
2.343212121212121,-0.0979920370101929,0.100432898712158,0.39828622827529897,1.661584295033847
2.343818181818182,0.0936095254898071,0.215393836212158,0.405471286869049,1.661584295033847
2.344424242424242,-0.0141663534164429,-0.160624230194092,-0.0280272482872013,1.661584295033847
2.345030303030303,-0.0453016073226929,-0.0744035270690918,0.0055030251502987204,1.661584295033847
2.345636363636364,0.112769681739807,0.016607215118408198,0.218659763431549,1.661584295033847
2.346242424242424,-0.0500916463851929,-0.12469893722534199,0.0414283181190487,1.661584295033847
2.346848484848485,-0.0429065877914429,-0.13188399581909202,-0.255554103755951,1.661584295033847
2.347454545454545,0.0313390176773071,-0.0480583122253418,0.046218357181548694,1.661584295033847
2.348060606060606,0.15108999423980699,-0.24205489425659202,0.12285898218154899,1.661584295033847
2.348666666666667,-0.234508150291443,-0.100748741912842,-0.0184471701622013,1.661584295033847
2.349272727272727,-0.0740418416976929,0.248924109649658,-0.0471874045372013,1.661584295033847
2.349878787878788,0.11995474033355699,0.0118171760559082,0.09651376733779869,1.661584295033847
2.350484848484848,-0.102782076072693,-0.215709679412842,0.137229099369049,1.661584295033847
2.351090909090909,0.0504991739273071,-0.163019249725342,0.053403415775298696,1.661584295033847
2.35169696969697,0.0816344278335571,0.0645076057434082,0.0414283181190487,1.661584295033847
2.35230303030303,-0.00698129482269288,-0.09116866378784179,0.0725635720252987,1.661584295033847
2.352909090909091,-0.0932019979476929,-0.225289757537842,0.09651376733779869,1.661584295033847
2.353515151515152,-0.150682466697693,0.165098426055908,0.27135019311904895,1.661584295033847
2.354121212121212,-0.191397798728943,0.07169266433715821,0.015083103275298701,1.661584295033847
2.354727272727273,-0.0261414510726929,-0.036083214569091804,-0.0471874045372013,1.661584295033847
2.355333333333333,0.055289212989807095,-0.0552433708190918,0.18991952905654902,1.661584295033847
2.3559393939393938,0.012178861427307099,-0.0432682731628418,0.09651376733779869,1.661584295033847
2.3565454545454547,-0.0381165487289429,-0.0744035270690918,-0.0112621115684513,1.661584295033847
2.3571515151515148,-0.062066744041442905,-0.0193180778503418,0.0174781228065487,1.661584295033847
2.3577575757575757,0.12474477939605699,0.136358191680908,0.256980075931549,1.661584295033847
2.3583636363636358,0.055289212989807095,0.07648270339965821,0.0366382790565487,1.661584295033847
2.3589696969696967,-0.181817720603943,0.014212195587158201,0.0629834939002987,1.661584295033847
2.359575757575758,-0.315938814353943,0.102827918243408,0.17075937280654901,1.661584295033847
2.3601818181818177,0.00259878330230712,0.0429524299621582,0.051008396244048695,1.661584295033847
2.360787878787879,-0.0764368612289429,-0.280375206756592,0.00789804468154872,1.661584295033847
2.3613939393939387,-0.0117713338851929,-0.0265031364440918,-0.0759276389122013,1.661584295033847
2.362,0.0792394083023071,0.11719803543090801,-0.0519774435997013,1.661584295033847
2.362606060606061,-0.141102388572693,0.12198807449340801,-0.0208421896934513,1.661584295033847
2.363212121212121,0.07684438877105709,0.13156815261840799,0.0581934548377987,1.661584295033847
2.363818181818182,-0.0812269002914429,-0.0552433708190918,-0.121433010005951,1.661584295033847
2.364424242424242,-0.121942232322693,-0.0312931755065918,-0.133408107662201,1.661584295033847
2.365030303030303,0.028943998146057102,-0.0720085075378418,0.0773536110877987,1.661584295033847
2.365636363636364,-0.00458627529144288,-0.179784386444092,0.046218357181548694,1.661584295033847
2.366242424242424,-0.0955970174789429,-0.0600334098815918,-0.035212306880951304,1.661584295033847
2.366848484848485,-0.0908069784164429,-0.0504533317565918,0.08932870874404869,1.661584295033847
2.367454545454545,0.110374662208557,-0.0456632926940918,0.0390332985877987,1.661584295033847
2.368060606060606,-0.00458627529144288,-0.00255294113159181,-0.0735326193809513,1.661584295033847
2.368666666666667,-0.20816293544769301,-0.0672184684753418,-0.0519774435997013,1.661584295033847
2.369272727272727,0.112769681739807,0.09085282058715821,0.0581934548377987,1.661584295033847
2.369878787878788,0.0528941934585571,0.12198807449340801,0.127649021244049,1.661584295033847
2.370484848484848,-0.133917329978943,0.054927527618408196,0.0677735329627987,1.661584295033847
2.371090909090909,-0.030931490135192898,-0.11751387863159199,-0.10227285375595101,1.661584295033847
2.37169696969697,-0.0213514120101929,-0.0696134880065918,0.295300388431549,1.661584295033847
2.37230303030303,0.177435209083557,-0.0121330192565918,-0.0783226584434513,1.661584295033847
2.372909090909091,0.11995474033355699,0.16749344558715798,0.0749585915565487,1.661584295033847
2.373515151515152,0.00020376377105711798,0.11480301589965801,0.568332614994049,1.661584295033847
2.374121212121212,-0.143497408103943,-0.11272383956909199,-0.0160521506309513,1.661584295033847
2.374727272727273,0.00978384189605712,-0.08398360519409179,0.0318482399940487,1.661584295033847
2.375333333333333,0.143904935646057,0.0333723518371582,0.168364353275299,1.661584295033847
2.375939393939394,0.0528941934585571,0.205813758087158,0.0653785134315487,1.661584295033847
2.3765454545454547,0.0792394083023071,-0.0480583122253418,-0.0567674826622013,1.661584295033847
2.377151515151515,0.0960045450210571,-0.230079796600342,0.14920419702529902,1.661584295033847
2.3777575757575757,0.0840294473648071,-0.014528038787841799,-0.0016820334434512801,1.661584295033847
2.378363636363636,0.0361290567398071,0.12438309402465801,0.046218357181548694,1.661584295033847
2.3789696969696967,0.0912145059585571,-0.0504533317565918,0.046218357181548694,1.661584295033847
2.3795757575757577,0.0313390176773071,-0.11511885910034199,0.000712986087798724,1.661584295033847
2.3801818181818177,0.07205434970855709,-0.0600334098815918,-0.013657131099701299,1.661584295033847
2.3807878787878787,0.0672643106460571,-0.11990889816284199,0.0414283181190487,1.661584295033847
2.3813939393939387,0.026548978614807102,0.0237922737121582,-0.0160521506309513,1.661584295033847
2.3819999999999997,-0.035721529197692906,0.0980378791809082,0.0557984353065487,1.661584295033847
2.382606060606061,0.0169689004898071,0.0477424690246582,0.153994236087799,1.661584295033847
2.3832121212121207,-0.100387056541443,0.0357673713684082,-0.10466787328720101,1.661584295033847
2.383818181818182,0.160670072364807,-0.00255294113159181,-0.11185293188095101,1.661584295033847
2.3844242424242417,-0.129127290916443,0.0453474494934082,0.0629834939002987,1.661584295033847
2.385030303030303,-0.0908069784164429,-0.146254113006592,0.0342432595252987,1.661584295033847
2.385636363636364,0.131929837989807,-0.18696944503784202,-0.15017324438095098,1.661584295033847
2.386242424242424,-0.0644617635726929,0.0333723518371582,0.165969333744049,1.661584295033847
2.386848484848485,0.06965933017730709,0.203418738555908,0.36954599390029896,1.661584295033847
2.387454545454545,-0.009376314353942879,-0.129488976287842,0.0845386696815487,1.661584295033847
2.388060606060606,0.0217589395523071,0.016607215118408198,-0.11664297094345101,1.661584295033847
2.388666666666667,0.0457091348648071,0.19144364089965799,0.14441415796279902,1.661584295033847
2.389272727272727,-0.00458627529144288,-0.17738936691284202,0.113278904056549,1.661584295033847
2.389878787878788,0.0169689004898071,0.10761795730590801,-0.08071767797470131,1.661584295033847
2.390484848484848,-0.009376314353942879,0.09564285964965821,0.153994236087799,1.661584295033847
2.391090909090909,-0.11475717372894301,-0.12469893722534199,0.051008396244048695,1.661584295033847
2.39169696969697,0.012178861427307099,-0.0648234489440918,-0.08311269750595131,1.661584295033847
2.39230303030303,-0.00698129482269288,0.11240799636840801,0.0318482399940487,1.661584295033847
2.392909090909091,0.0313390176773071,0.07169266433715821,0.168364353275299,1.661584295033847
2.393515151515151,-0.016561372947692898,0.16749344558715798,0.09890878686904869,1.661584295033847
2.394121212121212,-0.0740418416976929,0.18186356277465798,0.0102930642127987,1.661584295033847
2.394727272727273,-0.229718111228943,0.11240799636840801,0.0246631814002987,1.661584295033847
2.395333333333333,-0.157867525291443,0.09085282058715821,-0.0184471701622013,1.661584295033847
2.395939393939394,0.0337340372085571,0.00463211746215819,0.113278904056549,1.661584295033847
2.3965454545454548,-0.0740418416976929,0.028582312774658197,0.0126880837440487,1.661584295033847
2.397151515151515,-0.035721529197692906,0.0118171760559082,-0.190888576412201,1.661584295033847
2.3977575757575758,0.0169689004898071,0.014212195587158201,0.115673923587799,1.661584295033847
2.398363636363636,0.0481041543960571,0.08127274246215821,0.08932870874404869,1.661584295033847
2.3989696969696968,0.184620267677307,-0.0576383903503418,-0.0615575217247013,1.661584295033847
2.3995757575757577,0.215755521583557,-0.0648234489440918,-0.11664297094345101,1.661584295033847
2.4001818181818178,-0.0213514120101929,0.203418738555908,-0.147778224849701,1.661584295033847
2.4007878787878787,0.0960045450210571,0.12198807449340801,0.053403415775298696,1.661584295033847
2.4013939393939387,0.0840294473648071,-0.038478234100341804,-0.217233791255951,1.661584295033847
2.402,-0.018956392478942898,-0.270795128631592,0.20428964624404902,1.661584295033847
2.402606060606061,0.0504991739273071,0.0118171760559082,-0.265134181880951,1.661584295033847
2.403212121212121,0.06965933017730709,0.138753211212158,0.156389255619049,1.661584295033847
2.403818181818182,-0.033326509666442905,-0.0720085075378418,0.45816171655654897,1.661584295033847
2.404424242424242,-0.0884119588851929,-0.189364464569092,-0.24357900609970098,1.661584295033847
2.405030303030303,0.107979642677307,-0.13188399581909202,0.151599216556549,1.661584295033847
2.405636363636364,0.0217589395523071,0.203418738555908,0.0174781228065487,1.661584295033847
2.406242424242424,-0.009376314353942879,0.100432898712158,0.00789804468154872,1.661584295033847
2.406848484848485,-0.0788318807601929,0.0573225471496582,0.106093845462799,1.661584295033847
2.407454545454545,-0.0788318807601929,-0.08398360519409179,0.051008396244048695,1.661584295033847
2.408060606060606,0.0457091348648071,0.0669026252746582,0.156389255619049,1.661584295033847
2.408666666666667,-0.0740418416976929,0.11240799636840801,0.163574314212799,1.661584295033847
2.409272727272727,-0.0500916463851929,-0.0648234489440918,0.225844822025299,1.661584295033847
2.409878787878788,0.0936095254898071,0.0669026252746582,0.161179294681549,1.661584295033847
2.410484848484849,0.0864244668960571,0.07887772293090821,0.0821436501502987,1.661584295033847
2.411090909090909,-0.0668567831039429,-0.0312931755065918,0.0557984353065487,1.661584295033847
2.41169696969697,-0.0429065877914429,-0.220499718475342,-0.0160521506309513,1.661584295033847
2.41230303030303,0.134324857521057,-0.0576383903503418,0.13483407983779902,1.661584295033847
2.412909090909091,-0.0644617635726929,0.09564285964965821,0.00789804468154872,1.661584295033847
2.413515151515152,0.0361290567398071,-0.134279015350342,-0.121433010005951,1.661584295033847
2.414121212121212,0.00020376377105711798,-0.139069054412842,0.137229099369049,1.661584295033847
2.414727272727273,-0.0524866659164429,-0.100748741912842,0.221054782962799,1.661584295033847
2.415333333333333,-0.062066744041442905,0.054927527618408196,0.0390332985877987,1.661584295033847
2.415939393939394,-0.0117713338851929,-0.00494796066284181,0.197104587650299,1.661584295033847
2.4165454545454548,-0.0117713338851929,-0.146254113006592,0.201894626712799,1.661584295033847
2.417151515151515,-0.035721529197692906,0.0190022346496582,-0.0950877951622013,1.661584295033847
2.4177575757575758,-0.00698129482269288,-0.0696134880065918,0.142019138431549,1.661584295033847
2.418363636363636,0.167855130958557,-0.0336881950378418,-0.11903799047470101,1.661584295033847
2.4189696969696968,0.184620267677307,0.18186356277465798,-0.044792385005951306,1.661584295033847
2.4195757575757577,-0.0764368612289429,-0.0672184684753418,0.051008396244048695,1.661584295033847
2.4201818181818178,0.00978384189605712,-0.28756026535034196,0.019873142337798702,1.661584295033847
2.4207878787878787,0.0409190958023071,-0.0456632926940918,0.051008396244048695,1.661584295033847
2.4213939393939388,-0.0141663534164429,0.0645076057434082,-0.025632228755951298,1.661584295033847
2.4219999999999997,-0.009376314353942879,0.0597175666809082,0.19470956811904902,0.6297469097434167
2.4226060606060607,-0.035721529197692906,-0.0528483512878418,-0.145383205318451,0.6297469097434167
2.4232121212121207,-0.222533052635193,0.07887772293090821,-0.037607326412201304,0.6297469097434167
2.4238181818181816,-0.0261414510726929,0.014212195587158201,-0.0759276389122013,0.6297469097434167
2.4244242424242417,-0.0237464315414429,-0.12469893722534199,0.197104587650299,0.6297469097434167
2.4250303030303026,0.0433141153335571,0.0261872932434082,-0.0232372092247013,0.6297469097434167
2.425636363636364,0.0983995645523071,-0.0432682731628418,-0.0759276389122013,0.6297469097434167
2.4262424242424236,-0.018956392478942898,0.08366776199340821,0.23063486108779901,0.6297469097434167
2.426848484848485,-0.0860169393539429,0.0333723518371582,0.237819919681549,0.6297469097434167
2.4274545454545446,0.0049938028335571195,-0.09356368331909179,0.187524509525299,0.6297469097434167
2.428060606060606,-0.0908069784164429,-0.189364464569092,-0.0950877951622013,0.6297469097434167
2.428666666666667,-0.126732271385193,-0.09835372238159179,0.0294532204627987,0.6297469097434167
2.429272727272727,0.100794584083557,0.157913367462158,-0.0232372092247013,0.6297469097434167
2.429878787878788,-0.0644617635726929,-0.201339562225342,-0.0783226584434513,0.6297469097434167
2.430484848484848,-0.0979920370101929,-0.0241081169128418,0.0845386696815487,0.6297469097434167
2.431090909090909,0.057684232521057095,-0.0767985466003418,-0.0591625021934513,0.6297469097434167
2.43169696969697,-0.00458627529144288,-0.09835372238159179,-0.24357900609970098,0.6297469097434167
2.43230303030303,-0.129127290916443,-0.11751387863159199,-0.231603908443451,0.6297469097434167
2.432909090909091,-0.009376314353942879,-0.263610070037842,0.36954599390029896,0.6297469097434167
2.433515151515152,0.167855130958557,-0.00494796066284181,0.740774021244049,0.6297469097434167
2.434121212121212,-0.030931490135192898,-0.000157921600341806,0.115673923587799,0.6297469097434167
2.434727272727273,0.0912145059585571,-0.10553878097534199,0.14441415796279902,0.6297469097434167
2.435333333333333,0.11995474033355699,-0.0217130973815918,-0.09029775609970131,0.6297469097434167
2.435939393939394,-0.136312349510193,-0.0791935661315918,0.0031080056190487203,0.6297469097434167
2.436545454545455,-0.062066744041442905,-0.10793380050659199,0.256980075931549,0.6297469097434167
2.437151515151515,0.0936095254898071,0.07169266433715821,-0.0615575217247013,0.6297469097434167
2.437757575757576,0.07684438877105709,-0.141464073944092,0.0629834939002987,0.6297469097434167
2.438363636363636,-0.229718111228943,-0.0528483512878418,0.043823337650298694,0.6297469097434167
2.438969696969697,0.0241539590835571,0.148333289337158,0.19470956811904902,0.6297469097434167
2.4395757575757577,0.0672643106460571,0.126778113555908,0.182734470462799,0.6297469097434167
2.440181818181818,-0.121942232322693,0.07169266433715821,-0.0112621115684513,0.6297469097434167
2.4407878787878787,-0.0836219198226929,0.0190022346496582,0.19949960718154902,0.6297469097434167
2.441393939393939,-0.0524866659164429,-0.0696134880065918,-0.025632228755951298,0.6297469097434167
2.4419999999999997,0.0385240762710571,-0.0552433708190918,-0.042397365474701305,0.6297469097434167
2.442606060606061,-0.145892427635193,-0.146254113006592,0.0366382790565487,0.6297469097434167
2.4432121212121207,-0.0908069784164429,-0.00494796066284181,-0.040002345943451305,0.6297469097434167
2.443818181818182,0.0409190958023071,0.0357673713684082,0.09172372827529869,0.6297469097434167
2.4444242424242417,-0.138707369041443,-0.0241081169128418,0.137229099369049,0.6297469097434167
2.445030303030303,0.028943998146057102,0.198628699493408,-0.152568263912201,0.6297469097434167
2.445636363636364,0.175040189552307,-0.12469893722534199,0.158784275150299,0.6297469097434167
2.446242424242424,-0.11475717372894301,0.016607215118408198,0.33122568140029895,0.6297469097434167
2.446848484848485,-0.167447603416443,0.0118171760559082,0.25937509546279897,0.6297469097434167
2.447454545454545,-0.030931490135192898,-0.19175948410034202,-0.0208421896934513,0.6297469097434167
2.448060606060606,-0.0117713338851929,-0.0528483512878418,-0.11185293188095101,0.6297469097434167
2.448666666666667,-0.0261414510726929,-0.203734581756592,0.19949960718154902,0.6297469097434167
2.449272727272727,0.0193639200210571,-0.239659874725342,0.0797486306190487,0.6297469097434167
2.449878787878788,0.00020376377105711798,-0.0767985466003418,0.127649021244049,0.6297469097434167
2.450484848484848,-0.0548816854476929,-0.09595870285034179,0.273745212650299,0.6297469097434167
2.451090909090909,-0.0860169393539429,-0.163019249725342,0.321645603275299,0.6297469097434167
2.45169696969697,0.0840294473648071,-0.0504533317565918,0.019873142337798702,0.6297469097434167
2.45230303030303,0.0361290567398071,0.00942215652465819,0.08932870874404869,0.6297469097434167
2.452909090909091,-0.033326509666442905,-0.143859093475342,0.0294532204627987,0.6297469097434167
2.453515151515152,-0.00698129482269288,-0.09595870285034179,0.0581934548377987,0.6297469097434167
2.454121212121212,0.07684438877105709,0.030977332305908198,0.254585056400299,0.6297469097434167
2.454727272727273,0.062474271583557096,-0.170204308319092,0.12046396265029899,0.6297469097434167
2.455333333333333,0.0385240762710571,0.0692976448059082,-0.0735326193809513,0.6297469097434167
2.455939393939394,0.012178861427307099,0.16749344558715798,0.24979501733779902,0.6297469097434167
2.456545454545455,0.028943998146057102,-0.0815885856628418,0.142019138431549,0.6297469097434167
2.457151515151515,0.177435209083557,0.07887772293090821,-0.145383205318451,0.6297469097434167
2.457757575757576,0.0648692911148071,0.0261872932434082,-0.15017324438095098,0.6297469097434167
2.458363636363636,-0.030931490135192898,-0.0528483512878418,-0.0112621115684513,0.6297469097434167
2.458969696969697,-0.0213514120101929,-0.09116866378784179,0.0845386696815487,0.6297469097434167
2.4595757575757577,-0.0716468221664429,-0.0193180778503418,0.0414283181190487,0.6297469097434167
2.460181818181818,0.0193639200210571,0.196233679962158,-0.042397365474701305,0.6297469097434167
2.4607878787878787,0.172645170021057,0.07169266433715821,0.0270582009315487,0.6297469097434167
2.461393939393939,0.282816068458557,0.028582312774658197,0.115673923587799,0.6297469097434167
2.4619999999999997,0.026548978614807102,-0.0552433708190918,-0.205258693599701,0.6297469097434167
2.4626060606060607,-0.059671724510192904,0.08127274246215821,0.285720310306549,0.6297469097434167
2.4632121212121207,0.112769681739807,0.193838660430908,0.561147556400299,0.6297469097434167
2.4638181818181817,0.177435209083557,0.00223709793090819,0.158784275150299,0.6297469097434167
2.4644242424242417,0.0433141153335571,0.12198807449340801,-0.042397365474701305,0.6297469097434167
2.4650303030303027,-0.11715219326019301,-0.09595870285034179,-0.040002345943451305,0.6297469097434167
2.465636363636364,0.15108999423980699,0.0405574104309082,0.0055030251502987204,0.6297469097434167
2.4662424242424237,-0.0429065877914429,-0.016923058319091803,-0.0160521506309513,0.6297469097434167
2.466848484848485,-0.150682466697693,0.0333723518371582,-0.08311269750595131,0.6297469097434167
2.4674545454545447,-0.030931490135192898,0.0333723518371582,-0.08311269750595131,0.6297469097434167
2.468060606060606,0.227730619239807,-0.0241081169128418,-0.126223049068451,0.6297469097434167
2.468666666666667,0.165460111427307,0.10761795730590801,0.0294532204627987,0.6297469097434167
2.469272727272727,-0.198582857322693,-0.0504533317565918,0.161179294681549,0.6297469097434167
2.469878787878788,-0.0644617635726929,-0.194154503631592,0.0581934548377987,0.6297469097434167
2.470484848484849,0.0816344278335571,-0.0720085075378418,0.18512948999404902,0.6297469097434167
2.471090909090909,-0.00698129482269288,0.0621125862121582,0.0869336892127987,0.6297469097434167
2.47169696969697,0.07444936923980709,0.0477424690246582,-0.0280272482872013,0.6297469097434167
2.47230303030303,0.0313390176773071,0.169888465118408,-0.140593166255951,0.6297469097434167
2.472909090909091,-0.062066744041442905,-0.0600334098815918,-0.15496328344345098,0.6297469097434167
2.473515151515152,-0.033326509666442905,-0.10793380050659199,0.0797486306190487,0.6297469097434167
2.474121212121212,-0.0548816854476929,0.0621125862121582,-0.10227285375595101,0.6297469097434167
2.474727272727273,0.00738882236480712,0.10761795730590801,-0.0112621115684513,0.6297469097434167
2.475333333333333,0.00020376377105711798,-0.0720085075378418,-0.00407705297470128,0.6297469097434167
2.475939393939394,0.060079252052307096,0.105222937774658,0.0366382790565487,0.6297469097434167
2.476545454545455,0.07444936923980709,0.08606278152465821,0.233029880619049,0.6297469097434167
2.477151515151515,0.0193639200210571,-0.014528038787841799,-0.08071767797470131,0.6297469097434167
2.477757575757576,0.103189603614807,0.12198807449340801,0.110883884525299,0.6297469097434167
2.478363636363636,0.012178861427307099,0.11001297683715801,0.23063486108779901,0.6297469097434167
2.478969696969697,0.0960045450210571,-0.0312931755065918,0.0797486306190487,0.6297469097434167
2.4795757575757578,0.153485013771057,0.052532508087158196,0.295300388431549,0.6297469097434167
2.480181818181818,0.0241539590835571,0.0429524299621582,0.161179294681549,0.6297469097434167
2.4807878787878788,-0.0932019979476929,-0.155834191131592,0.127649021244049,0.6297469097434167
2.481393939393939,-0.150682466697693,-0.0217130973815918,0.216264743900299,0.6297469097434167
2.4819999999999998,-0.145892427635193,0.184258582305908,0.14441415796279902,0.6297469097434167
2.4826060606060607,0.100794584083557,-0.0241081169128418,0.0126880837440487,0.6297469097434167
2.4832121212121208,0.218150541114807,-0.0528483512878418,0.20428964624404902,0.6297469097434167
2.4838181818181817,-0.121942232322693,-0.146254113006592,-0.0711375998497013,0.6297469097434167
2.4844242424242418,0.0049938028335571195,-0.038478234100341804,-0.23399892797470098,0.6297469097434167
2.4850303030303027,-0.0476966268539429,-0.11272383956909199,0.146809177494049,0.6297469097434167
2.485636363636364,0.0145738809585571,-0.028898155975341802,0.09172372827529869,0.6297469097434167
2.4862424242424237,0.0840294473648071,-0.00494796066284181,0.18512948999404902,0.6297469097434167
2.486848484848485,-0.325518892478943,-0.08877364425659179,0.12046396265029899,0.6297469097434167
2.4874545454545447,-0.11475717372894301,0.184258582305908,0.0174781228065487,0.6297469097434167
2.488060606060606,0.00259878330230712,0.0669026252746582,-0.00407705297470128,0.6297469097434167
2.488666666666667,-0.0884119588851929,0.169888465118408,0.0677735329627987,0.6297469097434167
2.489272727272727,0.0193639200210571,0.054927527618408196,0.0773536110877987,0.6297469097434167
2.489878787878788,-0.0884119588851929,-0.08398360519409179,0.09411874780654869,0.6297469097434167
2.490484848484848,-0.174632662010193,-0.0815885856628418,0.0366382790565487,0.6297469097434167
2.491090909090909,0.31395132236480705,-0.0720085075378418,0.0414283181190487,0.6297469097434167
2.49169696969697,0.060079252052307096,-0.18217940597534202,0.0701685524940487,0.6297469097434167
2.49230303030303,0.0864244668960571,0.00702713699340819,0.051008396244048695,0.6297469097434167
2.492909090909091,0.249285795021057,-0.028898155975341802,0.606652927494049,0.6297469097434167
2.493515151515152,0.0241539590835571,0.133963172149658,0.589887790775299,0.6297469097434167
2.494121212121212,0.0433141153335571,0.09085282058715821,0.0031080056190487203,0.6297469097434167
2.494727272727273,0.189410306739807,-0.0624284294128418,0.142019138431549,0.6297469097434167
2.495333333333333,0.167855130958557,-0.163019249725342,0.015083103275298701,0.6297469097434167
2.495939393939394,-0.169842622947693,-0.311510460662842,0.0581934548377987,0.6297469097434167
2.496545454545455,0.026548978614807102,0.0501374885559082,0.118068943119049,0.6297469097434167
2.497151515151515,0.165460111427307,0.0213972541809082,-0.195678615474701,0.6297469097434167
2.497757575757576,0.139114896583557,-0.014528038787841799,0.051008396244048695,0.6297469097434167
2.498363636363636,-0.0237464315414429,0.12438309402465801,-0.126223049068451,0.6297469097434167
2.498969696969697,0.0528941934585571,-0.10793380050659199,-0.00647207250595128,0.6297469097434167
2.499575757575758,0.12474477939605699,0.0261872932434082,0.228239841556549,0.6297469097434167
2.500181818181818,0.131929837989807,0.129173133087158,0.158784275150299,0.6297469097434167
2.500787878787879,0.060079252052307096,-0.08877364425659179,0.046218357181548694,0.6297469097434167
2.501393939393939,-0.059671724510192904,-0.00973799972534181,0.101303806400299,0.6297469097434167
2.502,0.0433141153335571,-0.11990889816284199,0.132439060306549,0.6297469097434167
2.5026060606060607,0.165460111427307,-0.0672184684753418,0.043823337650298694,0.6297469097434167
2.5032121212121208,0.060079252052307096,0.11240799636840801,-0.08790273656845131,0.6297469097434167
2.5038181818181817,0.0313390176773071,0.0357673713684082,0.0126880837440487,0.6297469097434167
2.5044242424242418,0.0504991739273071,-0.014528038787841799,0.046218357181548694,0.6297469097434167
2.5050303030303027,0.0816344278335571,0.054927527618408196,0.0797486306190487,0.6297469097434167
2.5056363636363637,0.0361290567398071,0.030977332305908198,0.17075937280654901,0.6297469097434167
2.5062424242424237,-0.057276704978942904,-0.0576383903503418,0.0055030251502987204,0.6297469097434167
2.5068484848484847,-0.016561372947692898,-0.0312931755065918,-0.08550771703720131,0.6297469097434167
2.5074545454545447,0.00259878330230712,0.0669026252746582,0.13483407983779902,0.6297469097434167
2.5080606060606057,0.0936095254898071,-0.036083214569091804,0.27853525171279897,0.6297469097434167
2.508666666666667,0.0648692911148071,-0.0121330192565918,0.0821436501502987,0.6297469097434167
2.5092727272727267,0.0504991739273071,0.11001297683715801,-0.0998778342247013,0.6297469097434167
2.509878787878788,-0.0524866659164429,0.0381623908996582,0.158784275150299,0.6297469097434167
2.5104848484848477,-0.153077486228943,0.07648270339965821,0.0270582009315487,0.6297469097434167
2.511090909090909,0.0504991739273071,0.174678504180908,-0.17891347875595098,0.6297469097434167
2.51169696969697,0.160670072364807,0.153123328399658,0.0845386696815487,0.6297469097434167
2.51230303030303,-0.0261414510726929,0.054927527618408196,0.177944431400299,0.6297469097434167
2.512909090909091,0.112769681739807,-0.139069054412842,0.17075937280654901,0.6297469097434167
2.513515151515152,0.27802602939605703,-0.00734298019409181,0.233029880619049,0.6297469097434167
2.514121212121212,-0.0955970174789429,0.07169266433715821,0.043823337650298694,0.6297469097434167
2.514727272727273,-0.191397798728943,-0.10793380050659199,-0.042397365474701305,0.6297469097434167
2.515333333333333,0.00978384189605712,-0.00734298019409181,0.0055030251502987204,0.6297469097434167
2.515939393939394,0.12234975986480699,0.10761795730590801,-0.0495824240684513,0.6297469097434167
2.516545454545455,0.0337340372085571,0.10761795730590801,0.158784275150299,0.6297469097434167
2.517151515151515,0.012178861427307099,-0.11990889816284199,-0.0184471701622013,0.6297469097434167
2.517757575757576,0.0960045450210571,-0.179784386444092,0.0773536110877987,0.6297469097434167
2.518363636363636,0.242100736427307,0.11001297683715801,-0.042397365474701305,0.6297469097434167
2.518969696969697,-0.0500916463851929,0.18665360183715798,-0.0184471701622013,0.6297469097434167
2.519575757575758,-0.0884119588851929,-0.036083214569091804,-0.0783226584434513,0.6297469097434167
2.520181818181818,0.311556302833557,-0.203734581756592,0.00789804468154872,0.6297469097434167
2.520787878787879,0.0385240762710571,0.0237922737121582,-0.152568263912201,0.6297469097434167
2.521393939393939,0.0433141153335571,0.0621125862121582,0.0342432595252987,0.6297469097434167
2.522,-0.00458627529144288,0.105222937774658,0.561147556400299,0.8440482090288746
2.5226060606060607,0.0049938028335571195,-0.0265031364440918,0.0222681618690487,0.8440482090288746
2.523212121212121,-0.0812269002914429,-0.11990889816284199,0.18512948999404902,0.8440482090288746
2.5238181818181817,-0.102782076072693,0.160308386993408,0.0749585915565487,0.8440482090288746
2.524424242424242,0.0840294473648071,0.23215897293090798,0.0701685524940487,0.8440482090288746
2.5250303030303027,-0.030931490135192898,0.160308386993408,0.12046396265029899,0.8440482090288746
2.525636363636364,0.012178861427307099,-0.12230391769409199,-0.10466787328720101,0.8440482090288746
2.5262424242424237,0.0504991739273071,-0.194154503631592,0.103698825931549,0.8440482090288746
2.526848484848485,0.00259878330230712,-0.213314659881592,0.053403415775298696,0.8440482090288746
2.5274545454545447,0.00259878330230712,-0.038478234100341804,0.09651376733779869,0.8440482090288746
2.528060606060606,-0.112362154197693,0.129173133087158,0.223449802494049,0.8440482090288746
2.528666666666667,-0.0237464315414429,-0.0312931755065918,0.173154392337799,0.8440482090288746
2.529272727272727,0.07444936923980709,0.133963172149658,0.0725635720252987,0.8440482090288746
2.529878787878788,-0.150682466697693,0.248924109649658,-0.00647207250595128,0.8440482090288746
2.530484848484849,0.0504991739273071,0.0453474494934082,-0.0208421896934513,0.8440482090288746
2.531090909090909,-0.00698129482269288,-0.19175948410034202,0.158784275150299,0.8440482090288746
2.53169696969697,-0.0836219198226929,-0.0312931755065918,0.0581934548377987,0.8440482090288746
2.53230303030303,0.105584623146057,-0.00255294113159181,-0.0304222678184513,0.8440482090288746
2.532909090909091,0.0912145059585571,0.0453474494934082,-0.10466787328720101,0.8440482090288746
2.533515151515152,0.0313390176773071,-0.0791935661315918,0.0701685524940487,0.8440482090288746
2.534121212121212,0.026548978614807102,-0.129488976287842,0.053403415775298696,0.8440482090288746
2.534727272727273,-0.0716468221664429,0.0980378791809082,-0.025632228755951298,0.8440482090288746
2.535333333333333,-0.0261414510726929,0.0237922737121582,0.118068943119049,0.8440482090288746
2.535939393939394,-0.033326509666442905,-0.198944542694092,0.132439060306549,0.8440482090288746
2.536545454545455,0.0960045450210571,-0.28756026535034196,0.168364353275299,0.8440482090288746
2.537151515151515,-0.0261414510726929,-0.09116866378784179,0.0653785134315487,0.8440482090288746
2.537757575757576,-0.057276704978942904,-0.0312931755065918,0.101303806400299,0.8440482090288746
2.538363636363636,0.0888194864273071,-0.251634972381592,-0.0926927756309513,0.8440482090288746
2.538969696969697,-0.136312349510193,0.251319129180908,-0.00647207250595128,0.8440482090288746
2.539575757575758,0.220545560646057,-0.0241081169128418,0.161179294681549,0.8440482090288746
2.540181818181818,0.06965933017730709,-0.16780928878784201,0.137229099369049,0.8440482090288746
2.540787878787879,0.0912145059585571,0.00942215652465819,0.163574314212799,0.8440482090288746
2.541393939393939,0.028943998146057102,-0.134279015350342,-0.0112621115684513,0.8440482090288746
2.542,-0.0860169393539429,0.054927527618408196,-0.10466787328720101,0.8440482090288746
2.5426060606060608,0.0049938028335571195,0.0645076057434082,-0.00647207250595128,0.8440482090288746
2.543212121212121,-0.181817720603943,0.26329422683715803,0.0605884743690487,0.8440482090288746
2.5438181818181818,-0.0884119588851929,-0.11032882003784199,0.106093845462799,0.8440482090288746
2.544424242424242,0.0528941934585571,-0.153439171600342,0.153994236087799,0.8440482090288746
2.5450303030303028,-0.0788318807601929,-0.00973799972534181,-0.0495824240684513,0.8440482090288746
2.5456363636363637,-0.0237464315414429,0.17707352371215798,0.0653785134315487,0.8440482090288746
2.5462424242424238,-0.0261414510726929,0.18665360183715798,0.0773536110877987,0.8440482090288746
2.5468484848484847,-0.0476966268539429,-0.127093956756592,0.0246631814002987,0.8440482090288746
2.5474545454545447,-0.0788318807601929,-0.153439171600342,0.0366382790565487,0.8440482090288746
2.5480606060606057,-0.14828744716644301,0.102827918243408,0.053403415775298696,0.8440482090288746
2.548666666666667,-0.222533052635193,0.0405574104309082,0.223449802494049,0.8440482090288746
2.5492727272727267,-0.217743013572693,-0.0408732536315918,-0.040002345943451305,0.8440482090288746
2.549878787878788,-0.155472505760193,0.014212195587158201,0.048613376712798695,0.8440482090288746
2.5504848484848477,-0.253668306541443,-0.0696134880065918,0.0222681618690487,0.8440482090288746
2.551090909090909,-0.287198579978943,-0.203734581756592,-0.0615575217247013,0.8440482090288746
2.55169696969697,-0.105177095603943,-0.100748741912842,0.5156421853065489,0.8440482090288746
2.55230303030303,-0.220138033103943,0.054927527618408196,0.0342432595252987,0.8440482090288746
2.552909090909091,-0.232113130760193,-0.00494796066284181,0.27853525171279897,0.8440482090288746
2.553515151515152,0.0481041543960571,-0.11032882003784199,0.371941013431549,0.8440482090288746
2.554121212121212,-0.222533052635193,-0.23247481613159202,0.0629834939002987,0.8440482090288746
2.554727272727273,-0.11715219326019301,-0.0480583122253418,0.13483407983779902,0.8440482090288746
2.555333333333333,-0.167447603416443,-0.127093956756592,0.0414283181190487,0.8440482090288746
2.555939393939394,-0.179422701072693,-0.153439171600342,-0.16454336156845098,0.8440482090288746
2.556545454545455,-0.157867525291443,0.0692976448059082,0.053403415775298696,0.8440482090288746
2.557151515151515,-0.385394380760193,0.08845780105590821,0.0869336892127987,0.8440482090288746
2.557757575757576,-0.390184419822693,0.0980378791809082,-0.15975332250595098,0.8440482090288746
2.558363636363636,-0.45484994716644295,0.284849402618408,0.0749585915565487,0.8440482090288746
2.558969696969697,-0.20816293544769301,0.07648270339965821,-0.0519774435997013,0.8440482090288746
2.559575757575758,-0.27522348232269295,0.0477424690246582,0.0102930642127987,0.8440482090288746
2.560181818181818,-0.375814302635193,0.0573225471496582,0.216264743900299,0.8440482090288746
2.560787878787879,-0.193792818260193,0.0980378791809082,0.12046396265029899,0.8440482090288746
2.561393939393939,-0.248878267478943,0.0597175666809082,-0.11903799047470101,0.8440482090288746
2.562,-0.210557954978943,0.016607215118408198,0.0677735329627987,0.8440482090288746
2.5626060606060608,-0.318333833885193,0.0333723518371582,0.12285898218154899,0.8440482090288746
2.563212121212121,-0.29198861904144296,-0.0456632926940918,0.0725635720252987,0.8440482090288746
2.5638181818181818,-0.330308931541443,-0.0720085075378418,-0.08550771703720131,0.8440482090288746
2.564424242424242,-0.258458345603943,-0.12230391769409199,0.213869724369049,0.8440482090288746
2.5650303030303028,-0.34228402919769296,-0.0312931755065918,-0.044792385005951306,0.8440482090288746
2.5656363636363637,-0.466825044822693,0.0645076057434082,-0.11664297094345101,0.8440482090288746
2.5662424242424238,-0.268038423728943,-0.103143761444092,0.28093027124404896,0.8440482090288746
2.5668484848484847,-0.426109712791443,-0.134279015350342,-0.11424795141220101,0.8440482090288746
2.5674545454545448,-0.397369478416443,0.0573225471496582,0.0414283181190487,0.8440482090288746
2.5680606060606057,-0.280013521385193,-0.038478234100341804,-0.0304222678184513,0.8440482090288746
2.568666666666667,-0.29198861904144296,0.129173133087158,-0.0950877951622013,0.8440482090288746
2.5692727272727267,-0.397369478416443,0.09324784011840821,0.0390332985877987,0.8440482090288746
2.569878787878788,-0.450059908103943,-0.12230391769409199,-0.16454336156845098,0.8440482090288746
2.5704848484848477,-0.368629244041443,0.014212195587158201,0.0773536110877987,0.8440482090288746
2.571090909090909,-0.33509897060394295,0.0237922737121582,0.0031080056190487203,0.8440482090288746
2.57169696969697,-0.32312387294769296,-0.210919640350342,-0.10466787328720101,0.8440482090288746
2.57230303030303,-0.27522348232269295,-0.028898155975341802,0.0246631814002987,0.8440482090288746
2.572909090909091,-0.296778658103943,0.0621125862121582,0.09411874780654869,0.8440482090288746
2.573515151515152,-0.121942232322693,0.0692976448059082,0.0246631814002987,0.8440482090288746
2.574121212121212,-0.162657564353943,-0.311510460662842,0.0821436501502987,0.8440482090288746
2.574727272727273,-0.36144418544769297,-0.17738936691284202,-0.0471874045372013,0.8440482090288746
2.575333333333333,-0.418924654197693,0.016607215118408198,-0.22920888891220098,0.8440482090288746
2.575939393939394,-0.38060434169769297,0.0333723518371582,0.08932870874404869,0.8440482090288746
2.576545454545455,-0.28240854091644296,0.09085282058715821,0.211474704837799,0.8440482090288746
2.577151515151515,-0.349469087791443,-0.153439171600342,0.046218357181548694,0.8440482090288746
2.577757575757576,-0.29198861904144296,-0.11272383956909199,-0.10227285375595101,0.8440482090288746
2.578363636363636,-0.409344576072693,-0.0265031364440918,0.101303806400299,0.8440482090288746
2.578969696969697,-0.318333833885193,0.11959305496215801,-0.0016820334434512801,0.8440482090288746
2.579575757575758,-0.38060434169769297,0.189048621368408,-0.123828029537201,0.8440482090288746
2.580181818181818,-0.406949556541443,0.0645076057434082,0.24979501733779902,0.8440482090288746
2.580787878787879,-0.33270395107269296,-0.0432682731628418,-0.126223049068451,0.8440482090288746
2.581393939393939,-0.40455453701019295,0.0381623908996582,-0.0495824240684513,0.8440482090288746
2.582,-0.196187837791443,-0.09835372238159179,0.156389255619049,0.8440482090288746
2.582606060606061,-0.337493990135193,-0.00494796066284181,-0.16454336156845098,0.8440482090288746
2.583212121212121,-0.241693208885193,0.0118171760559082,0.403076267337799,0.8440482090288746
2.583818181818182,-0.102782076072693,-0.158229210662842,0.5156421853065489,0.8440482090288746
2.584424242424242,-0.399764497947693,0.0381623908996582,0.08932870874404869,0.8440482090288746
2.585030303030303,-0.280013521385193,0.052532508087158196,0.233029880619049,0.8440482090288746
2.5856363636363637,-0.239298189353943,0.145938269805908,0.0557984353065487,0.8440482090288746
2.586242424242424,-0.0860169393539429,0.09324784011840821,-0.21004873266220098,0.8440482090288746
2.5868484848484847,-0.212952974510193,-0.00734298019409181,0.0174781228065487,0.8440482090288746
2.587454545454545,-0.248878267478943,-0.143859093475342,-0.123828029537201,0.8440482090288746
2.5880606060606057,-0.232113130760193,-0.0624284294128418,-0.00647207250595128,0.8440482090288746
2.5886666666666667,-0.325518892478943,-0.038478234100341804,0.13962411890029902,0.8440482090288746
2.5892727272727267,0.0193639200210571,-0.100748741912842,0.0174781228065487,0.8440482090288746
2.5898787878787877,-0.157867525291443,-0.0456632926940918,0.0869336892127987,0.8440482090288746
2.590484848484849,-0.105177095603943,-0.141464073944092,-0.00647207250595128,0.8440482090288746
2.5910909090909087,0.141509916114807,-0.0193180778503418,-0.0543724631309513,0.8440482090288746
2.59169696969697,-0.162657564353943,-0.0552433708190918,0.0246631814002987,0.8440482090288746
2.5923030303030297,-0.136312349510193,-0.12230391769409199,0.118068943119049,0.8440482090288746
2.592909090909091,-0.0860169393539429,-0.00734298019409181,-0.035212306880951304,0.8440482090288746
2.5935151515151507,-0.174632662010193,0.17707352371215798,-0.135803127193451,0.8440482090288746
2.594121212121212,0.055289212989807095,0.016607215118408198,-0.09029775609970131,0.8440482090288746
2.594727272727273,-0.11475717372894301,-0.148649132537842,0.115673923587799,0.8440482090288746
2.595333333333333,-0.033326509666442905,-0.0265031364440918,0.156389255619049,0.8440482090288746
2.595939393939394,0.0361290567398071,0.129173133087158,0.0174781228065487,0.8440482090288746
2.596545454545455,-0.191397798728943,-0.0552433708190918,-0.11424795141220101,0.8440482090288746
2.597151515151515,0.0193639200210571,-0.155834191131592,0.177944431400299,0.8440482090288746
2.597757575757576,0.0217589395523071,-0.0432682731628418,0.103698825931549,0.8440482090288746
2.598363636363636,0.0217589395523071,-0.028898155975341802,-0.08311269750595131,0.8440482090288746
2.598969696969697,0.103189603614807,-0.0265031364440918,0.0653785134315487,0.8440482090288746
2.599575757575758,0.160670072364807,-0.0408732536315918,0.00789804468154872,0.8440482090288746
2.600181818181818,0.0864244668960571,0.0597175666809082,0.206684665775299,0.8440482090288746
2.600787878787879,0.057684232521057095,0.174678504180908,0.0390332985877987,0.8440482090288746
2.601393939393939,-0.0692518026351929,0.016607215118408198,0.20907968530654902,0.8440482090288746
2.602,-0.00458627529144288,0.11240799636840801,0.0821436501502987,0.8440482090288746
2.602606060606061,0.107979642677307,0.0237922737121582,-0.025632228755951298,0.8440482090288746
2.603212121212121,0.155880033302307,-0.00734298019409181,-0.0208421896934513,0.8440482090288746
2.603818181818182,0.057684232521057095,0.11719803543090801,-0.044792385005951306,0.8440482090288746
2.604424242424242,0.00978384189605712,-0.014528038787841799,0.108488864994049,0.8440482090288746
2.605030303030303,0.0504991739273071,-0.0265031364440918,0.0845386696815487,0.8440482090288746
2.6056363636363638,-0.0908069784164429,-0.09595870285034179,-0.10227285375595101,0.8440482090288746
2.606242424242424,-0.016561372947692898,-0.220499718475342,-0.0208421896934513,0.8440482090288746
2.6068484848484847,0.0816344278335571,-0.194154503631592,0.0366382790565487,0.8440482090288746
2.607454545454545,-0.0524866659164429,0.141148230743408,0.0653785134315487,0.8440482090288746
2.6080606060606057,0.184620267677307,0.165098426055908,0.213869724369049,0.8440482090288746
2.608666666666667,0.0241539590835571,0.0118171760559082,-0.0328172873497013,0.8440482090288746
2.6092727272727267,0.07684438877105709,0.0477424690246582,0.000712986087798724,0.8440482090288746
2.609878787878788,0.311556302833557,-0.0456632926940918,0.0677735329627987,0.8440482090288746
2.6104848484848477,-0.0860169393539429,-0.165414269256592,0.0318482399940487,0.8440482090288746
2.611090909090909,-0.062066744041442905,-0.0720085075378418,0.0318482399940487,0.8440482090288746
2.61169696969697,-0.009376314353942879,0.102827918243408,-0.293874416255951,0.8440482090288746
2.61230303030303,0.055289212989807095,0.0190022346496582,0.254585056400299,0.8440482090288746
2.612909090909091,0.012178861427307099,-0.139069054412842,0.254585056400299,0.8440482090288746
2.613515151515152,0.0313390176773071,0.0477424690246582,-0.411230373287201,0.8440482090288746
2.614121212121212,0.0960045450210571,0.0237922737121582,-0.162148342037201,0.8440482090288746
2.614727272727273,-0.11954721279144301,0.11959305496215801,0.019873142337798702,0.8440482090288746
2.615333333333333,-0.11954721279144301,0.054927527618408196,0.0294532204627987,0.8440482090288746
2.615939393939394,0.0169689004898071,-0.11751387863159199,0.0342432595252987,0.8440482090288746
2.616545454545455,-0.0548816854476929,0.09085282058715821,0.0869336892127987,0.8440482090288746
2.617151515151515,-0.062066744041442905,0.07408768386840821,0.151599216556549,0.8440482090288746
2.617757575757576,0.0241539590835571,-0.09835372238159179,0.0414283181190487,0.8440482090288746
2.618363636363636,0.0433141153335571,0.08845780105590821,-0.0735326193809513,0.8440482090288746
2.618969696969697,-0.0261414510726929,-0.0480583122253418,0.0725635720252987,0.8440482090288746
2.619575757575758,-0.0237464315414429,-0.0576383903503418,0.0294532204627987,0.8440482090288746
2.620181818181818,0.00738882236480712,0.00463211746215819,-0.11185293188095101,0.8440482090288746
2.620787878787879,-0.105177095603943,-0.08398360519409179,-0.00647207250595128,0.8440482090288746
2.621393939393939,0.129534818458557,0.0573225471496582,0.295300388431549,0.8440482090288746
2.622,0.107979642677307,0.028582312774658197,-0.044792385005951306,1.0454568138898315
2.622606060606061,-0.11475717372894301,0.09324784011840821,-0.0160521506309513,1.0454568138898315
2.623212121212121,0.0145738809585571,-0.12230391769409199,0.0102930642127987,1.0454568138898315
2.623818181818182,0.189410306739807,0.0237922737121582,-0.0519774435997013,1.0454568138898315
2.624424242424242,0.160670072364807,0.141148230743408,-0.0232372092247013,1.0454568138898315
2.625030303030303,-0.0476966268539429,0.028582312774658197,-0.0112621115684513,1.0454568138898315
2.6256363636363638,-0.009376314353942879,0.162703406524658,-0.00647207250595128,1.0454568138898315
2.626242424242424,0.131929837989807,-0.0193180778503418,-0.10945791234970101,1.0454568138898315
2.6268484848484848,0.182225248146057,-0.148649132537842,0.23063486108779901,1.0454568138898315
2.627454545454545,0.105584623146057,-0.208524620819092,0.146809177494049,1.0454568138898315
2.6280606060606058,0.057684232521057095,-0.08637862472534179,-0.22441884984970098,1.0454568138898315
2.6286666666666667,0.0888194864273071,0.17228348464965798,-0.198073635005951,1.0454568138898315
2.6292727272727268,-0.203372896385193,-0.0504533317565918,0.146809177494049,1.0454568138898315
2.6298787878787877,-0.062066744041442905,-0.0241081169128418,0.27135019311904895,1.0454568138898315
2.6304848484848486,0.12234975986480699,-0.00734298019409181,0.173154392337799,1.0454568138898315
2.6310909090909087,-0.0932019979476929,-0.0744035270690918,0.161179294681549,1.0454568138898315
2.6316969696969696,-0.035721529197692906,-0.028898155975341802,0.000712986087798724,1.0454568138898315
2.6323030303030297,-0.0644617635726929,0.052532508087158196,-0.147778224849701,1.0454568138898315
2.6329090909090906,0.057684232521057095,0.00942215652465819,0.0318482399940487,1.0454568138898315
2.6335151515151507,0.00978384189605712,0.00463211746215819,0.0773536110877987,1.0454568138898315
2.6341212121212116,0.0648692911148071,0.07648270339965821,0.046218357181548694,1.0454568138898315
2.634727272727273,-0.11954721279144301,-0.016923058319091803,0.192314548587799,1.0454568138898315
2.6353333333333326,-0.0405115682601929,-0.0336881950378418,0.127649021244049,1.0454568138898315
2.635939393939394,0.0648692911148071,-0.0576383903503418,-0.200468654537201,1.0454568138898315
2.636545454545455,-0.030931490135192898,-0.11990889816284199,0.0797486306190487,1.0454568138898315
2.637151515151515,-0.102782076072693,-0.0336881950378418,0.383916111087799,1.0454568138898315
2.637757575757576,-0.131522310447693,0.19144364089965799,0.142019138431549,1.0454568138898315
2.638363636363636,0.00259878330230712,0.141148230743408,-0.00886709203720128,1.0454568138898315
2.638969696969697,0.170250150489807,0.0381623908996582,0.173154392337799,1.0454568138898315
2.639575757575758,0.146299955177307,0.13156815261840799,0.221054782962799,1.0454568138898315
2.640181818181818,-0.00458627529144288,0.102827918243408,0.0294532204627987,1.0454568138898315
2.640787878787879,0.131929837989807,0.16749344558715798,-0.123828029537201,1.0454568138898315
2.641393939393939,-0.0524866659164429,0.07887772293090821,0.161179294681549,1.0454568138898315
2.642,-0.00698129482269288,-0.100748741912842,0.048613376712798695,1.0454568138898315
2.642606060606061,0.0528941934585571,0.0213972541809082,-0.157358302974701,1.0454568138898315
2.643212121212121,-0.124337251853943,-0.08398360519409179,-0.0184471701622013,1.0454568138898315
2.643818181818182,-0.0932019979476929,-0.00255294113159181,0.43900156030654897,1.0454568138898315
2.644424242424242,0.167855130958557,0.126778113555908,0.206684665775299,1.0454568138898315
2.645030303030303,0.0912145059585571,0.016607215118408198,-0.142988185787201,1.0454568138898315
2.645636363636364,0.100794584083557,-0.127093956756592,0.0174781228065487,1.0454568138898315
2.646242424242424,0.117559720802307,-0.016923058319091803,0.09172372827529869,1.0454568138898315
2.646848484848485,-0.143497408103943,0.0573225471496582,0.106093845462799,1.0454568138898315
2.6474545454545457,0.100794584083557,-0.0265031364440918,0.0701685524940487,1.0454568138898315
2.648060606060606,-0.121942232322693,-0.016923058319091803,0.118068943119049,1.0454568138898315
2.6486666666666667,-0.220138033103943,0.0213972541809082,-0.0495824240684513,1.0454568138898315
2.649272727272727,0.0840294473648071,0.189048621368408,0.14441415796279902,1.0454568138898315
2.6498787878787877,0.012178861427307099,-0.028898155975341802,-0.00886709203720128,1.0454568138898315
2.6504848484848478,-0.165052583885193,-0.0624284294128418,-0.0160521506309513,1.0454568138898315
2.6510909090909087,0.00259878330230712,-0.038478234100341804,-0.0112621115684513,1.0454568138898315
2.65169696969697,0.012178861427307099,0.0237922737121582,-0.040002345943451305,1.0454568138898315
2.65230303030303,0.117559720802307,0.17707352371215798,0.228239841556549,1.0454568138898315
2.652909090909091,-0.0764368612289429,0.13156815261840799,0.000712986087798724,1.0454568138898315
2.653515151515151,-0.0237464315414429,0.344724890899658,-0.013657131099701299,1.0454568138898315
2.654121212121212,0.131929837989807,0.10761795730590801,0.053403415775298696,1.0454568138898315
2.654727272727273,-0.0884119588851929,0.09564285964965821,0.053403415775298696,1.0454568138898315
2.655333333333333,-0.189002779197693,-0.0217130973815918,0.165969333744049,1.0454568138898315
2.655939393939394,-0.0955970174789429,-0.0193180778503418,-0.013657131099701299,1.0454568138898315
2.656545454545455,0.0912145059585571,0.138753211212158,0.0390332985877987,1.0454568138898315
2.657151515151515,-0.0812269002914429,0.16749344558715798,0.0821436501502987,1.0454568138898315
2.657757575757576,0.160670072364807,0.102827918243408,-0.035212306880951304,1.0454568138898315
2.658363636363636,0.165460111427307,-0.160624230194092,-0.0687425803184513,1.0454568138898315
2.658969696969697,-0.0884119588851929,0.0405574104309082,0.0102930642127987,1.0454568138898315
2.659575757575758,-0.186607759666443,-0.0408732536315918,0.0605884743690487,1.0454568138898315
2.660181818181818,-0.0740418416976929,-0.11032882003784199,0.015083103275298701,1.0454568138898315
2.660787878787879,-0.00219125576019288,0.0190022346496582,-0.0232372092247013,1.0454568138898315
2.661393939393939,0.0049938028335571195,0.054927527618408196,0.0797486306190487,1.0454568138898315
2.662,0.0912145059585571,-0.10553878097534199,0.168364353275299,1.0454568138898315
2.662606060606061,-0.0141663534164429,0.277664344024658,0.0318482399940487,1.0454568138898315
2.663212121212121,-0.0117713338851929,0.23215897293090798,-0.21483877172470098,1.0454568138898315
2.663818181818182,0.146299955177307,-0.170204308319092,-0.0711375998497013,1.0454568138898315
2.664424242424242,-0.0405115682601929,0.0692976448059082,0.25937509546279897,1.0454568138898315
2.665030303030303,0.0864244668960571,0.07648270339965821,0.24021493921279902,1.0454568138898315
2.665636363636364,0.012178861427307099,0.0501374885559082,0.30009042749404896,1.0454568138898315
2.666242424242424,-0.0836219198226929,-0.0241081169128418,0.0653785134315487,1.0454568138898315
2.666848484848485,0.0840294473648071,-0.0552433708190918,-0.035212306880951304,1.0454568138898315
2.667454545454545,-0.143497408103943,-0.0336881950378418,0.113278904056549,1.0454568138898315
2.668060606060606,-0.0692518026351929,0.0213972541809082,0.0342432595252987,1.0454568138898315
2.6686666666666667,0.0840294473648071,-0.11751387863159199,-0.0711375998497013,1.0454568138898315
2.669272727272727,-0.0213514120101929,0.00942215652465819,-0.0998778342247013,1.0454568138898315
2.6698787878787877,0.028943998146057102,0.09324784011840821,0.14441415796279902,1.0454568138898315
2.670484848484848,0.280421048927307,-0.12230391769409199,-0.0783226584434513,1.0454568138898315
2.6710909090909087,0.232520658302307,0.11719803543090801,0.0629834939002987,1.0454568138898315
2.6716969696969697,0.172645170021057,-0.0672184684753418,0.35038583765029896,1.0454568138898315
2.6723030303030297,0.0433141153335571,0.102827918243408,-0.126223049068451,1.0454568138898315
2.6729090909090907,0.00738882236480712,0.0645076057434082,0.142019138431549,1.0454568138898315
2.6735151515151516,0.0648692911148071,-0.0696134880065918,-0.0759276389122013,1.0454568138898315
2.6741212121212117,-0.0429065877914429,0.27287430496215803,0.0055030251502987204,1.0454568138898315
2.6747272727272726,-0.105177095603943,-0.038478234100341804,-0.162148342037201,1.0454568138898315
2.6753333333333327,-0.062066744041442905,-0.155834191131592,0.00789804468154872,1.0454568138898315
2.6759393939393936,0.0672643106460571,-0.0528483512878418,0.20907968530654902,1.0454568138898315
2.676545454545455,-0.0764368612289429,-0.270795128631592,-0.00886709203720128,1.0454568138898315
2.6771515151515146,-0.0117713338851929,-0.100748741912842,0.0366382790565487,1.0454568138898315
2.677757575757576,-0.0668567831039429,0.0333723518371582,-0.10706289281845101,1.0454568138898315
2.6783636363636356,0.062474271583557096,-0.09116866378784179,0.0821436501502987,1.0454568138898315
2.678969696969697,0.107979642677307,-0.0408732536315918,-0.123828029537201,1.0454568138898315
2.679575757575758,-0.059671724510192904,-0.13188399581909202,0.048613376712798695,1.0454568138898315
2.680181818181818,0.0337340372085571,-0.0600334098815918,0.225844822025299,1.0454568138898315
2.680787878787879,0.0816344278335571,-0.0193180778503418,-0.00647207250595128,1.0454568138898315
2.681393939393939,-0.030931490135192898,-0.158229210662842,-0.186098537349701,1.0454568138898315
2.682,0.127139798927307,-0.016923058319091803,0.20428964624404902,1.0454568138898315
2.682606060606061,0.0648692911148071,-0.0217130973815918,0.118068943119049,1.0454568138898315
2.683212121212121,-0.0979920370101929,0.0501374885559082,0.00789804468154872,1.0454568138898315
2.683818181818182,0.273235990333557,0.0692976448059082,0.206684665775299,1.0454568138898315
2.684424242424242,0.12234975986480699,-0.09356368331909179,0.106093845462799,1.0454568138898315
2.685030303030303,0.100794584083557,-0.189364464569092,0.153994236087799,1.0454568138898315
2.685636363636364,0.115164701271057,0.0597175666809082,0.24500497827529902,1.0454568138898315
2.686242424242424,0.00259878330230712,0.0405574104309082,0.316855564212799,1.0454568138898315
2.686848484848485,0.0672643106460571,0.00702713699340819,0.019873142337798702,1.0454568138898315
2.687454545454545,0.136719877052307,-0.165414269256592,-0.0735326193809513,1.0454568138898315
2.688060606060606,0.148694974708557,-0.0696134880065918,0.182734470462799,1.0454568138898315
2.6886666666666668,0.0840294473648071,0.162703406524658,0.25937509546279897,1.0454568138898315
2.689272727272727,0.194200345802307,0.0381623908996582,0.252190036869049,1.0454568138898315
2.6898787878787878,0.028943998146057102,0.28245438308715803,-0.217233791255951,1.0454568138898315
2.690484848484848,0.0169689004898071,-0.100748741912842,-0.236393947505951,1.0454568138898315
2.6910909090909088,-0.0644617635726929,-0.103143761444092,0.146809177494049,1.0454568138898315
2.69169696969697,-0.191397798728943,0.17228348464965798,-0.013657131099701299,1.0454568138898315
2.6923030303030298,0.0193639200210571,-0.10793380050659199,0.0055030251502987204,1.0454568138898315
2.692909090909091,0.0361290567398071,-0.24684493331909202,0.252190036869049,1.0454568138898315
2.693515151515152,0.012178861427307099,-0.014528038787841799,0.30967050561904896,1.0454568138898315
2.694121212121212,0.062474271583557096,-0.00255294113159181,-0.0112621115684513,1.0454568138898315
2.694727272727273,-0.00698129482269288,-0.08877364425659179,-0.040002345943451305,1.0454568138898315
2.695333333333333,-0.0836219198226929,-0.143859093475342,0.13962411890029902,1.0454568138898315
2.695939393939394,0.026548978614807102,0.07408768386840821,-0.0735326193809513,1.0454568138898315
2.696545454545455,0.0409190958023071,0.141148230743408,0.0797486306190487,1.0454568138898315
2.697151515151515,-0.00219125576019288,-0.143859093475342,0.12285898218154899,1.0454568138898315
2.697757575757576,-0.141102388572693,-0.00734298019409181,0.0031080056190487203,1.0454568138898315
2.698363636363636,-0.11475717372894301,0.138753211212158,0.0629834939002987,1.0454568138898315
2.698969696969697,-0.0884119588851929,0.210603797149658,0.24979501733779902,1.0454568138898315
2.699575757575758,-0.186607759666443,0.016607215118408198,0.0318482399940487,1.0454568138898315
2.700181818181818,-0.107572115135193,0.0118171760559082,-0.0016820334434512801,1.0454568138898315
2.700787878787879,0.110374662208557,-0.0791935661315918,0.156389255619049,1.0454568138898315
2.701393939393939,0.0960045450210571,-0.0624284294128418,0.24021493921279902,1.0454568138898315
2.702,0.0816344278335571,-0.174994347381592,0.048613376712798695,1.0454568138898315
2.702606060606061,0.0361290567398071,-0.12230391769409199,0.113278904056549,1.0454568138898315
2.703212121212121,-0.0668567831039429,0.138753211212158,-0.23399892797470098,1.0454568138898315
2.703818181818182,0.0145738809585571,-0.27798018722534196,0.407866306400299,1.0454568138898315
2.704424242424242,0.07205434970855709,-0.143859093475342,0.297695407962799,1.0454568138898315
2.705030303030303,0.12474477939605699,-0.016923058319091803,-0.123828029537201,1.0454568138898315
2.705636363636364,-0.00219125576019288,0.11480301589965801,0.242609958744049,1.0454568138898315
2.706242424242424,0.0385240762710571,0.00223709793090819,0.09411874780654869,1.0454568138898315
2.706848484848485,0.0337340372085571,-0.036083214569091804,0.19470956811904902,1.0454568138898315
2.707454545454545,-0.0548816854476929,0.229763953399658,0.0701685524940487,1.0454568138898315
2.708060606060606,-0.0860169393539429,0.014212195587158201,-0.0735326193809513,1.0454568138898315
2.708666666666667,-0.0860169393539429,0.0333723518371582,-0.0328172873497013,1.0454568138898315
2.709272727272727,0.0504991739273071,0.12438309402465801,0.0869336892127987,1.0454568138898315
2.7098787878787878,-0.0644617635726929,0.09564285964965821,0.0629834939002987,1.0454568138898315
2.710484848484848,0.0361290567398071,0.0453474494934082,0.304880466556549,1.0454568138898315
2.7110909090909088,0.136719877052307,-0.09116866378784179,-0.12861806859970099,1.0454568138898315
2.7116969696969697,0.0241539590835571,-0.215709679412842,-0.0711375998497013,1.0454568138898315
2.7123030303030298,0.0433141153335571,-0.198944542694092,0.0126880837440487,1.0454568138898315
2.7129090909090907,0.0960045450210571,0.212998816680908,0.0222681618690487,1.0454568138898315
2.7135151515151517,0.15108999423980699,0.150728308868408,0.0845386696815487,1.0454568138898315
2.7141212121212117,0.0792394083023071,0.07887772293090821,-0.0016820334434512801,1.0454568138898315
2.7147272727272727,0.0504991739273071,0.00223709793090819,0.168364353275299,1.0454568138898315
2.7153333333333327,0.0145738809585571,-0.014528038787841799,-0.025632228755951298,1.0454568138898315
2.7159393939393937,0.107979642677307,0.0645076057434082,-0.0519774435997013,1.0454568138898315
2.716545454545455,0.0888194864273071,-0.11272383956909199,0.101303806400299,1.0454568138898315
2.7171515151515147,-0.11475717372894301,0.155518347930908,0.0222681618690487,1.0454568138898315
2.717757575757576,-0.0213514120101929,0.37107010574340804,-0.162148342037201,1.0454568138898315
2.7183636363636356,-0.0285364706039429,0.100432898712158,-0.10706289281845101,1.0454568138898315
2.718969696969697,0.057684232521057095,-0.11511885910034199,0.0797486306190487,1.0454568138898315
2.719575757575758,0.189410306739807,0.07648270339965821,0.156389255619049,1.0454568138898315
2.720181818181818,0.100794584083557,0.07169266433715821,0.19470956811904902,1.0454568138898315
2.720787878787879,0.0385240762710571,-0.0744035270690918,-0.0112621115684513,1.0454568138898315
2.721393939393939,-0.14828744716644301,-0.0767985466003418,0.0174781228065487,0.9528750139132234
2.722,0.0457091348648071,-0.00494796066284181,-0.0471874045372013,0.9528750139132234
2.722606060606061,-0.0285364706039429,0.0597175666809082,0.221054782962799,0.9528750139132234
2.723212121212121,-0.0117713338851929,-0.100748741912842,0.23063486108779901,0.9528750139132234
2.723818181818182,0.134324857521057,-0.09356368331909179,0.18033945093154902,0.9528750139132234
2.724424242424242,0.0337340372085571,0.07408768386840821,0.261770114994049,0.9528750139132234
2.725030303030303,0.170250150489807,0.016607215118408198,0.206684665775299,0.9528750139132234
2.725636363636364,0.12474477939605699,-0.17259932785034202,-0.040002345943451305,0.9528750139132234
2.726242424242424,0.179830228614807,-0.0552433708190918,-0.0543724631309513,0.9528750139132234
2.726848484848485,0.0840294473648071,-0.23726485519409202,-0.0328172873497013,0.9528750139132234
2.727454545454545,0.057684232521057095,-0.22768477706909201,-0.284294338130951,0.9528750139132234
2.728060606060606,0.07684438877105709,0.0621125862121582,-0.0783226584434513,0.9528750139132234
2.728666666666667,-0.0141663534164429,0.11719803543090801,-0.0495824240684513,0.9528750139132234
2.729272727272727,0.0145738809585571,0.193838660430908,0.0318482399940487,0.9528750139132234
2.729878787878788,-0.0524866659164429,-0.028898155975341802,0.20428964624404902,0.9528750139132234
2.7304848484848487,-0.018956392478942898,-0.10553878097534199,0.0869336892127987,0.9528750139132234
2.731090909090909,-0.018956392478942898,-0.340250695037842,-0.10706289281845101,0.9528750139132234
2.7316969696969697,0.0481041543960571,-0.19175948410034202,-0.370515041255951,0.9528750139132234
2.73230303030303,0.172645170021057,-0.09835372238159179,-0.190888576412201,0.9528750139132234
2.7329090909090907,0.146299955177307,-0.163019249725342,0.48929697046279896,0.9528750139132234
2.733515151515152,0.07444936923980709,-0.0624284294128418,0.015083103275298701,0.9528750139132234
2.7341212121212117,0.0313390176773071,-0.09595870285034179,-0.0567674826622013,0.9528750139132234
2.734727272727273,-0.11954721279144301,0.00702713699340819,-0.0304222678184513,0.9528750139132234
2.7353333333333327,0.062474271583557096,-0.18696944503784202,-0.013657131099701299,0.9528750139132234
2.735939393939394,-0.016561372947692898,0.0118171760559082,0.132439060306549,0.9528750139132234
2.736545454545455,-0.155472505760193,-0.0456632926940918,0.0557984353065487,0.9528750139132234
2.737151515151515,-0.062066744041442905,-0.23247481613159202,0.312065525150299,0.9528750139132234
2.737757575757576,-0.0476966268539429,-0.09356368331909179,-0.0328172873497013,0.9528750139132234
2.738363636363636,0.136719877052307,-0.222894738006592,-0.0711375998497013,0.9528750139132234
2.738969696969697,-0.0548816854476929,0.0573225471496582,0.24979501733779902,0.9528750139132234
2.739575757575758,-0.35425912685394295,0.0381623908996582,0.101303806400299,0.9528750139132234
2.740181818181818,-0.0716468221664429,-0.141464073944092,-0.08071767797470131,0.9528750139132234
2.740787878787879,-0.00458627529144288,-0.134279015350342,0.108488864994049,0.9528750139132234
2.741393939393939,0.0193639200210571,-0.0576383903503418,0.151599216556549,0.9528750139132234
2.742,0.230125638771057,-0.00734298019409181,-0.025632228755951298,0.9528750139132234
2.742606060606061,0.0049938028335571195,-0.11032882003784199,-0.255554103755951,0.9528750139132234
2.743212121212121,-0.0117713338851929,0.00702713699340819,-0.28908437719345104,0.9528750139132234
2.743818181818182,0.100794584083557,-0.141464073944092,-0.040002345943451305,0.9528750139132234
2.744424242424242,-0.0548816854476929,0.07408768386840821,0.106093845462799,0.9528750139132234
2.745030303030303,-0.0500916463851929,-0.028898155975341802,-0.0160521506309513,0.9528750139132234
2.745636363636364,0.06965933017730709,-0.23247481613159202,0.08932870874404869,0.9528750139132234
2.746242424242424,0.055289212989807095,-0.103143761444092,0.048613376712798695,0.9528750139132234
2.746848484848485,-0.0476966268539429,-0.0312931755065918,0.019873142337798702,0.9528750139132234
2.747454545454545,-0.0908069784164429,-0.11511885910034199,0.13004404077529902,0.9528750139132234
2.748060606060606,0.0864244668960571,-0.00255294113159181,0.13483407983779902,0.9528750139132234
2.748666666666667,-0.100387056541443,0.11480301589965801,0.0318482399940487,0.9528750139132234
2.749272727272727,0.026548978614807102,0.0477424690246582,-0.190888576412201,0.9528750139132234
2.749878787878788,0.21096548252105699,0.0692976448059082,0.163574314212799,0.9528750139132234
2.7504848484848488,0.131929837989807,-0.0815885856628418,0.0701685524940487,0.9528750139132234
2.751090909090909,0.0960045450210571,0.054927527618408196,0.09890878686904869,0.9528750139132234
2.7516969696969698,-0.0500916463851929,-0.09356368331909179,0.0653785134315487,0.9528750139132234
2.75230303030303,-0.00698129482269288,0.030977332305908198,0.0773536110877987,0.9528750139132234
2.7529090909090908,0.12234975986480699,0.0237922737121582,0.137229099369049,0.9528750139132234
2.753515151515151,-0.0237464315414429,-0.13188399581909202,0.09651376733779869,0.9528750139132234
2.7541212121212117,0.0888194864273071,-0.036083214569091804,0.000712986087798724,0.9528750139132234
2.7547272727272727,-0.0429065877914429,-0.0791935661315918,0.18991952905654902,0.9528750139132234
2.7553333333333327,0.136719877052307,-0.08398360519409179,0.161179294681549,0.9528750139132234
2.7559393939393937,0.273235990333557,-0.11511885910034199,0.0342432595252987,0.9528750139132234
2.7565454545454546,-0.0692518026351929,0.030977332305908198,0.019873142337798702,0.9528750139132234
2.7571515151515147,-0.129127290916443,0.22736893386840798,-0.037607326412201304,0.9528750139132234
2.7577575757575756,-0.033326509666442905,0.08127274246215821,0.0581934548377987,0.9528750139132234
2.7583636363636357,0.0361290567398071,-0.0576383903503418,-0.040002345943451305,0.9528750139132234
2.7589696969696966,0.0241539590835571,-0.25882003097534195,0.048613376712798695,0.9528750139132234
2.759575757575758,0.112769681739807,-0.028898155975341802,-0.0016820334434512801,0.9528750139132234
2.7601818181818176,-0.016561372947692898,0.0669026252746582,-0.171728420162201,0.9528750139132234
2.760787878787879,-0.030931490135192898,-0.239659874725342,-0.044792385005951306,0.9528750139132234
2.7613939393939386,-0.009376314353942879,-0.225289757537842,-0.0495824240684513,0.9528750139132234
2.762,-0.035721529197692906,-0.0408732536315918,-0.11424795141220101,0.9528750139132234
2.762606060606061,-0.107572115135193,-0.0648234489440918,-0.138198146724701,0.9528750139132234
2.763212121212121,0.0888194864273071,-0.036083214569091804,0.09411874780654869,0.9528750139132234
2.763818181818182,-0.035721529197692906,0.0118171760559082,0.6928736306190489,0.9528750139132234
2.764424242424242,0.00259878330230712,-0.08877364425659179,0.24979501733779902,0.9528750139132234
2.765030303030303,-0.0884119588851929,-0.16780928878784201,0.0318482399940487,0.9528750139132234
2.765636363636364,0.0193639200210571,-0.0121330192565918,-0.044792385005951306,0.9528750139132234
2.766242424242424,0.239705716896057,0.12198807449340801,0.0725635720252987,0.9528750139132234
2.766848484848485,-0.0237464315414429,0.100432898712158,-0.0759276389122013,0.9528750139132234
2.767454545454546,0.11995474033355699,-0.0121330192565918,-0.0974828146934513,0.9528750139132234
2.768060606060606,-0.0908069784164429,0.0405574104309082,0.019873142337798702,0.9528750139132234
2.768666666666667,0.0193639200210571,0.13156815261840799,0.00789804468154872,0.9528750139132234
2.769272727272727,0.318741361427307,-0.0552433708190918,0.206684665775299,0.9528750139132234
2.769878787878788,0.0241539590835571,0.184258582305908,-0.0184471701622013,0.9528750139132234
2.770484848484848,-0.0812269002914429,-0.0480583122253418,0.0557984353065487,0.9528750139132234
2.771090909090909,-0.0213514120101929,-0.208524620819092,0.09651376733779869,0.9528750139132234
2.7716969696969698,-0.0285364706039429,0.129173133087158,0.0557984353065487,0.9528750139132234
2.77230303030303,-0.033326509666442905,0.0357673713684082,0.163574314212799,0.9528750139132234
2.7729090909090908,0.0840294473648071,-0.10553878097534199,0.000712986087798724,0.9528750139132234
2.773515151515151,0.117559720802307,0.0692976448059082,-0.025632228755951298,0.9528750139132234
2.7741212121212118,0.0241539590835571,0.0645076057434082,0.18512948999404902,0.9528750139132234
2.774727272727273,-0.0141663534164429,-0.00973799972534181,0.0653785134315487,0.9528750139132234
2.7753333333333328,-0.121942232322693,-0.014528038787841799,-0.0471874045372013,0.9528750139132234
2.775939393939394,0.0313390176773071,-0.0121330192565918,0.14441415796279902,0.9528750139132234
2.776545454545455,-0.016561372947692898,0.0645076057434082,0.048613376712798695,0.9528750139132234
2.777151515151515,-0.165052583885193,0.22736893386840798,0.0557984353065487,0.9528750139132234
2.777757575757576,0.139114896583557,0.0477424690246582,0.153994236087799,0.9528750139132234
2.778363636363636,0.0792394083023071,-0.0241081169128418,-0.0591625021934513,0.9528750139132234
2.778969696969697,-0.0261414510726929,-0.09835372238159179,-0.08550771703720131,0.9528750139132234
2.779575757575758,0.0217589395523071,-0.0480583122253418,-0.193283595943451,0.9528750139132234
2.780181818181818,-0.215347994041443,0.054927527618408196,-0.16454336156845098,0.9528750139132234
2.780787878787879,-0.100387056541443,-0.0504533317565918,-0.10466787328720101,0.9528750139132234
2.781393939393939,0.127139798927307,-0.0121330192565918,-0.0208421896934513,0.9528750139132234
2.782,0.110374662208557,0.030977332305908198,0.146809177494049,0.9528750139132234
2.782606060606061,0.12234975986480699,-0.261215050506592,0.18033945093154902,0.9528750139132234
2.783212121212121,0.158275052833557,-0.0504533317565918,0.20428964624404902,0.9528750139132234
2.783818181818182,-0.0476966268539429,0.157913367462158,0.00789804468154872,0.9528750139132234
2.784424242424242,-0.121942232322693,-0.201339562225342,-0.10706289281845101,0.9528750139132234
2.785030303030303,-0.0836219198226929,-0.184574425506592,0.0366382790565487,0.9528750139132234
2.785636363636364,-0.0285364706039429,-0.160624230194092,0.051008396244048695,0.9528750139132234
2.786242424242424,0.227730619239807,-0.0504533317565918,0.14441415796279902,0.9528750139132234
2.786848484848485,-0.0500916463851929,0.07887772293090821,0.0366382790565487,0.9528750139132234
2.787454545454545,-0.224928072166443,0.0237922737121582,0.0869336892127987,0.9528750139132234
2.788060606060606,-0.0261414510726929,-0.0193180778503418,0.13004404077529902,0.9528750139132234
2.788666666666667,-0.105177095603943,-0.0576383903503418,-0.11424795141220101,0.9528750139132234
2.789272727272727,-0.062066744041442905,-0.0312931755065918,0.142019138431549,0.9528750139132234
2.789878787878788,-0.0453016073226929,0.030977332305908198,0.127649021244049,0.9528750139132234
2.790484848484848,0.00020376377105711798,-0.0456632926940918,0.09411874780654869,0.9528750139132234
2.791090909090909,0.117559720802307,-0.016923058319091803,0.31925058374404897,0.9528750139132234
2.79169696969697,0.105584623146057,0.11240799636840801,0.0629834939002987,0.9528750139132234
2.79230303030303,-0.145892427635193,0.09324784011840821,-0.336984767818451,0.9528750139132234
2.792909090909091,-0.0429065877914429,0.0501374885559082,-0.36812002172470104,0.9528750139132234
2.7935151515151517,0.00020376377105711798,-0.12469893722534199,-0.157358302974701,0.9528750139132234
2.794121212121212,-0.167447603416443,0.0501374885559082,0.0366382790565487,0.9528750139132234
2.7947272727272727,0.136719877052307,-0.136674034881592,0.153994236087799,0.9528750139132234
2.795333333333333,-0.035721529197692906,-0.100748741912842,-0.08311269750595131,0.9528750139132234
2.7959393939393937,0.026548978614807102,0.07887772293090821,-0.0232372092247013,0.9528750139132234
2.7965454545454547,0.301976224708557,-0.158229210662842,0.0701685524940487,0.9528750139132234
2.7971515151515147,-0.222533052635193,0.0261872932434082,0.00789804468154872,0.9528750139132234
2.7977575757575757,0.0888194864273071,-0.13188399581909202,0.127649021244049,0.9528750139132234
2.7983636363636357,0.282816068458557,0.0429524299621582,-0.0663475607872013,0.9528750139132234
2.7989696969696967,0.196595365333557,0.0477424690246582,-0.0687425803184513,0.9528750139132234
2.799575757575758,-0.0381165487289429,-0.103143761444092,-0.17891347875595098,0.9528750139132234
2.8001818181818177,0.0169689004898071,0.0453474494934082,-0.11664297094345101,0.9528750139132234
2.800787878787879,0.06965933017730709,0.08127274246215821,0.0869336892127987,0.9528750139132234
2.8013939393939387,-0.327913912010193,-0.0791935661315918,-0.0615575217247013,0.9528750139132234
2.802,-0.0788318807601929,0.0190022346496582,0.0629834939002987,0.9528750139132234
2.802606060606061,0.115164701271057,0.19144364089965799,0.113278904056549,0.9528750139132234
2.803212121212121,0.0145738809585571,0.09564285964965821,-0.0112621115684513,0.9528750139132234
2.803818181818182,0.07205434970855709,-0.0217130973815918,0.0270582009315487,0.9528750139132234
2.804424242424242,0.148694974708557,-0.19175948410034202,0.146809177494049,0.9528750139132234
2.805030303030303,0.0504991739273071,-0.09835372238159179,-0.0016820334434512801,0.9528750139132234
2.805636363636364,-0.0548816854476929,-0.09356368331909179,-0.035212306880951304,0.9528750139132234
2.806242424242424,-0.00458627529144288,-0.153439171600342,0.23542490015029902,0.9528750139132234
2.806848484848485,0.00738882236480712,0.0237922737121582,0.00789804468154872,0.9528750139132234
2.807454545454545,-0.0476966268539429,0.0405574104309082,0.0845386696815487,0.9528750139132234
2.808060606060606,0.206175443458557,-0.141464073944092,0.223449802494049,0.9528750139132234
2.808666666666667,0.057684232521057095,-0.134279015350342,-0.0519774435997013,0.9528750139132234
2.809272727272727,0.0337340372085571,0.248924109649658,-0.0232372092247013,0.9528750139132234
2.809878787878788,0.0816344278335571,0.17228348464965798,0.0126880837440487,0.9528750139132234
2.810484848484848,0.127139798927307,-0.00255294113159181,-0.09029775609970131,0.9528750139132234
2.811090909090909,-0.0860169393539429,-0.134279015350342,-0.00886709203720128,0.9528750139132234
2.81169696969697,-0.131522310447693,-0.0456632926940918,0.0605884743690487,0.9528750139132234
2.81230303030303,0.07205434970855709,0.08606278152465821,-0.0639525412559513,0.9528750139132234
2.812909090909091,-0.057276704978942904,0.052532508087158196,0.14441415796279902,0.9528750139132234
2.8135151515151517,-0.059671724510192904,0.19144364089965799,0.137229099369049,0.9528750139132234
2.814121212121212,0.134324857521057,0.17707352371215798,-0.0495824240684513,0.9528750139132234
2.8147272727272727,-0.143497408103943,-0.0193180778503418,0.13483407983779902,0.9528750139132234
2.815333333333333,0.0792394083023071,-0.103143761444092,0.0557984353065487,0.9528750139132234
2.8159393939393937,0.27802602939605703,-0.09116866378784179,0.108488864994049,0.9528750139132234
2.816545454545455,-0.0836219198226929,0.11959305496215801,0.0725635720252987,0.9528750139132234
2.8171515151515147,-0.018956392478942898,0.0333723518371582,0.0414283181190487,0.9528750139132234
2.817757575757576,-0.0979920370101929,-0.148649132537842,-0.176518459224701,0.9528750139132234
2.8183636363636357,-0.0884119588851929,0.133963172149658,-0.0639525412559513,0.9528750139132234
2.818969696969697,-0.0141663534164429,-0.0121330192565918,0.0629834939002987,0.9528750139132234
2.819575757575758,0.0145738809585571,0.00702713699340819,-0.09029775609970131,0.9528750139132234
2.820181818181818,0.0169689004898071,0.016607215118408198,-0.0328172873497013,0.9528750139132234
2.820787878787879,0.148694974708557,-0.136674034881592,-0.0591625021934513,0.9528750139132234
2.821393939393939,-0.200977876853943,0.0237922737121582,-0.040002345943451305,0.9528750139132234
2.822,-0.143497408103943,0.00463211746215819,-0.15496328344345098,1.4554384824291118
2.822606060606061,-0.035721529197692906,-0.014528038787841799,0.0031080056190487203,1.4554384824291118
2.823212121212121,-0.00698129482269288,0.08845780105590821,0.26895517358779897,1.4554384824291118
2.823818181818182,-0.00458627529144288,-0.13188399581909202,0.43900156030654897,1.4554384824291118
2.824424242424242,-0.174632662010193,-0.141464073944092,0.106093845462799,1.4554384824291118
2.825030303030303,-0.0237464315414429,-0.00734298019409181,0.151599216556549,1.4554384824291118
2.825636363636364,0.0193639200210571,-0.0408732536315918,-0.0687425803184513,1.4554384824291118
2.826242424242424,-0.009376314353942879,-0.0432682731628418,0.0246631814002987,1.4554384824291118
2.826848484848485,0.0193639200210571,-0.0408732536315918,-0.0184471701622013,1.4554384824291118
2.827454545454545,-0.0213514120101929,0.18665360183715798,-0.0567674826622013,1.4554384824291118
2.828060606060606,0.110374662208557,0.373465125274658,0.31925058374404897,1.4554384824291118
2.828666666666667,-0.00458627529144288,0.11001297683715801,0.0749585915565487,1.4554384824291118
2.829272727272727,0.107979642677307,-0.12230391769409199,-0.0974828146934513,1.4554384824291118
2.829878787878788,0.201385404396057,0.0453474494934082,-0.00407705297470128,1.4554384824291118
2.830484848484848,-0.030931490135192898,-0.11272383956909199,-0.123828029537201,1.4554384824291118
2.831090909090909,-0.109967134666443,0.0645076057434082,-0.042397365474701305,1.4554384824291118
2.83169696969697,-0.102782076072693,0.09085282058715821,0.228239841556549,1.4554384824291118
2.83230303030303,0.117559720802307,-0.08637862472534179,-0.123828029537201,1.4554384824291118
2.832909090909091,-0.009376314353942879,0.0597175666809082,0.127649021244049,1.4554384824291118
2.8335151515151518,0.12234975986480699,-0.0624284294128418,0.0581934548377987,1.4554384824291118
2.834121212121212,0.0337340372085571,-0.10553878097534199,0.09411874780654869,1.4554384824291118
2.8347272727272728,-0.0860169393539429,-0.00734298019409181,0.161179294681549,1.4554384824291118
2.835333333333333,0.0193639200210571,0.129173133087158,0.048613376712798695,1.4554384824291118
2.8359393939393938,-0.009376314353942879,0.160308386993408,-0.0687425803184513,1.4554384824291118
2.8365454545454547,0.12234975986480699,0.153123328399658,0.0126880837440487,1.4554384824291118
2.8371515151515148,-0.11475717372894301,0.0213972541809082,0.015083103275298701,1.4554384824291118
2.8377575757575757,-0.0908069784164429,-0.129488976287842,-0.044792385005951306,1.4554384824291118
2.8383636363636358,0.222940580177307,-0.0744035270690918,-0.0711375998497013,1.4554384824291118
2.8389696969696967,0.0672643106460571,0.0381623908996582,-0.121433010005951,1.4554384824291118
2.8395757575757576,0.0481041543960571,-0.11511885910034199,0.046218357181548694,1.4554384824291118
2.8401818181818177,-0.0524866659164429,-0.148649132537842,-0.24836904516220099,1.4554384824291118
2.8407878787878786,0.062474271583557096,0.100432898712158,-0.11664297094345101,1.4554384824291118
2.8413939393939387,0.129534818458557,0.07887772293090821,-0.10227285375595101,1.4554384824291118
2.8419999999999996,0.0385240762710571,-0.0312931755065918,0.17075937280654901,1.4554384824291118
2.842606060606061,-0.145892427635193,0.12438309402465801,0.0294532204627987,1.4554384824291118
2.8432121212121206,-0.0429065877914429,0.09564285964965821,0.0366382790565487,1.4554384824291118
2.843818181818182,0.167855130958557,-0.12469893722534199,0.053403415775298696,1.4554384824291118
2.8444242424242416,-0.0453016073226929,-0.09835372238159179,-0.17412343969345098,1.4554384824291118
2.845030303030303,-0.0812269002914429,0.00702713699340819,-0.042397365474701305,1.4554384824291118
2.845636363636364,-0.0453016073226929,-0.0312931755065918,-0.176518459224701,1.4554384824291118
2.846242424242424,0.012178861427307099,0.00702713699340819,-0.0495824240684513,1.4554384824291118
2.846848484848485,0.0983995645523071,-0.0528483512878418,0.101303806400299,1.4554384824291118
2.847454545454545,0.0385240762710571,0.193838660430908,0.14441415796279902,1.4554384824291118
2.848060606060606,0.0457091348648071,-0.0767985466003418,0.046218357181548694,1.4554384824291118
2.848666666666667,-0.00458627529144288,-0.24684493331909202,0.000712986087798724,1.4554384824291118
2.849272727272727,-0.062066744041442905,0.0405574104309082,-0.035212306880951304,1.4554384824291118
2.849878787878788,-0.0237464315414429,-0.222894738006592,-0.0567674826622013,1.4554384824291118
2.850484848484849,0.141509916114807,-0.158229210662842,-0.0519774435997013,1.4554384824291118
2.851090909090909,0.07684438877105709,0.00223709793090819,0.0222681618690487,1.4554384824291118
2.85169696969697,-0.0812269002914429,-0.014528038787841799,0.434211521244049,1.4554384824291118
2.85230303030303,0.0912145059585571,0.0429524299621582,0.18991952905654902,1.4554384824291118
2.852909090909091,0.0409190958023071,-0.201339562225342,-0.231603908443451,1.4554384824291118
2.853515151515152,-0.00219125576019288,-0.09116866378784179,0.527617282962799,1.4554384824291118
2.854121212121212,-0.00698129482269288,0.0381623908996582,0.125254001712799,1.4554384824291118
2.854727272727273,0.00738882236480712,-0.014528038787841799,-0.00647207250595128,1.4554384824291118
2.855333333333333,-0.0692518026351929,-0.09116866378784179,0.115673923587799,1.4554384824291118
2.8559393939393938,0.026548978614807102,-0.08637862472534179,-0.0016820334434512801,1.4554384824291118
2.8565454545454547,0.131929837989807,0.0237922737121582,0.156389255619049,1.4554384824291118
2.8571515151515148,-0.0405115682601929,-0.141464073944092,-0.0519774435997013,1.4554384824291118
2.857757575757576,-0.0955970174789429,-0.0193180778503418,0.28093027124404896,1.4554384824291118
2.8583636363636358,0.146299955177307,0.07887772293090821,-0.013657131099701299,1.4554384824291118
2.858969696969697,0.0504991739273071,0.160308386993408,-0.08311269750595131,1.4554384824291118
2.859575757575758,-0.36144418544769297,-0.0312931755065918,-0.013657131099701299,1.4554384824291118
2.860181818181818,0.0217589395523071,0.12198807449340801,-0.0591625021934513,1.4554384824291118
2.860787878787879,0.0217589395523071,0.0980378791809082,0.0629834939002987,1.4554384824291118
2.861393939393939,-0.160262544822693,-0.0336881950378418,0.225844822025299,1.4554384824291118
2.862,-0.035721529197692906,-0.0576383903503418,0.115673923587799,1.4554384824291118
2.862606060606061,0.105584623146057,-0.0193180778503418,0.0222681618690487,1.4554384824291118
2.863212121212121,0.0433141153335571,0.0573225471496582,0.218659763431549,1.4554384824291118
2.863818181818182,-0.0836219198226929,-0.0408732536315918,0.051008396244048695,1.4554384824291118
2.864424242424242,-0.112362154197693,0.07169266433715821,0.0869336892127987,1.4554384824291118
2.865030303030303,-0.0237464315414429,0.00702713699340819,0.288115329837799,1.4554384824291118
2.865636363636364,0.12234975986480699,-0.10793380050659199,0.264165134525299,1.4554384824291118
2.866242424242424,-0.0453016073226929,-0.08637862472534179,0.0557984353065487,1.4554384824291118
2.866848484848485,-0.145892427635193,-0.0432682731628418,-0.00647207250595128,1.4554384824291118
2.867454545454545,-0.0548816854476929,0.00463211746215819,0.115673923587799,1.4554384824291118
2.868060606060606,0.00738882236480712,-0.383361046600342,-0.135803127193451,1.4554384824291118
2.868666666666667,-0.102782076072693,-0.26600508956909197,-0.166938381099701,1.4554384824291118
2.869272727272727,0.163065091896057,0.100432898712158,0.146809177494049,1.4554384824291118
2.869878787878788,0.163065091896057,-0.0791935661315918,0.304880466556549,1.4554384824291118
2.870484848484849,0.0049938028335571195,-0.10553878097534199,0.0845386696815487,1.4554384824291118
2.871090909090909,0.170250150489807,0.0573225471496582,0.132439060306549,1.4554384824291118
2.87169696969697,0.0457091348648071,0.016607215118408198,0.0773536110877987,1.4554384824291118
2.87230303030303,-0.129127290916443,-0.0241081169128418,-0.08790273656845131,1.4554384824291118
2.872909090909091,-0.0788318807601929,-0.0767985466003418,-0.0663475607872013,1.4554384824291118
2.873515151515151,0.0792394083023071,-0.198944542694092,0.09890878686904869,1.4554384824291118
2.874121212121212,0.131929837989807,0.0333723518371582,0.0653785134315487,1.4554384824291118
2.874727272727273,0.0504991739273071,-0.0576383903503418,0.0318482399940487,1.4554384824291118
2.875333333333333,0.0936095254898071,-0.12230391769409199,0.08932870874404869,1.4554384824291118
2.875939393939394,-0.00458627529144288,-0.19175948410034202,0.12046396265029899,1.4554384824291118
2.8765454545454547,0.062474271583557096,0.016607215118408198,-0.00407705297470128,1.4554384824291118
2.877151515151515,-0.0405115682601929,-0.0121330192565918,-0.0232372092247013,1.4554384824291118
2.8777575757575757,0.0983995645523071,-0.11990889816284199,0.182734470462799,1.4554384824291118
2.878363636363636,0.15108999423980699,0.215393836212158,-0.11424795141220101,1.4554384824291118
2.8789696969696967,-0.033326509666442905,0.169888465118408,0.132439060306549,1.4554384824291118
2.8795757575757577,-0.133917329978943,0.0429524299621582,0.156389255619049,1.4554384824291118
2.8801818181818177,-0.0524866659164429,-0.00734298019409181,-0.0519774435997013,1.4554384824291118
2.8807878787878787,0.0504991739273071,-0.08877364425659179,0.146809177494049,1.4554384824291118
2.8813939393939387,-0.0524866659164429,-0.148649132537842,0.0677735329627987,1.4554384824291118
