Time (s),Accel X (m/s^2),Accel Y (m/s^2),Accel Z (m/s^2),CI Value
6.1075,0.168084809589386,0.0274074434280396,-0.106145581626892,0.6126249954810503
6.10810569351908,-0.030701811504363997,-0.28394509563446,0.214787035560608,0.6126249954810503
6.108711387038158,-0.021121733379364,0.0992580293655396,0.17646672306060798,0.6126249954810503
6.109317080557238,0.117789399433136,0.18068869342804,0.135751391029358,0.6126249954810503
6.109922774076317,0.170479829120636,-0.16179909954070998,0.049530687904357995,0.6126249954810503
6.110528467595397,0.033963715839386,0.0705177949905396,0.051925707435607996,0.6126249954810503
6.111134161114476,0.036358735370636,0.00585226764678956,0.164491625404358,0.6126249954810503
6.111739854633555,0.045938813495636,-0.0875534940719604,0.075875902748108,0.6126249954810503
6.112345548152635,-0.059442045879364004,-0.11629372844696001,0.159701586341858,0.6126249954810503
6.112951241671714,-0.100157377910614,0.0537526582717896,-0.043875073814392006,0.6126249954810503
6.113556935190793,-0.119317534160614,0.17589865436554,-0.12291071834564199,0.6126249954810503
6.114162628709873,0.129764497089386,-0.13545388469696,-0.012739819908142,0.6126249954810503
6.114768322228952,0.175269868183136,0.13518332233429,0.037555590248108,0.6126249954810503
6.115374015748031,-0.162427885723114,0.15673849811554,0.17167668399810798,0.6126249954810503
6.115979709267111,0.067493989276886,-0.25759988079071,0.035160570716858,0.6126249954810503
6.11658540278619,0.093839204120636,-0.20490945110321,-0.288167066001892,0.6126249954810503
6.11719109630527,-0.10494741697311401,0.18068869342804,0.336933031654358,0.6126249954810503
6.117796789824349,0.07467904787063599,-0.0228879667282104,0.7129510980606081,0.6126249954810503
6.118402483343428,-0.025911772441864,-0.0779734159469604,0.085455980873108,0.6126249954810503
6.119008176862508,0.144134614276886,0.13997336139679,0.183651781654358,0.6126249954810503
6.1196138703815866,0.220775239276886,0.31001974811554,0.229157152748108,0.6126249954810503
6.120219563900666,-0.112132475566864,0.00106222858428956,-0.218711499595642,0.6126249954810503
6.120825257419746,0.012408540058135999,0.00585226764678956,0.020790453529358,0.6126249954810503
6.121430950938825,0.084259125995636,0.12799826374054,0.140541430091858,0.6126249954810503
6.122036644457904,-0.090577299785614,-0.19293435344696,0.17167668399810798,0.6126249954810503
6.122642337976983,0.062703950214386,0.26451437702179,0.16209660587310798,0.6126249954810503
6.123248031496063,-0.097762358379364,0.10165304889679,-0.082195386314392,0.6126249954810503
6.123853725015143,-0.212723295879364,0.0321974824905396,-0.166021069908142,0.6126249954810503
6.124459418534221,-0.009146635723114001,0.22858908405304001,-0.017529858970642,0.6126249954810503
6.125065112053301,0.07707406740188599,-0.0204929471969604,-0.048665112876892,0.6126249954810503
6.125670805572381,0.108209321308136,0.0345925020217896,0.10940617618560801,0.6126249954810503
6.1262764990914595,-0.004356596660614,0.0417775606155396,0.205206957435608,0.6126249954810503
6.126882192610539,0.029173676776886003,0.15194845905304002,-0.07501032772064199,0.6126249954810503
6.127487886129618,-0.049861967754364,0.0777028535842896,0.14772648868560798,0.6126249954810503
6.128093579648698,-0.021121733379364,0.0250124238967896,0.051925707435607996,0.6126249954810503
6.128699273167777,0.105814301776886,0.10644308795929,0.039950609779358,0.6126249954810503
6.129304966686856,-0.045071928691864,-0.16658913860320998,-0.06543024959564199,0.6126249954810503
6.129910660205936,-0.009146635723114001,-0.049233181571960404,-0.230686597251892,0.6126249954810503
6.130516353725015,0.168084809589386,0.0417775606155396,-0.07261530818939199,0.6126249954810503
6.131122047244094,-0.054652006816864,-0.19053933391570999,-0.012739819908142,0.6126249954810503
6.131727740763174,-0.116922514629364,-0.0109128690719604,0.126171312904358,0.6126249954810503
6.132333434282253,0.093839204120636,0.0489626192092896,0.15730656681060798,0.6126249954810503
6.1329391278013325,0.07467904787063599,-0.17377419719696,0.059110766029358,0.6126249954810503
6.133544821320412,-0.023516752910614,-0.0348630643844604,0.126171312904358,0.6126249954810503
6.134150514839491,0.021988618183136,-0.14024392375946,0.035160570716858,0.6126249954810503
6.134756208358571,-0.045071928691864,-0.11150368938446001,0.097431078529358,0.6126249954810503
6.1353619018776495,0.043543793964386,0.017827365303039598,-0.012739819908142,0.6126249954810503
6.135967595396729,0.165689790058136,0.11123312702179,-0.007949780845642,0.6126249954810503
6.136573288915809,-0.052256987285614,0.0920729707717896,0.135751391029358,0.6126249954810503
6.137178982434888,0.038753754901886,-0.0204929471969604,-0.108540601158142,0.6126249954810503
6.137784675953967,0.07707406740188599,-0.12587380657196,-0.010344800376892,0.6126249954810503
6.138390369473046,0.129764497089386,-0.16898415813446,-0.06543024959564199,0.6126249954810503
6.138996062992126,0.026778657245636002,0.0202223848342896,-0.17320612850189201,0.6126249954810503
6.1396017565112055,-0.14087270994186402,-0.00612283000946044,-0.12291071834564199,0.6126249954810503
6.140207450030284,-0.037886870098114,0.0345925020217896,-0.113330640220642,0.6126249954810503
6.140813143549364,0.084259125995636,0.20224386920929002,-0.108540601158142,0.6126249954810503
6.141418837068444,0.045938813495636,0.0537526582717896,0.22676213321685798,0.6126249954810503
6.1420245305875225,0.117789399433136,-0.14263894329071,0.054320726966857996,0.6126249954810503
6.142630224106602,0.227960297870636,0.0489626192092896,0.138146410560608,0.6126249954810503
6.143235917625681,0.187244965839386,0.010642306709289602,0.17167668399810798,0.6126249954810503
6.143841611144761,-0.011541655254364,-0.32945046672821,-0.189971265220642,0.6126249954810503
6.14444730466384,-0.13608267087936401,-0.00851784954071044,0.044740648841857994,0.6126249954810503
6.145052998182919,0.096234223651886,0.0800978731155396,0.291427660560608,0.6126249954810503
6.145658691701999,-0.004356596660614,0.00824728717803956,0.023185473060608,0.6126249954810503
6.146264385221078,-0.004356596660614,-0.0995285917282104,0.080665941810608,0.6126249954810503
6.146870078740157,0.108209321308136,-0.26478493938446,0.006420336341858001,0.6126249954810503
6.147475772259237,-0.071417143535614,-0.09713357219696041,0.521349535560608,0.6126249954810503
6.148081465778316,0.050728852558136,-0.09713357219696041,0.408783617591858,0.6126249954810503
6.1486871592973955,0.139344575214386,-0.16658913860320998,-0.012739819908142,0.6126249954810503
6.149292852816475,-0.069022124004364,-0.20011941204071,0.238737230873108,0.6126249954810503
6.149898546335554,0.014803559589386,-0.19772439250946,-0.07740534725189199,0.6126249954810503
6.150504239854634,-0.076207182598114,-0.11868874797821,-0.041480054283142005,0.6126249954810503
6.1511099333737125,-0.080997221660614,-0.14024392375946,0.126171312904358,0.6126249954810503
6.151715626892792,0.194430024433136,-0.0564182401657104,0.11419621524810801,0.6126249954810503
6.152321320411872,0.120184418964386,0.0585426973342896,-0.0031597417831420002,0.6126249954810503
6.152927013930951,-0.033096831035614005,0.0609377168655396,0.063900805091858,0.6126249954810503
6.15353270745003,-0.006751616191864,-0.030073025321960403,0.063900805091858,0.6126249954810503
6.154138400969109,0.021988618183136,0.00824728717803956,-0.0031597417831420002,0.6126249954810503
6.154744094488189,0.182454926776886,-0.0324680448532104,0.032765551185608,0.6126249954810503
6.1553497880072685,0.117789399433136,-0.0396531034469604,0.04234562931060799,0.6126249954810503
6.155955481526347,0.002828461933136,0.0130373262405396,0.001630297279358,0.6126249954810503
6.156561175045427,0.103419282245636,0.19505881061554,-0.039085034751892005,0.6126249954810503
6.157166868564507,0.012408540058135999,-0.0659983182907104,-0.012739819908142,0.6126249954810503
6.1577725620835855,0.017198579120636,-0.16179909954070998,0.049530687904357995,0.6126249954810503
6.158378255602665,-0.076207182598114,0.039382541084289596,0.04234562931060799,0.6126249954810503
6.158983949121744,0.000433442401886003,-0.0636032987594604,0.011210375404358,0.6126249954810503
6.159589642640824,-0.119317534160614,-0.0396531034469604,0.020790453529358,0.6126249954810503
6.160195336159903,0.062703950214386,-0.12347878704071,0.10461613712310801,0.6126249954810503
6.160801029678982,0.16329477052688599,-0.10192361125946,0.229157152748108,0.6126249954810503
6.161406723198062,-0.143267729473114,-0.013307888603210399,0.324957933998108,0.6126249954810503
6.162012416717141,0.021988618183136,-0.027678005790710402,0.10222111759185801,0.6126249954810503
6.16261811023622,0.024383637714386,-0.18814431438446,-0.163626050376892,0.6126249954810503
6.1632238037553,0.215985200214386,0.10165304889679,-0.163626050376892,0.6126249954810503
6.163829497274379,0.220775239276886,0.0872829317092896,-0.096565503501892,0.6126249954810503
6.1644351907934585,-0.203143217754364,-0.049233181571960404,-0.108540601158142,0.6126249954810503
6.165040884312538,-0.028306791973114,-0.0252829862594604,0.10222111759185801,0.6126249954810503
6.165646577831617,0.374056489276886,-0.00612283000946044,-0.029504956626892,0.6126249954810503
6.166252271350697,0.168084809589386,-0.0444431425094604,-0.221106519126892,0.6126249954810503
6.166857964869775,0.048333833026886,-0.15461404094696,0.035160570716858,0.6126249954810503
6.167463658388855,0.230355317401886,0.0345925020217896,0.130961351966858,0.6126249954810503
6.168069351907935,0.050728852558136,-0.0157029081344604,0.063900805091858,0.6126249954810503
6.168675045427014,0.129764497089386,-0.09473855266571041,0.154911547279358,0.6126249954810503
6.169280738946093,0.086654145526886,-0.051628201103210404,0.411178637123108,0.6126249954810503
6.169886432465172,0.000433442401886003,0.14715841999054002,-0.034294995689392004,0.6126249954810503
6.170492125984252,0.115394379901886,0.0896779512405396,0.164491625404358,0.6126249954810503
6.1710978195033315,0.084259125995636,0.19745383014679002,0.277057543373108,0.6126249954810503
6.17170351302241,0.093839204120636,-0.11389870891571001,-0.024714917564392,0.6126249954810503
6.17230920654149,0.031568696308136,-0.22167458782195998,0.056715746498108,0.6126249954810503
6.17291490006057,-0.028306791973114,-0.00133279094696044,0.092641039466858,0.6126249954810503
6.173520593579648,-0.023516752910614,-0.18574929485320998,0.099826098060608,0.6126249954810503
6.174126287098728,0.110604340839386,-0.0372580839157104,-0.039085034751892005,0.6126249954810503
6.174731980617807,-0.092972319316864,-0.13784890422821,0.10222111759185801,0.6126249954810503
6.175337674136887,0.031568696308136,-0.10431863079071,0.006420336341858001,0.6126249954810503
6.175943367655966,0.285440766620636,0.0441725801467896,-0.257031812095642,0.6126249954810503
6.176549061175045,0.091444184589386,0.10404806842804,-0.022319898033142,0.6126249954810503
6.177154754694125,0.019593598651886,-0.11868874797821,-0.204341382408142,0.6126249954810503
6.1777604482132045,0.021988618183136,0.0202223848342896,0.358488207435608,0.6126249954810503
6.178366141732283,-0.148057768535614,0.25732931842803997,0.439918871498108,0.6126249954810503
6.178971835251363,-0.054652006816864,-0.0180979276657104,-0.292957105064392,0.6126249954810503
6.179577528770442,-0.004356596660614,0.0657277559280396,-0.043875073814392006,0.6126249954810503
6.180183222289521,-0.083392241191864,0.25972433795929,-0.120515698814392,0.6126249954810503
6.180788915808601,-0.073812163066864,-0.21448952922821,0.15730656681060798,0.6126249954810503
6.18139460932768,0.067493989276886,-0.22167458782195998,0.150121508216858,0.6126249954810503
6.18200030284676,0.093839204120636,-0.0803684354782104,0.121381273841858,0.6126249954810503
6.182605996365838,-0.040281889629364,-0.0851584745407104,0.28424260196685797,0.6126249954810503
6.183211689884918,0.22317025880813599,0.0441725801467896,0.286637621498108,0.6126249954810503
6.183817383403998,0.067493989276886,-0.15940408000946,-0.019924878501892,0.6126249954810503
6.184423076923077,-0.088182280254364,-0.0779734159469604,-0.036690015220642004,0.6126249954810503
6.185028770442156,0.041148774433136,-0.0875534940719604,-0.094170483970642,0.6126249954810503
6.185634463961236,0.043543793964386,0.0321974824905396,0.092641039466858,0.6126249954810503
6.186240157480315,0.086654145526886,-0.013307888603210399,0.090246019935608,0.6126249954810503
6.186845850999394,0.103419282245636,-0.0851584745407104,-0.31451228084564203,0.6126249954810503
6.187451544518473,0.261490571308136,-0.0372580839157104,0.051925707435607996,0.6126249954810503
6.188057238037553,0.120184418964386,-0.0468381620407104,0.174071703529358,0.6126249954810503
6.188662931556633,0.079469086933136,-0.0396531034469604,0.056715746498108,0.6126249954810503
6.189268625075711,0.105814301776886,-0.00851784954071044,0.092641039466858,0.6126249954810503
6.189874318594791,0.079469086933136,0.0513576387405396,0.090246019935608,0.6126249954810503
6.19048001211387,0.041148774433136,0.0537526582717896,0.023185473060608,0.6126249954810503
6.19108570563295,0.15850473146438598,0.13039328327179,-0.043875073814392006,0.6126249954810503
6.191691399152029,-0.260623686504364,0.0345925020217896,-0.110935620689392,0.6126249954810503
6.192297092671108,-0.13608267087936401,0.12320822467803999,-0.053455151939392,0.6126249954810503
6.192902786190188,0.117789399433136,0.15194845905304002,0.11180119571685801,0.6126249954810503
6.193508479709267,-0.042676909160614,0.14236838092804002,0.099826098060608,0.6126249954810503
6.194114173228346,0.101024262714386,-0.0899485136032104,0.016000414466858,0.6126249954810503
6.194719866747426,0.002828461933136,0.00106222858428956,-0.130095776939392,0.6126249954810503
6.195325560266505,-0.157637846660614,0.13278830280304002,0.013605394935608,0.6126249954810503
6.195931253785584,-0.016331694316863998,-0.17377419719696,0.006420336341858001,0.6126249954810503
6.196536947304664,0.06988900880813599,-0.0564182401657104,-0.022319898033142,0.6126249954810503
6.197142640823743,-0.078602202129364,-0.0899485136032104,0.032765551185608,0.6126249954810503
6.197748334342823,-0.169612944316864,0.0465675996780396,0.142936449623108,0.6126249954810503
6.198354027861902,-0.040281889629364,0.010642306709289602,0.054320726966857996,0.6126249954810503
6.198959721380981,0.235145356464386,-0.16898415813446,-0.156440991783142,0.6126249954810503
6.199565414900061,0.026778657245636002,0.15913351764679,-0.091775464439392,0.6126249954810503
6.2001711084191395,-0.047466948223114,-0.0995285917282104,0.10222111759185801,0.6126249954810503
6.200776801938219,0.136949555683136,-0.0612082792282104,0.130961351966858,0.6126249954810503
6.201382495457299,0.089049165058136,-0.16658913860320998,0.087851000404358,0.6126249954810503
6.201988188976378,0.031568696308136,-0.0612082792282104,0.035160570716858,0.6126249954810503
6.202593882495457,-0.028306791973114,0.24295920124054002,-0.007949780845642,0.6126249954810503
6.203199576014536,0.036358735370636,0.0705177949905396,0.138146410560608,0.6126249954810503
6.203805269533616,0.012408540058135999,0.0729128145217896,-0.039085034751892005,0.6126249954810503
6.204410963052696,-0.164822905254364,-0.0420481229782104,0.159701586341858,0.6126249954810503
6.205016656571774,-0.076207182598114,-0.0324680448532104,-0.089380444908142,0.6126249954810503
6.205622350090854,-0.011541655254364,-0.10671365032196001,-0.12291071834564199,0.6126249954810503
6.206228043609934,0.055518891620635995,0.0130373262405396,0.023185473060608,0.6126249954810503
6.2068337371290125,0.031568696308136,-0.0899485136032104,-0.189971265220642,0.6126249954810503
6.207439430648092,0.172874848651886,-0.030073025321960403,0.135751391029358,0.6126249954810503
6.208045124167171,-0.057047026348114004,-0.0612082792282104,0.6363104730606081,0.6126249954810503
6.208650817686251,-0.160032866191864,-0.29113015422821004,0.205206957435608,0.6126249954810503
6.2092565112053295,0.055518891620635995,0.0130373262405396,-0.053455151939392,0.6126249954810503
6.209862204724409,-0.172007963848114,-0.0803684354782104,0.11180119571685801,0.6126249954810503
6.210467898243489,0.053123872089386,-0.34621560344696,-0.036690015220642004,0.6126249954810503
6.211073591762568,0.196825043964386,-0.29113015422821004,-0.048665112876892,0.6126249954810503
6.211679285281647,0.053123872089386,0.0681227754592896,-0.096565503501892,0.6126249954810503
6.212284978800727,0.124974458026886,0.029802462959289597,0.17167668399810798,0.6126249954810503
6.212890672319806,0.031568696308136,0.0226174043655396,0.068690844154358,0.6126249954810503
6.2134963658388855,0.062703950214386,0.25493429889679003,-0.130095776939392,0.6126249954810503
6.214102059357965,0.050728852558136,-0.0731833768844604,0.016000414466858,0.6126249954810503
6.214707752877044,-0.021121733379364,-0.10192361125946,-0.0055547613143919995,0.6126249954810503
6.215313446396124,0.153714692401886,0.0417775606155396,0.224367113685608,0.6126249954810503
6.2159191399152025,0.194430024433136,0.0944679903030396,0.315377855873108,0.6126249954810503
6.216524833434282,0.122579438495636,-0.0875534940719604,-0.029504956626892,0.6126249954810503
6.217130526953362,0.091444184589386,-0.10192361125946,-0.019924878501892,0.6126249954810503
6.217736220472441,0.021988618183136,0.0896779512405396,0.267477465248108,0.6126249954810503
6.21834191399152,0.115394379901886,-0.051628201103210404,0.083060961341858,0.6126249954810503
6.2189476075106,0.026778657245636002,-0.0588132596969604,0.018395433998108,0.6126249954810503
6.219553301029679,0.120184418964386,0.24056418170929,0.10701115665435801,0.6126249954810503
6.220158994548758,0.091444184589386,0.16392355670929,0.035160570716858,0.6126249954810503
6.220764688067838,0.007618500995636,0.00106222858428956,-0.120515698814392,0.6126249954810503
6.221370381586917,0.086654145526886,0.0657277559280396,-0.149255933189392,0.6126249954810503
6.221976075105996,-0.124107573223114,-0.17377419719696,0.085455980873108,0.6126249954810503
6.2225817686250755,-0.116922514629364,0.12560324420929,-0.063035230064392,0.6126249954810503
6.223187462144155,0.057913911151885995,-0.0204929471969604,-0.17799616756439202,0.6126249954810503
6.223793155663234,0.019593598651886,0.0321974824905396,0.092641039466858,0.6126249954810503
6.224398849182314,-0.009146635723114001,0.0321974824905396,0.138146410560608,0.6126249954810503
6.225004542701393,-0.047466948223114,-0.14742898235320998,-0.14207087459564202,0.6126249954810503
6.225610236220472,0.045938813495636,0.22379904499054,0.078270922279358,0.6126249954810503
6.226215929739552,-0.028306791973114,0.0274074434280396,0.10940617618560801,0.6126249954810503
6.226821623258631,0.033963715839386,-0.0324680448532104,-0.125305737876892,0.6126249954810503
6.22742731677771,0.21838021974563598,-0.049233181571960404,-0.055850171470642,0.6126249954810503
6.22803301029679,0.060308930683135996,-0.0372580839157104,-0.036690015220642004,0.6126249954810503
6.228638703815869,-0.001961577129364,-0.0109128690719604,-0.127700757408142,0.6126249954810503
6.2292443973349485,0.050728852558136,-0.13066384563445999,0.037555590248108,0.6126249954810503
6.229850090854028,0.148924653339386,-0.049233181571960404,-0.086985425376892,0.6126249954810503
6.230455784373107,0.093839204120636,0.00824728717803956,-0.161231030845642,0.6126249954810503
6.231061477892187,-0.028306791973114,0.10644308795929,0.013605394935608,0.6126249954810503
6.231667171411266,0.134554536151886,0.21182394733429002,0.04234562931060799,0.6126249954810503
6.232272864930345,0.036358735370636,-0.12347878704071,0.001630297279358,0.6126249954810503
6.232878558449425,-0.066627104473114,-0.13545388469696,-0.094170483970642,0.6126249954810503
6.233484251968504,-0.009146635723114001,-0.0252829862594604,0.183651781654358,0.6126249954810503
6.234089945487583,-0.083392241191864,0.11602316608429,0.073480883216858,0.6126249954810503
6.234695639006663,0.148924653339386,-0.0827634550094604,-0.019924878501892,0.6126249954810503
6.235301332525742,0.254305512714386,0.017827365303039598,-0.082195386314392,0.6126249954810503
6.235907026044821,0.148924653339386,0.0513576387405396,-0.051060132408142,0.6126249954810503
6.236512719563901,0.048333833026886,-0.14263894329071,-0.094170483970642,0.6126249954810503
6.23711841308298,-0.006751616191864,-0.0444431425094604,-0.223501538658142,0.6126249954810503
6.237724106602059,-0.10494741697311401,-0.0636032987594604,0.14772648868560798,0.6126249954810503
6.238329800121139,-0.207933256816864,0.0872829317092896,0.075875902748108,0.6126249954810503
6.238935493640218,0.053123872089386,0.17589865436554,0.056715746498108,0.6126249954810503
6.239541187159297,-0.023516752910614,0.0585426973342896,0.071085863685608,0.6126249954810503
6.240146880678377,-0.037886870098114,-0.14503396282196,0.083060961341858,0.6126249954810503
6.240752574197456,0.041148774433136,-0.00612283000946044,0.039950609779358,0.6126249954810503
6.241358267716535,0.031568696308136,0.0465675996780396,-0.019924878501892,0.6126249954810503
6.241963961235615,-0.176798002910614,-0.12587380657196,0.133356371498108,0.6126249954810503
6.242569654754694,-0.227093413066864,-0.0875534940719604,-0.017529858970642,0.6126249954810503
6.243175348273773,-0.157637846660614,0.0561476778030396,0.188441820716858,0.6126249954810503
6.243781041792853,-0.011541655254364,0.17350363483429002,-0.007949780845642,0.6126249954810503
6.244386735311932,0.285440766620636,-0.030073025321960403,0.044740648841857994,0.6126249954810503
6.244992428831012,0.081864106464386,-0.00372781047821044,0.020790453529358,0.6126249954810503
6.245598122350091,-0.042676909160614,0.20703390827179002,-0.063035230064392,0.6126249954810503
6.24620381586917,0.031568696308136,-0.051628201103210404,0.073480883216858,0.6126249954810503
6.24680950938825,-0.064232084941864,-0.0588132596969604,0.049530687904357995,0.6126249954810503
6.247415202907329,-0.009146635723114001,0.0489626192092896,0.054320726966857996,0.6126249954810503
6.248020896426408,-0.057047026348114004,0.23816916217804002,0.073480883216858,0.6126249954810503
6.248626589945488,0.019593598651886,0.13039328327179,0.083060961341858,0.6126249954810503
6.249232283464567,-0.054652006816864,-0.0588132596969604,-0.161231030845642,0.6126249954810503
6.249837976983646,0.029173676776886003,-0.15700906047820998,-0.154045972251892,0.6126249954810503
6.250443670502726,0.196825043964386,0.0465675996780396,-0.103750562095642,0.6126249954810503
6.251049364021805,-0.198353178691864,0.15913351764679,0.04234562931060799,0.6126249954810503
6.251655057540884,0.081864106464386,-0.15700906047820998,0.068690844154358,0.6126249954810503
6.252260751059964,0.103419282245636,-0.0109128690719604,0.016000414466858,0.6126249954810503
6.252866444579043,0.012408540058135999,-0.18814431438446,-0.051060132408142,0.6126249954810503
6.253472138098122,0.065098969745636,-0.16898415813446,0.23155217227935798,0.6126249954810503
6.254077831617202,-0.040281889629364,-0.15940408000946,0.118986254310608,0.6126249954810503
6.254683525136281,0.010013520526886,0.0609377168655396,0.15251652774810798,0.6126249954810503
6.25528921865536,0.043543793964386,0.0345925020217896,0.164491625404358,0.6126249954810503
6.25589491217444,-0.004356596660614,-0.0612082792282104,-0.0031597417831420002,0.6126249954810503
6.256500605693519,0.287835786151886,-0.0636032987594604,0.10940617618560801,0.6126249954810503
6.257106299212598,0.136949555683136,-0.0851584745407104,-0.19236628475189202,0.6126249954810503
6.257711992731678,-0.078602202129364,0.23577414264679,0.013605394935608,0.6126249954810503
6.258317686250757,0.07707406740188599,0.039382541084289596,0.133356371498108,0.6126249954810503
6.258923379769836,-0.028306791973114,-0.0324680448532104,0.154911547279358,0.6126249954810503
6.259529073288916,-0.035491850566864006,-0.0180979276657104,0.253107348060608,0.6126249954810503
6.260134766807995,-0.10973745603561401,-0.0707883573532104,0.004025316810608,0.6126249954810503
6.260740460327075,0.144134614276886,-0.0899485136032104,-0.06543024959564199,0.6126249954810503
6.261346153846154,0.041148774433136,-0.13545388469696,0.095036058998108,0.6126249954810503
6.261951847365233,-0.035491850566864006,-0.21927956829071,-0.012739819908142,0.6126249954810503
6.262557540884313,-0.052256987285614,-0.0707883573532104,-0.063035230064392,0.6126249954810503
6.263163234403392,-0.176798002910614,0.0441725801467896,0.037555590248108,0.6126249954810503
6.263768927922471,0.07707406740188599,0.0561476778030396,0.195626879310608,0.6126249954810503
6.264374621441551,0.062703950214386,-0.13305886516571,0.020790453529358,0.6126249954810503
6.26498031496063,0.105814301776886,-0.00372781047821044,-0.053455151939392,0.6126249954810503
6.265586008479709,0.019593598651886,-0.0109128690719604,0.267477465248108,0.6126249954810503
6.266191701998789,0.091444184589386,-0.26717995891571,0.016000414466858,0.6126249954810503
6.266797395517868,0.180059907245636,0.0202223848342896,-0.106145581626892,0.6126249954810503
6.2674030890369465,-0.028306791973114,0.16631857624054,0.315377855873108,0.6126249954810503
6.268008782556027,0.000433442401886003,-0.12826882610321,0.5692499261856081,0.6126249954810503
6.268614476075106,-0.143267729473114,-0.0755783964157104,0.025580492591858,0.6126249954810503
6.269220169594185,-0.080997221660614,-0.0875534940719604,-0.055850171470642,0.6126249954810503
6.269825863113265,-0.10973745603561401,0.00106222858428956,-0.000764722251892003,0.6126249954810503
6.270431556632344,-0.191168120098114,-0.0827634550094604,-0.115725659751892,0.6126249954810503
6.271037250151423,0.067493989276886,0.017827365303039598,0.130961351966858,0.6126249954810503
6.271642943670503,-0.040281889629364,-0.0612082792282104,-0.027109937095642,0.6126249954810503
6.272248637189582,-0.059442045879364004,-0.15461404094696,0.013605394935608,0.6126249954810503
6.272854330708661,-0.047466948223114,0.41061056842804,0.11180119571685801,0.6126249954810503
6.273460024227741,-0.045071928691864,-0.0324680448532104,-0.14686091365814202,0.6126249954810503
6.2740657177468195,0.170479829120636,-0.0851584745407104,0.027975512123108,0.6126249954810503
6.274671411265899,-0.054652006816864,0.11123312702179,0.291427660560608,0.6126249954810503
6.275277104784979,-0.016331694316863998,-0.15940408000946,-0.07740534725189199,0.6126249954810503
6.275882798304058,-0.100157377910614,-0.12347878704071,-0.086985425376892,0.6126249954810503
6.2764884918231365,0.014803559589386,-0.0324680448532104,0.063900805091858,0.6126249954810503
6.277094185342217,0.278255708026886,0.0896779512405396,0.142936449623108,0.6126249954810503
6.277699878861296,-0.14087270994186402,-0.051628201103210404,-0.055850171470642,0.6126249954810503
6.278305572380376,-0.061837065410614005,-0.0923435331344604,-0.022319898033142,0.6126249954810503
6.278911265899455,-0.035491850566864006,-0.0540232206344604,0.011210375404358,0.6126249954810503
6.279516959418534,-0.143267729473114,-0.21688454875945998,-0.000764722251892003,0.6126249954810503
6.280122652937614,-0.069022124004364,0.0633327363967896,0.18604680118560799,0.6126249954810503
6.2807283464566925,0.060308930683135996,-0.15221902141570998,-0.120515698814392,0.6126249954810503
6.281334039975772,-0.061837065410614005,-0.12826882610321,0.078270922279358,0.6126249954810503
6.281939733494852,-0.011541655254364,0.017827365303039598,0.133356371498108,0.6126249954810503
6.282545427013931,-0.045071928691864,-0.0468381620407104,0.049530687904357995,0.6126249954810503
6.2831511205330095,-0.011541655254364,0.10883810749054,0.128566332435608,0.6126249954810503
6.28375681405209,0.079469086933136,-0.0779734159469604,-0.015134839439391999,0.6126249954810503
6.284362507571169,-0.025911772441864,-0.0755783964157104,-0.029504956626892,0.6126249954810503
6.284968201090248,-0.033096831035614005,-0.030073025321960403,-0.07740534725189199,0.6126249954810503
6.285573894609328,-0.143267729473114,0.0202223848342896,-0.031899976158142,0.6126249954810503
6.286179588128407,0.055518891620635995,0.0537526582717896,0.073480883216858,0.6126249954810503
6.286785281647486,0.033963715839386,0.15434347858429,0.068690844154358,0.6126249954810503
6.2873909751665655,-0.018726713848113998,0.08488791217803959,0.004025316810608,0.6126249954810503
6.287996668685645,0.084259125995636,-0.051628201103210404,0.037555590248108,0.6126249954810503
6.288602362204724,-0.033096831035614005,0.00824728717803956,0.11659123477935801,0.6126249954810503
6.289208055723804,-0.054652006816864,-0.15700906047820998,-0.096565503501892,0.6126249954810503
6.2898137492428825,0.096234223651886,-0.0899485136032104,-0.07501032772064199,0.6126249954810503
6.290419442761962,-0.018726713848113998,-0.0899485136032104,0.183651781654358,0.6126249954810503
6.291025136281042,-0.085787260723114,0.00345724811553956,0.22197209415435798,0.6126249954810503
6.291630829800121,0.029173676776886003,0.0872829317092896,-0.043875073814392006,0.6126249954810503
6.2922365233192,-0.049861967754364,-0.15461404094696,-0.055850171470642,0.6126249954810503
6.29284221683828,-0.100157377910614,-0.0923435331344604,0.078270922279358,0.6126249954810503
6.293447910357359,0.103419282245636,0.00106222858428956,0.023185473060608,0.6126249954810503
6.2940536038764385,0.170479829120636,-0.0731833768844604,-0.086985425376892,0.6126249954810503
6.294659297395518,0.172874848651886,0.0130373262405396,-0.091775464439392,0.6126249954810503
6.295264990914597,0.136949555683136,-0.0444431425094604,0.068690844154358,0.6126249954810503
6.295870684433677,-0.227093413066864,-0.16419411907196,-0.14207087459564202,0.6126249954810503
6.2964763779527555,-0.004356596660614,0.029802462959289597,-0.31451228084564203,0.6126249954810503
6.297082071471835,-0.164822905254364,0.0345925020217896,-0.051060132408142,0.6126249954810503
6.297687764990915,0.002828461933136,-0.0252829862594604,0.5141644769668581,0.6126249954810503
6.298293458509994,0.160899750995636,0.19505881061554,0.332142992591858,0.6126249954810503
6.298899152029073,-0.19595815916061401,0.11362814655304,0.051925707435607996,0.6126249954810503
6.299504845548153,0.206405122089386,-0.19532937297821,0.118986254310608,0.6126249954810503
6.300110539067232,0.295020844745636,0.0274074434280396,0.18604680118560799,0.6126249954810503
6.300716232586311,0.053123872089386,-0.0899485136032104,0.083060961341858,0.6126249954810503
6.301321926105391,0.136949555683136,-0.18095925579070998,0.17646672306060798,0.6126249954810503
6.30192761962447,0.033963715839386,-0.049233181571960404,0.22676213321685798,0.6126249954810503
6.302533313143549,-0.188773100566864,-0.027678005790710402,0.032765551185608,0.6126249954810503
6.303139006662629,-0.037886870098114,0.0489626192092896,0.097431078529358,0.6126249954810503
6.303744700181708,0.029173676776886003,0.12320822467803999,0.22197209415435798,0.6126249954810503
6.304350393700787,0.177664887714386,0.08488791217803959,0.080665941810608,0.6126249954810503
6.304956087219867,0.017198579120636,-0.11868874797821,-0.228291577720642,0.6126249954810503
6.305561780738946,0.012408540058135999,-0.09473855266571041,0.004025316810608,0.6126249954810503
6.306167474258025,0.041148774433136,0.0489626192092896,0.150121508216858,0.6126249954810503
6.306773167777105,0.134554536151886,0.0992580293655396,-0.027109937095642,0.6126249954810503
6.307378861296184,0.045938813495636,-0.0348630643844604,-0.007949780845642,0.6126249954810503
6.307984554815263,-0.198353178691864,-0.14742898235320998,0.18125676212310798,0.6126249954810503
6.308590248334343,0.172874848651886,-0.027678005790710402,0.209996996498108,0.6126249954810503
6.309195941853422,0.101024262714386,-0.12108376750946,0.15730656681060798,0.6126249954810503
6.3098016353725015,0.012408540058135999,-0.0468381620407104,-0.053455151939392,0.6126249954810503
6.310407328891581,0.151319672870636,0.0633327363967896,-0.091775464439392,0.6126249954810503
6.31101302241066,-0.054652006816864,-0.0324680448532104,-0.07740534725189199,0.6126249954810503
6.31161871592974,-0.013936674785614,0.17829367389679002,-0.07501032772064199,0.6126249954810503
6.312224409448819,-0.097762358379364,-0.13545388469696,0.080665941810608,0.6126249954810503
6.312830102967898,-0.143267729473114,-0.12587380657196,-0.024714917564392,0.6126249954810503
6.313435796486978,-0.112132475566864,0.11602316608429,0.11419621524810801,0.6126249954810503
6.314041490006057,-0.042676909160614,-0.0157029081344604,0.097431078529358,0.6126249954810503
6.314647183525136,0.124974458026886,-0.09713357219696041,-0.161231030845642,0.6126249954810503
6.315252877044216,0.204010102558136,0.0513576387405396,0.049530687904357995,0.6126249954810503
6.315858570563295,0.093839204120636,0.0537526582717896,0.006420336341858001,0.6126249954810503
6.316464264082374,0.122579438495636,-0.051628201103210404,-0.168416089439392,0.6126249954810503
6.317069957601454,0.134554536151886,0.0537526582717896,0.063900805091858,0.6126249954810503
6.317675651120533,0.000433442401886003,0.12081320514679,0.10940617618560801,0.6126249954810503
6.318281344639612,0.024383637714386,0.00585226764678956,-0.046270093345642006,0.6126249954810503
6.318887038158692,0.021988618183136,-0.25759988079071,0.035160570716858,0.6126249954810503
6.319492731677771,0.057913911151885995,-0.11150368938446001,0.126171312904358,0.6126249954810503
6.32009842519685,0.237540375995636,-0.00612283000946044,0.202811937904358,0.6126249954810503
6.32070411871593,0.012408540058135999,-0.0324680448532104,-0.15165095272064202,0.6126249954810503
6.321309812235009,-0.028306791973114,-0.0612082792282104,-0.218711499595642,0.6126249954810503
6.321915505754088,0.043543793964386,0.14236838092804002,0.130961351966858,0.6126249954810503
6.322521199273168,-0.119317534160614,-0.051628201103210404,0.087851000404358,0.6126249954810503
6.323126892792247,0.060308930683135996,-0.0683933378219604,-0.041480054283142005,0.6126249954810503
6.323732586311326,0.177664887714386,0.0202223848342896,-0.06543024959564199,0.6126249954810503
6.324338279830406,0.041148774433136,-0.14263894329071,-0.048665112876892,0.6126249954810503
6.324943973349485,-0.083392241191864,0.015432345771789601,0.073480883216858,0.6126249954810503
6.325549666868565,0.160899750995636,0.0441725801467896,0.10461613712310801,0.6126249954810503
6.326155360387644,0.120184418964386,0.0800978731155396,0.523744555091858,0.6126249954810503
6.326761053906723,0.079469086933136,0.0226174043655396,0.667445726966858,0.6126249954810503
6.327366747425803,0.254305512714386,0.017827365303039598,-0.051060132408142,0.6126249954810503
6.327972440944882,-0.033096831035614005,0.0896779512405396,0.063900805091858,0.6126249954810503
6.328578134463961,0.038753754901886,-0.0755783964157104,0.10940617618560801,0.6126249954810503
6.329183827983041,-0.011541655254364,-0.00851784954071044,0.011210375404358,0.6126249954810503
6.32978952150212,-0.10255239744186401,0.0705177949905396,0.15730656681060798,0.6126249954810503
6.330395215021199,0.060308930683135996,-0.09713357219696041,0.035160570716858,0.6126249954810503
6.331000908540279,-0.186378081035614,-0.15461404094696,0.016000414466858,0.6126249954810503
6.331606602059358,0.062703950214386,-0.0923435331344604,0.118986254310608,0.6126249954810503
6.332212295578437,0.096234223651886,0.12799826374054,0.071085863685608,0.6126249954810503
6.332817989097517,0.096234223651886,0.17110861530304,0.092641039466858,0.6126249954810503
6.333423682616596,-0.14087270994186402,-0.0875534940719604,0.133356371498108,0.6126249954810503
6.334029376135675,-0.10494741697311401,-0.0372580839157104,0.118986254310608,0.6126249954810503
6.334635069654755,0.029173676776886003,0.13518332233429,0.174071703529358,0.6126249954810503
6.335240763173834,-0.083392241191864,0.00585226764678956,0.123776293373108,0.6126249954810503
6.335846456692913,-0.076207182598114,0.015432345771789601,0.092641039466858,0.6126249954810503
6.336452150211993,0.122579438495636,0.0226174043655396,0.068690844154358,0.6126249954810503
6.337057843731072,0.043543793964386,-0.0755783964157104,0.118986254310608,0.6126249954810503
6.337663537250151,-0.049861967754364,0.0705177949905396,0.097431078529358,0.6126249954810503
6.338269230769231,-0.064232084941864,0.0992580293655396,0.020790453529358,0.6126249954810503
6.33887492428831,-0.145662749004364,0.0681227754592896,0.025580492591858,0.6126249954810503
6.339480617807389,0.103419282245636,-0.0372580839157104,0.054320726966857996,0.6126249954810503
6.340086311326469,-0.009146635723114001,0.11362814655304,0.001630297279358,0.6126249954810503
6.340692004845548,-0.035491850566864006,-0.0228879667282104,0.016000414466858,0.6126249954810503
6.3412976983646265,0.038753754901886,-0.10192361125946,0.097431078529358,0.6126249954810503
6.341903391883707,0.134554536151886,0.0321974824905396,0.054320726966857996,0.6126249954810503
6.342509085402786,0.103419282245636,-0.18574929485320998,-0.029504956626892,0.6126249954810503
6.343114778921866,0.103419282245636,-0.12826882610321,-0.199551343345642,0.6126249954810503
6.343720472440945,-0.009146635723114001,0.039382541084289596,-0.139675855064392,0.6126249954810503
6.344326165960024,-0.148057768535614,0.11841818561554,-0.113330640220642,0.6126249954810503
6.344931859479104,0.081864106464386,0.0753078340530396,-0.166021069908142,0.6126249954810503
6.345537552998183,0.026778657245636002,-0.12347878704071,0.219577074623108,0.6126249954810503
6.346143246517262,0.144134614276886,-0.28394509563446,-0.019924878501892,0.6126249954810503
6.346748940036342,0.144134614276886,-0.17377419719696,-0.048665112876892,0.6126249954810503
6.347354633555421,0.029173676776886003,0.00106222858428956,0.027975512123108,0.6126249954810503
6.3479603270744995,0.0052234814643860004,0.14476340045929,-0.19236628475189202,0.6126249954810503
6.34856602059358,0.033963715839386,-0.0659983182907104,0.037555590248108,0.6126249954810503
6.349171714112659,-0.198353178691864,-0.12826882610321,0.083060961341858,0.6126249954810503
6.349777407631738,-0.052256987285614,0.17589865436554,-0.039085034751892005,0.6126249954810503
6.350383101150818,0.196825043964386,0.15194845905304002,-0.158836011314392,0.6126249954810503
6.350988794669897,-0.131292631816864,-0.049233181571960404,-0.110935620689392,0.6126249954810503
6.351594488188976,0.06988900880813599,-0.027678005790710402,-0.029504956626892,0.6126249954810503
6.352200181708056,-0.057047026348114004,-0.17856423625946,0.130961351966858,0.6126249954810503
6.352805875227135,-0.016331694316863998,-0.00851784954071044,0.16688664493560798,0.6126249954810503
6.353411568746214,0.115394379901886,0.12799826374054,0.15251652774810798,0.6126249954810503
6.354017262265294,0.060308930683135996,0.00106222858428956,0.083060961341858,0.6126249954810503
6.3546229557843725,-0.071417143535614,-0.27676003704071,0.073480883216858,0.6126249954810503
6.355228649303452,-0.016331694316863998,-0.0420481229782104,-0.168416089439392,0.6126249954810503
6.355834342822532,-0.030701811504363997,0.0585426973342896,-0.048665112876892,0.6126249954810503
6.356440036341611,-0.100157377910614,0.12799826374054,0.444708910560608,0.6126249954810503
6.35704572986069,-0.009146635723114001,0.14955343952179,-0.161231030845642,0.6126249954810503
6.35765142337977,0.065098969745636,-0.23125466594695998,0.329747973060608,0.6126249954810503
6.358257116898849,-0.042676909160614,-0.051628201103210404,0.243527269935608,0.6126249954810503
6.358862810417929,-0.150452788066864,0.0441725801467896,-0.07022028865814199,0.6126249954810503
6.359468503937008,-0.10973745603561401,0.0250124238967896,0.121381273841858,0.6126249954810503
6.360074197456087,-0.193563139629364,-0.20251443157196,-0.06543024959564199,0.6126249954810503
6.360679890975167,-0.10255239744186401,0.12320822467803999,0.073480883216858,0.6126249954810503
6.3612855844942455,-0.174402983379364,0.15434347858429,0.159701586341858,0.6126249954810503
6.361891278013325,-0.10255239744186401,-0.049233181571960404,0.032765551185608,0.6126249954810503
6.362496971532405,0.0052234814643860004,-0.0612082792282104,-0.17320612850189201,0.6126249954810503
6.363102665051484,0.045938813495636,-0.0875534940719604,0.126171312904358,0.6126249954810503
6.3637083585705625,-0.037886870098114,-0.0468381620407104,0.123776293373108,0.6126249954810503
6.364314052089643,-0.028306791973114,-0.17856423625946,-0.055850171470642,0.6126249954810503
6.364919745608722,-0.13608267087936401,0.0250124238967896,-0.14686091365814202,0.6126249954810503
6.365525439127801,0.165689790058136,0.08249289264678959,0.23155217227935798,0.6126249954810503
6.366131132646881,0.141739594745636,0.0561476778030396,0.22197209415435798,0.6126249954810503
6.36673682616596,-0.057047026348114004,0.29085959186554,0.238737230873108,0.6126249954810503
6.367342519685039,0.065098969745636,-0.0755783964157104,-0.189971265220642,0.6126249954810503
6.3679482132041185,-0.040281889629364,-0.12347878704071,-0.058245191001892,0.6126249954810503
6.368553906723198,0.053123872089386,0.0465675996780396,-0.113330640220642,0.6126249954810503
6.369159600242277,-0.045071928691864,-0.0564182401657104,-0.18757624568939202,0.6126249954810503
6.369765293761357,-0.011541655254364,0.0585426973342896,0.30340275821685797,0.6126249954810503
6.370370987280436,0.112999360370636,0.0585426973342896,-0.086985425376892,0.6126249954810503
6.370976680799515,0.165689790058136,0.14955343952179,-0.024714917564392,0.6126249954810503
6.371582374318595,0.038753754901886,-0.0707883573532104,0.080665941810608,0.6126249954810503
6.372188067837674,-0.035491850566864006,-0.22885964641571,-0.036690015220642004,0.6126249954810503
6.372793761356753,0.07228402833938599,0.0489626192092896,-0.012739819908142,0.6126249954810503
6.373399454875833,0.067493989276886,-0.16419411907196,0.071085863685608,0.6126249954810503
6.374005148394912,0.057913911151885995,-0.22406960735321,-0.110935620689392,0.6126249954810503
6.3746108419139915,0.019593598651886,-0.0324680448532104,-0.019924878501892,0.6126249954810503
6.375216535433071,0.045938813495636,-0.0588132596969604,0.21239201602935798,0.6126249954810503
6.37582222895215,0.187244965839386,-0.25999490032196004,0.15730656681060798,0.6126249954810503
6.37642792247123,0.06988900880813599,-0.15700906047820998,-0.043875073814392006,0.6126249954810503
6.3770336159903085,-0.066627104473114,0.10404806842804,-0.010344800376892,0.6126249954810503
6.377639309509388,-0.076207182598114,0.0633327363967896,-0.055850171470642,0.6126249954810503
6.378245003028468,0.089049165058136,-0.0109128690719604,-0.158836011314392,0.6126249954810503
6.378850696547547,-0.069022124004364,-0.051628201103210404,-0.098960523033142,0.6126249954810503
6.3794563900666255,0.038753754901886,0.13518332233429,-0.027109937095642,0.6126249954810503
6.380062083585706,-0.047466948223114,0.13278830280304002,-0.053455151939392,0.6126249954810503
6.380667777104785,-0.078602202129364,-0.13784890422821,-0.036690015220642004,0.6126249954810503
6.381273470623864,0.204010102558136,0.0465675996780396,0.018395433998108,0.6126249954810503
6.381879164142944,-0.035491850566864006,0.00106222858428956,-0.096565503501892,0.6126249954810503
6.382484857662023,0.014803559589386,0.00824728717803956,-0.096565503501892,0.6126249954810503
6.383090551181102,0.0052234814643860004,0.10644308795929,-0.07501032772064199,0.6126249954810503
6.383696244700182,0.06988900880813599,-0.23364968547821,0.035160570716858,0.6126249954810503
6.384301938219261,0.048333833026886,-0.0827634550094604,0.20760197696685798,0.6126249954810503
6.38490763173834,-0.073812163066864,0.16631857624054,0.15730656681060798,0.6126249954810503
6.38551332525742,0.28065072755813597,0.13278830280304002,0.135751391029358,0.6126249954810503
6.386119018776499,0.050728852558136,-0.0923435331344604,0.092641039466858,0.6126249954810503
6.386724712295578,0.038753754901886,-0.0540232206344604,0.008815355873108001,0.6126249954810503
6.387330405814658,0.06988900880813599,-0.0803684354782104,-0.022319898033142,0.6126249954810503
6.387936099333737,-0.112132475566864,0.017827365303039598,-0.213921460533142,0.6126249954810503
6.388541792852816,0.180059907245636,0.17829367389679002,-0.094170483970642,0.6126249954810503
6.389147486371896,-0.10734243650436401,0.0585426973342896,-0.07501032772064199,0.6126249954810503
6.389753179890975,-0.10255239744186401,-0.0324680448532104,-0.168416089439392,0.6126249954810503
6.3903588734100545,0.062703950214386,0.0753078340530396,0.121381273841858,0.6126249954810503
6.390964566929134,0.041148774433136,-0.0540232206344604,0.36327824649810797,0.6126249954810503
6.391570260448213,0.168084809589386,-0.11389870891571001,0.188441820716858,0.6126249954810503
6.392175953967293,-0.030701811504363997,-0.09713357219696041,0.013605394935608,0.6126249954810503
6.392781647486372,-0.100157377910614,-0.25520486125946,0.142936449623108,0.6126249954810503
6.393387341005451,0.048333833026886,-0.0109128690719604,0.22676213321685798,0.6126249954810503
6.393993034524531,0.029173676776886003,0.0489626192092896,0.138146410560608,0.6126249954810503
6.39459872804361,0.201615083026886,-0.00133279094696044,0.095036058998108,0.6126249954810503
6.395204421562689,0.084259125995636,-0.0923435331344604,-0.048665112876892,0.6126249954810503
6.395810115081769,-0.131292631816864,0.0130373262405396,0.16209660587310798,0.6126249954810503
6.396415808600848,-0.100157377910614,0.0800978731155396,0.130961351966858,0.6126249954810503
6.397021502119927,0.127369477558136,0.0585426973342896,-0.24266169490814202,0.6126249954810503
6.397627195639007,0.007618500995636,-0.0875534940719604,0.10222111759185801,0.6126249954810503
6.398232889158086,0.021988618183136,-0.0564182401657104,-0.17799616756439202,0.6126249954810503
6.398838582677165,0.067493989276886,0.015432345771789601,-0.144465894126892,0.6126249954810503
6.399444276196245,-0.100157377910614,-0.0588132596969604,-0.06543024959564199,0.6126249954810503
6.400049969715324,-0.10973745603561401,0.00106222858428956,0.027975512123108,0.6126249954810503
6.400655663234403,0.259095551776886,-0.0157029081344604,0.121381273841858,0.6126249954810503
6.401261356753483,0.247120454120636,0.0202223848342896,-0.053455151939392,0.6126249954810503
6.401867050272562,-0.095367338848114,-0.15221902141570998,0.145331469154358,0.6126249954810503
6.402472743791641,0.045938813495636,0.25972433795929,-0.046270093345642006,0.6126249954810503
6.403078437310721,0.07467904787063599,0.0130373262405396,-0.041480054283142005,0.6126249954810503
6.4036841308298,0.010013520526886,0.0321974824905396,0.10222111759185801,0.6126249954810503
6.404289824348879,-0.061837065410614005,-0.00133279094696044,0.219577074623108,0.6126249954810503
6.404895517867959,0.043543793964386,-0.19293435344696,0.128566332435608,0.6126249954810503
6.405501211387038,0.132159516620636,0.17589865436554,-0.058245191001892,0.6126249954810503
6.406106904906118,0.048333833026886,-0.00851784954071044,0.011210375404358,0.6126249954810503
6.406712598425197,0.026778657245636002,-0.22406960735321,-0.13728083553314202,0.6126249954810503
6.407318291944276,0.007618500995636,0.0130373262405396,0.121381273841858,0.7403854356563451
6.407923985463356,0.07707406740188599,0.10165304889679,0.250712328529358,0.7403854356563451
6.408529678982435,-0.083392241191864,-0.0731833768844604,0.016000414466858,0.7403854356563451
6.409135372501514,-0.279783842754364,-0.21688454875945998,0.027975512123108,0.7403854356563451
6.409741066020594,0.045938813495636,-0.0612082792282104,-0.0031597417831420002,0.7403854356563451
6.410346759539673,0.017198579120636,0.15434347858429,0.312982836341858,0.7403854356563451
6.410952453058752,-0.009146635723114001,-0.00372781047821044,-0.0031597417831420002,0.7403854356563451
6.411558146577832,0.065098969745636,0.0226174043655396,-0.07022028865814199,0.7403854356563451
6.412163840096911,-0.030701811504363997,0.08488791217803959,0.15730656681060798,0.7403854356563451
6.41276953361599,-0.033096831035614005,0.18068869342804,0.013605394935608,0.7403854356563451
6.41337522713507,0.036358735370636,0.0345925020217896,-0.036690015220642004,0.7403854356563451
6.413980920654149,0.101024262714386,0.0633327363967896,0.008815355873108001,0.7403854356563451
6.414586614173228,0.036358735370636,-0.0468381620407104,0.023185473060608,0.7403854356563451
6.415192307692308,-0.224698393535614,-0.25520486125946,0.059110766029358,0.7403854356563451
6.415798001211387,-0.059442045879364004,-0.0348630643844604,0.7345062738418581,0.7403854356563451
6.416403694730466,0.043543793964386,-0.0157029081344604,0.320167894935608,0.7403854356563451
6.417009388249546,-0.061837065410614005,-0.0157029081344604,-0.23308161678314201,0.7403854356563451
6.417615081768625,-0.057047026348114004,0.0321974824905396,0.401598558998108,0.7403854356563451
6.418220775287704,-0.013936674785614,0.0561476778030396,0.229157152748108,0.7403854356563451
6.418826468806784,0.06988900880813599,0.0944679903030396,-0.0031597417831420002,0.7403854356563451
6.419432162325863,0.124974458026886,0.0585426973342896,-0.17320612850189201,0.7403854356563451
6.420037855844942,0.108209321308136,0.13997336139679,-0.225896558189392,0.7403854356563451
6.420643549364022,0.156109711933136,0.12799826374054,0.159701586341858,0.7403854356563451
6.421249242883101,0.192035004901886,0.0920729707717896,0.169281664466858,0.7403854356563451
6.4218549364021795,-0.001961577129364,-0.00851784954071044,-0.209131421470642,0.7403854356563451
6.42246062992126,-0.049861967754364,-0.00851784954071044,-0.156440991783142,0.7403854356563451
6.423066323440339,-0.018726713848113998,0.036987521553039596,0.123776293373108,0.7403854356563451
6.423672016959419,0.084259125995636,-0.20969949016571,-0.12291071834564199,0.7403854356563451
6.424277710478498,0.105814301776886,0.00345724811553956,0.011210375404358,0.7403854356563451
6.424883403997577,0.067493989276886,-0.0157029081344604,-0.034294995689392004,0.7403854356563451
6.425489097516657,-0.030701811504363997,-0.0588132596969604,-0.015134839439391999,0.7403854356563451
6.4260947910357356,-0.121712553691864,-0.0995285917282104,0.18604680118560799,0.7403854356563451
6.426700484554815,-0.14087270994186402,-0.16419411907196,0.10701115665435801,0.7403854356563451
6.427306178073895,0.019593598651886,0.24535422077179,0.059110766029358,0.7403854356563451
6.427911871592974,0.124974458026886,0.28606955280304,0.327352953529358,0.7403854356563451
6.4285175651120525,0.007618500995636,0.0537526582717896,0.099826098060608,0.7403854356563451
6.429123258631133,0.079469086933136,-0.10671365032196001,-0.096565503501892,0.7403854356563451
6.429728952150212,0.086654145526886,0.0250124238967896,0.025580492591858,0.7403854356563451
6.430334645669291,0.055518891620635995,0.0944679903030396,-0.101355542564392,0.7403854356563451
6.430940339188371,0.201615083026886,0.0800978731155396,0.312982836341858,0.7403854356563451
6.43154603270745,-0.021121733379364,0.0896779512405396,-0.012739819908142,0.7403854356563451
6.432151726226529,0.029173676776886003,0.0609377168655396,0.016000414466858,0.7403854356563451
6.4327574197456086,0.108209321308136,-0.0228879667282104,0.10940617618560801,0.7403854356563451
6.433363113264688,0.007618500995636,0.13757834186554002,0.135751391029358,0.7403854356563451
6.433968806783767,0.086654145526886,-0.00612283000946044,0.092641039466858,0.7403854356563451
6.434574500302847,0.180059907245636,-0.0109128690719604,-0.046270093345642006,0.7403854356563451
6.4351801938219255,0.357291352558136,-0.12108376750946,-0.096565503501892,0.7403854356563451
6.435785887341005,0.124974458026886,-0.0923435331344604,-0.218711499595642,0.7403854356563451
6.436391580860085,0.101024262714386,0.11602316608429,0.090246019935608,0.7403854356563451
6.436997274379164,-0.030701811504363997,-0.11629372844696001,-0.089380444908142,0.7403854356563451
6.437602967898244,-0.112132475566864,-0.0372580839157104,0.054320726966857996,0.7403854356563451
6.438208661417323,-0.021121733379364,-0.0564182401657104,-0.17799616756439202,0.7403854356563451
6.438814354936402,-0.071417143535614,-0.21448952922821,-0.007949780845642,0.7403854356563451
6.4394200484554815,0.062703950214386,-0.0396531034469604,-0.043875073814392006,0.7403854356563451
6.440025741974561,0.187244965839386,0.11602316608429,-0.12291071834564199,0.7403854356563451
6.44063143549364,0.21838021974563598,0.15913351764679,0.04234562931060799,0.7403854356563451
6.44123712901272,0.014803559589386,0.0609377168655396,-0.125305737876892,0.7403854356563451
6.4418428225317985,0.084259125995636,-0.13545388469696,-0.156440991783142,0.7403854356563451
6.442448516050878,-0.054652006816864,-0.049233181571960404,0.18125676212310798,0.7403854356563451
6.443054209569958,-0.049861967754364,-0.027678005790710402,0.075875902748108,0.7403854356563451
6.443659903089037,0.060308930683135996,-0.0636032987594604,-0.24745173397064202,0.7403854356563451
6.4442655966081155,0.110604340839386,-0.0851584745407104,0.073480883216858,0.7403854356563451
6.444871290127196,-0.035491850566864006,0.0321974824905396,0.035160570716858,0.7403854356563451
6.445476983646275,-0.040281889629364,0.11362814655304,0.083060961341858,0.7403854356563451
6.446082677165354,-0.152847807598114,0.16152853717804,0.502189379310608,0.7403854356563451
6.446688370684434,-0.119317534160614,0.10404806842804,0.001630297279358,0.7403854356563451
6.447294064203513,0.232750336933136,-0.0851584745407104,-0.266611890220642,0.7403854356563451
6.447899757722592,-0.052256987285614,-0.0803684354782104,-0.352832593345642,0.7403854356563451
6.4485054512416715,-0.006751616191864,0.25732931842803997,-0.113330640220642,0.7403854356563451
6.449111144760751,-0.083392241191864,0.08249289264678959,0.243527269935608,0.7403854356563451
6.44971683827983,0.038753754901886,-0.17377419719696,-0.213921460533142,0.7403854356563451
6.45032253179891,0.000433442401886003,0.0345925020217896,-0.096565503501892,0.7403854356563451
6.450928225317989,0.117789399433136,-0.0157029081344604,-0.098960523033142,0.7403854356563451
6.451533918837068,0.16329477052688599,-0.049233181571960404,-0.051060132408142,0.7403854356563451
6.452139612356148,0.017198579120636,-0.049233181571960404,-0.015134839439391999,0.7403854356563451
6.452745305875227,0.024383637714386,0.14715841999054002,0.049530687904357995,0.7403854356563451
6.453350999394306,-0.128897612285614,0.0705177949905396,0.049530687904357995,0.7403854356563451
6.453956692913386,-0.10255239744186401,0.00585226764678956,-0.039085034751892005,0.7403854356563451
6.454562386432465,0.0052234814643860004,-0.0755783964157104,0.135751391029358,0.7403854356563451
6.4551680799515445,0.010013520526886,0.00345724811553956,0.23155217227935798,0.7403854356563451
6.455773773470624,0.041148774433136,0.17589865436554,-0.048665112876892,0.7403854356563451
6.456379466989703,0.031568696308136,-0.0204929471969604,-0.07261530818939199,0.7403854356563451
6.456985160508783,0.017198579120636,0.0345925020217896,0.068690844154358,0.7403854356563451
6.4575908540278615,0.084259125995636,-0.0372580839157104,0.118986254310608,0.7403854356563451
6.458196547546941,0.060308930683135996,-0.0348630643844604,0.253107348060608,0.7403854356563451
6.458802241066021,-0.116922514629364,-0.16179909954070998,0.195626879310608,0.7403854356563451
6.4594079345851,0.141739594745636,-0.21209450969695998,-0.058245191001892,0.7403854356563451
6.460013628104179,0.000433442401886003,-0.0755783964157104,-0.055850171470642,0.7403854356563451
6.460619321623259,-0.064232084941864,0.00345724811553956,0.04234562931060799,0.7403854356563451
6.461225015142338,-0.033096831035614005,0.00824728717803956,0.15730656681060798,0.7403854356563451
6.461830708661417,0.036358735370636,0.039382541084289596,0.18125676212310798,0.7403854356563451
6.462436402180497,0.124974458026886,0.00585226764678956,0.073480883216858,0.7403854356563451
6.463042095699576,-0.059442045879364004,-0.00612283000946044,-0.113330640220642,0.7403854356563451
6.463647789218655,0.110604340839386,-0.0109128690719604,0.004025316810608,0.7403854356563451
6.464253482737735,0.07467904787063599,-0.17856423625946,0.10701115665435801,0.7403854356563451
6.464859176256814,0.019593598651886,-0.30310525188446,0.025580492591858,0.7403854356563451
6.465464869775893,0.012408540058135999,-0.0588132596969604,0.202811937904358,0.7403854356563451
6.466070563294973,0.07467904787063599,0.0250124238967896,0.21718205509185798,0.7403854356563451
6.466676256814052,0.192035004901886,0.08249289264678959,0.004025316810608,0.7403854356563451
6.467281950333131,0.259095551776886,-0.11389870891571001,-0.21152644100189202,0.7403854356563451
6.467887643852211,0.07467904787063599,-0.18574929485320998,-0.154045972251892,0.7403854356563451
6.46849333737129,0.019593598651886,0.0202223848342896,0.011210375404358,0.7403854356563451
6.469099030890369,-0.13608267087936401,0.039382541084289596,0.011210375404358,0.7403854356563451
6.469704724409449,0.105814301776886,0.18547873249054,0.044740648841857994,0.7403854356563451
6.470310417928528,-0.057047026348114004,-0.20969949016571,0.066295824623108,0.7403854356563451
6.470916111447607,-0.162427885723114,-0.0420481229782104,0.027975512123108,0.7403854356563451
6.471521804966687,0.101024262714386,0.0489626192092896,0.04234562931060799,0.7403854356563451
6.472127498485766,0.148924653339386,0.010642306709289602,0.090246019935608,0.7403854356563451
6.472733192004846,0.026778657245636002,0.19505881061554,0.195626879310608,0.7403854356563451
6.473338885523925,0.043543793964386,-0.0444431425094604,0.123776293373108,0.7403854356563451
6.473944579043004,0.122579438495636,0.13997336139679,0.18125676212310798,0.7403854356563451
6.474550272562084,-0.124107573223114,0.00345724811553956,0.095036058998108,0.7403854356563451
6.475155966081163,0.021988618183136,-0.13066384563445999,-0.07022028865814199,0.7403854356563451
6.475761659600242,-0.045071928691864,-0.051628201103210404,0.078270922279358,0.7403854356563451
6.476367353119322,-0.148057768535614,0.0202223848342896,0.248317308998108,0.7403854356563451
6.476973046638401,0.06988900880813599,0.0753078340530396,0.605175219154358,0.7403854356563451
6.47757874015748,0.148924653339386,-0.0659983182907104,0.229157152748108,0.7403854356563451
6.47818443367656,0.151319672870636,0.14236838092804002,0.281847582435608,0.7403854356563451
6.478790127195639,-0.167217924785614,0.23098410358429,0.198021898841858,0.7403854356563451
6.479395820714718,0.014803559589386,-0.0683933378219604,-0.0031597417831420002,0.7403854356563451
6.480001514233798,0.242330415058136,-0.0252829862594604,0.202811937904358,0.7403854356563451
6.480607207752877,0.010013520526886,-0.030073025321960403,-0.108540601158142,0.7403854356563451
6.481212901271956,0.144134614276886,-0.027678005790710402,-0.000764722251892003,0.7403854356563451
6.481818594791036,0.120184418964386,0.0250124238967896,-0.130095776939392,0.7403854356563451
6.482424288310115,-0.045071928691864,-0.20251443157196,-0.120515698814392,0.7403854356563451
6.483029981829194,-0.069022124004364,0.0896779512405396,0.054320726966857996,0.7403854356563451
6.483635675348274,-0.131292631816864,0.039382541084289596,0.195626879310608,0.7403854356563451
6.484241368867353,0.127369477558136,0.039382541084289596,0.145331469154358,0.7403854356563451
6.484847062386432,0.053123872089386,0.20942892780304,0.011210375404358,0.7403854356563451
6.485452755905512,-0.167217924785614,-0.11150368938446001,0.090246019935608,0.7403854356563451
6.486058449424591,0.141739594745636,-0.13305886516571,-0.07740534725189199,0.7403854356563451
6.486664142943671,0.144134614276886,0.0753078340530396,-0.110935620689392,0.7403854356563451
6.48726983646275,-0.095367338848114,-0.12347878704071,0.150121508216858,0.7403854356563451
6.487875529981829,-0.191168120098114,-0.13545388469696,0.04234562931060799,0.7403854356563451
6.488481223500909,-0.059442045879364004,-0.013307888603210399,-0.199551343345642,0.7403854356563451
6.489086917019988,0.110604340839386,0.11841818561554,-0.0031597417831420002,0.7403854356563451
6.489692610539067,0.098629243183136,-0.00612283000946044,0.04234562931060799,0.7403854356563451
6.490298304058147,-0.040281889629364,0.0920729707717896,-0.235476636314392,0.7403854356563451
6.490903997577226,0.010013520526886,0.0609377168655396,-0.082195386314392,0.7403854356563451
6.491509691096305,0.101024262714386,-0.10192361125946,0.037555590248108,0.7403854356563451
6.492115384615385,0.0052234814643860004,-0.00372781047821044,0.150121508216858,0.7403854356563451
6.492721078134464,0.112999360370636,-0.16179909954070998,0.051925707435607996,0.7403854356563451
6.4933267716535426,0.117789399433136,-0.0875534940719604,-0.041480054283142005,0.7403854356563451
6.493932465172623,0.093839204120636,0.0896779512405396,0.29382268009185797,0.7403854356563451
6.494538158691702,0.053123872089386,0.00345724811553956,0.020790453529358,0.7403854356563451
6.495143852210781,-0.066627104473114,0.017827365303039598,0.095036058998108,0.7403854356563451
6.495749545729861,-0.167217924785614,0.0872829317092896,0.11180119571685801,0.7403854356563451
6.49635523924894,-0.097762358379364,-0.0396531034469604,0.018395433998108,0.7403854356563451
6.496960932768019,0.024383637714386,0.08249289264678959,0.095036058998108,0.7403854356563451
6.497566626287099,-0.035491850566864006,-0.13784890422821,-0.113330640220642,0.7403854356563451
6.498172319806178,0.151319672870636,-0.0683933378219604,-0.084590405845642,0.7403854356563451
6.498778013325257,-0.011541655254364,-0.0588132596969604,0.063900805091858,0.7403854356563451
6.499383706844337,0.010013520526886,-0.00851784954071044,0.097431078529358,0.7403854356563451
6.4999894003634155,-0.037886870098114,0.0944679903030396,0.130961351966858,0.7403854356563451
6.500595093882495,-0.037886870098114,-0.15940408000946,0.198021898841858,0.7403854356563451
6.501200787401575,0.232750336933136,-0.0444431425094604,0.130961351966858,0.7403854356563451
6.501806480920654,0.036358735370636,-0.00851784954071044,-0.082195386314392,0.7403854356563451
6.5024121744397325,0.057913911151885995,0.036987521553039596,0.18604680118560799,0.7403854356563451
6.503017867958813,-0.069022124004364,0.0417775606155396,0.16209660587310798,0.7403854356563451
6.503623561477892,-0.028306791973114,0.015432345771789601,0.099826098060608,0.7403854356563451
6.504229254996972,0.192035004901886,0.13518332233429,0.142936449623108,0.7403854356563451
6.504834948516051,0.053123872089386,-0.0372580839157104,-0.055850171470642,0.7403854356563451
6.50544064203513,-0.054652006816864,-0.20490945110321,-0.024714917564392,0.7403854356563451
6.50604633555421,-0.037886870098114,-0.10192361125946,-0.06782526912689199,0.7403854356563451
6.5066520290732885,-0.004356596660614,-0.013307888603210399,-0.331277417564392,0.7403854356563451
6.507257722592368,-0.004356596660614,0.0968630098342896,0.164491625404358,0.7429995462401966
6.507863416111448,0.0052234814643860004,-0.22646462688445998,0.24592228946685799,0.7429995462401966
6.508469109630527,-0.045071928691864,-0.0875534940719604,-0.103750562095642,0.7429995462401966
6.5090748031496055,0.021988618183136,0.30762472858428996,0.063900805091858,0.7429995462401966
6.509680496668686,-0.069022124004364,-0.0636032987594604,-0.0055547613143919995,0.7429995462401966
6.510286190187765,-0.028306791973114,-0.13066384563445999,-0.012739819908142,0.7429995462401966
6.510891883706844,0.045938813495636,0.18787375202179002,0.10701115665435801,0.7429995462401966
6.511497577225924,-0.128897612285614,0.27888449420928996,0.21718205509185798,0.7429995462401966
6.512103270745003,0.091444184589386,0.14955343952179,-0.118120679283142,0.7429995462401966
6.512708964264082,-0.001961577129364,-0.0588132596969604,-0.036690015220642004,0.7429995462401966
6.5133146577831615,0.050728852558136,-0.0995285917282104,0.133356371498108,0.7429995462401966
6.513920351302241,0.026778657245636002,-0.049233181571960404,-0.0055547613143919995,0.7429995462401966
6.51452604482132,-0.241463530254364,-0.14024392375946,0.090246019935608,0.7429995462401966
6.5151317383404,-0.092972319316864,-0.0444431425094604,0.059110766029358,0.7429995462401966
6.515737431859479,-0.078602202129364,0.00585226764678956,0.066295824623108,0.7429995462401966
6.516343125378558,0.036358735370636,0.08488791217803959,0.164491625404358,0.7429995462401966
6.516948818897638,-0.021121733379364,0.10883810749054,-0.0031597417831420002,0.7429995462401966
6.517554512416717,-0.037886870098114,-0.0540232206344604,0.336933031654358,0.7429995462401966
6.518160205935796,-0.10734243650436401,0.0561476778030396,0.253107348060608,0.7429995462401966
6.518765899454876,-0.10734243650436401,0.0609377168655396,0.049530687904357995,0.7429995462401966
6.519371592973955,-0.296548979473114,-0.0899485136032104,0.063900805091858,0.7429995462401966
6.5199772864930345,-0.121712553691864,0.0705177949905396,0.123776293373108,0.7429995462401966
6.520582980012114,0.141739594745636,-0.0612082792282104,-0.007949780845642,0.7429995462401966
6.521188673531193,-0.138477690410614,-0.00612283000946044,-0.134885816001892,0.7429995462401966
6.521794367050273,-0.080997221660614,0.08249289264678959,0.085455980873108,0.7429995462401966
6.5224000605693515,-0.085787260723114,0.0226174043655396,0.004025316810608,0.7429995462401966
6.523005754088431,0.038753754901886,-0.0731833768844604,-0.019924878501892,0.7429995462401966
6.523611447607511,-0.011541655254364,-0.0420481229782104,0.04234562931060799,0.7429995462401966
6.52421714112659,-0.045071928691864,-0.0995285917282104,0.21718205509185798,0.7429995462401966
6.5248228346456685,-0.011541655254364,-0.09473855266571041,0.188441820716858,0.7429995462401966
6.525428528164749,0.170479829120636,0.17589865436554,0.083060961341858,0.7429995462401966
6.526034221683828,0.079469086933136,-0.0540232206344604,0.10940617618560801,0.7429995462401966
6.526639915202907,-0.052256987285614,-0.0803684354782104,-0.043875073814392006,0.7429995462401966
6.527245608721987,0.002828461933136,0.0513576387405396,0.001630297279358,0.7429995462401966
6.527851302241066,-0.112132475566864,0.0537526582717896,0.071085863685608,0.7429995462401966
6.528456995760145,0.057913911151885995,-0.00612283000946044,0.059110766029358,0.7429995462401966
6.529062689279225,-0.059442045879364004,-0.17137917766570998,0.22676213321685798,0.7429995462401966
6.529668382798304,0.079469086933136,-0.0588132596969604,-0.101355542564392,0.7429995462401966
6.530274076317383,0.098629243183136,-0.0324680448532104,0.039950609779358,0.7429995462401966
6.530879769836463,-0.143267729473114,-0.14024392375946,0.214787035560608,0.7429995462401966
6.531485463355542,0.110604340839386,0.0944679903030396,0.063900805091858,0.7429995462401966
6.532091156874621,0.108209321308136,0.12799826374054,0.075875902748108,0.7429995462401966
6.532696850393701,-0.037886870098114,-0.0228879667282104,0.123776293373108,0.7429995462401966
6.53330254391278,0.120184418964386,0.0226174043655396,0.080665941810608,0.7429995462401966
6.533908237431859,-0.179193022441864,0.0729128145217896,-0.0031597417831420002,0.7429995462401966
6.534513930950939,-0.078602202129364,-0.0851584745407104,-0.024714917564392,0.7429995462401966
6.535119624470018,-0.011541655254364,0.13757834186554002,0.126171312904358,0.7429995462401966
6.5357253179890975,-0.023516752910614,-0.00372781047821044,0.269872484779358,0.7429995462401966
6.536331011508177,0.086654145526886,-0.16179909954070998,-0.189971265220642,0.7429995462401966
6.536936705027256,-0.009146635723114001,-0.17856423625946,0.011210375404358,0.7429995462401966
6.537542398546336,0.213590180683136,-0.25759988079071,-0.091775464439392,0.7429995462401966
6.5381480920654145,-0.131292631816864,-0.11389870891571001,0.224367113685608,0.7429995462401966
6.538753785584494,-0.100157377910614,0.00585226764678956,0.348908129310608,0.7429995462401966
6.539359479103574,0.194430024433136,0.28846457233428996,-0.017529858970642,0.7429995462401966
6.539965172622653,0.062703950214386,0.10644308795929,-0.039085034751892005,0.7429995462401966
6.540570866141732,0.0052234814643860004,-0.17856423625946,-0.19236628475189202,0.7429995462401966
6.541176559660812,0.101024262714386,-0.0396531034469604,0.047135668373107995,0.7429995462401966
6.541782253179891,0.081864106464386,0.21900900592804,0.008815355873108001,0.7429995462401966
6.54238794669897,0.017198579120636,0.0657277559280396,-0.055850171470642,0.7429995462401966
6.54299364021805,0.026778657245636002,0.0777028535842896,-0.149255933189392,0.7429995462401966
6.543599333737129,-0.138477690410614,0.19266379108429002,0.027975512123108,0.7429995462401966
6.544205027256208,-0.172007963848114,-0.0204929471969604,0.078270922279358,0.7429995462401966
6.544810720775288,0.122579438495636,0.10165304889679,-0.012739819908142,0.7429995462401966
6.545416414294367,0.136949555683136,0.16631857624054,0.18604680118560799,0.7429995462401966
6.546022107813446,-0.054652006816864,-0.0588132596969604,-0.0055547613143919995,0.7429995462401966
6.546627801332526,-0.061837065410614005,-0.0324680448532104,-0.079800366783142,0.7429995462401966
6.547233494851605,0.067493989276886,0.0753078340530396,0.10701115665435801,0.7429995462401966
6.547839188370684,-0.076207182598114,-0.00851784954071044,0.10461613712310801,0.7429995462401966
6.548444881889764,-0.069022124004364,0.015432345771789601,0.11659123477935801,0.7429995462401966
6.549050575408843,-0.119317534160614,-0.0923435331344604,0.164491625404358,0.7429995462401966
6.549656268927922,-0.049861967754364,0.20703390827179002,0.200416918373108,0.7429995462401966
6.550261962447002,0.07228402833938599,0.0968630098342896,0.130961351966858,0.7429995462401966
6.550867655966081,0.045938813495636,-0.0204929471969604,-0.158836011314392,0.7429995462401966
6.55147334948516,0.22317025880813599,0.14955343952179,0.11659123477935801,0.7429995462401966
6.55207904300424,0.055518891620635995,0.0681227754592896,0.027975512123108,0.7429995462401966
6.552684736523319,-0.001961577129364,-0.0252829862594604,0.133356371498108,0.7429995462401966
6.553290430042399,-0.076207182598114,0.21900900592804,0.130961351966858,0.7429995462401966
6.553896123561478,-0.069022124004364,0.11123312702179,0.030370531654358,0.7429995462401966
6.554501817080557,0.151319672870636,-0.22646462688445998,0.051925707435607996,0.7429995462401966
6.555107510599637,0.057913911151885995,0.0705177949905396,-0.063035230064392,0.7429995462401966
6.555713204118716,-0.10255239744186401,-0.0851584745407104,-0.007949780845642,0.7429995462401966
6.556318897637795,-0.083392241191864,0.13278830280304002,0.011210375404358,0.7429995462401966
6.556924591156875,0.036358735370636,0.25732931842803997,0.066295824623108,0.7429995462401966
6.557530284675954,0.122579438495636,-0.13305886516571,-0.17320612850189201,0.7429995462401966
6.558135978195033,0.146529633808136,0.00824728717803956,0.035160570716858,0.7429995462401966
6.558741671714113,0.029173676776886003,-0.0755783964157104,-0.017529858970642,0.7429995462401966
6.559347365233192,-0.016331694316863998,-0.0659983182907104,0.039950609779358,0.7429995462401966
6.559953058752271,-0.018726713848113998,-0.00372781047821044,0.056715746498108,0.7429995462401966
6.560558752271351,0.050728852558136,0.10404806842804,0.011210375404358,0.7429995462401966
6.56116444579043,0.026778657245636002,0.22379904499054,0.030370531654358,0.7429995462401966
6.561770139309509,0.110604340839386,-0.0180979276657104,-0.027109937095642,0.7429995462401966
6.562375832828589,0.029173676776886003,-0.013307888603210399,-0.043875073814392006,0.7429995462401966
6.562981526347668,-0.052256987285614,0.08488791217803959,0.025580492591858,0.7429995462401966
6.563587219866747,0.038753754901886,0.0753078340530396,0.18125676212310798,0.7429995462401966
6.564192913385827,0.012408540058135999,0.00345724811553956,0.18604680118560799,0.7429995462401966
6.564798606904906,0.120184418964386,-0.0731833768844604,0.071085863685608,0.7429995462401966
6.565404300423985,0.045938813495636,-0.0444431425094604,-0.13249079647064202,0.7429995462401966
6.566009993943065,-0.028306791973114,0.0944679903030396,-0.185181226158142,0.7429995462401966
6.566615687462144,0.136949555683136,-0.0109128690719604,-0.07022028865814199,0.7429995462401966
6.567221380981224,0.124974458026886,0.017827365303039598,-0.216316480064392,0.7429995462401966
6.567827074500303,-0.150452788066864,0.00824728717803956,0.154911547279358,0.7429995462401966
6.568432768019382,0.084259125995636,-0.0109128690719604,0.071085863685608,0.7429995462401966
6.569038461538462,0.060308930683135996,0.0489626192092896,-0.031899976158142,0.7429995462401966
6.569644155057541,-0.071417143535614,0.22619406452179,0.095036058998108,0.7429995462401966
6.57024984857662,0.0052234814643860004,0.10404806842804,-0.024714917564392,0.7429995462401966
6.5708555420957,0.204010102558136,-0.00612283000946044,-0.113330640220642,0.7429995462401966
6.571461235614779,0.103419282245636,0.0705177949905396,-0.209131421470642,0.7429995462401966
6.572066929133858,-0.069022124004364,-0.049233181571960404,0.047135668373107995,0.7429995462401966
6.572672622652938,-0.006751616191864,-0.049233181571960404,0.030370531654358,0.7429995462401966
6.573278316172017,-0.023516752910614,0.13039328327179,0.142936449623108,0.7429995462401966
6.5738840096910955,0.07707406740188599,0.0321974824905396,-0.034294995689392004,0.7429995462401966
6.574489703210176,-0.037886870098114,-0.23125466594695998,-0.015134839439391999,0.7429995462401966
6.575095396729255,-0.071417143535614,-0.0755783964157104,-0.041480054283142005,0.7429995462401966
6.575701090248334,-0.059442045879364004,-0.0659983182907104,-0.283377026939392,0.7429995462401966
6.576306783767414,-0.033096831035614005,0.0753078340530396,0.085455980873108,0.7429995462401966
6.576912477286493,0.014803559589386,0.0705177949905396,-0.051060132408142,0.7429995462401966
6.577518170805572,-0.133687651348114,-0.00612283000946044,-0.115725659751892,0.7429995462401966
6.578123864324652,-0.054652006816864,0.0800978731155396,0.027975512123108,0.7429995462401966
6.578729557843731,0.22317025880813599,-0.0899485136032104,0.087851000404358,0.7429995462401966
6.57933525136281,0.045938813495636,0.0585426973342896,0.059110766029358,0.7429995462401966
6.57994094488189,-0.14087270994186402,-0.00851784954071044,0.047135668373107995,0.7429995462401966
6.5805466384009685,-0.069022124004364,-0.0779734159469604,0.121381273841858,0.7429995462401966
6.581152331920048,0.050728852558136,-0.17856423625946,-0.031899976158142,0.7429995462401966
6.581758025439128,-0.133687651348114,0.00585226764678956,0.128566332435608,0.7429995462401966
6.582363718958207,-0.076207182598114,0.23337912311554002,0.200416918373108,0.7429995462401966
6.582969412477286,0.268675629901886,-0.0707883573532104,0.128566332435608,0.7429995462401966
6.583575105996366,0.033963715839386,-0.0803684354782104,0.018395433998108,0.7429995462401966
6.584180799515445,-0.112132475566864,-0.0731833768844604,0.004025316810608,0.7429995462401966
6.584786493034525,0.101024262714386,0.0585426973342896,0.095036058998108,0.7429995462401966
6.585392186553604,0.012408540058135999,-0.12108376750946,0.135751391029358,0.7429995462401966
6.585997880072683,0.014803559589386,-0.12347878704071,-0.14207087459564202,0.7429995462401966
6.586603573591763,-0.076207182598114,-0.0204929471969604,0.080665941810608,0.7429995462401966
6.5872092671108415,-0.080997221660614,-0.15940408000946,0.16688664493560798,0.7429995462401966
6.587814960629921,0.239935395526886,0.0585426973342896,0.243527269935608,0.7429995462401966
6.588420654149001,0.010013520526886,-0.0109128690719604,0.178861742591858,0.7429995462401966
6.58902634766808,0.144134614276886,0.08249289264678959,-0.027109937095642,0.7429995462401966
6.5896320411871585,0.007618500995636,0.0992580293655396,0.068690844154358,0.7429995462401966
6.590237734706239,-0.10494741697311401,-0.0468381620407104,-0.017529858970642,0.7429995462401966
6.590843428225318,0.017198579120636,-0.14024392375946,-0.082195386314392,0.7429995462401966
6.591449121744397,-0.121712553691864,-0.16898415813446,0.006420336341858001,0.7429995462401966
6.592054815263477,-0.004356596660614,-0.21688454875945998,0.047135668373107995,0.7429995462401966
6.592660508782556,-0.016331694316863998,-0.14024392375946,-0.015134839439391999,0.7429995462401966
6.593266202301635,-0.064232084941864,-0.17137917766570998,0.061505785560608,0.7429995462401966
6.5938718958207145,-0.054652006816864,-0.21688454875945998,0.066295824623108,0.7429995462401966
6.594477589339794,-0.095367338848114,0.00824728717803956,0.209996996498108,0.7429995462401966
6.595083282858873,-0.011541655254364,0.08249289264678959,0.190836840248108,0.7429995462401966
6.595688976377953,0.168084809589386,0.18068869342804,-0.06543024959564199,0.7429995462401966
6.596294669897032,-0.042676909160614,0.0345925020217896,-0.082195386314392,0.7429995462401966
6.596900363416111,0.033963715839386,-0.25520486125946,-0.19715632381439202,0.7429995462401966
6.597506056935191,0.175269868183136,-0.013307888603210399,0.499794359779358,0.7429995462401966
6.59811175045427,0.055518891620635995,-0.22167458782195998,0.5572748285293581,0.7429995462401966
6.598717443973349,0.045938813495636,-0.13784890422821,0.056715746498108,0.7429995462401966
6.599323137492429,0.153714692401886,-0.12587380657196,0.260292406654358,0.7429995462401966
6.599928831011508,0.079469086933136,0.00345724811553956,0.121381273841858,0.7429995462401966
6.600534524530587,0.117789399433136,0.13039328327179,0.150121508216858,0.7429995462401966
6.601140218049667,0.148924653339386,-0.0923435331344604,0.018395433998108,0.7429995462401966
6.601745911568746,-0.028306791973114,0.0705177949905396,0.037555590248108,0.7429995462401966
6.602351605087826,0.115394379901886,0.08488791217803959,-0.019924878501892,0.7429995462401966
6.6029572986069045,0.038753754901886,0.14476340045929,0.020790453529358,0.7429995462401966
6.603562992125984,-0.035491850566864006,-0.0995285917282104,0.071085863685608,0.7429995462401966
6.604168685645064,0.050728852558136,-0.0707883573532104,0.059110766029358,0.7429995462401966
6.604774379164143,0.096234223651886,0.0465675996780396,0.078270922279358,0.7429995462401966
6.6053800726832215,-0.138477690410614,0.11602316608429,-0.000764722251892003,0.7429995462401966
6.605985766202302,-0.10494741697311401,0.18068869342804,-0.082195386314392,0.7429995462401966
6.606591459721381,-0.006751616191864,0.0321974824905396,0.039950609779358,0.7429995462401966
6.60719715324046,-0.085787260723114,0.0896779512405396,-0.06543024959564199,0.7265966716117949
6.60780284675954,-0.018726713848113998,-0.051628201103210404,0.018395433998108,0.7265966716117949
6.608408540278619,-0.073812163066864,-0.18574929485320998,-0.084590405845642,0.7265966716117949
6.609014233797698,0.055518891620635995,0.017827365303039598,-0.036690015220642004,0.7265966716117949
6.609619927316778,0.033963715839386,-0.20969949016571,0.099826098060608,0.7265966716117949
6.610225620835857,-0.121712553691864,-0.0875534940719604,0.051925707435607996,0.7265966716117949
6.610831314354936,0.053123872089386,0.13757834186554002,-0.063035230064392,0.7265966716117949
6.611437007874016,-0.100157377910614,0.11123312702179,0.027975512123108,0.7265966716117949
6.612042701393095,-0.164822905254364,-0.0779734159469604,0.035160570716858,0.7265966716117949
6.612648394912174,-0.088182280254364,0.036987521553039596,-0.163626050376892,0.7265966716117949
6.613254088431254,-0.131292631816864,-0.0612082792282104,0.027975512123108,0.7265966716117949
6.613859781950333,0.115394379901886,-0.09713357219696041,0.135751391029358,0.7265966716117949
6.614465475469413,-0.095367338848114,-0.16658913860320998,0.071085863685608,0.7265966716117949
6.615071168988492,0.115394379901886,0.0992580293655396,-0.20194636287689202,0.7265966716117949
6.615676862507571,0.0052234814643860004,0.0896779512405396,-0.048665112876892,0.7265966716117949
6.61628255602665,-0.090577299785614,-0.0659983182907104,0.027975512123108,0.7265966716117949
6.61688824954573,0.098629243183136,-0.09713357219696041,-0.034294995689392004,0.7265966716117949
6.617493943064809,-0.052256987285614,-0.0851584745407104,0.030370531654358,0.7265966716117949
6.618099636583889,0.0052234814643860004,0.010642306709289602,0.008815355873108001,0.7265966716117949
6.6187053301029675,0.079469086933136,-0.14742898235320998,-0.034294995689392004,0.7265966716117949
6.619311023622047,-0.061837065410614005,-0.11868874797821,-0.106145581626892,0.7265966716117949
6.619916717141127,-0.078602202129364,-0.11389870891571001,-0.000764722251892003,0.7265966716117949
6.620522410660206,-0.045071928691864,-0.0396531034469604,0.063900805091858,0.7265966716117949
6.621128104179284,-0.001961577129364,0.00106222858428956,-0.161231030845642,0.7265966716117949
6.621733797698365,0.084259125995636,0.14476340045929,0.159701586341858,0.7265966716117949
6.622339491217444,-0.018726713848113998,0.0585426973342896,0.190836840248108,0.7265966716117949
6.622945184736523,0.254305512714386,-0.10910866985321001,-0.019924878501892,0.7265966716117949
6.623550878255603,0.215985200214386,-0.25999490032196004,-0.012739819908142,0.7265966716117949
6.624156571774682,-0.143267729473114,-0.00851784954071044,-0.130095776939392,0.7265966716117949
6.624762265293761,-0.033096831035614005,0.12799826374054,0.030370531654358,0.7265966716117949
6.625367958812841,-0.016331694316863998,0.0441725801467896,0.020790453529358,0.7265966716117949
6.62597365233192,-0.10973745603561401,0.0920729707717896,0.679420824623108,0.7265966716117949
6.626579345850999,0.065098969745636,0.0729128145217896,0.23155217227935798,0.7265966716117949
6.627185039370079,0.105814301776886,0.0274074434280396,-0.331277417564392,0.7265966716117949
6.627790732889158,-0.10255239744186401,0.0920729707717896,0.085455980873108,0.7265966716117949
6.628396426408237,-0.061837065410614005,-0.0779734159469604,-0.120515698814392,0.7265966716117949
6.629002119927317,0.091444184589386,-0.21448952922821,-0.015134839439391999,0.7265966716117949
6.629607813446396,0.168084809589386,-0.14263894329071,0.025580492591858,0.7265966716117949
6.630213506965475,0.215985200214386,-0.0875534940719604,-0.012739819908142,0.7265966716117949
6.630819200484555,-0.188773100566864,-0.0564182401657104,-0.144465894126892,0.7265966716117949
6.631424894003634,-0.160032866191864,0.0130373262405396,0.092641039466858,0.7265966716117949
6.6320305875227135,-0.054652006816864,0.0561476778030396,0.001630297279358,0.7265966716117949
6.632636281041793,0.089049165058136,0.19984884967804,0.039950609779358,0.7265966716117949
6.633241974560872,0.045938813495636,-0.0803684354782104,0.035160570716858,0.7265966716117949
6.633847668079951,-0.040281889629364,0.0968630098342896,0.164491625404358,0.7265966716117949
6.63445336159903,-0.083392241191864,0.0681227754592896,0.279452562904358,0.7265966716117949
6.63505905511811,0.151319672870636,-0.14024392375946,-0.115725659751892,0.7265966716117949
6.63566474863719,0.117789399433136,-0.0109128690719604,-0.106145581626892,0.7265966716117949
6.636270442156269,-0.040281889629364,-0.0540232206344604,0.090246019935608,0.7265966716117949
6.636876135675348,-0.001961577129364,-0.0468381620407104,0.18125676212310798,0.7265966716117949
6.637481829194428,-0.073812163066864,-0.15461404094696,-0.048665112876892,0.7265966716117949
6.638087522713507,-0.035491850566864006,-0.0252829862594604,0.255502367591858,0.7265966716117949
6.638693216232586,-0.095367338848114,0.0250124238967896,0.262687426185608,0.7265966716117949
6.639298909751666,0.239935395526886,-0.16658913860320998,0.008815355873108001,0.7265966716117949
6.639904603270745,0.045938813495636,-0.0827634550094604,-0.055850171470642,0.7265966716117949
6.640510296789824,0.086654145526886,-0.00372781047821044,-0.170811108970642,0.7265966716117949
6.641115990308904,-0.033096831035614005,-0.15940408000946,0.145331469154358,0.7265966716117949
6.641721683827983,0.081864106464386,0.08249289264678959,0.291427660560608,0.7265966716117949
6.642327377347062,0.07228402833938599,-0.10431863079071,0.214787035560608,0.7265966716117949
6.642933070866142,-0.078602202129364,-0.13784890422821,0.006420336341858001,0.7265966716117949
6.643538764385221,-0.100157377910614,-0.0707883573532104,0.10222111759185801,0.7265966716117949
6.6441444579043,-0.018726713848113998,-0.17137917766570998,0.183651781654358,0.7265966716117949
6.64475015142338,0.0052234814643860004,-0.25041482219696,0.016000414466858,0.7265966716117949
6.645355844942459,-0.011541655254364,0.0968630098342896,0.22197209415435798,0.7265966716117949
6.645961538461538,0.15850473146438598,0.19266379108429002,0.159701586341858,0.7265966716117949
6.646567231980618,-0.092972319316864,0.0250124238967896,0.145331469154358,0.7265966716117949
6.647172925499697,0.010013520526886,0.00345724811553956,-0.000764722251892003,0.7265966716117949
6.647778619018776,0.019593598651886,0.13278830280304002,-0.218711499595642,0.7265966716117949
6.648384312537856,-0.088182280254364,0.25972433795929,-0.060640210533142,0.7265966716117949
6.648990006056935,0.062703950214386,-0.0779734159469604,0.001630297279358,0.7265966716117949
6.649595699576015,0.196825043964386,-0.0875534940719604,0.095036058998108,0.7265966716117949
6.650201393095094,-0.085787260723114,0.0465675996780396,0.066295824623108,0.7265966716117949
6.650807086614173,-0.176798002910614,-0.12347878704071,0.027975512123108,0.7265966716117949
6.651412780133253,-0.035491850566864006,-0.15700906047820998,0.04234562931060799,0.7265966716117949
6.652018473652332,-0.028306791973114,0.036987521553039596,0.23634221134185798,0.7265966716117949
6.652624167171411,-0.011541655254364,-0.0396531034469604,0.10461613712310801,0.7265966716117949
6.653229860690491,0.124974458026886,0.0681227754592896,0.059110766029358,0.7265966716117949
6.65383555420957,-0.057047026348114004,0.0872829317092896,0.011210375404358,0.7265966716117949
6.6544412477286485,-0.114527495098114,-0.0612082792282104,0.145331469154358,0.7265966716117949
6.655046941247729,-0.021121733379364,0.10883810749054,0.11180119571685801,0.7265966716117949
6.655652634766808,-0.085787260723114,0.0609377168655396,-0.113330640220642,0.7265966716117949
6.656258328285887,0.038753754901886,-0.0899485136032104,-0.26421687068939204,0.7265966716117949
6.656864021804967,-0.148057768535614,0.00106222858428956,0.198021898841858,0.7265966716117949
6.657469715324046,-0.066627104473114,-0.027678005790710402,0.401598558998108,0.7265966716117949
6.658075408843125,0.115394379901886,-0.051628201103210404,0.174071703529358,0.7265966716117949
6.658681102362205,0.117789399433136,-0.013307888603210399,0.195626879310608,0.7265966716117949
6.659286795881284,0.148924653339386,-0.14263894329071,-0.034294995689392004,0.7265966716117949
6.659892489400363,-0.167217924785614,-0.0636032987594604,0.130961351966858,0.7265966716117949
6.660498182919443,-0.10734243650436401,-0.049233181571960404,0.121381273841858,0.7265966716117949
6.661103876438522,0.033963715839386,-0.14024392375946,-0.063035230064392,0.7265966716117949
6.661709569957601,-0.097762358379364,0.12799826374054,-0.120515698814392,0.7265966716117949
6.662315263476681,-0.042676909160614,0.24056418170929,0.04234562931060799,0.7265966716117949
6.66292095699576,0.134554536151886,-0.22406960735321,0.001630297279358,0.7265966716117949
6.663526650514839,0.048333833026886,0.00106222858428956,-0.039085034751892005,0.7265966716117949
6.664132344033919,0.139344575214386,-0.09713357219696041,0.269872484779358,0.7265966716117949
6.664738037552998,0.043543793964386,-0.051628201103210404,0.025580492591858,0.7265966716117949
6.665343731072078,-0.241463530254364,0.22619406452179,0.066295824623108,0.7265966716117949
6.665949424591157,0.019593598651886,-0.0899485136032104,0.18604680118560799,0.7265966716117949
6.666555118110236,-0.10255239744186401,-0.0564182401657104,0.061505785560608,0.7265966716117949
6.667160811629316,-0.167217924785614,-0.0803684354782104,0.24592228946685799,0.7265966716117949
6.6677665051483945,0.105814301776886,0.28846457233428996,0.051925707435607996,0.7265966716117949
6.668372198667474,-0.145662749004364,0.17589865436554,0.095036058998108,0.7265966716117949
6.668977892186554,-0.054652006816864,-0.16898415813446,0.023185473060608,0.7265966716117949
6.669583585705633,0.290230805683136,-0.12826882610321,-0.175601148033142,0.7265966716117949
6.6701892792247115,0.170479829120636,0.0250124238967896,0.17167668399810798,0.7265966716117949
6.670794972743792,-0.064232084941864,0.0465675996780396,0.24113225040435798,0.7265966716117949
6.671400666262871,0.002828461933136,0.14715841999054002,0.025580492591858,0.7265966716117949
6.67200635978195,-0.021121733379364,0.14715841999054002,0.056715746498108,0.7265966716117949
6.67261205330103,-0.061837065410614005,0.11362814655304,0.068690844154358,0.7265966716117949
6.673217746820109,0.225565278339386,-0.0683933378219604,0.004025316810608,0.7265966716117949
6.673823440339188,0.144134614276886,-0.0612082792282104,-0.098960523033142,0.7265966716117949
6.674429133858268,0.007618500995636,0.17350363483429002,0.061505785560608,0.7265966716117949
6.675034827377347,0.055518891620635995,-0.0636032987594604,-0.0031597417831420002,0.7265966716117949
6.675640520896426,0.079469086933136,0.029802462959289597,0.018395433998108,0.7265966716117949
6.676246214415506,0.084259125995636,0.0345925020217896,0.150121508216858,0.7265966716117949
6.676851907934585,0.091444184589386,-0.00372781047821044,0.027975512123108,0.7265966716117949
6.677457601453664,0.07707406740188599,-0.0707883573532104,0.224367113685608,0.7265966716117949
6.678063294972744,0.019593598651886,0.0777028535842896,-0.113330640220642,0.7265966716117949
6.678668988491823,-0.042676909160614,-0.0779734159469604,-0.13249079647064202,0.7265966716117949
6.679274682010902,0.010013520526886,-0.16658913860320998,0.130961351966858,0.7265966716117949
6.679880375529982,0.177664887714386,0.13278830280304002,-0.036690015220642004,0.7265966716117949
6.680486069049061,-0.049861967754364,-0.00133279094696044,-0.249846753501892,0.7265966716117949
6.68109176256814,0.093839204120636,0.13518332233429,-0.060640210533142,0.7265966716117949
6.68169745608722,0.165689790058136,0.21421896686554,0.083060961341858,0.7265966716117949
6.682303149606299,0.026778657245636002,0.11362814655304,-0.07022028865814199,0.7265966716117949
6.682908843125379,-0.126502592754364,-0.12587380657196,0.257897387123108,0.7265966716117949
6.6835145366444575,0.136949555683136,-0.11150368938446001,-0.110935620689392,0.7265966716117949
6.684120230163537,0.048333833026886,-0.0396531034469604,0.126171312904358,0.7265966716117949
6.684725923682617,-0.052256987285614,-0.13305886516571,0.178861742591858,0.7265966716117949
6.685331617201696,0.096234223651886,0.0202223848342896,0.078270922279358,0.7265966716117949
6.6859373107207745,-0.016331694316863998,-0.0157029081344604,-0.113330640220642,0.7265966716117949
6.686543004239855,0.148924653339386,-0.12826882610321,-0.388757886314392,0.7265966716117949
6.687148697758934,-0.030701811504363997,0.00345724811553956,0.11419621524810801,0.7265966716117949
6.687754391278013,0.112999360370636,-0.0851584745407104,0.5165594964981081,0.7265966716117949
6.688360084797093,0.151319672870636,-0.16179909954070998,0.209996996498108,0.7265966716117949
6.688965778316172,-0.064232084941864,0.015432345771789601,-0.06782526912689199,0.7265966716117949
6.689571471835251,0.014803559589386,-0.11629372844696001,0.301007738685608,0.7265966716117949
6.690177165354331,-0.018726713848113998,-0.0372580839157104,-0.163626050376892,0.7265966716117949
6.69078285887341,0.060308930683135996,0.0705177949905396,0.049530687904357995,0.7265966716117949
6.691388552392489,0.062703950214386,0.13278830280304002,0.085455980873108,0.7265966716117949
6.691994245911569,-0.14087270994186402,0.0441725801467896,-0.23308161678314201,0.7265966716117949
6.692599939430648,0.101024262714386,-0.19293435344696,0.018395433998108,0.7265966716117949
6.693205632949727,0.184849946308136,-0.0659983182907104,0.051925707435607996,0.7265966716117949
6.693811326468807,0.093839204120636,-0.049233181571960404,-0.017529858970642,0.7265966716117949
6.694417019987886,0.010013520526886,-0.19772439250946,0.027975512123108,0.7265966716117949
6.695022713506965,-0.059442045879364004,0.16631857624054,-0.012739819908142,0.7265966716117949
6.695628407026045,-0.080997221660614,0.010642306709289602,0.027975512123108,0.7265966716117949
6.696234100545124,-0.021121733379364,-0.0540232206344604,0.133356371498108,0.7265966716117949
6.696839794064203,-0.119317534160614,-0.0803684354782104,-0.039085034751892005,0.7265966716117949
6.697445487583283,-0.097762358379364,-0.0180979276657104,-0.034294995689392004,0.7265966716117949
6.698051181102362,-0.088182280254364,0.20224386920929002,0.097431078529358,0.7265966716117949
6.698656874621442,0.165689790058136,0.0633327363967896,0.10940617618560801,0.7265966716117949
6.6992625681405205,0.342921235370636,0.0441725801467896,0.305797777748108,0.7265966716117949
6.6998682616596,0.235145356464386,-0.13545388469696,0.037555590248108,0.7265966716117949
6.70047395517868,0.036358735370636,0.00824728717803956,-0.166021069908142,0.7265966716117949
6.701079648697759,0.089049165058136,-0.10192361125946,0.188441820716858,0.7265966716117949
6.701685342216838,0.031568696308136,-0.0612082792282104,0.016000414466858,0.7265966716117949
6.702291035735918,-0.10973745603561401,-0.0875534940719604,0.233947191810608,0.7265966716117949
6.702896729254997,0.122579438495636,-0.0444431425094604,0.142936449623108,0.7265966716117949
6.703502422774076,-0.090577299785614,-0.10910866985321001,0.013605394935608,0.7265966716117949
6.704108116293156,0.098629243183136,0.00345724811553956,0.16688664493560798,0.7265966716117949
6.704713809812235,0.184849946308136,-0.051628201103210404,-0.007949780845642,0.7265966716117949
6.705319503331314,0.091444184589386,-0.0827634550094604,0.020790453529358,0.7265966716117949
6.705925196850394,0.110604340839386,0.0537526582717896,-0.031899976158142,0.7265966716117949
6.706530890369473,0.019593598651886,-0.10671365032196001,-0.07501032772064199,0.7265966716117949
6.707136583888552,-0.078602202129364,0.0705177949905396,-0.079800366783142,0.7585894721099102
6.707742277407632,0.091444184589386,0.039382541084289596,-0.07501032772064199,0.7585894721099102
6.708347970926711,0.180059907245636,-0.09713357219696041,0.068690844154358,0.7585894721099102
6.70895366444579,-0.030701811504363997,-0.0157029081344604,-0.07501032772064199,0.7585894721099102
6.70955935796487,-0.021121733379364,0.0321974824905396,-0.07740534725189199,0.7585894721099102
6.710165051483949,-0.013936674785614,0.21661398639679,0.10701115665435801,0.7585894721099102
6.710770745003028,0.024383637714386,-0.13784890422821,-0.007949780845642,0.7585894721099102
6.711376438522108,0.235145356464386,-0.46596658000946,-0.034294995689392004,0.7585894721099102
6.711982132041187,0.160899750995636,-0.0612082792282104,-0.017529858970642,0.7585894721099102
6.7125878255602665,-0.150452788066864,0.10883810749054,0.075875902748108,0.7585894721099102
6.713193519079346,-0.097762358379364,0.0944679903030396,-0.019924878501892,0.7585894721099102
6.713799212598425,-0.121712553691864,-0.12587380657196,0.10940617618560801,0.7585894721099102
6.714404906117504,-0.092972319316864,0.0250124238967896,-0.058245191001892,0.7585894721099102
6.715010599636584,-0.10255239744186401,0.036987521553039596,-0.000764722251892003,0.7585894721099102
6.715616293155663,0.002828461933136,-0.051628201103210404,0.267477465248108,0.7585894721099102
6.716221986674743,0.079469086933136,0.11123312702179,-0.252241773033142,0.7585894721099102
6.716827680193822,-0.174402983379364,-0.0109128690719604,0.48302922306060797,0.7585894721099102
6.717433373712901,-0.059442045879364004,-0.0420481229782104,0.559669848060608,0.7585894721099102
6.718039067231981,-0.001961577129364,0.10404806842804,0.528534594154358,0.7585894721099102
6.71864476075106,0.038753754901886,0.039382541084289596,0.459079027748108,0.7585894721099102
6.719250454270139,-0.078602202129364,-0.0755783964157104,0.032765551185608,0.7585894721099102
6.719856147789219,-0.078602202129364,0.0609377168655396,-0.07261530818939199,0.7585894721099102
6.720461841308298,0.15850473146438598,0.16152853717804,-0.14686091365814202,0.7585894721099102
6.721067534827377,-0.001961577129364,0.00106222858428956,0.164491625404358,0.7585894721099102
6.721673228346457,0.0052234814643860004,-0.24322976360321,0.087851000404358,0.7585894721099102
6.722278921865536,-0.169612944316864,0.0489626192092896,0.195626879310608,0.7585894721099102
6.722884615384615,-0.164822905254364,0.10165304889679,0.23634221134185798,0.7585894721099102
6.723490308903695,0.000433442401886003,-0.15221902141570998,0.10461613712310801,0.7585894721099102
6.724096002422774,0.06988900880813599,-0.14982400188446,-0.007949780845642,0.7585894721099102
6.724701695941853,0.148924653339386,0.0537526582717896,0.150121508216858,0.7585894721099102
6.725307389460933,-0.119317534160614,-0.0731833768844604,0.030370531654358,0.7585894721099102
6.725913082980012,0.0052234814643860004,-0.0683933378219604,-0.216316480064392,0.7585894721099102
6.726518776499091,-0.080997221660614,0.0417775606155396,-0.240266675376892,0.7585894721099102
6.727124470018171,-0.030701811504363997,0.08249289264678959,-0.189971265220642,0.7585894721099102
6.72773016353725,0.07228402833938599,0.0441725801467896,0.18125676212310798,0.7585894721099102
6.728335857056329,-0.100157377910614,-0.13545388469696,-0.127700757408142,0.7585894721099102
6.728941550575409,-0.10734243650436401,-0.24322976360321,-0.07740534725189199,0.7585894721099102
6.729547244094488,0.021988618183136,-0.13545388469696,0.011210375404358,0.7585894721099102
6.730152937613568,0.012408540058135999,0.11123312702179,-0.115725659751892,0.7585894721099102
6.730758631132647,-0.10734243650436401,-0.12347878704071,0.142936449623108,0.7585894721099102
6.731364324651726,-0.069022124004364,-0.12347878704071,-0.010344800376892,0.7585894721099102
6.731970018170806,0.108209321308136,-0.11150368938446001,-0.07740534725189199,0.7585894721099102
6.732575711689885,0.07707406740188599,-0.13066384563445999,0.047135668373107995,0.7585894721099102
6.733181405208964,-0.047466948223114,-0.15221902141570998,0.087851000404358,0.7585894721099102
6.733787098728044,0.06988900880813599,-0.18574929485320998,0.059110766029358,0.7585894721099102
6.734392792247123,0.091444184589386,-0.0851584745407104,0.18125676212310798,0.7585894721099102
6.7349984857662015,0.010013520526886,0.0872829317092896,0.020790453529358,0.7585894721099102
6.735604179285282,-0.059442045879364004,0.00345724811553956,-0.063035230064392,0.7585894721099102
6.736209872804361,-0.10255239744186401,-0.0851584745407104,0.095036058998108,0.7585894721099102
6.73681556632344,-0.085787260723114,0.12560324420929,0.24592228946685799,0.7585894721099102
6.73742125984252,0.175269868183136,0.0944679903030396,0.154911547279358,0.7585894721099102
6.738026953361599,0.089049165058136,-0.0228879667282104,0.11659123477935801,0.7585894721099102
6.738632646880678,0.000433442401886003,-0.0109128690719604,-0.039085034751892005,0.7585894721099102
6.7392383403997576,0.115394379901886,-0.00612283000946044,0.044740648841857994,0.7585894721099102
6.739844033918837,-0.112132475566864,-0.13545388469696,0.032765551185608,0.7585894721099102
6.740449727437916,-0.126502592754364,-0.00372781047821044,-0.376782788658142,0.7585894721099102
6.741055420956996,0.089049165058136,-0.11389870891571001,0.11659123477935801,0.7585894721099102
6.741661114476075,0.124974458026886,-0.049233181571960404,0.073480883216858,0.7585894721099102
6.742266807995154,0.055518891620635995,0.017827365303039598,-0.168416089439392,0.7585894721099102
6.742872501514234,-0.126502592754364,-0.00612283000946044,0.051925707435607996,0.7585894721099102
6.743478195033313,-0.080997221660614,-0.0803684354782104,0.061505785560608,0.7585894721099102
6.744083888552392,0.024383637714386,-0.09713357219696041,-0.000764722251892003,0.7585894721099102
6.744689582071472,0.021988618183136,-0.0731833768844604,-0.015134839439391999,0.7585894721099102
6.745295275590551,0.057913911151885995,-0.0540232206344604,0.061505785560608,0.7585894721099102
6.7459009691096306,0.122579438495636,-0.0324680448532104,0.437523851966858,0.7585894721099102
6.74650666262871,0.101024262714386,-0.0707883573532104,0.442313891029358,0.7585894721099102
6.747112356147789,0.206405122089386,-0.17137917766570998,0.190836840248108,0.7585894721099102
6.747718049666869,0.182454926776886,-0.0683933378219604,0.238737230873108,0.7585894721099102
6.7483237431859475,0.017198579120636,-0.0803684354782104,-0.257031812095642,0.7585894721099102
6.748929436705027,0.297415864276886,-0.13066384563445999,0.044740648841857994,0.7585894721099102
6.749535130224107,0.07228402833938599,0.039382541084289596,0.075875902748108,0.7585894721099102
6.750140823743186,0.031568696308136,-0.25759988079071,-0.07022028865814199,0.7585894721099102
6.7507465172622645,0.093839204120636,-0.0109128690719604,0.10940617618560801,0.7585894721099102
6.751352210781345,0.053123872089386,0.08249289264678959,-0.046270093345642006,0.7585894721099102
6.751957904300424,0.045938813495636,-0.17377419719696,-0.029504956626892,0.7585894721099102
6.752563597819503,0.07467904787063599,-0.0109128690719604,0.118986254310608,0.7585894721099102
6.753169291338583,0.043543793964386,0.0944679903030396,0.255502367591858,0.7585894721099102
6.753774984857662,0.065098969745636,-0.0899485136032104,0.059110766029358,0.7585894721099102
6.754380678376741,0.050728852558136,-0.14742898235320998,-0.010344800376892,0.7585894721099102
6.754986371895821,-0.042676909160614,0.0729128145217896,-0.007949780845642,0.7585894721099102
6.7555920654149,0.043543793964386,0.10644308795929,0.032765551185608,0.7585894721099102
6.756197758933979,-0.071417143535614,-0.16658913860320998,-0.084590405845642,0.7585894721099102
6.756803452453059,-0.059442045879364004,-0.0612082792282104,0.085455980873108,0.7585894721099102
6.757409145972138,-0.114527495098114,0.0489626192092896,0.016000414466858,0.7585894721099102
6.758014839491217,-0.167217924785614,0.15673849811554,-0.230686597251892,0.7585894721099102
6.758620533010297,-0.131292631816864,-0.09713357219696041,0.025580492591858,0.7585894721099102
6.759226226529376,0.148924653339386,0.08488791217803959,0.04234562931060799,0.7585894721099102
6.759831920048455,0.172874848651886,0.039382541084289596,-0.091775464439392,0.7585894721099102
6.760437613567535,-0.126502592754364,-0.12108376750946,-0.031899976158142,0.7585894721099102
6.761043307086614,0.033963715839386,-0.0564182401657104,0.140541430091858,0.7585894721099102
6.761649000605693,0.242330415058136,-0.0779734159469604,0.023185473060608,0.7585894721099102
6.762254694124773,-0.013936674785614,0.039382541084289596,-0.17799616756439202,0.7585894721099102
6.762860387643852,-0.133687651348114,0.039382541084289596,-0.053455151939392,0.7585894721099102
6.763466081162932,-0.143267729473114,0.13039328327179,0.142936449623108,0.7585894721099102
6.7640717746820105,-0.025911772441864,0.0465675996780396,-0.024714917564392,0.7585894721099102
6.76467746820109,0.101024262714386,-0.22646462688445998,-0.022319898033142,0.7585894721099102
6.76528316172017,-0.006751616191864,-0.12108376750946,-0.034294995689392004,0.7585894721099102
6.765888855239249,-0.049861967754364,0.0681227754592896,0.121381273841858,0.7585894721099102
6.7664945487583275,0.124974458026886,0.0633327363967896,-0.019924878501892,0.7585894721099102
6.767100242277408,-0.049861967754364,-0.0372580839157104,-0.058245191001892,0.7585894721099102
6.767705935796487,-0.076207182598114,-0.17377419719696,0.150121508216858,0.7585894721099102
6.768311629315566,0.010013520526886,-0.11389870891571001,-0.15165095272064202,0.7585894721099102
6.768917322834646,0.029173676776886003,-0.16419411907196,-0.0055547613143919995,0.7585894721099102
6.769523016353725,0.029173676776886003,0.0872829317092896,-0.161231030845642,0.7585894721099102
6.770128709872804,-0.049861967754364,0.0633327363967896,0.047135668373107995,0.7585894721099102
6.770734403391884,-0.064232084941864,0.0202223848342896,0.164491625404358,0.7585894721099102
6.771340096910963,-0.088182280254364,-0.0636032987594604,-0.084590405845642,0.7585894721099102
6.771945790430042,0.017198579120636,-0.0827634550094604,0.006420336341858001,0.7585894721099102
6.772551483949122,0.002828461933136,0.11123312702179,-0.07740534725189199,0.7585894721099102
6.773157177468201,-0.167217924785614,0.0561476778030396,-0.110935620689392,0.7585894721099102
6.77376287098728,-0.052256987285614,0.15194845905304002,-0.010344800376892,0.7585894721099102
6.77436856450636,0.184849946308136,-0.0851584745407104,-0.168416089439392,0.7585894721099102
6.774974258025439,0.036358735370636,-0.0157029081344604,-0.44384333553314204,0.7585894721099102
6.775579951544518,-0.121712553691864,0.017827365303039598,0.049530687904357995,0.7585894721099102
6.776185645063598,0.120184418964386,-0.049233181571960404,-0.240266675376892,0.7585894721099102
6.776791338582677,0.192035004901886,0.017827365303039598,-0.180391187095642,0.7585894721099102
6.777397032101756,-0.037886870098114,-0.051628201103210404,0.5908051019668581,0.7585894721099102
6.778002725620836,0.017198579120636,-0.14024392375946,0.23634221134185798,0.7585894721099102
6.778608419139915,-0.021121733379364,0.0345925020217896,0.037555590248108,0.7585894721099102
6.779214112658994,-0.052256987285614,0.22379904499054,0.027975512123108,0.7585894721099102
6.7798198061780734,-0.040281889629364,-0.00612283000946044,-0.134885816001892,0.7585894721099102
6.780425499697153,-0.092972319316864,-0.18095925579070998,-0.149255933189392,0.7585894721099102
6.781031193216233,-0.069022124004364,0.039382541084289596,0.164491625404358,0.7585894721099102
6.781636886735312,0.096234223651886,-0.26957497844696,0.075875902748108,0.7585894721099102
6.782242580254391,0.086654145526886,-0.21688454875945998,-0.055850171470642,0.7585894721099102
6.782848273773471,-0.066627104473114,0.20224386920929002,-0.103750562095642,0.7585894721099102
6.78345396729255,0.105814301776886,0.12081320514679,0.008815355873108001,0.7585894721099102
6.784059660811629,0.045938813495636,0.12081320514679,0.135751391029358,0.7585894721099102
6.784665354330709,-0.049861967754364,0.0537526582717896,-0.019924878501892,0.7585894721099102
6.785271047849788,0.06988900880813599,0.017827365303039598,0.267477465248108,0.7585894721099102
6.785876741368867,-0.13608267087936401,-0.13066384563445999,0.016000414466858,0.7585894721099102
6.786482434887947,-0.10734243650436401,0.0968630098342896,0.039950609779358,0.7585894721099102
6.787088128407026,-0.025911772441864,0.0226174043655396,0.10222111759185801,0.7585894721099102
6.787693821926105,0.07707406740188599,0.0729128145217896,-0.096565503501892,0.7585894721099102
6.788299515445185,0.053123872089386,-0.0851584745407104,0.198021898841858,0.7585894721099102
6.788905208964264,0.000433442401886003,-0.26478493938446,0.006420336341858001,0.7585894721099102
6.789510902483343,0.091444184589386,0.00585226764678956,-0.110935620689392,0.7585894721099102
6.790116596002423,-0.004356596660614,-0.0180979276657104,0.037555590248108,0.7585894721099102
6.790722289521502,0.07467904787063599,-0.10431863079071,0.059110766029358,0.7585894721099102
6.791327983040581,-0.023516752910614,0.0465675996780396,0.087851000404358,0.7585894721099102
6.791933676559661,-0.013936674785614,0.11602316608429,0.080665941810608,0.7585894721099102
6.79253937007874,-0.066627104473114,0.10404806842804,-0.0031597417831420002,0.7585894721099102
6.7931450635978194,0.07228402833938599,0.12081320514679,-0.228291577720642,0.7585894721099102
6.793750757116899,-0.033096831035614005,-0.0180979276657104,-0.13249079647064202,0.7585894721099102
6.794356450635978,0.038753754901886,-0.16419411907196,0.219577074623108,0.7585894721099102
6.794962144155058,0.146529633808136,0.0513576387405396,0.24113225040435798,0.7585894721099102
6.795567837674137,-0.076207182598114,0.0992580293655396,-0.010344800376892,0.7585894721099102
6.796173531193216,0.031568696308136,0.0202223848342896,0.159701586341858,0.7585894721099102
6.796779224712296,0.038753754901886,-0.00612283000946044,0.04234562931060799,0.7585894721099102
6.797384918231375,0.271070649433136,-0.11389870891571001,-0.000764722251892003,0.7585894721099102
6.797990611750454,0.122579438495636,-0.00612283000946044,-0.084590405845642,0.7585894721099102
6.798596305269534,-0.059442045879364004,0.10404806842804,-0.19715632381439202,0.7585894721099102
6.799201998788613,-0.229488432598114,-0.15461404094696,0.20760197696685798,0.7585894721099102
6.7998076923076916,-0.080997221660614,-0.12826882610321,0.14772648868560798,0.7585894721099102
6.800413385826772,0.079469086933136,0.0489626192092896,-0.015134839439391999,0.7585894721099102
6.801019079345851,0.07467904787063599,-0.0252829862594604,-0.086985425376892,0.7585894721099102
6.80162477286493,0.019593598651886,0.0489626192092896,-0.094170483970642,0.7585894721099102
6.80223046638401,0.021988618183136,-0.14982400188446,0.001630297279358,0.7585894721099102
6.802836159903089,0.033963715839386,-0.0612082792282104,-0.07501032772064199,0.7585894721099102
6.803441853422168,-0.076207182598114,0.10644308795929,0.023185473060608,0.7585894721099102
6.804047546941248,-0.035491850566864006,0.017827365303039598,-0.07501032772064199,0.7585894721099102
6.804653240460327,0.026778657245636002,-0.0468381620407104,-0.257031812095642,0.7585894721099102
6.805258933979406,0.07467904787063599,-0.09713357219696041,0.056715746498108,0.7585894721099102
6.805864627498486,-0.162427885723114,-0.18814431438446,0.408783617591858,0.7585894721099102
6.8064703210175646,-0.023516752910614,0.00106222858428956,0.46386906681060797,0.7585894721099102
6.807076014536644,-0.083392241191864,0.20224386920929002,0.447103930091858,1.5706737158652393
6.807681708055724,-0.030701811504363997,-0.027678005790710402,0.377648363685608,1.5706737158652393
6.808287401574803,0.127369477558136,-0.0755783964157104,0.030370531654358,1.5706737158652393
6.808893095093882,0.019593598651886,0.036987521553039596,0.030370531654358,1.5706737158652393
6.809498788612962,0.045938813495636,-0.0636032987594604,0.006420336341858001,1.5706737158652393
6.810104482132041,0.038753754901886,0.0274074434280396,-0.055850171470642,1.5706737158652393
6.810710175651121,0.07707406740188599,0.10404806842804,0.054320726966857996,1.5706737158652393
6.8113158691702,-0.073812163066864,-0.09473855266571041,-0.07740534725189199,1.5706737158652393
6.811921562689279,0.086654145526886,-0.14263894329071,0.238737230873108,1.5706737158652393
6.812527256208359,0.148924653339386,0.0944679903030396,0.135751391029358,1.5706737158652393
6.8131329497274375,-0.143267729473114,0.0226174043655396,0.083060961341858,1.5706737158652393
6.813738643246517,0.098629243183136,-0.0204929471969604,0.10940617618560801,1.5706737158652393
6.814344336765597,0.06988900880813599,0.0561476778030396,0.11419621524810801,1.5706737158652393
6.814950030284676,0.079469086933136,-0.00612283000946044,0.154911547279358,1.5706737158652393
6.8155557238037545,-0.152847807598114,-0.0204929471969604,-0.053455151939392,1.5706737158652393
6.816161417322835,-0.076207182598114,-0.0109128690719604,-0.0031597417831420002,1.5706737158652393
6.816767110841914,0.098629243183136,0.0729128145217896,0.188441820716858,1.5706737158652393
6.817372804360993,-0.028306791973114,0.0609377168655396,0.262687426185608,1.5706737158652393
6.817978497880073,0.170479829120636,-0.0683933378219604,0.075875902748108,1.5706737158652393
6.818584191399152,-0.033096831035614005,-0.0827634550094604,0.123776293373108,1.5706737158652393
6.819189884918231,0.026778657245636002,0.0992580293655396,0.044740648841857994,1.5706737158652393
6.8197955784373105,-0.083392241191864,0.11123312702179,-0.103750562095642,1.5706737158652393
6.82040127195639,0.105814301776886,0.10165304889679,0.008815355873108001,1.5706737158652393
6.821006965475469,0.146529633808136,0.0417775606155396,0.001630297279358,1.5706737158652393
6.821612658994549,-0.052256987285614,-0.0659983182907104,-0.252241773033142,1.5706737158652393
6.822218352513628,0.017198579120636,0.17829367389679002,-0.07022028865814199,1.5706737158652393
6.822824046032707,-0.028306791973114,0.0705177949905396,0.11180119571685801,1.5706737158652393
6.823429739551787,0.045938813495636,-0.0372580839157104,0.214787035560608,1.5706737158652393
6.824035433070866,0.060308930683135996,0.0465675996780396,0.233947191810608,1.5706737158652393
6.824641126589945,-0.083392241191864,-0.0228879667282104,0.039950609779358,1.5706737158652393
6.825246820109025,-0.030701811504363997,-0.11389870891571001,-0.041480054283142005,1.5706737158652393
6.825852513628104,0.000433442401886003,-0.13305886516571,-0.043875073814392006,1.5706737158652393
6.8264582071471835,-0.054652006816864,0.017827365303039598,-0.089380444908142,1.5706737158652393
6.827063900666263,-0.040281889629364,-0.027678005790710402,-0.07022028865814199,1.5706737158652393
6.827669594185342,-0.028306791973114,-0.0755783964157104,-0.027109937095642,1.5706737158652393
6.828275287704422,0.033963715839386,-0.0995285917282104,-0.101355542564392,1.5706737158652393
6.8288809812235005,-0.052256987285614,-0.21927956829071,0.051925707435607996,1.5706737158652393
6.82948667474258,0.139344575214386,-0.11389870891571001,0.118986254310608,1.5706737158652393
6.83009236826166,-0.001961577129364,0.19984884967804,0.095036058998108,1.5706737158652393
6.830698061780739,-0.073812163066864,0.0202223848342896,0.008815355873108001,1.5706737158652393
6.8313037552998175,0.132159516620636,-0.14024392375946,0.145331469154358,1.5706737158652393
6.831909448818898,0.06988900880813599,-0.0899485136032104,0.16688664493560798,1.5706737158652393
6.832515142337977,0.021988618183136,-0.0803684354782104,0.18604680118560799,1.5706737158652393
6.833120835857056,0.021988618183136,-0.14263894329071,0.025580492591858,1.5706737158652393
6.833726529376136,0.124974458026886,-0.0324680448532104,0.169281664466858,1.5706737158652393
6.834332222895215,-0.035491850566864006,0.14476340045929,0.150121508216858,1.5706737158652393
6.834937916414294,-0.14087270994186402,0.036987521553039596,-0.0055547613143919995,1.5706737158652393
6.835543609933374,0.101024262714386,-0.17616921672820998,-0.06782526912689199,1.5706737158652393
6.836149303452453,0.060308930683135996,0.00345724811553956,-0.352832593345642,1.5706737158652393
6.836754996971532,0.031568696308136,0.14236838092804002,-0.13728083553314202,1.5706737158652393
6.837360690490612,-0.006751616191864,-0.0420481229782104,0.427943773841858,1.5706737158652393
6.837966384009691,0.110604340839386,-0.0875534940719604,0.15730656681060798,1.5706737158652393
6.83857207752877,0.168084809589386,-0.013307888603210399,-0.280982007408142,1.5706737158652393
6.83917777104785,0.024383637714386,0.0729128145217896,-0.07501032772064199,1.5706737158652393
6.839783464566929,0.031568696308136,-0.10910866985321001,0.178861742591858,1.5706737158652393
6.840389158086008,-0.073812163066864,-0.25999490032196004,0.006420336341858001,1.5706737158652393
6.840994851605088,0.010013520526886,0.0250124238967896,-0.156440991783142,1.5706737158652393
6.841600545124167,-0.114527495098114,-0.030073025321960403,0.248317308998108,1.5706737158652393
6.842206238643246,0.151319672870636,0.029802462959289597,-0.07022028865814199,1.5706737158652393
6.842811932162326,0.093839204120636,0.23816916217804002,0.020790453529358,1.5706737158652393
6.843417625681405,-0.025911772441864,-0.00612283000946044,0.11419621524810801,1.5706737158652393
6.844023319200485,0.065098969745636,0.10404806842804,-0.015134839439391999,1.5706737158652393
6.8446290127195635,0.060308930683135996,0.029802462959289597,-0.060640210533142,1.5706737158652393
6.845234706238643,0.041148774433136,0.0345925020217896,0.035160570716858,1.5706737158652393
6.845840399757723,-0.059442045879364004,0.13278830280304002,0.320167894935608,1.5706737158652393
6.846446093276802,0.010013520526886,0.0777028535842896,0.071085863685608,1.5706737158652393
6.8470517867958804,-0.037886870098114,0.0465675996780396,0.004025316810608,1.5706737158652393
6.847657480314961,0.16329477052688599,-0.12587380657196,0.061505785560608,1.5706737158652393
6.84826317383404,-0.064232084941864,0.0585426973342896,-0.046270093345642006,1.5706737158652393
6.848868867353119,0.091444184589386,-0.10192361125946,-0.098960523033142,1.5706737158652393
6.849474560872199,0.292625825214386,-0.0468381620407104,0.061505785560608,1.5706737158652393
6.850080254391278,0.055518891620635995,-0.0396531034469604,0.020790453529358,1.5706737158652393
6.850685947910357,0.057913911151885995,0.0920729707717896,-0.063035230064392,1.5706737158652393
6.851291641429437,-0.069022124004364,0.19745383014679002,0.150121508216858,1.5706737158652393
6.851897334948516,-0.073812163066864,0.0657277559280396,-0.039085034751892005,1.5706737158652393
6.852503028467595,0.07707406740188599,0.029802462959289597,0.056715746498108,1.5706737158652393
6.853108721986675,0.086654145526886,-0.19532937297821,-0.120515698814392,1.5706737158652393
6.853714415505754,0.045938813495636,-0.030073025321960403,-0.089380444908142,1.5706737158652393
6.854320109024833,0.129764497089386,0.00585226764678956,0.159701586341858,1.5706737158652393
6.854925802543913,0.196825043964386,-0.0875534940719604,-0.000764722251892003,1.5706737158652393
6.855531496062992,-0.073812163066864,0.0561476778030396,0.051925707435607996,1.5706737158652393
6.856137189582071,0.019593598651886,-0.20251443157196,0.049530687904357995,1.5706737158652393
6.856742883101151,0.146529633808136,-0.15221902141570998,0.006420336341858001,1.5706737158652393
6.85734857662023,0.017198579120636,0.0321974824905396,0.10461613712310801,1.5706737158652393
6.8579542701393095,0.07228402833938599,0.0321974824905396,0.11659123477935801,1.5706737158652393
6.858559963658389,0.043543793964386,0.0872829317092896,0.027975512123108,1.5706737158652393
6.859165657177468,0.007618500995636,0.13039328327179,0.054320726966857996,1.5706737158652393
6.859771350696547,-0.035491850566864006,-0.14742898235320998,0.10461613712310801,1.5706737158652393
6.860377044215626,-0.042676909160614,0.017827365303039598,-0.166021069908142,1.5706737158652393
6.860982737734706,-0.080997221660614,0.18787375202179002,0.039950609779358,1.5706737158652393
6.861588431253786,-0.009146635723114001,-0.17616921672820998,0.123776293373108,1.5706737158652393
6.862194124772865,-0.047466948223114,-0.0659983182907104,0.035160570716858,1.5706737158652393
6.862799818291944,-0.100157377910614,0.039382541084289596,0.051925707435607996,1.5706737158652393
6.863405511811024,0.036358735370636,0.10644308795929,-0.0055547613143919995,1.5706737158652393
6.864011205330103,-0.045071928691864,-0.00851784954071044,0.11180119571685801,1.5706737158652393
6.864616898849182,0.101024262714386,0.11602316608429,0.22197209415435798,1.5706737158652393
6.865222592368262,0.036358735370636,0.15913351764679,0.327352953529358,1.5706737158652393
6.865828285887341,-0.066627104473114,-0.00851784954071044,-0.103750562095642,1.5706737158652393
6.86643397940642,-0.143267729473114,-0.00851784954071044,-0.23787165584564202,1.5706737158652393
6.8670396729255,-0.078602202129364,0.00345724811553956,-0.091775464439392,1.5706737158652393
6.867645366444579,0.000433442401886003,-0.0731833768844604,-0.06543024959564199,1.5706737158652393
6.868251059963658,-0.100157377910614,0.0226174043655396,0.209996996498108,1.5706737158652393
6.868856753482738,0.06988900880813599,-0.030073025321960403,-0.000764722251892003,1.5706737158652393
6.869462447001817,0.021988618183136,-0.049233181571960404,0.085455980873108,1.5706737158652393
6.870068140520896,-0.001961577129364,0.13518332233429,0.253107348060608,1.5706737158652393
6.870673834039976,0.060308930683135996,0.0561476778030396,0.049530687904357995,1.5706737158652393
6.871279527559055,-0.016331694316863998,-0.00612283000946044,0.188441820716858,1.5706737158652393
6.871885221078134,0.06988900880813599,0.0920729707717896,0.071085863685608,1.5706737158652393
6.872490914597214,0.091444184589386,0.036987521553039596,0.025580492591858,1.5706737158652393
6.873096608116293,-0.023516752910614,-0.0157029081344604,0.001630297279358,1.5706737158652393
6.873702301635372,0.07707406740188599,0.0992580293655396,0.051925707435607996,1.5706737158652393
6.874307995154452,-0.047466948223114,-0.14024392375946,0.095036058998108,1.5706737158652393
6.874913688673531,-0.088182280254364,-0.0204929471969604,0.075875902748108,1.5706737158652393
