Time (s),Accel X (m/s^2),Accel Y (m/s^2),Accel Z (m/s^2)
5.0,0.26141900138855,-0.009929039955139149,-0.129695733833313
5.00060569351908,0.21112359123229998,-0.0554344110488892,0.457084051322937
5.0012113870381585,-0.00442816658020019,-0.0698045282363892,0.105016180229187
5.001817080557238,0.017127009201049797,0.0212062139511108,-0.00515471820831281
5.002422774076317,0.0147319896697998,0.255918128013611,0.227162176322937
5.003028467595397,0.017127009201049797,-0.0650144891738892,0.351703191947937
5.003634161114476,0.0027568920135498096,-0.0314842157363892,0.186446844291687
5.004239854633555,0.0123369701385498,0.047551428794860795,0.0283755552291872
5.004845548152635,0.0626323802947998,-0.038669274330139204,0.0235855161666872
5.0054512416717145,0.18717339591979998,0.00923111629486085,-0.165621026802063
5.006056935190793,0.3308745677948,0.00923111629486085,-0.306927179145813
5.006662628709873,0.00515191154479981,0.08826676082611079,-0.247051690864563
5.007268322228952,-0.0451434986114502,-0.0554344110488892,0.0619058286666872
5.0078740157480315,0.11292779045105,-0.151235192298889,-0.00994475727081281
5.008479709267111,0.16322320060729997,-0.108124840736389,-0.0410800111770628
5.00908540278619,-0.00682318611145019,0.0116261358261108,-0.213521417427063
5.00969109630527,-0.0499335376739502,0.0547364873886108,0.107411199760437
5.010296789824349,0.1057427318573,0.16251236629486102,-0.0865853822708128
5.010902483343428,-0.0906488697052002,0.0786866827011108,0.5983902036666869
5.011508176862508,-0.025983342361450203,-0.103334801673889,0.255902410697937
5.012113870381587,0.14645806388854998,0.12179703426361099,-0.168016046333313
5.012719563900666,-0.1289691822052,-0.0769895868301392,0.289432684135437
5.013325257419746,0.00036187248229980703,-0.0314842157363892,-0.0530551088333128
5.013930950938825,0.2638140209198,-0.0171140985488892,0.169681707572937
5.0145366444579045,0.00515191154479981,0.179277503013611,-0.175201104927063
5.015142337976983,0.17040825920105,0.28465836238861103,0.160101629447937
5.015748031496063,0.0147319896697998,-0.0506443719863892,0.0235855161666872
5.016353725015143,-0.028378361892700203,0.13137711238861102,0.08346100444793719
5.0169594185342214,-0.023588322830200202,0.042761389732360794,0.176866766166687
5.017565112053301,-0.18405463142395,-0.000348961830139153,0.145731512260437
5.018170805572381,0.0961626537322998,0.0858717412948608,0.136151434135437
5.01877649909146,-0.00442816658020019,-0.13207503604888898,-0.0937704408645628
5.019382192610539,-0.0954389087677002,0.049946448326110796,0.253507391166687
5.019987886129618,0.23746880607604998,0.10742691707611099,0.040350652885437197
5.020593579648698,0.19196343498229998,-0.0338792352676392,-0.029104913520812802
5.0211992731677775,0.0291021068572998,0.00683609676361085,-0.242261651802063
5.021804966686856,0.0937676342010498,-0.043459313392639205,-0.0171298158645628
5.022410660205936,-0.2199799243927,0.105031897544861,0.155311590385437
5.023016353725015,0.0746074779510498,0.27507828426361103,-0.007549737739562809
5.0236220472440944,-0.0116132251739502,-0.0793846063613892,-0.165621026802063
5.024227740763174,0.13687798576354998,-0.0314842157363892,-0.0458700502395628
5.024833434282253,0.19196343498229998,0.004441077232360849,0.231952215385437
5.025439127801333,-0.20800482673645002,-0.0195091180801392,-0.160830987739563
5.026044821320412,-0.0140082447052002,0.08826676082611079,-0.029104913520812802
5.026650514839491,-0.054723576736450195,-0.144050133705139,-0.0841903627395628
5.027256208358571,0.0410772045135498,0.0691066045761108,-0.0123397768020628
5.02786190187765,0.16801323966979997,0.004441077232360849,0.107411199760437
5.028467595396729,-0.0211933032989502,-0.280566246986389,0.126571356010437
5.029073288915809,0.00515191154479981,-0.235060875892639,0.011610418510437199
5.029678982434888,0.2254937084198,-0.14165511417388899,-0.0674252260208128
5.030284675953967,0.0410772045135498,-0.115309899330139,-0.160830987739563
5.030890369473046,-0.0355634204864502,0.0715016241073608,0.116991277885437
5.031496062992126,0.14166802482604998,0.126587073326111,0.301407781791687
5.032101756511206,-0.0355634204864502,0.0667115850448608,0.0762759458541872
5.032707450030284,-0.17686957283020002,-0.0290891962051392,0.126571356010437
5.033313143549364,-0.0116132251739502,-0.043459313392639205,0.0571157896041872
5.033918837068444,0.3069243724823,-0.0338792352676392,0.014005438041687199
5.034524530587523,0.033892145919799804,-0.144050133705139,0.009215398979187191
5.035130224106602,-0.0403534595489502,-0.22787581729888898,-0.0219198549270628
5.035735917625681,0.19914849357605,-0.009929039955139149,-0.0434750307083128
5.036341611144761,0.036287165451049805,0.17209244441986102,0.08346100444793719
5.03694730466384,0.0578423412322998,0.09305679988861079,-0.0722152650833128
5.037552998182919,-0.0595136157989502,0.11221695613861099,-0.0889804018020628
5.038158691701999,-0.023588322830200202,0.100241858482361,0.0690908872604372
5.038764385221078,0.0770024974822998,0.052341467857360796,-0.00275969867706281
5.039370078740157,0.0434722240447998,-0.14165511417388899,-0.359617608833313
5.039975772259237,0.1440630443573,-0.103334801673889,0.140941473197937
5.040581465778316,0.017127009201049797,0.018811194419860802,0.128966375541687
5.041187159297396,-0.0643036548614502,-0.256616051673889,0.476244207572937
5.041792852816475,0.036287165451049805,0.0331813116073608,0.193631902885437
5.042398546335554,-0.15770941658020002,0.0619215459823608,-0.112930597114563
5.043004239854634,-0.0379584400177002,-0.0602244501113892,0.116991277885437
5.0436099333737126,-0.0164032642364502,-0.0314842157363892,0.186446844291687
5.044215626892792,-0.1098090259552,0.0283912725448608,0.277457586479187
5.044821320411872,0.20393853263855,-0.0698045282363892,-0.235076593208313
5.045427013930951,0.1488530834198,0.09784683895111079,-0.215916436958313
5.04603270745003,0.00515191154479981,-0.0626194696426392,0.200816961479187
5.046638400969109,-0.0211933032989502,-0.16800032901763898,0.231952215385437
5.047244094488189,-0.0619086353302002,0.0619215459823608,-0.0147347963333128
5.047849788007269,-0.17207953376770002,-0.0937547235488892,-0.0362899721145628
5.048455481526347,-0.0499335376739502,0.0379713506698608,-0.0219198549270628
5.049061175045427,0.0817925365447998,0.10742691707611099,-0.110535577583313
5.049666868564507,-0.0643036548614502,0.11461197566986099,-0.127300714302063
5.0502725620835855,0.00036187248229980703,0.0762916631698608,0.174471746635437
5.050878255602665,-0.0211933032989502,-0.0219041376113892,0.114596258354187
5.051483949121744,0.2446538646698,-0.0793846063613892,0.009215398979187191
5.052089642640824,-0.16010443611145,0.0164161748886108,0.138546453666687
5.052695336159903,-0.13615424079895003,-0.038669274330139204,-0.0267098939895628
5.053301029678982,-0.00682318611145019,-0.0698045282363892,-0.242261651802063
5.053906723198062,0.22309868888854997,-0.00274398136138915,0.004425359916687191
5.054512416717141,0.21351861076355,-0.0602244501113892,-0.184781183052063
5.05511811023622,0.0506572826385498,0.0259962530136108,-0.0889804018020628
5.0557238037553,0.036287165451049805,0.102636878013611,0.114596258354187
5.056329497274379,-0.17926459236145,-0.00753402042388915,-0.0243148744583128
5.0569351907934585,0.13687798576354998,0.13616715145111102,0.116991277885437
5.057540884312538,0.2494439037323,0.0715016241073608,-0.000364679145812814
5.058146577831617,0.0722124584197998,-0.0314842157363892,-0.170411065864563
5.058752271350697,-0.10262396736145,0.0164161748886108,-0.0458700502395628
5.0593579648697755,0.0841875560760498,0.0283912725448608,0.0619058286666872
5.059963658388855,-0.054723576736450195,-0.0698045282363892,0.136151434135437
5.060569351907935,-0.10741400642394999,-0.105729821205139,0.0523257505416872
5.061175045427014,-0.1050189868927,0.124192053794861,0.0643008481979372
5.061780738946093,-0.00442816658020019,0.23196793270111102,0.181656805229187
5.062386432465172,0.0506572826385498,0.0547364873886108,0.011610418510437199
5.062992125984252,0.1153228099823,0.0715016241073608,-0.0889804018020628
5.0635978195033315,0.0267070873260498,-0.0769895868301392,0.160101629447937
5.06420351302241,0.1105327709198,-0.12488997745513901,-0.0770053041458128
5.06480920654149,0.0650273998260498,0.19125260066986102,-0.0746102846145628
5.06541490006057,-0.1193891040802,0.169697424888611,-0.0410800111770628
5.0660205935796485,0.0961626537322998,0.0379713506698608,-0.0865853822708128
5.066626287098728,0.0602373607635498,-0.0195091180801392,0.0451406919479372
5.067231980617807,0.0291021068572998,-0.08177962589263921,0.0906460630416872
5.067837674136887,0.017127009201049797,-0.0290891962051392,0.0259805356979372
5.068443367655966,0.0147319896697998,0.0715016241073608,0.0930410825729372
5.069049061175045,-0.00682318611145019,-0.144050133705139,0.0355606138229372
5.069654754694125,-0.0595136157989502,-0.158420250892639,-0.160830987739563
5.0702604482132045,-0.06669867439270019,-0.139260094642639,-0.287767022895813
5.070866141732283,0.19675347404479998,-0.014719079017639199,0.327752996635437
5.071471835251363,-0.10741400642394999,-0.0745945672988892,0.5409097349166869
5.072077528770442,-0.0810687915802002,-0.170395348548889,0.126571356010437
5.0726832222895215,-0.0762787525177002,0.0403663702011108,0.08346100444793719
5.073288915808601,-0.0906488697052002,0.0691066045761108,0.0547207700729372
5.07389460932768,0.37158989982605,-0.0626194696426392,0.040350652885437197
5.07450030284676,0.033892145919799804,0.09545181941986079,-0.199151300239563
5.0751059963658385,0.036287165451049805,0.0786866827011108,0.0978311216354372
5.075711689884918,-0.06669867439270019,-0.218295739173889,0.0762759458541872
5.076317383403998,0.1057427318573,0.09784683895111079,-0.0338949525833128
5.076923076923077,0.19196343498229998,0.0786866827011108,0.279852606010437
5.077528770442156,-0.0475385181427002,-0.0123240594863892,-0.0889804018020628
5.078134463961236,0.0243120677947998,0.0834767217636108,-0.223101495552063
5.078740157480315,-0.0475385181427002,-0.014719079017639199,0.0475357114791872
5.0793458509993945,-0.0451434986114502,-0.199135582923889,-0.000364679145812814
5.079951544518473,0.1344829662323,-0.0985447626113892,0.0427456724166872
5.080557238037553,0.13687798576354998,-0.0314842157363892,0.181656805229187
5.081162931556633,0.0889775951385498,0.0715016241073608,0.133756414604187
5.0817686250757115,0.021917048263549798,0.014021155357360801,0.009215398979187191
5.082374318594791,0.0674224193572998,0.018811194419860802,0.0930410825729372
5.08298001211387,0.0698174388885498,0.004441077232360849,-0.00994475727081281
5.08358570563295,-0.1002289478302,-0.16800032901763898,-0.007549737739562809
5.084191399152029,-0.00921820564270019,0.0403663702011108,-0.0985604799270628
5.084797092671108,-0.00203314704895019,0.138562170982361,0.0187954771041872
5.085402786190188,-0.2103998462677,-0.12249495792388901,0.222372137260437
5.0860084797092675,0.0434722240447998,-0.25422103214263897,0.119386297416687
5.086614173228346,0.0650273998260498,-0.0961497430801392,-0.0482650697708128
5.087219866747426,0.00515191154479981,0.00204605770111085,-0.0147347963333128
5.087825560266505,0.0458672435760498,0.0715016241073608,0.21039703960418701
5.0884312537855845,0.0626323802947998,0.0595265264511108,0.136151434135437
5.089036947304664,0.17519829826355,0.0810817022323608,-0.0386849916458128
5.089642640823743,-0.15052435798645,0.0212062139511108,-0.0219198549270628
5.090248334342823,-0.052328557205200195,0.0715016241073608,-0.0770053041458128
5.090854027861902,0.0291021068572998,-0.0554344110488892,0.243927313041687
5.091459721380981,-0.07388373298645019,-0.184765465736389,0.181656805229187
5.092065414900061,-0.00442816658020019,0.018811194419860802,0.030770574760437198
5.09267110841914,0.0291021068572998,-0.0745945672988892,0.200816961479187
5.093276801938219,0.0410772045135498,0.0691066045761108,0.0978311216354372
5.093882495457299,0.0434722240447998,0.164907385826111,0.224767156791687
5.094488188976378,0.1105327709198,-0.026694176673889198,0.181656805229187
5.0950938824954575,0.0985576732635498,-0.0578294305801392,0.109806219291687
5.095699576014536,-0.0978339282989502,0.0786866827011108,0.184051824760437
5.096305269533616,-0.06669867439270019,0.045156409263610794,0.100226141166687
5.096910963052696,-0.0211933032989502,-0.08177962589263921,-0.0578451478958128
5.097516656571774,0.19675347404479998,0.210412756919861,0.0930410825729372
5.098122350090854,0.0602373607635498,0.045156409263610794,0.0810659849166872
5.098728043609934,0.0291021068572998,-0.08177962589263921,0.0451406919479372
5.099333737129013,-0.19842474861145,-0.0171140985488892,0.5672549497604369
5.099939430648092,0.0458672435760498,0.052341467857360796,0.0427456724166872
5.100545124167171,0.16322320060729997,0.0619215459823608,-0.168016046333313
5.101150817686251,-0.26548529548645,-0.0578294305801392,0.392418523979187
5.10175651120533,0.2973442943573,-0.0554344110488892,0.102621160697937
5.102362204724409,0.17280327873229998,0.0116261358261108,-0.196756280708313
5.102967898243489,-0.1385492603302,-0.230270836830139,0.0523257505416872
5.103573591762568,0.1201128490448,-0.179975426673889,0.143336492729187
5.104179285281647,0.1488530834198,0.014021155357360801,-0.177596124458313
5.104784978800727,0.0722124584197998,-0.0482493524551392,-0.00515471820831281
5.105390672319806,-0.00203314704895019,0.0643165655136108,0.0690908872604372
5.105996365838886,-0.0403534595489502,-0.16321028995513898,-0.115325616645813
5.106602059357965,0.0554473217010498,-0.100939782142639,-0.136880792427063
5.107207752877044,0.11292779045105,0.12179703426361099,0.157706609916687
5.107813446396124,0.23267876701354998,-0.0051390008926391504,0.0690908872604372
5.108419139915203,0.0722124584197998,0.0810817022323608,-0.275791925239563
5.109024833434282,0.033892145919799804,-0.19674056339263898,0.0930410825729372
5.109630526953362,-0.0187982837677002,0.11700699520111099,0.0906460630416872
5.110236220472441,-0.052328557205200195,0.198437659263611,-0.0865853822708128
5.11084191399152,0.0147319896697998,-0.041064293861389205,-0.0889804018020628
5.1114476075106,-0.0307733814239502,0.133772131919861,-0.0554501283645628
5.112053301029679,0.1153228099823,-0.0961497430801392,0.011610418510437199
5.112658994548758,0.1296929271698,0.049946448326110796,0.0475357114791872
5.113264688067838,0.23267876701354998,0.0283912725448608,0.0690908872604372
5.113870381586917,0.17519829826355,0.0762916631698608,-0.0602401674270628
5.114476075105996,0.0770024974822998,0.0667115850448608,0.105016180229187
5.115081768625076,0.19914849357605,-0.0051390008926391504,0.0499307310104372
5.115687462144155,0.0243120677947998,-0.127284996986389,-0.124905694770813
5.116293155663234,0.019522028732299797,-0.19195052433013898,-0.0530551088333128
5.116898849182314,0.1488530834198,0.13616715145111102,0.0762759458541872
5.117504542701393,0.19675347404479998,0.0379713506698608,0.239137273979187
5.118110236220472,0.00515191154479981,-0.203925621986389,0.0738809263229372
5.118715929739552,-0.0906488697052002,0.155327307701111,-0.0171298158645628
5.119321623258631,-0.0834638111114502,0.09545181941986079,0.0906460630416872
5.11992731677771,0.10334771232605,-0.206320641517639,-0.0626351869583128
5.12053301029679,0.0913726146697998,-0.0578294305801392,-0.00515471820831281
5.121138703815869,0.0530523021697998,0.0355763311386108,0.239137273979187
5.121744397334949,0.17040825920105,-0.0051390008926391504,0.219977117729187
5.122350090854028,-0.054723576736450195,-0.127284996986389,0.186446844291687
5.122955784373107,0.1296929271698,-0.0578294305801392,0.131361395072937
5.123561477892187,0.0506572826385498,-0.045854332923889206,0.0666958677291872
5.124167171411266,0.0482622631072998,-0.00753402042388915,0.21039703960418701
5.124772864930345,0.1392730052948,-0.0793846063613892,0.0331655942916872
5.125378558449425,-0.12657416267395,-0.00753402042388915,-0.0362899721145628
5.125984251968504,-0.0140082447052002,-0.0698045282363892,-0.103350518989563
5.126589945487583,0.0482622631072998,0.00683609676361085,-0.203941339302063
5.127195639006663,-0.0499335376739502,0.0571315069198608,0.124176336479187
5.127801332525742,0.1296929271698,-0.19195052433013898,0.0355606138229372
5.128407026044821,-0.025983342361450203,-0.112914879798889,0.0523257505416872
5.129012719563901,-0.00203314704895019,-0.0314842157363892,-0.0147347963333128
5.12961841308298,0.0027568920135498096,-0.08656966495513921,0.401998602104187
5.130224106602059,-0.16968451423645,-0.129680016517639,-0.108140558052063
5.130829800121139,-0.10741400642394999,0.0595265264511108,0.138546453666687
5.131435493640218,-0.1385492603302,0.0212062139511108,0.0619058286666872
5.132041187159297,-0.0954389087677002,-0.0554344110488892,-0.158435968208313
5.132646880678377,-0.0810687915802002,-0.0602244501113892,0.217582098197937
5.133252574197456,0.0458672435760498,0.0786866827011108,-0.0386849916458128
5.133858267716535,0.18717339591979998,-0.0602244501113892,0.236742254447937
5.134463961235615,-0.0116132251739502,0.014021155357360801,-0.0171298158645628
5.135069654754694,-0.1385492603302,-0.026694176673889198,0.222372137260437
5.135675348273773,-0.0499335376739502,-0.103334801673889,0.0259805356979372
5.136281041792853,-0.2008197681427,0.16730240535736102,0.011610418510437199
5.136886735311932,0.0027568920135498096,-0.0506443719863892,0.011610418510437199
5.137492428831012,-0.0451434986114502,-0.175185387611389,-0.0554501283645628
5.138098122350091,-0.1145990650177,-0.000348961830139153,-0.000364679145812814
5.13870381586917,0.16082818107605,0.188857581138611,-0.00275969867706281
5.13930950938825,-0.00442816658020019,0.049946448326110796,-0.158435968208313
5.139915202907329,-0.0403534595489502,-0.0721995477676392,-0.007549737739562809
5.140520896426408,0.1105327709198,-0.12488997745513901,0.162496648979187
5.141126589945488,-0.15052435798645,-0.100939782142639,0.0930410825729372
5.141732283464567,0.0027568920135498096,0.00683609676361085,0.263087469291687
5.142337976983646,0.0793975170135498,0.09305679988861079,0.133756414604187
5.142943670502726,0.0961626537322998,-0.09135970401763921,0.0978311216354372
5.143549364021805,0.10813775138855,-0.0578294305801392,0.191236883354187
5.144155057540884,0.0865825756072998,0.169697424888611,0.0714859067916872
5.144760751059964,0.0578423412322998,-0.0769895868301392,-0.09616546039581281
5.145366444579043,-0.13615424079895003,-0.0554344110488892,-0.0147347963333128
5.145972138098122,-0.0403534595489502,0.0667115850448608,0.155311590385437
5.146577831617202,0.0530523021697998,0.018811194419860802,0.196026922416687
5.147183525136281,-0.057118596267700196,-0.14165511417388899,0.0666958677291872
5.14778921865536,-0.0858588306427002,-0.203925621986389,0.155311590385437
5.14839491217444,0.0817925365447998,-0.0698045282363892,0.08346100444793719
5.149000605693519,0.0698174388885498,-0.11770491886138901,0.167286688041687
5.149606299212598,-0.0116132251739502,-0.0171140985488892,0.212792059135437
5.150211992731678,-0.15770941658020002,0.0643165655136108,-0.0913754213333128
5.150817686250757,0.1344829662323,0.09784683895111079,-0.0434750307083128
5.151423379769836,0.0817925365447998,-0.14165511417388899,0.296617742729187
5.152029073288916,-0.1193891040802,-0.13686507511138898,0.346913152885437
5.152634766807995,0.35721978263855,-0.0051390008926391504,-0.160830987739563
5.153240460327075,-0.0140082447052002,-0.00274398136138915,0.119386297416687
5.153846153846154,-0.2056098072052,-0.11770491886138901,-0.0937704408645628
5.154451847365233,0.0961626537322998,-0.144050133705139,0.004425359916687191
5.155057540884313,-0.0834638111114502,0.0810817022323608,0.162496648979187
5.155663234403392,0.0482622631072998,-0.0602244501113892,0.0786709653854372
5.156268927922471,0.1057427318573,-0.045854332923889206,0.0451406919479372
5.156874621441551,-0.0451434986114502,0.0259962530136108,-0.203941339302063
5.15748031496063,-0.2151898853302,0.11461197566986099,-0.0458700502395628
5.158086008479709,-0.0762787525177002,0.00683609676361085,0.004425359916687191
5.158691701998789,0.1584331615448,-0.000348961830139153,0.174471746635437
5.159297395517868,0.0314971263885498,0.052341467857360796,0.148126531791687
5.159903089036947,-0.0643036548614502,-0.041064293861389205,-0.285372003364563
5.160508782556027,-0.1002289478302,0.124192053794861,-0.462603448677063
5.161114476075106,0.16322320060729997,-0.0769895868301392,0.423553777885437
5.161720169594185,0.0410772045135498,-0.306911461830139,0.531329656791687
5.162325863113265,-0.0140082447052002,-0.014719079017639199,0.0427456724166872
5.162931556632344,0.3739849193573,0.004441077232360849,-0.0195248353958128
5.163537250151423,0.0434722240447998,0.00204605770111085,-0.136880792427063
5.164142943670503,-0.0930438892364502,0.0715016241073608,0.112201238822937
5.164748637189582,0.0793975170135498,-0.009929039955139149,0.102621160697937
5.165354330708661,0.22309868888854997,-0.158420250892639,-0.0937704408645628
5.165960024227741,0.0458672435760498,0.0116261358261108,-0.09616546039581281
5.16656571774682,-0.0403534595489502,0.11221695613861099,-0.342852472114563
5.167171411265899,0.0841875560760498,0.0212062139511108,-0.00515471820831281
5.167777104784979,0.1153228099823,0.0379713506698608,0.148126531791687
5.168382798304058,0.0386821849822998,-0.0769895868301392,0.0187954771041872
5.168988491823137,0.11292779045105,-0.13686507511138898,0.174471746635437
5.169594185342217,0.0267070873260498,0.08826676082611079,0.172076727104187
5.170199878861296,-0.052328557205200195,0.22238785457611102,-0.0171298158645628
5.170805572380376,0.0482622631072998,-0.144050133705139,-0.136880792427063
5.171411265899455,0.0841875560760498,-0.215900719642639,-0.100955499458313
5.172016959418534,0.0123369701385498,-0.0626194696426392,-0.124905694770813
5.172622652937614,-0.14333929939270001,-0.0290891962051392,0.162496648979187
5.173228346456693,-0.00203314704895019,-0.110519860267639,-0.0458700502395628
5.173834039975772,0.12729790763855,-0.112914879798889,-0.275791925239563
5.174439733494852,-0.11699408454895,-0.12249495792388901,-0.0626351869583128
5.175045427013931,0.00515191154479981,-0.0578294305801392,0.119386297416687
5.17565112053301,0.11292779045105,0.045156409263610794,-0.0602401674270628
5.17625681405209,-0.0164032642364502,0.0643165655136108,-0.0386849916458128
5.176862507571169,0.0602373607635498,0.0643165655136108,-0.0410800111770628
5.177468201090248,0.0985576732635498,0.0547364873886108,0.0499307310104372
5.178073894609328,0.17519829826355,-0.0650144891738892,0.0427456724166872
5.178679588128407,0.0075469310760498095,-0.110519860267639,-0.120115655708313
5.179285281647486,0.17759331779479998,-0.009929039955139149,0.114596258354187
5.179890975166566,0.0410772045135498,0.184067542076111,-0.124905694770813
5.180496668685645,-0.25111517829895,-0.0171140985488892,-0.007549737739562809
5.181102362204724,-0.24632513923645002,0.11940201473236099,0.148126531791687
5.181708055723804,0.033892145919799804,0.0164161748886108,0.0978311216354372
5.182313749242883,0.1057427318573,-0.199135582923889,-0.0937704408645628
5.182919442761962,-0.10262396736145,-0.041064293861389205,-0.007549737739562809
5.183525136281042,-0.028378361892700203,-0.13686507511138898,-0.0434750307083128
5.184130829800121,0.0554473217010498,-0.151235192298889,0.014005438041687199
5.1847365233192,0.3165044506073,-0.18716048526763898,0.0786709653854372
5.18534221683828,0.10813775138855,0.10982193660736099,-0.0770053041458128
5.185947910357359,-0.0355634204864502,0.102636878013611,0.253507391166687
5.186553603876439,-0.13136420173645003,0.0283912725448608,-0.0386849916458128
5.187159297395518,0.12729790763855,-0.08177962589263921,0.138546453666687
5.187764990914597,0.0410772045135498,-0.153630211830139,0.040350652885437197
5.188370684433677,-0.1385492603302,0.0547364873886108,0.0259805356979372
5.188976377952756,0.1536431224823,0.0379713506698608,0.339728094291687
5.189582071471835,-0.0786737720489502,-0.12249495792388901,0.014005438041687199
5.190187764990915,-0.0331684009552002,0.100241858482361,-0.103350518989563
5.190793458509994,-0.12178412361145,-0.038669274330139204,0.325357977104187
5.191399152029073,-0.0164032642364502,-0.218295739173889,-0.0554501283645628
5.192004845548153,-0.16728949470520002,-0.014719079017639199,-0.124905694770813
5.192610539067232,-0.0187982837677002,-0.0506443719863892,0.160101629447937
5.193216232586311,0.0267070873260498,0.00683609676361085,0.169681707572937
5.193821926105391,-0.20800482673645002,-0.0314842157363892,0.231952215385437
5.19442761962447,0.021917048263549798,0.13137711238861102,-0.124905694770813
5.195033313143549,0.0554473217010498,0.0307862920761108,0.148126531791687
5.1956390066626295,-0.1050189868927,-0.0961497430801392,-0.0267098939895628
5.196244700181708,-0.00442816658020019,0.184067542076111,0.037955633354187196
5.196850393700787,-0.0954389087677002,-0.11770491886138901,0.162496648979187
5.197456087219867,0.00036187248229980703,-0.108124840736389,0.133756414604187
5.198061780738946,0.15124810295104998,-0.00274398136138915,0.243927313041687
5.198667474258025,-0.0882538501739502,-0.038669274330139204,0.0211904966354372
5.199273167777105,0.14166802482604998,-0.218295739173889,0.116991277885437
5.199878861296184,-0.1145990650177,-0.199135582923889,0.133756414604187
5.200484554815263,-0.0978339282989502,0.0619215459823608,0.009215398979187191
5.201090248334343,0.0458672435760498,-0.12488997745513901,0.205607000541687
5.201695941853422,0.00515191154479981,-0.110519860267639,-0.108140558052063
5.202301635372502,0.19196343498229998,0.0595265264511108,0.0595108091354372
5.202907328891581,0.0530523021697998,-0.103334801673889,0.0690908872604372
5.20351302241066,-0.0116132251739502,0.0643165655136108,-0.0386849916458128
5.20411871592974,-0.19363470954895,-0.026694176673889198,0.227162176322937
5.204724409448819,0.11292779045105,-0.0219041376113892,0.114596258354187
5.205330102967898,0.13208794670104998,0.0667115850448608,0.0331655942916872
5.205935796486978,0.1296929271698,-0.0290891962051392,0.030770574760437198
5.206541490006057,0.1296929271698,-0.0314842157363892,-0.0698202455520628
5.207147183525136,0.017127009201049797,0.152932288169861,-0.112930597114563
5.207752877044216,0.0602373607635498,0.380459143638611,-0.0147347963333128
5.208358570563295,-0.0379584400177002,0.11221695613861099,0.119386297416687
5.208964264082374,0.14166802482604998,-0.08177962589263921,0.241532293510437
5.209569957601454,0.16801323966979997,-0.13207503604888898,0.263087469291687
5.210175651120533,0.19435845451355,0.0164161748886108,0.169681707572937
5.210781344639612,-0.00682318611145019,-0.0961497430801392,-0.09616546039581281
5.211387038158692,0.0530523021697998,-0.110519860267639,-0.00515471820831281
5.211992731677771,0.1249028881073,-0.08896468448638921,0.0786709653854372
5.21259842519685,0.019522028732299797,-0.0698045282363892,-0.112930597114563
5.21320411871593,-0.0331684009552002,-0.08177962589263921,-0.172806085395813
5.213809812235009,-0.1337592212677,-0.13207503604888898,-0.007549737739562809
5.214415505754088,-0.0882538501739502,-0.156025231361389,-0.0195248353958128
5.215021199273168,-0.0379584400177002,-0.0602244501113892,-0.112930597114563
5.215626892792247,-0.0164032642364502,-0.009929039955139149,-0.0171298158645628
5.216232586311326,0.16082818107605,-0.0314842157363892,-0.0698202455520628
5.216838279830406,0.32368950920105,-0.0626194696426392,0.248717352104187
5.217443973349485,0.009941950607299811,0.0715016241073608,0.0187954771041872
5.218049666868565,-0.025983342361450203,0.0810817022323608,0.0523257505416872
5.218655360387644,0.0434722240447998,-0.153630211830139,0.0762759458541872
5.219261053906723,-0.0595136157989502,-0.11770491886138901,0.0595108091354372
5.219866747425803,0.0554473217010498,-0.0961497430801392,0.296617742729187
5.220472440944882,0.0554473217010498,-0.0650144891738892,-0.136880792427063
5.221078134463961,0.0458672435760498,0.0738966436386108,-0.0913754213333128
5.221683827983041,-0.0499335376739502,0.105031897544861,0.509774481010437
5.22228952150212,-0.054723576736450195,-0.08896468448638921,0.315777898979187
5.222895215021199,0.017127009201049797,0.042761389732360794,-0.218311456489563
5.223500908540279,0.10334771232605,0.0786866827011108,0.0762759458541872
5.224106602059358,-0.0451434986114502,-0.25422103214263897,0.227162176322937
5.224712295578437,0.0674224193572998,-0.0626194696426392,0.215187078666687
5.225317989097517,0.0243120677947998,0.0355763311386108,0.0331655942916872
5.225923682616596,-0.0595136157989502,0.0834767217636108,-0.0458700502395628
5.226529376135675,0.12250786857605,0.210412756919861,0.0978311216354372
5.227135069654755,-0.13615424079895003,-0.000348961830139153,0.0331655942916872
5.227740763173834,-0.0619086353302002,-0.038669274330139204,0.0427456724166872
5.228346456692913,0.00036187248229980703,0.193647620201111,0.0930410825729372
5.228952150211993,-0.0427484790802002,-0.0674095087051392,0.181656805229187
5.229557843731072,0.0458672435760498,0.0283912725448608,0.030770574760437198
5.230163537250151,0.0530523021697998,0.133772131919861,0.188841863822937
5.230769230769231,0.0913726146697998,-0.0530393915176392,0.172076727104187
5.23137492428831,-0.057118596267700196,0.13137711238861102,0.0259805356979372
5.231980617807389,0.0314971263885498,-0.11770491886138901,-0.0650302064895628
5.232586311326469,-0.0882538501739502,0.143352210044861,-0.0937704408645628
5.233192004845548,-0.2199799243927,0.272683264732361,0.196026922416687
5.233797698364627,0.16561822013855,-0.08896468448638921,-0.0698202455520628
5.234403391883707,-0.0403534595489502,-0.0937547235488892,0.212792059135437
5.235009085402786,-0.0595136157989502,0.09066178035736079,0.0451406919479372
5.235614778921866,0.0434722240447998,0.13616715145111102,0.136151434135437
5.236220472440945,0.13208794670104998,-0.0745945672988892,0.198421941947937
5.236826165960024,-0.0427484790802002,-0.0554344110488892,0.0762759458541872
5.237431859479104,-0.0954389087677002,-0.0123240594863892,0.0571157896041872
5.238037552998183,0.009941950607299811,0.0595265264511108,0.037955633354187196
5.238643246517262,-0.20800482673645002,0.11221695613861099,0.131361395072937
5.239248940036342,-0.00442816658020019,0.100241858482361,-0.0123397768020628
5.239854633555421,0.0722124584197998,-0.199135582923889,0.119386297416687
5.2404603270745,-0.12657416267395,-0.0530393915176392,-0.0937704408645628
5.24106602059358,-0.0930438892364502,0.00683609676361085,-0.0530551088333128
5.241671714112659,-0.0140082447052002,-0.158420250892639,0.109806219291687
5.242277407631738,-0.0211933032989502,0.09066178035736079,-0.134485772895813
5.242883101150818,-0.0499335376739502,-0.000348961830139153,-0.0362899721145628
5.243488794669897,-0.17686957283020002,-0.0171140985488892,-0.0698202455520628
5.244094488188976,-0.0475385181427002,-0.0745945672988892,0.009215398979187191
5.244700181708056,-0.023588322830200202,-0.230270836830139,0.193631902885437
5.245305875227135,0.0075469310760498095,0.0259962530136108,-0.00994475727081281
5.245911568746214,0.0554473217010498,0.0810817022323608,0.251112371635437
5.246517262265294,-0.0331684009552002,-0.0482493524551392,0.143336492729187
5.247122955784373,-0.00682318611145019,0.004441077232360849,0.037955633354187196
5.247728649303452,-0.00203314704895019,0.0595265264511108,0.0523257505416872
5.248334342822532,-0.0834638111114502,0.0236012334823608,0.0762759458541872
5.248940036341611,-0.028378361892700203,-0.134470055580139,0.138546453666687
5.2495457298606905,0.0554473217010498,0.0619215459823608,-0.0746102846145628
5.25015142337977,-0.00203314704895019,-0.00274398136138915,0.00203034038543719
5.250757116898849,-0.07388373298645019,-0.25422103214263897,0.368468328666687
5.251362810417929,-0.0475385181427002,-0.19674056339263898,0.593600164604187
5.251968503937008,0.12729790763855,0.004441077232360849,0.349308172416687
5.252574197456087,0.0650273998260498,-0.08656966495513921,0.109806219291687
5.253179890975167,-0.07388373298645019,0.042761389732360794,-0.144065851020813
5.253785584494246,0.22309868888854997,0.09066178035736079,0.0738809263229372
5.254391278013325,-0.0355634204864502,-0.000348961830139153,0.004425359916687191
5.254996971532405,-0.18644965095520002,-0.0290891962051392,-0.230286554145813
5.255602665051484,0.0410772045135498,-0.0314842157363892,-0.127300714302063
5.256208358570563,-0.00203314704895019,0.140957190513611,0.140941473197937
5.256814052089643,-0.0403534595489502,0.138562170982361,0.0810659849166872
5.257419745608722,0.13208794670104998,0.004441077232360849,-0.103350518989563
5.258025439127801,0.0841875560760498,0.0379713506698608,0.0211904966354372
5.258631132646881,0.24225884513854998,-0.110519860267639,0.15052155132293701
5.25923682616596,0.0650273998260498,-0.0554344110488892,0.164891668510437
5.259842519685039,-0.15291937751770002,0.0331813116073608,0.179261785697937
5.260448213204119,-0.07388373298645019,-0.22308577823638898,0.0571157896041872
5.261053906723198,0.0075469310760498095,-0.175185387611389,-0.0195248353958128
5.261659600242277,0.21351861076355,-0.036274254798889204,0.011610418510437199
5.262265293761357,0.0386821849822998,-0.038669274330139204,-0.0314999330520628
5.2628709872804365,0.0913726146697998,-0.00274398136138915,0.152916570854187
5.263476680799515,0.17998833732605,0.042761389732360794,0.016400457572937198
5.264082374318595,0.0386821849822998,-0.100939782142639,-0.0482650697708128
5.264688067837674,0.009941950607299811,0.0283912725448608,0.0643008481979372
5.265293761356753,0.1440630443573,-0.0242991571426392,0.0211904966354372
5.265899454875833,0.019522028732299797,0.0810817022323608,0.004425359916687191
5.266505148394912,-0.1002289478302,0.08826676082611079,0.0283755552291872
5.267110841913992,0.0147319896697998,-0.0745945672988892,0.0810659849166872
5.267716535433071,-0.0187982837677002,0.17209244441986102,0.361283270072937
5.26832222895215,0.017127009201049797,0.0715016241073608,0.102621160697937
5.26892792247123,0.20872857170105,-0.0530393915176392,0.143336492729187
5.269533615990309,-0.025983342361450203,-0.11770491886138901,-0.122510675239563
5.270139309509388,-0.22716498298645002,-0.0051390008926391504,-0.0554501283645628
5.270745003028468,-0.1337592212677,0.100241858482361,0.294222723197937
5.271350696547547,-0.0403534595489502,0.0619215459823608,0.0571157896041872
5.2719563900666255,0.019522028732299797,-0.218295739173889,0.0619058286666872
5.272562083585706,-0.2583002368927,-0.108124840736389,0.124176336479187
5.273167777104785,-0.2391400806427,-0.148840172767639,0.15052155132293701
5.273773470623864,-0.00442816658020019,-0.0051390008926391504,-0.0147347963333128
5.274379164142944,-0.14094427986145,0.145747229576111,-0.151250909614563
5.274984857662023,0.1344829662323,0.0762916631698608,-0.0338949525833128
5.275590551181102,0.16082818107605,0.0212062139511108,0.279852606010437
5.2761962447001824,0.1201128490448,0.0379713506698608,0.0882510435104372
5.276801938219261,-0.14573431892395,0.128982092857361,-0.0626351869583128
5.27740763173834,-0.19363470954895,-0.0937547235488892,-0.0386849916458128
5.27801332525742,-0.06909369392395019,-0.0219041376113892,0.138546453666687
5.278619018776499,-0.15291937751770002,0.0667115850448608,0.0619058286666872
5.279224712295578,0.0722124584197998,0.18646256160736102,0.0235855161666872
5.279830405814658,0.21591363029479999,0.047551428794860795,-0.0841903627395628
5.280436099333737,-0.0403534595489502,-0.0961497430801392,-0.158435968208313
5.281041792852816,-0.11699408454895,-0.08896468448638921,0.5672549497604369
5.281647486371896,0.19675347404479998,-0.103334801673889,0.310987859916687
5.282253179890975,0.10813775138855,-0.014719079017639199,-0.146460870552063
5.282858873410055,0.009941950607299811,-0.08656966495513921,0.222372137260437
5.283464566929134,-0.1385492603302,-0.0937547235488892,0.0738809263229372
5.284070260448213,0.0530523021697998,0.0259962530136108,0.014005438041687199
5.284675953967293,0.0123369701385498,0.0810817022323608,0.112201238822937
5.285281647486372,-0.15291937751770002,0.12179703426361099,0.0235855161666872
5.285887341005451,-0.0187982837677002,-0.179975426673889,-0.110535577583313
5.286493034524531,0.1057427318573,-0.0530393915176392,-0.0865853822708128
5.28709872804361,0.021917048263549798,-0.0721995477676392,0.0906460630416872
5.287704421562689,0.0793975170135498,-0.127284996986389,0.219977117729187
5.288310115081769,0.23267876701354998,0.047551428794860795,0.131361395072937
5.288915808600848,-0.00682318611145019,-0.026694176673889198,-0.103350518989563
5.289521502119927,-0.07148871345520019,0.0236012334823608,0.0571157896041872
5.290127195639007,0.11771782951355,0.193647620201111,0.0499307310104372
5.290732889158086,0.00036187248229980703,-0.22787581729888898,0.267877508354187
5.291338582677165,-0.0307733814239502,-0.16800032901763898,0.265482488822937
5.291944276196245,0.10334771232605,-0.0602244501113892,0.109806219291687
5.292549969715324,-0.1241791431427,-0.189555504798889,-0.00994475727081281
5.293155663234403,0.0530523021697998,0.0786866827011108,0.0714859067916872
5.293761356753483,0.0913726146697998,0.00923111629486085,0.162496648979187
5.294367050272562,-0.0140082447052002,-0.0219041376113892,-0.100955499458313
5.294972743791641,0.0482622631072998,-0.139260094642639,0.0211904966354372
5.295578437310721,-0.0164032642364502,-0.0242991571426392,0.128966375541687
5.2961841308298,0.1488530834198,0.13616715145111102,0.0211904966354372
5.296789824348879,0.0578423412322998,-0.0195091180801392,0.037955633354187196
5.297395517867959,0.0075469310760498095,0.24633804988861102,0.004425359916687191
5.298001211387038,-0.0140082447052002,-0.014719079017639199,-0.0841903627395628
5.298606904906118,-0.0786737720489502,-0.110519860267639,-0.0698202455520628
5.299212598425197,-0.0451434986114502,-0.0219041376113892,-0.112930597114563
5.299818291944276,0.1009526927948,-0.0482493524551392,-0.00275969867706281
5.300423985463356,0.17280327873229998,-0.110519860267639,0.0571157896041872
5.301029678982435,0.10334771232605,-0.0219041376113892,0.0259805356979372
5.301635372501514,-0.00921820564270019,0.13616715145111102,0.193631902885437
5.302241066020594,-0.07148871345520019,-0.13207503604888898,0.191236883354187
5.302846759539673,-0.07388373298645019,0.208017737388611,0.114596258354187
5.303452453058752,-0.15052435798645,-0.0698045282363892,0.200816961479187
5.304058146577832,-0.1337592212677,-0.290146325111389,-0.105745538520813
5.304663840096911,0.10334771232605,-0.0123240594863892,-0.189571222114563
5.30526953361599,0.18238335685729998,0.049946448326110796,0.0571157896041872
5.30587522713507,0.017127009201049797,0.155327307701111,0.172076727104187
5.306480920654149,0.0698174388885498,0.138562170982361,0.332543035697937
5.307086614173228,0.18238335685729998,-0.19195052433013898,0.200816961479187
5.307692307692308,0.2302837474823,-0.045854332923889206,-0.103350518989563
5.308298001211387,0.1153228099823,0.105031897544861,0.0810659849166872
5.308903694730466,0.036287165451049805,-0.00753402042388915,0.0906460630416872
5.309509388249546,0.033892145919799804,0.21759781551361101,-0.244656671333313
5.310115081768625,0.0243120677947998,-0.038669274330139204,0.0619058286666872
5.310720775287704,0.1009526927948,0.0667115850448608,-0.191966241645813
5.311326468806784,-0.1098090259552,-0.108124840736389,0.205607000541687
5.311932162325863,-0.00203314704895019,-0.0219041376113892,0.126571356010437
5.312537855844942,-0.052328557205200195,0.0786866827011108,-0.0889804018020628
5.313143549364022,-0.0403534595489502,-0.103334801673889,0.0259805356979372
5.313749242883101,0.0746074779510498,0.100241858482361,0.004425359916687191
5.31435493640218,-0.025983342361450203,0.09784683895111079,0.21039703960418701
5.31496062992126,-0.00203314704895019,-0.014719079017639199,-0.110535577583313
5.315566323440339,-0.13136420173645003,-0.280566246986389,0.037955633354187196
5.316172016959419,-0.00921820564270019,-0.213505700111389,-0.007549737739562809
5.316777710478498,-0.12657416267395,0.00204605770111085,0.014005438041687199
5.317383403997577,-0.0355634204864502,-0.0171140985488892,-0.0123397768020628
5.317989097516657,0.017127009201049797,-0.014719079017639199,0.128966375541687
5.318594791035736,0.16322320060729997,0.10742691707611099,0.179261785697937
5.319200484554815,-0.15291937751770002,-0.0554344110488892,0.234347234916687
5.319806178073895,-0.25590521736145,0.11221695613861099,0.0187954771041872
5.320411871592974,0.0291021068572998,0.0667115850448608,0.0523257505416872
5.321017565112053,-0.028378361892700203,0.0762916631698608,0.140941473197937
5.321623258631133,0.18238335685729998,-0.000348961830139153,-0.0434750307083128
5.322228952150212,0.0386821849822998,0.0379713506698608,-0.0985604799270628
5.322834645669291,-0.0906488697052002,0.047551428794860795,0.0187954771041872
5.323440339188371,-0.12657416267395,-0.014719079017639199,0.289432684135437
5.32404603270745,-0.00203314704895019,0.18646256160736102,0.0499307310104372
5.324651726226529,0.0722124584197998,-0.108124840736389,0.12178131694793701
5.325257419745609,-0.06909369392395019,-0.0219041376113892,0.0619058286666872
5.325863113264688,0.00515191154479981,0.145747229576111,-0.000364679145812814
5.326468806783767,0.0243120677947998,-0.0698045282363892,-0.127300714302063
5.327074500302847,0.0793975170135498,0.0212062139511108,-0.0410800111770628
5.327680193821926,-0.21758490486145002,0.0164161748886108,0.102621160697937
5.328285887341005,-0.0858588306427002,-0.175185387611389,0.0858560239791872
5.328891580860085,0.2877642162323,-0.13686507511138898,0.107411199760437
5.329497274379164,0.0123369701385498,0.018811194419860802,-0.0530551088333128
5.330102967898244,-0.0619086353302002,-0.0290891962051392,0.0810659849166872
5.330708661417323,0.14645806388854998,-0.043459313392639205,0.0331655942916872
5.331314354936402,-0.1193891040802,0.045156409263610794,-0.0362899721145628
5.331920048455482,-0.1193891040802,-0.08177962589263921,-0.0458700502395628
5.332525741974561,-0.0403534595489502,-0.0195091180801392,0.128966375541687
5.33313143549364,-0.0379584400177002,-0.00274398136138915,0.0786709653854372
5.33373712901272,0.22309868888854997,-0.287751305580139,-0.0650302064895628
5.334342822531799,0.033892145919799804,-0.41468734073638897,-0.0698202455520628
5.334948516050878,0.0817925365447998,-0.0314842157363892,-0.112930597114563
5.335554209569958,-0.0403534595489502,0.140957190513611,-0.0267098939895628
5.336159903089037,-0.1145990650177,0.11461197566986099,0.08346100444793719
5.336765596608116,-0.0427484790802002,0.19125260066986102,0.0068203794479371905
5.337371290127196,0.0554473217010498,-0.0195091180801392,-0.0985604799270628
5.337976983646275,0.20393853263855,0.100241858482361,0.0427456724166872
5.338582677165354,0.0674224193572998,0.052341467857360796,0.0690908872604372
5.339188370684434,0.0913726146697998,-0.0745945672988892,-0.0626351869583128
5.339794064203513,0.1440630443573,-0.0793846063613892,0.0858560239791872
5.340399757722592,0.21351861076355,0.0379713506698608,0.0858560239791872
5.341005451241672,0.16561822013855,-0.00753402042388915,0.466664129447937
5.341611144760751,0.0267070873260498,-0.0242991571426392,0.773226629447937
5.34221683827983,-0.0930438892364502,0.100241858482361,0.0475357114791872
5.34282253179891,-0.0355634204864502,-0.0290891962051392,-0.124905694770813
5.343428225317989,0.0602373607635498,-0.12249495792388901,0.0475357114791872
5.344033918837068,-0.0619086353302002,-0.115309899330139,0.100226141166687
5.344639612356148,-0.0116132251739502,0.143352210044861,0.0211904966354372
5.345245305875227,0.0793975170135498,0.229572913169861,0.0954361021041872
5.345850999394306,0.0506572826385498,0.08826676082611079,0.169681707572937
5.346456692913386,0.0267070873260498,0.0259962530136108,0.21039703960418701
5.347062386432465,0.0889775951385498,0.09066178035736079,0.124176336479187
5.347668079951545,0.033892145919799804,0.102636878013611,0.0595108091354372
5.348273773470624,0.0817925365447998,0.0595265264511108,0.0714859067916872
5.348879466989703,0.17519829826355,0.100241858482361,-0.0171298158645628
5.349485160508783,0.1105327709198,0.004441077232360849,0.255902410697937
5.3500908540278616,0.0410772045135498,-0.259011071205139,-0.0195248353958128
5.350696547546941,0.0554473217010498,-0.0338792352676392,0.0547207700729372
5.351302241066021,-0.0355634204864502,0.09784683895111079,0.296617742729187
5.3519079345851,0.0722124584197998,-0.151235192298889,0.188841863822937
5.352513628104179,0.1249028881073,0.0164161748886108,0.205607000541687
5.353119321623259,-0.0810687915802002,0.198437659263611,0.193631902885437
5.353725015142338,0.1057427318573,-0.220690758705139,-0.0554501283645628
5.354330708661417,0.13687798576354998,0.052341467857360796,-0.132090753364563
5.354936402180497,-0.0786737720489502,0.0834767217636108,0.0666958677291872
5.355542095699576,0.0674224193572998,-0.0961497430801392,0.0211904966354372
5.356147789218655,-0.0786737720489502,0.208017737388611,-0.09616546039581281
5.356753482737735,0.009941950607299811,0.0810817022323608,-0.0171298158645628
5.357359176256814,0.24704888420104998,-0.0721995477676392,0.212792059135437
5.357964869775893,0.017127009201049797,0.00923111629486085,0.0331655942916872
5.358570563294973,0.11771782951355,0.0691066045761108,0.12178131694793701
5.359176256814052,0.1057427318573,0.0619215459823608,0.0619058286666872
5.359781950333131,0.1344829662323,0.0331813116073608,0.011610418510437199
5.360387643852211,0.1488530834198,-0.038669274330139204,0.191236883354187
5.36099333737129,0.0147319896697998,0.00923111629486085,0.114596258354187
5.361599030890369,0.0841875560760498,-0.045854332923889206,0.0547207700729372
5.362204724409449,0.0027568920135498096,0.0810817022323608,0.0858560239791872
5.362810417928528,0.0027568920135498096,-0.0171140985488892,0.188841863822937
5.363416111447607,-0.14333929939270001,-0.0961497430801392,0.296617742729187
5.364021804966687,0.22788872795104997,-0.0290891962051392,0.246322332572937
5.364627498485766,0.2350737865448,-0.0985447626113892,0.0427456724166872
5.365233192004846,-0.06669867439270019,-0.12009993839263901,-0.0770053041458128
5.365838885523925,0.0602373607635498,-0.175185387611389,0.0283755552291872
5.366444579043004,0.0889775951385498,0.042761389732360794,0.193631902885437
5.367050272562084,-0.054723576736450195,0.11221695613861099,0.0571157896041872
5.367655966081163,-0.1385492603302,-0.036274254798889204,-0.0195248353958128
5.368261659600242,0.0650273998260498,0.0307862920761108,0.0235855161666872
5.368867353119322,0.00515191154479981,0.200832678794861,0.15052155132293701
5.369473046638401,0.11292779045105,0.0164161748886108,-0.0602401674270628
5.37007874015748,0.19914849357605,-0.302121422767639,-0.0171298158645628
5.37068443367656,0.11771782951355,-0.13207503604888898,0.133756414604187
5.371290127195639,-0.00921820564270019,-0.0554344110488892,0.200816961479187
5.371895820714718,-0.14812933845520002,-0.0937547235488892,-0.151250909614563
5.372501514233798,-0.12178412361145,-0.043459313392639205,-0.172806085395813
5.373107207752877,0.0626323802947998,-0.158420250892639,0.248717352104187
5.373712901271956,0.0841875560760498,-0.18237044620513898,0.301407781791687
5.374318594791036,-0.14333929939270001,-0.18716048526763898,0.0858560239791872
5.374924288310115,0.1488530834198,-0.00274398136138915,-0.0602401674270628
5.375529981829194,0.14166802482604998,-0.105729821205139,0.105016180229187
5.376135675348274,0.021917048263549798,0.0307862920761108,0.128966375541687
5.376741368867353,0.0578423412322998,0.11940201473236099,0.203211981010437
5.377347062386432,0.0985576732635498,-0.0985447626113892,0.196026922416687
5.377952755905512,0.1153228099823,0.09784683895111079,0.100226141166687
5.378558449424591,-0.052328557205200195,0.00923111629486085,0.0762759458541872
5.379164142943671,0.15124810295104998,-0.148840172767639,0.00203034038543719
5.37976983646275,0.036287165451049805,0.0619215459823608,-0.0267098939895628
5.380375529981829,0.1057427318573,0.09066178035736079,0.342123113822937
5.380981223500909,0.11292779045105,0.0810817022323608,0.114596258354187
5.381586917019988,0.0386821849822998,-0.08417464542388921,0.200816961479187
5.382192610539067,0.0458672435760498,-0.0626194696426392,0.231952215385437
5.382798304058147,-0.00442816658020019,-0.00753402042388915,-0.14885589008331299
5.383403997577226,0.14166802482604998,-0.0793846063613892,0.100226141166687
5.384009691096305,-0.0140082447052002,0.0834767217636108,-0.00275969867706281
5.384615384615385,0.0578423412322998,-0.0482493524551392,0.0211904966354372
5.385221078134464,0.0889775951385498,0.09784683895111079,0.152916570854187
5.385826771653543,0.033892145919799804,-0.129680016517639,0.188841863822937
5.386432465172623,0.27578911857605,-0.19195052433013898,0.128966375541687
5.387038158691702,0.0985576732635498,-0.045854332923889206,-0.146460870552063
5.387643852210781,-0.16489447517395,-0.0195091180801392,0.030770574760437198
5.388249545729861,-0.0307733814239502,0.042761389732360794,0.148126531791687
5.38885523924894,0.0123369701385498,-0.160815270423889,0.0571157896041872
5.389460932768019,-0.0164032642364502,-0.0698045282363892,0.0283755552291872
5.390066626287099,-0.0643036548614502,-0.12009993839263901,-0.0650302064895628
5.390672319806178,-0.0451434986114502,0.042761389732360794,-0.0267098939895628
5.391278013325257,-0.023588322830200202,-0.12488997745513901,0.162496648979187
5.391883706844337,0.0314971263885498,-0.036274254798889204,0.0810659849166872
5.392489400363416,0.0506572826385498,0.143352210044861,-0.0913754213333128
5.393095093882495,0.0027568920135498096,-0.13686507511138898,0.102621160697937
5.393700787401575,0.19435845451355,-0.026694176673889198,0.219977117729187
5.394306480920654,-0.0379584400177002,0.0810817022323608,-0.0722152650833128
5.394912174439733,-0.15052435798645,0.179277503013611,0.105016180229187
5.395517867958813,-0.0403534595489502,-0.014719079017639199,0.188841863822937
5.396123561477892,0.0314971263885498,-0.270986168861389,-0.0626351869583128
5.396729254996972,-0.0187982837677002,0.00683609676361085,0.0954361021041872
5.397334948516051,-0.1193891040802,0.0355763311386108,0.0451406919479372
5.39794064203513,-0.0499335376739502,-0.17758040714263898,-0.0674252260208128
5.39854633555421,-0.2439301197052,-0.0338792352676392,-0.0482650697708128
5.399152029073289,-0.23674506111145002,0.0619215459823608,-0.0602401674270628
5.399757722592368,0.00515191154479981,0.00923111629486085,-0.254236749458313
5.400363416111448,-0.0355634204864502,-0.115309899330139,0.0571157896041872
5.400969109630527,-0.0858588306427002,0.0834767217636108,0.445108953666687
5.401574803149606,0.1201128490448,-0.14165511417388899,0.351703191947937
5.402180496668686,0.1488530834198,-0.0578294305801392,0.186446844291687
5.402786190187765,-0.1098090259552,0.00923111629486085,0.08346100444793719
5.403391883706844,-0.19363470954895,-0.160815270423889,0.0187954771041872
5.403997577225924,0.0674224193572998,0.00204605770111085,-0.050660089302062804
5.404603270745003,0.0027568920135498096,-0.0626194696426392,-0.0362899721145628
5.405208964264082,-0.14573431892395,0.22238785457611102,-0.136880792427063
5.405814657783162,-0.1241791431427,-0.0051390008926391504,-0.0458700502395628
5.406420351302241,-0.00203314704895019,-0.115309899330139,0.0954361021041872
5.40702604482132,0.0626323802947998,0.0715016241073608,0.0786709653854372
5.4076317383404,0.0746074779510498,0.047551428794860795,-0.268606866645813
5.4082374318594795,0.0650273998260498,-0.0602244501113892,-0.134485772895813
5.408843125378558,-0.0858588306427002,0.126587073326111,0.145731512260437
5.409448818897638,-0.0164032642364502,-0.0338792352676392,-0.0123397768020628
5.410054512416717,0.0386821849822998,-0.08417464542388921,0.128966375541687
5.410660205935796,0.0793975170135498,-0.12009993839263901,0.272667547416687
5.411265899454876,0.0602373607635498,-0.0937547235488892,-0.00515471820831281
5.411871592973955,0.1201128490448,0.140957190513611,0.014005438041687199
5.412477286493035,-0.0116132251739502,-0.08656966495513921,0.181656805229187
5.413082980012114,-0.025983342361450203,0.0667115850448608,0.179261785697937
5.413688673531193,-0.00203314704895019,-0.0290891962051392,0.112201238822937
5.414294367050273,-0.0834638111114502,-0.0314842157363892,-0.0219198549270628
5.414900060569352,-0.00682318611145019,-0.0171140985488892,0.160101629447937
5.415505754088431,-0.00203314704895019,-0.12009993839263901,0.0571157896041872
5.416111447607511,0.0746074779510498,0.0858717412948608,0.0595108091354372
5.41671714112659,0.0770024974822998,0.10742691707611099,0.169681707572937
5.4173228346456686,-0.0619086353302002,-0.112914879798889,0.08346100444793719
5.417928528164749,0.00036187248229980703,-0.0769895868301392,0.030770574760437198
5.418534221683828,-0.0187982837677002,-0.045854332923889206,0.0906460630416872
5.419139915202907,0.16322320060729997,0.0355763311386108,0.253507391166687
5.419745608721987,0.0626323802947998,-0.0626194696426392,0.231952215385437
5.420351302241066,0.00515191154479981,-0.179975426673889,0.0978311216354372
5.420956995760145,0.0434722240447998,-0.0674095087051392,0.155311590385437
5.4215626892792255,0.18956841545105,-0.0051390008926391504,0.116991277885437
5.422168382798304,0.25902398185729997,-0.105729821205139,0.0523257505416872
5.422774076317383,-0.0810687915802002,-0.19674056339263898,0.107411199760437
5.423379769836463,-0.0643036548614502,0.0715016241073608,0.08346100444793719
5.423985463355542,0.0243120677947998,-0.0195091180801392,-0.00275969867706281
5.424591156874621,0.0530523021697998,-0.151235192298889,0.133756414604187
5.425196850393701,-0.11220404548645,-0.244640954017639,0.0762759458541872
5.42580254391278,0.0458672435760498,-0.22787581729888898,-0.00994475727081281
5.426408237431859,-0.0164032642364502,0.0236012334823608,-0.129695733833313
5.427013930950939,-0.16728949470520002,0.0691066045761108,0.145731512260437
5.427619624470018,0.036287165451049805,-0.08656966495513921,0.0451406919479372
5.428225317989098,0.0578423412322998,-0.151235192298889,0.0331655942916872
5.428831011508177,0.0770024974822998,0.0307862920761108,0.255902410697937
5.429436705027256,0.0746074779510498,0.0571315069198608,-0.156040948677063
5.430042398546336,-0.057118596267700196,0.219992835044861,0.385233465385437
5.4306480920654145,-0.15052435798645,0.0259962530136108,-0.0147347963333128
5.431253785584494,-0.11220404548645,0.00923111629486085,0.243927313041687
5.431859479103574,0.021917048263549798,-0.148840172767639,0.0331655942916872
5.432465172622653,0.0554473217010498,0.0164161748886108,-0.306927179145813
5.433070866141732,-0.0810687915802002,0.143352210044861,0.306197820854187
5.433676559660812,0.0458672435760498,-0.194345543861389,0.0475357114791872
5.434282253179891,-0.00682318611145019,0.0571315069198608,0.124176336479187
5.43488794669897,0.13208794670104998,-0.000348961830139153,0.037955633354187196
5.43549364021805,0.1296929271698,0.09784683895111079,-0.029104913520812802
5.436099333737129,-0.0499335376739502,0.16730240535736102,0.0858560239791872
5.436705027256208,0.15124810295104998,-0.12009993839263901,0.0427456724166872
5.437310720775288,0.036287165451049805,-0.014719079017639199,-0.110535577583313
5.437916414294367,-0.0211933032989502,-0.110519860267639,0.08346100444793719
5.438522107813446,-0.0595136157989502,0.11461197566986099,0.0187954771041872
5.439127801332526,-0.13615424079895003,0.10982193660736099,0.0619058286666872
5.439733494851605,0.14166802482604998,0.0571315069198608,0.100226141166687
5.440339188370684,0.0985576732635498,0.00204605770111085,0.040350652885437197
5.440944881889764,-0.06669867439270019,-0.144050133705139,0.0930410825729372
5.441550575408843,-0.00921820564270019,0.21759781551361101,0.126571356010437
5.442156268927922,0.0889775951385498,-0.129680016517639,0.0810659849166872
5.442761962447002,-0.0116132251739502,-0.235060875892639,0.0666958677291872
5.443367655966081,-0.06909369392395019,-0.0745945672988892,0.143336492729187
5.44397334948516,0.0817925365447998,-0.16321028995513898,0.0475357114791872
5.44457904300424,-0.0882538501739502,-0.273381188392639,-0.0674252260208128
5.445184736523319,0.19914849357605,-0.17279036808013898,0.0211904966354372
5.445790430042399,-0.0307733814239502,0.28465836238861103,-0.0147347963333128
5.446396123561478,-0.0331684009552002,0.0643165655136108,-0.328482354927063
5.447001817080557,0.036287165451049805,0.042761389732360794,-0.00275969867706281
5.447607510599637,-0.2487201587677,0.045156409263610794,0.157706609916687
5.448213204118716,-0.0978339282989502,-0.105729821205139,-0.144065851020813
5.448818897637795,0.036287165451049805,0.11221695613861099,-0.0410800111770628
5.449424591156875,0.0698174388885498,0.0571315069198608,-0.0219198549270628
5.450030284675954,-0.23674506111145002,0.0810817022323608,0.0810659849166872
5.450635978195033,-0.1193891040802,-0.0506443719863892,-0.0554501283645628
5.451241671714113,-0.0619086353302002,0.00683609676361085,-0.165621026802063
5.451847365233192,0.021917048263549798,-0.0314842157363892,0.0786709653854372
5.452453058752271,-0.18165961189270002,-0.0506443719863892,0.148126531791687
5.453058752271351,0.0482622631072998,-0.0602244501113892,0.212792059135437
5.45366444579043,0.33326958732605,-0.259011071205139,0.0906460630416872
5.454270139309509,0.12729790763855,-0.000348961830139153,0.004425359916687191
5.454875832828589,-0.17447455329895,-0.0626194696426392,0.253507391166687
5.455481526347668,-0.33015082283020003,-0.0530393915176392,-0.108140558052063
5.456087219866747,0.1249028881073,0.042761389732360794,-0.0195248353958128
5.456692913385827,0.0314971263885498,-0.127284996986389,0.361283270072937
5.457298606904906,0.0722124584197998,0.0116261358261108,0.011610418510437199
5.457904300423985,0.009941950607299811,0.0212062139511108,-0.0314999330520628
5.458509993943065,-0.0140082447052002,-0.213505700111389,0.109806219291687
5.459115687462144,0.17040825920105,-0.0674095087051392,0.160101629447937
5.459721380981224,0.009941950607299811,0.0619215459823608,0.0690908872604372
5.460327074500303,-0.0619086353302002,0.0331813116073608,0.457084051322937
5.460932768019382,-0.11220404548645,-0.0051390008926391504,0.5217495786666869
5.461538461538462,0.0458672435760498,-0.0482493524551392,-0.232681573677063
5.462144155057541,0.1296929271698,0.0283912725448608,-0.273396905708313
5.46274984857662,0.15124810295104998,0.0116261358261108,0.239137273979187
5.4633555420957,0.0913726146697998,-0.045854332923889206,0.138546453666687
5.463961235614779,-0.023588322830200202,-0.0745945672988892,-0.00515471820831281
5.464566929133858,-0.0140082447052002,0.0116261358261108,-0.0195248353958128
5.465172622652938,-0.0116132251739502,-0.038669274330139204,-0.146460870552063
5.465778316172017,0.021917048263549798,0.215202795982361,0.040350652885437197
5.466384009691096,0.0793975170135498,-0.0242991571426392,0.140941473197937
5.466989703210176,0.0410772045135498,-0.09135970401763921,0.15052155132293701
5.467595396729255,0.1009526927948,-0.0219041376113892,0.109806219291687
5.468201090248334,0.1296929271698,0.13616715145111102,-0.00994475727081281
5.468806783767414,0.019522028732299797,0.09545181941986079,0.0810659849166872
5.469412477286493,0.0243120677947998,-0.014719079017639199,0.0211904966354372
5.470018170805572,0.26860405998229997,0.0715016241073608,0.186446844291687
5.470623864324652,0.0243120677947998,0.140957190513611,0.040350652885437197
5.471229557843731,-0.0355634204864502,-0.134470055580139,-0.0650302064895628
5.47183525136281,0.3212944896698,-0.12009993839263901,0.08346100444793719
5.47244094488189,0.0793975170135498,0.10982193660736099,0.0187954771041872
5.473046638400969,-0.00442816658020019,-0.18237044620513898,-0.0817953432083128
5.473652331920048,0.0961626537322998,0.0164161748886108,-0.0913754213333128
5.474258025439128,0.16322320060729997,-0.014719079017639199,0.119386297416687
5.474863718958207,0.15124810295104998,0.0283912725448608,0.131361395072937
5.4754694124772865,0.0698174388885498,0.0547364873886108,0.0547207700729372
5.476075105996366,-0.0643036548614502,-0.0554344110488892,0.0738809263229372
5.476680799515445,-0.1337592212677,0.0307862920761108,0.0475357114791872
5.477286493034525,0.0817925365447998,-0.038669274330139204,0.030770574760437198
5.477892186553604,-0.0762787525177002,-0.11770491886138901,0.0882510435104372
5.478497880072683,0.0650273998260498,0.0643165655136108,0.0954361021041872
5.479103573591763,0.27578911857605,-0.0937547235488892,0.248717352104187
5.479709267110842,0.0770024974822998,-0.112914879798889,0.0331655942916872
5.480314960629921,-0.0475385181427002,-0.0769895868301392,0.270272527885437
5.480920654149001,-0.0882538501739502,0.0595265264511108,0.299012762260437
5.48152634766808,0.0746074779510498,0.0571315069198608,0.0762759458541872
5.482132041187159,0.0314971263885498,-0.103334801673889,0.193631902885437
5.482737734706239,0.14166802482604998,0.052341467857360796,-0.0219198549270628
5.483343428225318,0.0554473217010498,-0.108124840736389,0.0810659849166872
5.483949121744397,-0.0451434986114502,0.0236012334823608,0.167286688041687
5.484554815263477,0.11292779045105,-0.0338792352676392,-0.0171298158645628
5.485160508782556,0.017127009201049797,0.0259962530136108,0.176866766166687
5.485766202301635,0.0817925365447998,0.0762916631698608,0.0355606138229372
5.486371895820715,0.18477837638855,-0.127284996986389,0.0547207700729372
5.486977589339794,0.0602373607635498,0.11461197566986099,0.0738809263229372
5.487583282858873,0.0554473217010498,0.0307862920761108,-0.0314999330520628
5.488188976377953,0.0578423412322998,0.100241858482361,0.0954361021041872
5.4887946698970325,0.009941950607299811,0.018811194419860802,0.0331655942916872
5.489400363416111,-0.11699408454895,0.0403663702011108,0.212792059135437
5.490006056935191,0.12729790763855,0.00204605770111085,0.0331655942916872
5.49061175045427,-0.1289691822052,0.17688248348236102,-0.182386163520813
5.491217443973349,0.033892145919799804,0.0236012334823608,0.404393621635437
5.491823137492429,0.18238335685729998,-0.0769895868301392,0.184051824760437
5.492428831011508,-0.0762787525177002,0.0595265264511108,-0.184781183052063
5.493034524530587,0.14645806388854998,-0.160815270423889,0.0882510435104372
5.493640218049667,0.017127009201049797,-0.12488997745513901,0.016400457572937198
5.494245911568746,-0.0307733814239502,0.15772232723236101,-0.0362899721145628
5.494851605087826,0.00036187248229980703,0.193647620201111,0.0331655942916872
5.495457298606905,0.1153228099823,0.0331813116073608,0.155311590385437
5.496062992125984,-0.1098090259552,-0.0745945672988892,-0.120115655708313
5.496668685645064,-0.0116132251739502,0.0571315069198608,-0.0794003236770628
5.497274379164143,0.0458672435760498,0.0715016241073608,0.198421941947937
5.4978800726832215,-0.07388373298645019,-0.20153060245513899,0.0882510435104372
5.498485766202302,0.0985576732635498,0.0858717412948608,-0.0410800111770628
5.499091459721381,-0.0858588306427002,0.0738966436386108,0.0475357114791872
5.49969715324046,-0.0978339282989502,-0.158420250892639,-0.124905694770813
5.50030284675954,-0.0331684009552002,-0.08177962589263921,0.172076727104187
5.500908540278619,-0.0978339282989502,0.0379713506698608,0.037955633354187196
5.501514233797698,0.0722124584197998,0.140957190513611,-0.050660089302062804
5.5021199273167785,0.1488530834198,0.047551428794860795,0.279852606010437
5.502725620835857,0.0506572826385498,0.00683609676361085,0.009215398979187191
5.503331314354936,0.0482622631072998,-0.009929039955139149,-0.191966241645813
5.503937007874016,0.1057427318573,0.014021155357360801,0.014005438041687199
5.504542701393095,-0.16968451423645,-0.0482493524551392,0.215187078666687
5.505148394912174,0.017127009201049797,-0.156025231361389,0.145731512260437
5.505754088431254,0.1153228099823,0.145747229576111,0.203211981010437
5.506359781950333,-0.2439301197052,0.042761389732360794,0.0978311216354372
5.506965475469413,-0.14812933845520002,0.00923111629486085,-0.000364679145812814
5.507571168988492,-0.0451434986114502,0.13616715145111102,-0.115325616645813
5.508176862507571,0.0674224193572998,-0.0171140985488892,0.155311590385437
5.50878255602665,-0.1002289478302,-0.290146325111389,-0.0865853822708128
5.50938824954573,-0.11220404548645,-0.0602244501113892,-0.0794003236770628
5.509993943064809,0.033892145919799804,0.239152991294861,0.198421941947937
5.510599636583889,-0.0643036548614502,-0.0769895868301392,-0.00275969867706281
5.5112053301029675,-0.0762787525177002,0.0116261358261108,-0.0458700502395628
5.511811023622047,-0.0116132251739502,0.11221695613861099,0.198421941947937
5.512416717141127,-0.0810687915802002,0.11221695613861099,0.100226141166687
5.513022410660206,-0.15770941658020002,0.0786866827011108,0.0882510435104372
5.5136281041792845,-0.0930438892364502,-0.0242991571426392,0.0619058286666872
5.514233797698365,-0.20321478767395001,-0.0698045282363892,0.124176336479187
5.514839491217444,-0.23195502204895002,-0.153630211830139,0.205607000541687
5.515445184736523,-0.1002289478302,0.0619215459823608,-0.0650302064895628
5.516050878255603,-0.21279486579895002,-0.014719079017639199,-0.0386849916458128
5.516656571774682,-0.15770941658020002,-0.041064293861389205,0.114596258354187
5.517262265293761,-0.0475385181427002,-0.160815270423889,0.0451406919479372
5.517867958812841,-0.29422552986145,-0.103334801673889,-0.0674252260208128
5.51847365233192,-0.26069525642395003,-0.244640954017639,0.0858560239791872
5.519079345850999,-0.20321478767395001,-0.08896468448638921,-0.0746102846145628
5.519685039370079,-0.15291937751770002,0.296633460044861,0.354098211479187
5.520290732889158,-0.28943549079895003,0.102636878013611,-0.0267098939895628
5.520896426408237,-0.32057074470520003,-0.038669274330139204,0.116991277885437
5.521502119927317,-0.35649603767395,-0.0123240594863892,0.7636465513229369
5.522107813446396,-0.49061713142395,0.049946448326110796,-0.0147347963333128
5.522713506965475,-0.2966205493927,-0.266196129798889,-0.127300714302063
5.523319200484555,-0.16728949470520002,-0.0745945672988892,0.0068203794479371905
5.523924894003634,-0.2343500415802,0.215202795982361,0.0930410825729372
5.5245305875227135,-0.2678803150177,0.00683609676361085,0.0786709653854372
5.525136281041793,-0.34691595954895,-0.134470055580139,0.136151434135437
5.525741974560872,-0.11220404548645,-0.014719079017639199,0.155311590385437
5.526347668079951,-0.18165961189270002,0.152932288169861,0.241532293510437
5.5269533615990305,-0.29422552986145,-0.041064293861389205,0.014005438041687199
5.52755905511811,-0.18165961189270002,-0.115309899330139,-0.146460870552063
5.52816474863719,-0.40439642829895,0.0619215459823608,0.198421941947937
5.528770442156269,-0.27506537361145,0.306213538169861,0.0427456724166872
5.529376135675348,-0.2726703540802,-0.0219041376113892,0.0906460630416872
5.529981829194428,-0.32057074470520003,-0.105729821205139,0.0475357114791872
5.530587522713507,-0.3780512134552,0.0547364873886108,0.246322332572937
5.531193216232586,-0.4307416431427,-0.0314842157363892,0.291827703666687
5.531798909751666,-0.40439642829895,-0.213505700111389,0.0475357114791872
5.532404603270745,-0.33254584236145,-0.225480797767639,0.0331655942916872
5.533010296789824,-0.24632513923645002,-0.28535628604888896,0.0643008481979372
5.533615990308904,-0.2583002368927,-0.14165511417388899,-0.294952081489563
5.534221683827983,-0.5217523853302,0.387644202232361,-0.0171298158645628
5.534827377347062,-0.48822211189270004,0.0379713506698608,-0.0817953432083128
5.535433070866142,-0.44271674079895,-0.08656966495513921,-0.400332940864563
5.536038764385221,-0.31817572517395,0.203227698326111,0.164891668510437
5.5366444579043,-0.36847113533020004,0.11700699520111099,0.291827703666687
5.53725015142338,-0.26548529548645,-0.0745945672988892,-0.0314999330520628
5.537855844942459,-0.33733588142395,0.13616715145111102,-0.0386849916458128
5.538461538461538,-0.51456732673645,0.0619215459823608,-0.0770053041458128
5.539067231980618,-0.27985541267395003,-0.17279036808013898,0.0068203794479371905
5.539672925499697,-0.42834662361145004,-0.08177962589263921,0.08346100444793719
5.5402786190187765,-0.29422552986145,0.0738966436386108,0.0643008481979372
5.540884312537856,-0.38523627204895,0.00204605770111085,0.203211981010437
5.541490006056935,-0.31338568611145,-0.0530393915176392,0.21039703960418701
5.542095699576015,-0.44032172126770003,-0.0626194696426392,0.114596258354187
5.542701393095094,-0.32057074470520003,-0.158420250892639,0.0211904966354372
5.543307086614173,-0.19842474861145,-0.103334801673889,0.0499307310104372
5.543912780133253,-0.3253607837677,0.10982193660736099,0.109806219291687
5.544518473652332,-0.10262396736145,0.11221695613861099,0.124176336479187
5.545124167171411,-0.35649603767395,-0.036274254798889204,-0.00994475727081281
5.545729860690491,-0.36607611579895,0.0547364873886108,0.128966375541687
5.54633555420957,-0.44990179939270003,0.0595265264511108,-0.000364679145812814
5.546941247728649,-0.31338568611145,-0.036274254798889204,-0.0722152650833128
5.547546941247729,-0.16968451423645,0.00683609676361085,0.0451406919479372
5.548152634766808,-0.27985541267395003,-0.146445153236389,-0.0554501283645628
5.548758328285887,-0.30380560798645,0.00204605770111085,0.0571157896041872
5.549364021804967,-0.3109906665802,0.0379713506698608,0.284642645072937
5.549969715324046,0.0434722240447998,-0.156025231361389,-0.275791925239563
5.550575408843125,-0.0379584400177002,-0.17279036808013898,-0.0865853822708128
5.551181102362205,-0.2535101978302,0.042761389732360794,0.428343816947937
5.551786795881284,-0.1289691822052,-0.00274398136138915,0.203211981010437
5.552392489400363,-0.11220404548645,-0.23266585636138898,0.143336492729187
5.552998182919443,0.11292779045105,-0.0985447626113892,-0.0530551088333128
5.5536038764385225,0.0267070873260498,-0.041064293861389205,0.169681707572937
5.554209569957601,-0.1289691822052,0.045156409263610794,0.0523257505416872
5.554815263476681,-0.023588322830200202,-0.0123240594863892,-0.285372003364563
5.55542095699576,0.0865825756072998,0.0259962530136108,0.148126531791687
5.5560266505148395,-0.21279486579895002,0.0786866827011108,0.133756414604187
5.556632344033919,-0.17926459236145,0.0212062139511108,-0.218311456489563
5.557238037552998,-0.0786737720489502,0.19604263973236102,0.0690908872604372
5.557843731072078,-0.14573431892395,0.124192053794861,0.143336492729187
5.558449424591157,0.0243120677947998,-0.100939782142639,0.0930410825729372
5.559055118110236,-0.15052435798645,0.10742691707611099,-0.0746102846145628
5.559660811629316,-0.11220404548645,-0.000348961830139153,-0.108140558052063
5.560266505148395,-0.0906488697052002,-0.0745945672988892,-0.007549737739562809
5.560872198667474,0.0889775951385498,0.160117346763611,-0.0530551088333128
5.561477892186554,0.1009526927948,0.045156409263610794,0.114596258354187
5.562083585705633,-0.06669867439270019,-0.151235192298889,0.124176336479187
5.562689279224712,0.0147319896697998,0.0164161748886108,-0.0195248353958128
5.563294972743792,-0.0403534595489502,0.0738966436386108,0.124176336479187
5.563900666262871,-0.1050189868927,0.193647620201111,0.0738809263229372
5.56450635978195,-0.00442816658020019,0.145747229576111,0.016400457572937198
5.56511205330103,0.10813775138855,-0.08177962589263921,-0.0578451478958128
5.565717746820109,-0.17207953376770002,-0.12009993839263901,-0.0770053041458128
5.566323440339188,-0.16249945564270002,-0.151235192298889,0.162496648979187
5.5669291338582685,0.2398638256073,-0.0171140985488892,0.011610418510437199
5.567534827377347,0.0434722240447998,0.004441077232360849,-0.100955499458313
5.568140520896426,0.0410772045135498,-0.0793846063613892,0.0666958677291872
5.568746214415506,-0.0140082447052002,-0.0219041376113892,0.234347234916687
5.5693519079345855,-0.2151898853302,0.0212062139511108,-0.0147347963333128
5.569957601453664,0.0243120677947998,-0.0769895868301392,-0.273396905708313
5.570563294972744,0.009941950607299811,0.126587073326111,-0.0530551088333128
5.571168988491823,-0.0834638111114502,0.045156409263610794,-0.0578451478958128
5.571774682010902,0.0913726146697998,-0.151235192298889,-0.0674252260208128
5.572380375529982,0.0075469310760498095,-0.0745945672988892,0.0427456724166872
5.572986069049061,0.0554473217010498,-0.045854332923889206,-0.0314999330520628
5.57359176256814,-0.054723576736450195,-0.213505700111389,0.0619058286666872
5.57419745608722,0.0530523021697998,0.0379713506698608,-0.000364679145812814
5.574803149606299,-0.0762787525177002,0.0715016241073608,0.0882510435104372
5.575408843125379,0.0123369701385498,-0.144050133705139,-0.0171298158645628
5.576014536644458,0.25662896232605,-0.043459313392639205,-0.0698202455520628
5.576620230163537,0.009941950607299811,0.0810817022323608,-0.122510675239563
5.577225923682617,0.0291021068572998,-0.0506443719863892,-0.156040948677063
5.577831617201696,0.0626323802947998,-0.20153060245513899,0.0571157896041872
5.5784373107207745,0.0746074779510498,0.0858717412948608,0.0930410825729372
5.579043004239855,0.22309868888854997,-0.0171140985488892,0.136151434135437
5.579648697758934,0.20154351310729998,-0.0506443719863892,-0.151250909614563
5.580254391278013,-0.00921820564270019,-0.038669274330139204,-0.146460870552063
5.580860084797093,0.0554473217010498,-0.0338792352676392,0.425948797416687
5.581465778316172,-0.0355634204864502,0.018811194419860802,0.485824285697937
5.582071471835251,0.1057427318573,0.049946448326110796,0.107411199760437
5.5826771653543314,0.1009526927948,-0.108124840736389,0.0714859067916872
5.58328285887341,-0.11220404548645,-0.0674095087051392,-0.187176202583313
5.583888552392489,0.0913726146697998,0.155327307701111,0.011610418510437199
5.584494245911569,0.15603814201354999,0.0259962530136108,0.00203034038543719
5.585099939430648,0.0314971263885498,0.0116261358261108,-0.136880792427063
5.585705632949727,0.15124810295104998,0.205622717857361,0.0906460630416872
5.586311326468807,0.0817925365447998,0.243943030357361,0.138546453666687
5.586917019987886,0.00515191154479981,0.13616715145111102,-0.108140558052063
5.587522713506965,0.0243120677947998,-0.0769895868301392,-0.0650302064895628
5.588128407026045,0.12250786857605,0.0355763311386108,0.0882510435104372
5.588734100545124,0.16801323966979997,0.0738966436386108,-0.00515471820831281
5.589339794064203,0.0027568920135498096,0.0691066045761108,-0.00994475727081281
5.589945487583283,-0.0331684009552002,-0.0650144891738892,-0.09616546039581281
5.590551181102362,0.036287165451049805,0.0259962530136108,0.0068203794479371905
5.591156874621442,0.0243120677947998,0.145747229576111,0.140941473197937
5.5917625681405205,-0.10262396736145,-0.16321028995513898,-0.0171298158645628
5.5923682616596,-0.07388373298645019,-0.110519860267639,-0.0123397768020628
5.59297395517868,-0.07148871345520019,0.105031897544861,0.0858560239791872
5.593579648697759,-0.16249945564270002,-0.08896468448638921,0.0068203794479371905
5.594185342216838,0.0123369701385498,-0.26380111026763897,-0.0530551088333128
5.594791035735918,-0.0379584400177002,-0.0650144891738892,0.157706609916687
5.595396729254997,0.017127009201049797,-0.0745945672988892,0.0930410825729372
5.596002422774076,0.0698174388885498,0.0810817022323608,0.0810659849166872
5.596608116293156,0.0243120677947998,0.179277503013611,0.157706609916687
5.597213809812235,0.0554473217010498,0.0212062139511108,0.0930410825729372
5.597819503331314,0.16082818107605,-0.00753402042388915,0.148126531791687
5.598425196850394,0.0889775951385498,0.0786866827011108,0.0331655942916872
5.599030890369473,-0.057118596267700196,-0.105729821205139,0.0547207700729372
5.599636583888552,-0.025983342361450203,0.0212062139511108,-0.050660089302062804
5.600242277407632,0.0650273998260498,-0.110519860267639,-0.249446710395813
5.600847970926711,0.0937676342010498,-0.0219041376113892,-0.227891534614563
5.60145366444579,-0.14094427986145,0.145747229576111,0.0858560239791872
5.60205935796487,0.0291021068572998,-0.148840172767639,-0.0362899721145628
5.602665051483949,-0.0954389087677002,-0.0051390008926391504,-0.0338949525833128
5.603270745003028,-0.14573431892395,0.0786866827011108,-0.0362899721145628
5.603876438522108,0.11292779045105,0.042761389732360794,0.0547207700729372
5.604482132041187,-0.15291937751770002,0.0667115850448608,0.219977117729187
5.6050878255602665,-0.10741400642394999,-0.0961497430801392,0.188841863822937
5.605693519079346,0.0530523021697998,-0.0985447626113892,-0.029104913520812802
5.606299212598425,0.0243120677947998,-0.108124840736389,0.037955633354187196
5.606904906117504,-0.023588322830200202,-0.0338792352676392,0.0619058286666872
5.607510599636584,0.0985576732635498,-0.175185387611389,0.0930410825729372
5.608116293155663,0.0602373607635498,-0.043459313392639205,0.15052155132293701
5.608721986674743,-0.27506537361145,0.128982092857361,0.222372137260437
5.609327680193822,-0.0355634204864502,-0.151235192298889,0.0954361021041872
5.609933373712901,-0.028378361892700203,0.17688248348236102,0.430738836479187
5.610539067231981,-0.11220404548645,-0.0123240594863892,-0.0458700502395628
5.61114476075106,0.0458672435760498,-0.0314842157363892,0.0283755552291872
5.611750454270139,0.00515191154479981,0.210412756919861,0.382838445854187
5.612356147789219,0.11292779045105,0.124192053794861,0.107411199760437
5.612961841308298,-0.0954389087677002,0.09066178035736079,0.308592840385437
5.613567534827377,-0.15770941658020002,0.11461197566986099,-0.0434750307083128
5.614173228346457,-0.0140082447052002,0.00923111629486085,0.138546453666687
5.614778921865536,-0.0331684009552002,-0.239850914955139,-0.0171298158645628
5.615384615384615,0.20872857170105,-0.08417464542388921,0.0666958677291872
5.615990308903695,-0.0451434986114502,0.0283912725448608,-0.136880792427063
5.616596002422774,0.0123369701385498,0.045156409263610794,-0.271001886177063
5.617201695941853,0.0985576732635498,0.0331813116073608,0.169681707572937
5.617807389460933,-0.028378361892700203,0.0403663702011108,0.164891668510437
5.618413082980012,-0.0331684009552002,-0.0554344110488892,0.100226141166687
5.619018776499091,0.0817925365447998,0.100241858482361,-0.00275969867706281
5.619624470018171,0.18477837638855,0.0283912725448608,0.011610418510437199
5.62023016353725,-0.06669867439270019,-0.115309899330139,-0.0195248353958128
5.6208358570563295,-0.1098090259552,0.052341467857360796,-0.0219198549270628
5.621441550575409,0.033892145919799804,0.10982193660736099,0.011610418510437199
5.622047244094488,0.10334771232605,0.21759781551361101,0.248717352104187
5.622652937613568,0.0123369701385498,-0.0506443719863892,0.0666958677291872
5.623258631132647,0.16561822013855,0.0403663702011108,0.030770574760437198
5.623864324651726,0.0267070873260498,-0.0219041376113892,0.145731512260437
5.624470018170806,-0.025983342361450203,0.0331813116073608,-0.000364679145812814
5.625075711689885,-0.0355634204864502,0.19125260066986102,0.258297430229187
5.625681405208964,0.0626323802947998,0.047551428794860795,-0.0410800111770628
5.626287098728044,0.0746074779510498,-0.0506443719863892,0.0259805356979372
5.626892792247123,0.1344829662323,-0.110519860267639,0.0930410825729372
5.627498485766202,0.0602373607635498,-0.0793846063613892,0.227162176322937
5.628104179285282,-0.19602972908020003,0.0259962530136108,0.394813543510437
5.628709872804361,0.19435845451355,0.102636878013611,0.0211904966354372
5.62931556632344,-0.0140082447052002,0.0858717412948608,-0.129695733833313
5.62992125984252,-0.00921820564270019,-0.266196129798889,0.040350652885437197
5.630526953361599,-0.025983342361450203,-0.17758040714263898,0.037955633354187196
5.631132646880678,-0.0475385181427002,-0.0793846063613892,-0.0171298158645628
5.631738340399758,0.0817925365447998,-0.043459313392639205,-0.0147347963333128
5.632344033918837,-0.0403534595489502,0.184067542076111,-0.0722152650833128
5.632949727437916,-0.0930438892364502,-0.14165511417388899,-0.0434750307083128
5.633555420956996,-0.057118596267700196,0.045156409263610794,-0.0626351869583128
5.6341611144760755,0.13208794670104998,0.0667115850448608,0.0738809263229372
5.634766807995154,0.15124810295104998,0.143352210044861,0.0259805356979372
5.635372501514234,-0.0882538501739502,-0.0242991571426392,0.00203034038543719
5.635978195033313,-0.07388373298645019,-0.297331383705139,-0.105745538520813
5.6365838885523925,0.26860405998229997,0.09545181941986079,0.014005438041687199
5.637189582071472,0.0817925365447998,0.102636878013611,-0.191966241645813
5.637795275590551,0.0267070873260498,-0.129680016517639,-0.211126397895813
5.638400969109631,0.0985576732635498,-0.0745945672988892,0.253507391166687
5.63900666262871,-0.0307733814239502,0.0236012334823608,0.016400457572937198
5.639612356147789,0.0123369701385498,0.0259962530136108,-0.124905694770813
5.640218049666869,0.0291021068572998,-0.0674095087051392,-0.287767022895813
5.640823743185948,-0.00682318611145019,0.155327307701111,-0.134485772895813
5.641429436705027,0.1296929271698,-0.0195091180801392,-0.294952081489563
5.642035130224107,-0.0643036548614502,0.052341467857360796,-0.09616546039581281
5.642640823743186,-0.0906488697052002,-0.043459313392639205,0.174471746635437
5.643246517262265,0.1105327709198,-0.215900719642639,-0.0314999330520628
5.643852210781345,-0.0140082447052002,0.174487463951111,0.12178131694793701
5.644457904300424,-0.11220404548645,-0.12488997745513901,0.152916570854187
5.645063597819503,-0.0451434986114502,0.045156409263610794,0.0068203794479371905
5.645669291338583,0.0578423412322998,-0.0123240594863892,-0.0626351869583128
5.646274984857662,-0.06909369392395019,-0.110519860267639,-0.0267098939895628
5.646880678376741,-0.0164032642364502,-0.103334801673889,-0.129695733833313
5.6474863718958215,-0.0978339282989502,-0.0745945672988892,-0.184781183052063
5.6480920654149,-0.1002289478302,-0.0602244501113892,0.0666958677291872
5.648697758933979,0.0386821849822998,-0.12488997745513901,0.200816961479187
5.649303452453059,-0.0331684009552002,0.148142249107361,0.234347234916687
5.6499091459721384,0.0482622631072998,0.12179703426361099,-0.0147347963333128
5.650514839491217,-0.1098090259552,0.047551428794860795,-0.0482650697708128
5.651120533010297,0.019522028732299797,-0.129680016517639,-0.0362899721145628
5.651726226529376,0.0674224193572998,-0.270986168861389,0.112201238822937
5.652331920048455,0.0123369701385498,-0.153630211830139,0.0211904966354372
5.652937613567535,-0.0619086353302002,-0.014719079017639199,-0.0626351869583128
5.653543307086614,-0.0786737720489502,-0.165605309486389,0.0499307310104372
5.654149000605693,-0.14812933845520002,-0.0290891962051392,-0.0937704408645628
5.654754694124773,-0.23674506111145002,-0.12249495792388901,-0.0865853822708128
5.655360387643852,-0.14094427986145,-0.08177962589263921,-0.0458700502395628
5.655966081162932,0.0889775951385498,0.0164161748886108,0.0643008481979372
5.656571774682011,0.10334771232605,0.0619215459823608,-0.0338949525833128
5.65717746820109,0.0578423412322998,0.0762916631698608,-0.00275969867706281
5.65778316172017,0.0889775951385498,0.0212062139511108,-0.191966241645813
5.658388855239249,0.10334771232605,0.184067542076111,-0.0195248353958128
5.6589945487583275,0.18477837638855,0.0643165655136108,-0.0794003236770628
5.659600242277408,-0.0187982837677002,-0.08177962589263921,0.0187954771041872
5.660205935796487,0.16322320060729997,-0.0530393915176392,-0.11772063617706299
5.660811629315566,0.11771782951355,0.042761389732360794,0.109806219291687
5.661417322834646,-0.00921820564270019,-0.0793846063613892,0.0930410825729372
5.662023016353725,-0.025983342361450203,0.219992835044861,-0.144065851020813
5.662628709872804,-0.17207953376770002,0.0834767217636108,0.0259805356979372
5.663234403391884,-0.00442816658020019,-0.156025231361389,-0.122510675239563
5.663840096910963,0.2877642162323,0.00683609676361085,-0.0219198549270628
5.664445790430042,0.21591363029479999,0.0810817022323608,-0.134485772895813
5.665051483949122,-0.028378361892700203,0.0307862920761108,-0.225496515083313
5.665657177468201,-0.0331684009552002,-0.038669274330139204,-0.029104913520812802
5.66626287098728,-0.13136420173645003,-0.0482493524551392,0.198421941947937
5.66686856450636,-0.1098090259552,-0.12249495792388901,-0.103350518989563
5.667474258025439,0.1249028881073,0.100241858482361,-0.0578451478958128
5.668079951544518,-0.12657416267395,0.09784683895111079,0.0475357114791872
5.668685645063598,0.0314971263885498,0.00923111629486085,-0.100955499458313
5.669291338582677,0.15124810295104998,-0.0578294305801392,-0.158435968208313
5.669897032101756,-0.0762787525177002,0.00923111629486085,-0.175201104927063
5.670502725620836,-0.13615424079895003,0.126587073326111,-0.151250909614563
5.671108419139915,-0.028378361892700203,0.16251236629486102,-0.0770053041458128
5.671714112658994,0.1344829662323,0.0691066045761108,0.6846109067916869
5.6723198061780735,-0.06669867439270019,-0.0051390008926391504,0.334938055229187
5.672925499697153,0.0027568920135498096,0.045156409263610794,-0.206336358833313
5.673531193216233,0.0458672435760498,-0.000348961830139153,0.0714859067916872
5.674136886735312,0.017127009201049797,-0.18716048526763898,-0.0722152650833128
5.674742580254391,0.18477837638855,0.10982193660736099,-0.0219198549270628
5.675348273773471,0.036287165451049805,0.0571315069198608,0.0235855161666872
5.67595396729255,0.0123369701385498,-0.23745589542388898,-0.029104913520812802
5.676559660811629,-0.00682318611145019,-0.0721995477676392,0.0738809263229372
5.677165354330709,-0.07148871345520019,-0.148840172767639,0.116991277885437
5.677771047849788,0.0530523021697998,-0.12009993839263901,-0.0602401674270628
5.678376741368867,0.036287165451049805,0.052341467857360796,0.128966375541687
5.678982434887947,-0.00921820564270019,0.0283912725448608,0.215187078666687
5.679588128407026,0.0530523021697998,-0.115309899330139,-0.00275969867706281
5.680193821926105,-0.023588322830200202,0.004441077232360849,-0.0913754213333128
5.680799515445185,0.0889775951385498,-0.0195091180801392,0.00203034038543719
5.681405208964264,0.0578423412322998,-0.026694176673889198,-0.0386849916458128
5.682010902483343,-0.0930438892364502,-0.000348961830139153,0.0235855161666872
5.682616596002423,-0.12657416267395,0.052341467857360796,-0.0530551088333128
5.683222289521502,-0.023588322830200202,0.0762916631698608,0.258297430229187
5.683827983040581,-0.00203314704895019,-0.0219041376113892,0.193631902885437
5.684433676559661,-0.028378361892700203,-0.0698045282363892,-0.0434750307083128
5.68503937007874,0.0889775951385498,0.133772131919861,0.186446844291687
5.6856450635978195,0.009941950607299811,-0.0626194696426392,0.030770574760437198
5.686250757116899,-0.00203314704895019,-0.112914879798889,0.102621160697937
5.686856450635978,-0.028378361892700203,-0.273381188392639,0.040350652885437197
5.687462144155058,-0.0451434986114502,-0.11770491886138901,-0.144065851020813
5.688067837674137,-0.0331684009552002,0.164907385826111,0.0714859067916872
5.688673531193216,0.0722124584197998,0.018811194419860802,0.0259805356979372
5.689279224712296,0.0123369701385498,0.0379713506698608,0.193631902885437
5.689884918231375,0.0650273998260498,-0.0769895868301392,0.315777898979187
5.690490611750454,0.017127009201049797,-0.0769895868301392,0.0643008481979372
5.691096305269534,-0.18884467048645,-0.12249495792388901,0.100226141166687
5.691701998788613,0.1536431224823,0.08826676082611079,0.0762759458541872
5.692307692307692,0.1249028881073,0.17209244441986102,0.327752996635437
5.692913385826772,-0.0595136157989502,0.0595265264511108,-0.146460870552063
5.693519079345851,0.0650273998260498,-0.000348961830139153,-0.105745538520813
5.69412477286493,0.0147319896697998,-0.041064293861389205,-0.134485772895813
5.69473046638401,0.0841875560760498,-0.09135970401763921,-0.182386163520813
5.695336159903089,-0.0643036548614502,0.00204605770111085,0.0547207700729372
5.695941853422168,-0.2008197681427,-0.038669274330139204,-0.00515471820831281
5.696547546941248,-0.10741400642394999,-0.127284996986389,0.327752996635437
5.697153240460327,0.20154351310729998,0.0571315069198608,0.011610418510437199
5.697758933979406,0.16082818107605,0.150537268638611,-0.201546319770813
5.698364627498486,-0.11699408454895,0.00923111629486085,-0.0219198549270628
5.698970321017565,0.0267070873260498,-0.112914879798889,0.138546453666687
5.699576014536644,0.2350737865448,0.09305679988861079,0.6391055356979369
5.700181708055724,-0.0427484790802002,-0.0482493524551392,0.0595108091354372
5.700787401574803,-0.28464545173645,-0.0530393915176392,-0.359617608833313
5.7013930950938825,-0.1193891040802,-0.0482493524551392,0.433133856010437
5.701998788612962,0.0506572826385498,0.0858717412948608,0.0978311216354372
5.702604482132041,0.2733940990448,-0.0626194696426392,0.133756414604187
5.703210175651121,0.0889775951385498,-0.189555504798889,0.0762759458541872
5.7038158691702,-0.023588322830200202,0.0571315069198608,-0.0314999330520628
5.704421562689279,-0.025983342361450203,-0.158420250892639,0.322962957572937
5.705027256208359,-0.12657416267395,-0.0242991571426392,-0.0746102846145628
5.705632949727438,-0.00203314704895019,0.00923111629486085,0.037955633354187196
5.706238643246517,-0.0858588306427002,-0.206320641517639,0.277457586479187
5.706844336765597,-0.16489447517395,-0.13686507511138898,0.0595108091354372
5.707450030284676,0.0698174388885498,0.0212062139511108,-0.0770053041458128
5.708055723803755,-0.14573431892395,-0.16800032901763898,-0.0195248353958128
5.708661417322835,-0.2487201587677,-0.038669274330139204,0.12178131694793701
5.709267110841914,0.16082818107605,0.100241858482361,-0.0410800111770628
5.709872804360993,0.14166802482604998,-0.0745945672988892,0.0475357114791872
5.710478497880073,0.0434722240447998,0.09066178035736079,0.236742254447937
5.711084191399152,0.0314971263885498,0.126587073326111,0.164891668510437
5.711689884918231,-0.052328557205200195,0.0547364873886108,0.167286688041687
5.712295578437311,-0.00682318611145019,0.160117346763611,-0.0147347963333128
5.71290127195639,-0.00203314704895019,0.100241858482361,-0.0482650697708128
5.713506965475469,0.0410772045135498,0.188857581138611,0.234347234916687
5.714112658994549,-0.16968451423645,-0.00753402042388915,0.243927313041687
5.7147183525136285,-0.29901556892395004,0.0116261358261108,0.0331655942916872
5.715324046032707,0.0027568920135498096,-0.09135970401763921,-0.0722152650833128
5.715929739551787,0.12729790763855,-0.0793846063613892,-0.168016046333313
5.716535433070866,0.0985576732635498,-0.0314842157363892,-0.0794003236770628
5.717141126589945,0.00515191154479981,-0.12009993839263901,-0.0937704408645628
5.717746820109025,0.0458672435760498,-0.00274398136138915,-0.0841903627395628
5.718352513628104,-0.0164032642364502,-0.108124840736389,0.112201238822937
5.718958207147184,0.0506572826385498,-0.0698045282363892,0.102621160697937
5.719563900666263,0.0482622631072998,0.052341467857360796,-0.239866632270813
5.720169594185342,-0.13136420173645003,0.09545181941986079,-0.254236749458313
5.720775287704422,-0.0187982837677002,-0.0578294305801392,0.0810659849166872
5.721380981223501,-0.1289691822052,-0.000348961830139153,0.303802801322937
5.72198667474258,0.0458672435760498,-0.0626194696426392,0.320567938041687
5.72259236826166,0.0267070873260498,0.0834767217636108,0.0954361021041872
5.723198061780739,0.0386821849822998,0.0762916631698608,0.0235855161666872
5.7238037552998176,0.0554473217010498,0.09305679988861079,-0.129695733833313
5.724409448818898,-0.11220404548645,-0.0338792352676392,-0.160830987739563
5.725015142337977,0.0243120677947998,-0.211110680580139,0.0068203794479371905
5.725620835857056,0.021917048263549798,0.0691066045761108,0.0499307310104372
5.726226529376136,0.036287165451049805,0.198437659263611,0.346913152885437
5.726832222895215,-0.0978339282989502,0.100241858482361,0.0571157896041872
5.727437916414294,-0.0307733814239502,-0.08417464542388921,-0.0626351869583128
5.7280436099333745,0.10334771232605,0.09784683895111079,0.0954361021041872
5.728649303452453,-0.0882538501739502,-0.026694176673889198,-0.134485772895813
5.729254996971532,0.0865825756072998,-0.0219041376113892,-0.0458700502395628
5.729860690490612,0.0913726146697998,0.042761389732360794,0.253507391166687
5.730466384009691,0.019522028732299797,-0.160815270423889,-0.187176202583313
5.73107207752877,0.19196343498229998,0.0116261358261108,0.461874090385437
5.73167777104785,-0.00442816658020019,-0.036274254798889204,0.370863348197937
5.732283464566929,-0.028378361892700203,-0.175185387611389,-0.0746102846145628
5.732889158086008,0.021917048263549798,-0.0937547235488892,0.0714859067916872
5.733494851605088,-0.023588322830200202,-0.0219041376113892,-0.242261651802063
5.734100545124167,-0.07148871345520019,0.0667115850448608,-0.0626351869583128
5.734706238643246,-0.025983342361450203,0.0619215459823608,-0.242261651802063
5.735311932162326,-0.0906488697052002,0.15772232723236101,0.229557195854187
5.735917625681405,-0.0810687915802002,-0.179975426673889,0.282247625541687
5.736523319200485,0.0123369701385498,-0.146445153236389,0.0523257505416872
5.7371290127195635,0.0626323802947998,0.0236012334823608,-0.029104913520812802
5.737734706238643,-0.0834638111114502,-0.18237044620513898,0.016400457572937198
5.738340399757723,-0.052328557205200195,0.0858717412948608,-0.0698202455520628
5.738946093276802,0.14166802482604998,0.052341467857360796,-0.0219198549270628
5.7395517867958805,-0.0930438892364502,0.049946448326110796,0.126571356010437
5.740157480314961,-0.057118596267700196,-0.041064293861389205,0.014005438041687199
5.74076317383404,0.019522028732299797,-0.0123240594863892,-0.0913754213333128
5.741368867353119,0.033892145919799804,0.0355763311386108,0.0475357114791872
5.741974560872199,0.0147319896697998,0.0834767217636108,0.145731512260437
5.742580254391278,-0.0403534595489502,0.212807776451111,-0.0554501283645628
5.743185947910357,-0.18405463142395,0.0786866827011108,0.181656805229187
5.743791641429437,-0.0978339282989502,-0.115309899330139,0.0882510435104372
5.744397334948516,0.1488530834198,-0.0530393915176392,-0.0386849916458128
5.745003028467595,-0.0643036548614502,0.018811194419860802,0.160101629447937
5.745608721986675,0.20393853263855,-0.0626194696426392,0.0259805356979372
5.746214415505754,0.1249028881073,-0.100939782142639,-0.153645929145813
5.746820109024833,0.0770024974822998,-0.211110680580139,-0.0674252260208128
5.747425802543913,0.1536431224823,0.0595265264511108,0.0331655942916872
5.748031496062992,0.0458672435760498,0.0236012334823608,-0.0243148744583128
5.748637189582071,0.17519829826355,-0.045854332923889206,0.0355606138229372
5.749242883101151,-0.00203314704895019,0.11700699520111099,0.0619058286666872
5.74984857662023,0.019522028732299797,0.0307862920761108,0.248717352104187
5.7504542701393095,-0.0307733814239502,0.0547364873886108,-0.0458700502395628
5.751059963658389,-0.15770941658020002,-0.110519860267639,0.0068203794479371905
5.751665657177468,0.0985576732635498,-0.0674095087051392,0.037955633354187196
5.752271350696547,0.2302837474823,0.018811194419860802,0.004425359916687191
5.7528770442156265,0.16322320060729997,-0.08656966495513921,0.004425359916687191
5.753482737734706,0.1392730052948,0.24633804988861102,0.016400457572937198
5.754088431253786,0.15603814201354999,-0.08177962589263921,0.179261785697937
5.754694124772865,0.033892145919799804,-0.13207503604888898,-0.0219198549270628
5.755299818291944,-0.07388373298645019,0.10742691707611099,-0.122510675239563
5.755905511811024,-0.2726703540802,-0.203925621986389,0.148126531791687
5.756511205330103,0.0434722240447998,-0.026694176673889198,-0.0817953432083128
5.757116898849182,0.15603814201354999,0.0571315069198608,-0.0602401674270628
5.757722592368262,-0.1241791431427,-0.0793846063613892,0.0619058286666872
5.758328285887341,0.15603814201354999,-0.12249495792388901,-0.0674252260208128
5.75893397940642,0.0434722240447998,0.0331813116073608,0.0762759458541872
5.7595396729255,0.0746074779510498,-0.16321028995513898,-0.302137140083313
5.760145366444579,-0.00203314704895019,-0.259011071205139,-0.271001886177063
5.760751059963658,0.0267070873260498,-0.0123240594863892,0.0571157896041872
5.761356753482738,0.0410772045135498,0.09305679988861079,0.421158758354187
5.761962447001817,0.0530523021697998,0.0212062139511108,0.15052155132293701
5.762568140520896,-0.0451434986114502,0.0259962530136108,-0.050660089302062804
5.763173834039976,-0.2151898853302,0.0571315069198608,0.0643008481979372
5.763779527559055,-0.1241791431427,-0.0554344110488892,0.124176336479187
5.764385221078134,-0.1050189868927,-0.0721995477676392,-0.0171298158645628
5.764990914597214,0.12250786857605,-0.0482493524551392,0.191236883354187
5.765596608116293,0.19435845451355,0.10742691707611099,0.263087469291687
5.7662023016353725,-0.0954389087677002,0.24154801082611102,-0.112930597114563
5.766807995154452,-0.0475385181427002,0.11461197566986099,0.0858560239791872
5.767413688673531,-0.0882538501739502,0.0858717412948608,-0.175201104927063
5.768019382192611,-0.0164032642364502,0.00204605770111085,-0.268606866645813
5.76862507571169,0.13687798576354998,-0.0769895868301392,-0.100955499458313
5.769230769230769,0.009941950607299811,0.00204605770111085,0.145731512260437
5.769836462749849,-0.0164032642364502,0.31339859676361104,0.157706609916687
5.770442156268928,0.0722124584197998,0.124192053794861,-0.211126397895813
5.771047849788007,0.1249028881073,-0.134470055580139,0.131361395072937
5.771653543307087,0.0530523021697998,0.018811194419860802,0.102621160697937
5.772259236826166,0.0243120677947998,-0.18716048526763898,0.030770574760437198
5.772864930345245,-0.06909369392395019,-0.014719079017639199,0.0331655942916872
5.773470623864325,-0.0187982837677002,-0.17758040714263898,-0.00275969867706281
5.774076317383404,0.2302837474823,-0.09135970401763921,-0.0578451478958128
5.774682010902483,0.19914849357605,-0.0242991571426392,-0.168016046333313
5.775287704421563,0.017127009201049797,0.0571315069198608,-0.227891534614563
5.775893397940642,0.0722124584197998,0.0715016241073608,0.004425359916687191
5.776499091459721,-0.06669867439270019,0.0715016241073608,0.0954361021041872
5.777104784978801,0.12729790763855,-0.112914879798889,0.215187078666687
5.77771047849788,0.0267070873260498,-0.0650144891738892,0.188841863822937
5.778316172016959,-0.1289691822052,-0.0506443719863892,-0.007549737739562809
5.778921865536039,0.1009526927948,-0.0602244501113892,-0.0770053041458128
5.779527559055118,-0.054723576736450195,0.0595265264511108,-0.09616546039581281
5.780133252574197,-0.0140082447052002,-0.12488997745513901,-0.0722152650833128
5.780738946093277,0.0913726146697998,0.0810817022323608,-0.0674252260208128
5.781344639612356,0.0075469310760498095,-0.0721995477676392,0.145731512260437
5.7819503331314355,0.23746880607604998,0.00923111629486085,0.0690908872604372
5.782556026650515,0.0817925365447998,0.0116261358261108,-0.0817953432083128
5.783161720169594,0.0841875560760498,-0.0698045282363892,-0.00275969867706281
5.783767413688674,0.0698174388885498,-0.19674056339263898,-0.0458700502395628
5.784373107207753,-0.0906488697052002,0.047551428794860795,-0.105745538520813
5.784978800726832,0.1105327709198,-0.11770491886138901,-0.00994475727081281
5.785584494245912,0.0530523021697998,-0.108124840736389,-0.0985604799270628
5.786190187764991,-0.11220404548645,0.0786866827011108,0.198421941947937
5.78679588128407,-0.0211933032989502,-0.115309899330139,-0.0123397768020628
5.78740157480315,-0.025983342361450203,0.0283912725448608,-0.105745538520813
5.788007268322229,0.009941950607299811,-0.0123240594863892,0.0571157896041872
5.788612961841308,-0.0499335376739502,0.0379713506698608,0.205607000541687
5.789218655360388,-0.0307733814239502,-0.0530393915176392,0.014005438041687199
5.789824348879467,0.10334771232605,-0.105729821205139,-0.249446710395813
5.790430042398546,-0.06909369392395019,0.133772131919861,-0.227891534614563
5.791035735917626,-0.0187982837677002,0.0619215459823608,0.457084051322937
5.791641429436705,0.26620904045105,-0.333256676673889,0.172076727104187
5.792247122955784,0.1296929271698,-0.0290891962051392,-0.20873137836456299
5.7928528164748645,-0.028378361892700203,-0.0650144891738892,0.138546453666687
5.793458509993943,0.19196343498229998,0.152932288169861,0.004425359916687191
5.794064203513022,0.0865825756072998,0.10742691707611099,0.0643008481979372
5.794669897032102,-0.0451434986114502,-0.239850914955139,-0.000364679145812814
5.7952755905511815,0.20393853263855,-0.0482493524551392,-0.0482650697708128
5.79588128407026,0.20393853263855,-0.0171140985488892,-0.127300714302063
5.79648697758934,0.14645806388854998,0.09784683895111079,-0.196756280708313
5.797092671108419,0.10813775138855,-0.08417464542388921,-0.0267098939895628
5.797698364627498,-0.15052435798645,-0.0171140985488892,0.263087469291687
5.798304058146578,-0.16728949470520002,0.188857581138611,-0.0362899721145628
5.798909751665657,-0.07388373298645019,0.047551428794860795,-0.0362899721145628
5.799515445184736,-0.00203314704895019,-0.0051390008926391504,-0.0123397768020628
5.800121138703816,-0.17686957283020002,0.179277503013611,-0.0841903627395628
5.800726832222895,-0.023588322830200202,-0.0242991571426392,0.133756414604187
5.801332525741975,0.1440630443573,-0.009929039955139149,-0.0698202455520628
5.801938219261054,-0.0595136157989502,-0.112914879798889,0.00203034038543719
5.802543912780133,-0.0451434986114502,-0.146445153236389,0.0858560239791872
5.803149606299213,0.033892145919799804,0.174487463951111,-0.108140558052063
5.803755299818292,0.0698174388885498,0.09305679988861079,-0.0530551088333128
5.8043609933373705,0.0123369701385498,0.22717789363861102,0.193631902885437
5.804966686856451,-0.0164032642364502,0.09066178035736079,0.0595108091354372
5.80557238037553,0.0817925365447998,-0.100939782142639,0.0475357114791872
5.806178073894609,-0.0403534595489502,0.13137711238861102,0.155311590385437
5.806783767413689,-0.2630902759552,0.0762916631698608,0.116991277885437
5.807389460932768,-0.18165961189270002,-0.158420250892639,0.030770574760437198
5.807995154451847,-0.0906488697052002,-0.0123240594863892,-0.0913754213333128
5.8086008479709275,0.1440630443573,0.208017737388611,0.193631902885437
5.809206541490006,0.13208794670104998,0.0259962530136108,0.0786709653854372
5.809812235009085,-0.0307733814239502,-0.0793846063613892,0.0451406919479372
5.810417928528165,0.00036187248229980703,0.014021155357360801,0.0786709653854372
5.811023622047244,-0.0643036548614502,-0.230270836830139,-0.0219198549270628
5.811629315566323,-0.0882538501739502,-0.08656966495513921,0.0475357114791872
5.812235009085403,0.017127009201049797,0.29423844051361103,-0.0219198549270628
5.812840702604482,0.0147319896697998,-0.12488997745513901,0.0235855161666872
5.813446396123562,-0.0858588306427002,0.126587073326111,0.0810659849166872
5.814052089642641,0.00515191154479981,0.0595265264511108,-0.0243148744583128
5.81465778316172,0.13687798576354998,-0.045854332923889206,0.00203034038543719
5.815263476680799,0.0578423412322998,0.102636878013611,0.164891668510437
5.815869170199879,0.31410943107605,-0.043459313392639205,0.133756414604187
5.816474863718958,0.17519829826355,0.0571315069198608,0.0068203794479371905
5.817080557238038,0.0314971263885498,-0.000348961830139153,0.184051824760437
5.8176862507571165,0.0267070873260498,-0.14165511417388899,0.0547207700729372
5.818291944276196,0.0985576732635498,-0.249430993080139,-0.09616546039581281
5.818897637795276,0.0961626537322998,0.0379713506698608,0.0283755552291872
5.819503331314355,-0.0379584400177002,0.128982092857361,-0.359617608833313
5.8201090248334335,0.2207036693573,0.09066178035736079,-0.0746102846145628
5.820714718352514,0.26141900138855,-0.0195091180801392,0.193631902885437
5.821320411871593,0.18956841545105,-0.19674056339263898,-0.0314999330520628
5.821926105390672,-0.0475385181427002,-0.100939782142639,-0.124905694770813
5.822531798909752,-0.11220404548645,0.004441077232360849,0.0499307310104372
5.823137492428831,0.26141900138855,-0.0554344110488892,0.179261785697937
5.82374318594791,0.0410772045135498,-0.036274254798889204,0.100226141166687
5.82434887946699,0.1009526927948,0.23675797176361102,-0.0722152650833128
5.824954572986069,0.0482622631072998,0.198437659263611,-0.168016046333313
5.825560266505148,-0.2678803150177,-0.129680016517639,0.12178131694793701
5.826165960024228,0.0626323802947998,-0.146445153236389,0.037955633354187196
5.826771653543307,0.0410772045135498,0.0355763311386108,-0.050660089302062804
5.827377347062386,0.0314971263885498,0.10742691707611099,0.0666958677291872
5.827983040581466,-0.0403534595489502,0.047551428794860795,0.100226141166687
5.828588734100545,0.0985576732635498,0.16730240535736102,0.0643008481979372
5.829194427619624,-0.00921820564270019,0.164907385826111,0.143336492729187
5.829800121138704,0.1440630443573,-0.175185387611389,-0.0458700502395628
5.830405814657783,0.0985576732635498,-0.09135970401763921,0.105016180229187
5.8310115081768625,-0.052328557205200195,-0.12488997745513901,0.138546453666687
5.831617201695942,0.0602373607635498,0.21759781551361101,-0.132090753364563
5.832222895215021,-0.15291937751770002,0.188857581138611,-0.0937704408645628
5.8328285887341,-0.0978339282989502,0.0595265264511108,0.196026922416687
5.8334342822531795,-0.0331684009552002,-0.000348961830139153,0.258297430229187
5.834039975772259,0.0937676342010498,-0.13207503604888898,0.0259805356979372
5.834645669291339,0.0410772045135498,-0.00753402042388915,0.0714859067916872
5.835251362810418,-0.07148871345520019,-0.148840172767639,0.152916570854187
5.835857056329497,0.0291021068572998,0.0379713506698608,0.109806219291687
5.836462749848577,-0.0403534595489502,0.0834767217636108,0.148126531791687
5.837068443367656,-0.00442816658020019,0.052341467857360796,-0.0602401674270628
5.837674136886735,0.1536431224823,0.11940201473236099,-0.0530551088333128
5.838279830405815,0.32847954826354997,-0.0985447626113892,0.136151434135437
5.838885523924894,0.0386821849822998,-0.134470055580139,-0.00515471820831281
5.839491217443973,0.0985576732635498,0.10742691707611099,-0.124905694770813
5.840096910963053,0.0027568920135498096,0.0691066045761108,0.037955633354187196
5.840702604482132,-0.14573431892395,-0.0195091180801392,0.0978311216354372
5.841308298001211,0.0793975170135498,-0.0961497430801392,0.0451406919479372
5.841913991520291,-0.0619086353302002,-0.0674095087051392,0.215187078666687
5.84251968503937,0.00036187248229980703,0.0738966436386108,0.224767156791687
5.843125378558449,0.0147319896697998,0.128982092857361,0.105016180229187
5.843731072077529,-0.0403534595489502,-0.112914879798889,0.0499307310104372
5.844336765596608,0.0650273998260498,-0.0290891962051392,0.0068203794479371905
5.844942459115687,0.24225884513854998,-0.0650144891738892,-0.0770053041458128
5.845548152634767,0.25902398185729997,-0.259011071205139,-0.0314999330520628
5.846153846153846,0.12250786857605,-0.127284996986389,-0.0626351869583128
5.8467595396729255,-0.0810687915802002,-0.203925621986389,-0.0722152650833128
5.847365233192005,-0.1002289478302,-0.151235192298889,-0.0530551088333128
5.847970926711084,0.0267070873260498,0.0858717412948608,-0.146460870552063
5.848576620230164,0.0889775951385498,-0.0195091180801392,0.040350652885437197
5.849182313749243,0.0913726146697998,-0.23266585636138898,0.0810659849166872
5.849788007268322,-0.057118596267700196,-0.0961497430801392,-0.0913754213333128
5.850393700787402,0.14645806388854998,-0.0961497430801392,-0.345247491645813
5.850999394306481,0.1201128490448,-0.144050133705139,0.481034246635437
5.85160508782556,-0.17926459236145,-0.0554344110488892,0.7995718442916869
5.85221078134464,-0.057118596267700196,0.11221695613861099,0.231952215385437
5.852816474863719,0.0961626537322998,0.08826676082611079,0.176866766166687
5.853422168382798,0.0267070873260498,0.014021155357360801,-0.0314999330520628
5.854027861901878,0.0530523021697998,0.0762916631698608,0.0187954771041872
5.854633555420957,-0.0427484790802002,-0.0219041376113892,0.119386297416687
5.855239248940036,-0.0475385181427002,-0.206320641517639,0.344518133354187
5.855844942459116,0.033892145919799804,0.00923111629486085,0.0666958677291872
5.856450635978195,0.0482622631072998,0.229572913169861,0.0523257505416872
5.857056329497274,0.2446538646698,-0.09135970401763921,0.0954361021041872
5.857662023016354,-0.0475385181427002,-0.18237044620513898,-0.179991143989563
5.858267716535433,-0.17926459236145,-0.0051390008926391504,-0.0817953432083128
5.858873410054512,-0.00921820564270019,0.148142249107361,0.0187954771041872
5.859479103573592,-0.13615424079895003,0.0786866827011108,-0.105745538520813
5.8600847970926715,-0.0403534595489502,0.124192053794861,-0.168016046333313
5.86069049061175,0.0530523021697998,0.09305679988861079,0.0666958677291872
5.86129618413083,-0.00921820564270019,-0.0123240594863892,0.0187954771041872
5.861901877649909,-0.025983342361450203,0.014021155357360801,0.107411199760437
5.8625075711689885,-0.0499335376739502,-0.175185387611389,0.15052155132293701
5.863113264688068,-0.0762787525177002,-0.08177962589263921,0.0187954771041872
5.863718958207147,0.1584331615448,0.0164161748886108,0.040350652885437197
5.864324651726227,0.12250786857605,-0.0051390008926391504,-0.141670831489563
5.864930345245306,-0.14812933845520002,0.12179703426361099,0.0954361021041872
5.865536038764385,-0.0762787525177002,0.150537268638611,0.011610418510437199
5.866141732283465,-0.0786737720489502,-0.026694176673889198,0.112201238822937
5.866747425802544,-0.0331684009552002,-0.08896468448638921,0.100226141166687
5.867353119321623,0.1057427318573,-0.103334801673889,-0.160830987739563
5.867958812840703,0.17040825920105,-0.11770491886138901,0.140941473197937
5.868564506359782,0.0243120677947998,-0.0985447626113892,0.184051824760437
5.869170199878861,-0.0810687915802002,-0.043459313392639205,0.0427456724166872
5.869775893397941,-0.0451434986114502,-0.148840172767639,0.0475357114791872
5.87038158691702,-0.0475385181427002,-0.16800032901763898,0.0427456724166872
5.870987280436099,-0.0116132251739502,-0.0051390008926391504,-0.00994475727081281
5.871592973955179,-0.1145990650177,-0.0602244501113892,0.138546453666687
5.872198667474258,-0.0307733814239502,-0.0698045282363892,-0.007549737739562809
5.872804360993337,0.0482622631072998,-0.175185387611389,0.160101629447937
5.8734100545124175,-0.0643036548614502,-0.215900719642639,0.102621160697937
5.874015748031496,-0.00921820564270019,0.140957190513611,0.0643008481979372
5.874621441550575,0.21351861076355,0.17209244441986102,0.0786709653854372
5.875227135069655,0.17519829826355,0.0379713506698608,-0.0458700502395628
5.8758328285887345,-0.0595136157989502,0.014021155357360801,0.107411199760437
5.876438522107813,0.0314971263885498,0.0762916631698608,0.08346100444793719
5.877044215626893,-0.0403534595489502,-0.000348961830139153,0.0211904966354372
5.877649909145972,-0.0595136157989502,-0.0506443719863892,-0.0171298158645628
5.878255602665051,-0.057118596267700196,0.133772131919861,0.131361395072937
5.878861296184131,-0.0906488697052002,0.0547364873886108,0.0643008481979372
5.87946698970321,0.2254937084198,0.0738966436386108,-0.0913754213333128
5.880072683222289,0.0410772045135498,-0.0674095087051392,0.433133856010437
5.880678376741369,-0.0140082447052002,-0.0051390008926391504,0.7181411802291869
5.881284070260448,-0.0331684009552002,-0.0219041376113892,0.8067569028854369
5.881889763779528,-0.14573431892395,0.0331813116073608,0.588810125541687
5.882495457298607,-0.0211933032989502,0.0283912725448608,-0.0195248353958128
5.883101150817686,-0.0499335376739502,-0.105729821205139,0.011610418510437199
5.883706844336766,0.0698174388885498,-0.08177962589263921,0.296617742729187
5.884312537855845,0.0458672435760498,-0.108124840736389,0.181656805229187
5.8849182313749235,0.16561822013855,-0.0674095087051392,0.0211904966354372
5.885523924894004,0.0482622631072998,0.0762916631698608,-0.050660089302062804
5.886129618413083,0.0482622631072998,0.102636878013611,-0.170411065864563
5.886735311932162,0.0722124584197998,0.128982092857361,-0.189571222114563
5.887341005451242,0.0314971263885498,-0.0482493524551392,-0.369197686958313
5.887946698970321,0.036287165451049805,0.0164161748886108,-0.000364679145812814
5.8885523924894,0.0913726146697998,0.0619215459823608,0.0547207700729372
5.8891580860084805,-0.023588322830200202,-0.0506443719863892,-0.09616546039581281
5.889763779527559,0.0770024974822998,0.004441077232360849,-0.0410800111770628
5.890369473046638,-0.0834638111114502,-0.00753402042388915,0.0906460630416872
5.890975166565718,-0.0427484790802002,0.102636878013611,0.239137273979187
5.891580860084797,0.0770024974822998,-0.00753402042388915,0.0714859067916872
5.892186553603876,-0.19842474861145,0.0331813116073608,0.275062566947937
5.892792247122956,-0.2487201587677,0.10982193660736099,-0.0865853822708128
5.893397940642035,-0.0211933032989502,0.0810817022323608,-0.100955499458313
5.894003634161115,0.017127009201049797,0.224782874107361,0.109806219291687
5.894609327680194,-0.3349408618927,0.160117346763611,0.0451406919479372
5.895215021199273,-0.07388373298645019,-0.184765465736389,-0.0554501283645628
5.895820714718352,-0.07148871345520019,-0.22308577823638898,-0.323692315864563
5.896426408237432,-0.00442816658020019,-0.08177962589263921,-0.007549737739562809
5.897032101756511,-0.028378361892700203,-0.041064293861389205,-0.0889804018020628
5.897637795275591,0.0889775951385498,-0.0578294305801392,-0.0889804018020628
5.8982434887946695,0.00036187248229980703,0.045156409263610794,0.0714859067916872
5.898849182313749,-0.052328557205200195,-0.09135970401763921,0.119386297416687
5.899454875832829,0.2207036693573,-0.0793846063613892,0.0643008481979372
5.900060569351908,-0.17926459236145,-0.0314842157363892,-0.124905694770813
5.900666262870987,0.0817925365447998,-0.12009993839263901,-0.0770053041458128
5.901271956390067,0.1296929271698,-0.026694176673889198,-0.132090753364563
5.901877649909146,-0.16249945564270002,0.184067542076111,-0.215916436958313
5.902483343428225,0.0243120677947998,-0.0482493524551392,-0.0674252260208128
5.903089036947305,0.0434722240447998,-0.026694176673889198,-0.0698202455520628
5.903694730466384,-0.07148871345520019,0.17209244441986102,0.145731512260437
5.904300423985463,0.10813775138855,-0.12488997745513901,0.193631902885437
5.904906117504543,-0.0595136157989502,-0.0242991571426392,0.184051824760437
5.905511811023622,-0.0595136157989502,0.09066178035736079,0.109806219291687
5.906117504542701,0.0770024974822998,-0.0793846063613892,-0.122510675239563
5.906723198061781,0.16561822013855,-0.146445153236389,0.203211981010437
5.90732889158086,0.0937676342010498,-0.0650144891738892,-0.0746102846145628
5.907934585099939,-0.1385492603302,-0.0626194696426392,-0.110535577583313
5.908540278619019,0.21112359123229998,0.0164161748886108,0.016400457572937198
5.909145972138098,0.0386821849822998,0.0403663702011108,-0.0578451478958128
5.909751665657177,0.009941950607299811,-0.0698045282363892,0.0355606138229372
5.910357359176257,0.0985576732635498,-0.0051390008926391504,-0.433863214302063
5.910963052695336,-0.07388373298645019,-0.127284996986389,0.349308172416687
5.9115687462144155,-0.0595136157989502,-0.261406090736389,0.21039703960418701
5.912174439733495,0.019522028732299797,0.0571315069198608,-0.271001886177063
5.912780133252574,-0.0331684009552002,0.0595265264511108,0.385233465385437
5.913385826771653,-0.0307733814239502,-0.0578294305801392,0.155311590385437
5.913991520290733,0.036287165451049805,-0.0123240594863892,0.040350652885437197
5.914597213809812,0.1488530834198,-0.0985447626113892,0.037955633354187196
5.915202907328892,0.1057427318573,0.0379713506698608,0.0499307310104372
5.915808600847971,0.1009526927948,0.138562170982361,0.255902410697937
5.91641429436705,0.0602373607635498,-0.0554344110488892,-0.0985604799270628
5.91701998788613,-0.1050189868927,-0.00274398136138915,-0.0817953432083128
5.917625681405209,-0.0379584400177002,-0.08417464542388921,0.0187954771041872
5.918231374924288,0.0314971263885498,-0.038669274330139204,-0.184781183052063
5.918837068443368,-0.0379584400177002,-0.0578294305801392,0.203211981010437
5.919442761962447,0.0985576732635498,-0.0123240594863892,0.0283755552291872
5.920048455481526,0.11771782951355,0.105031897544861,-0.0338949525833128
5.920654149000606,0.0027568920135498096,0.23196793270111102,0.267877508354187
5.921259842519685,-0.0427484790802002,0.11221695613861099,0.188841863822937
5.921865536038764,-0.023588322830200202,-0.103334801673889,0.0068203794479371905
5.922471229557844,-0.1385492603302,-0.0482493524551392,-0.007549737739562809
5.923076923076923,-0.0475385181427002,-0.13207503604888898,0.0475357114791872
5.923682616596002,-0.0307733814239502,-0.0290891962051392,-0.124905694770813
5.924288310115082,-0.1337592212677,0.0595265264511108,0.105016180229187
5.924894003634161,-0.0643036548614502,0.0331813116073608,0.241532293510437
5.92549969715324,0.10334771232605,-0.175185387611389,0.193631902885437
5.92610539067232,0.20633355216979998,0.047551428794860795,0.0355606138229372
5.926711084191399,-0.19123969001770003,-0.151235192298889,-0.184781183052063
5.9273167777104785,-0.06909369392395019,-0.22308577823638898,-0.146460870552063
5.927922471229558,0.0841875560760498,0.0667115850448608,0.243927313041687
5.928528164748637,-0.0427484790802002,-0.18716048526763898,0.270272527885437
5.929133858267717,0.1009526927948,-0.0602244501113892,-0.108140558052063
5.929739551786796,0.18238335685729998,0.0571315069198608,-0.029104913520812802
5.930345245305875,0.1488530834198,0.0116261358261108,-0.151250909614563
5.930950938824954,-0.16489447517395,0.0331813116073608,-0.0578451478958128
5.931556632344034,-0.0978339282989502,-0.0721995477676392,-0.0650302064895628
5.932162325863113,0.0123369701385498,0.11221695613861099,-0.00515471820831281
5.932768019382193,-0.0499335376739502,0.018811194419860802,0.100226141166687
5.933373712901272,0.0602373607635498,0.0259962530136108,-0.175201104927063
5.933979406420351,-0.1289691822052,-0.158420250892639,-0.100955499458313
5.934585099939431,-0.00921820564270019,-0.352416832923889,-0.184781183052063
5.93519079345851,0.12250786857605,0.143352210044861,-0.0817953432083128
5.935796486977589,0.0985576732635498,0.0236012334823608,0.167286688041687
5.936402180496669,-0.12178412361145,-0.0674095087051392,-0.124905694770813
5.937007874015748,-0.10741400642394999,-0.14165511417388899,-0.108140558052063
5.937613567534827,-0.0140082447052002,0.0116261358261108,-0.108140558052063
5.938219261053907,0.0698174388885498,0.0667115850448608,0.0259805356979372
5.938824954572986,0.0578423412322998,-0.211110680580139,0.0571157896041872
5.939430648092065,0.0889775951385498,0.229572913169861,0.00203034038543719
5.940036341611145,-0.1145990650177,-0.00274398136138915,-0.275791925239563
5.9406420351302245,-0.17926459236145,-0.0290891962051392,-0.223101495552063
5.941247728649303,0.0913726146697998,0.263103186607361,0.397208563041687
5.941853422168383,-0.00203314704895019,0.0547364873886108,0.552884832572937
5.942459115687462,-0.0187982837677002,0.23196793270111102,0.128966375541687
5.9430648092065415,0.11771782951355,0.09784683895111079,0.145731512260437
5.943670502725621,0.036287165451049805,-0.268591149330139,0.0451406919479372
5.9442761962447,0.00036187248229980703,0.004441077232360849,-0.000364679145812814
5.94488188976378,0.2542339427948,0.263103186607361,0.0187954771041872
5.945487583282859,-0.0762787525177002,0.042761389732360794,-0.309322198677063
5.946093276801938,0.0793975170135498,-0.0793846063613892,-0.108140558052063
5.946698970321018,0.1201128490448,-0.13207503604888898,-0.0195248353958128
5.947304663840097,-0.0116132251739502,-0.08417464542388921,0.124176336479187
5.947910357359176,0.1009526927948,0.0403663702011108,-0.050660089302062804
5.948516050878256,-0.06669867439270019,0.160117346763611,0.236742254447937
5.949121744397335,0.0458672435760498,0.18167252254486102,0.299012762260437
5.949727437916414,0.0841875560760498,0.212807776451111,0.030770574760437198
5.950333131435494,0.0817925365447998,-0.036274254798889204,0.157706609916687
5.950938824954573,0.017127009201049797,-0.129680016517639,0.162496648979187
5.951544518473652,-0.0643036548614502,0.0810817022323608,0.0906460630416872
5.952150211992732,0.19435845451355,-0.0626194696426392,0.114596258354187
5.952755905511811,0.17759331779479998,0.0595265264511108,-0.0147347963333128
