Time (s),Accel X (m/s^2),Accel Y (m/s^2),Accel Z (m/s^2)
3.0,-0.0145013754844665,-0.045388146114349395,0.0622866929054259
3.0006056935190792,-0.122277254390717,0.146213416385651,0.0958169663429259
3.0012113870381585,-0.07198184423446649,0.0384375374794006,0.11737214212417599
3.001817080557238,0.0980645424842835,-0.0597582633018494,0.13653229837417602
3.0024227740763174,0.117224698734283,-0.0621532828330994,0.0359414780616759
3.0030284675953967,-0.179757723140717,0.040832557010650604,-0.179610279750824
3.003634161114476,0.0573492104530335,0.004907264041900621,0.0239663804054259
3.0042398546335556,-0.0264764731407165,-0.0286230093955994,0.021571360874175903
3.004845548152635,0.0525591713905335,-0.08610347814559939,0.100607005405426
3.005451241671714,0.14596493310928302,0.103103064823151,0.057496653842925904
3.0060569351907933,0.117224698734283,-0.0693383414268494,0.0742617905616759
3.006662628709873,0.0717193276405335,-0.0669433218955994,-0.026329029750824098
3.0072683222289522,-0.07916690282821649,0.043227576541900604,0.0431265366554259
3.0078740157480315,-0.115092195796967,-0.042993126583099395,0.153297435092926
3.0084797092671107,0.236975675296783,-0.18908931798934903,-0.0119589125633241
3.0090854027861904,-0.0456366293907165,0.0360425179481506,0.158087474155426
3.0096910963052697,-0.103117098140717,0.13423831872940098,0.12216218118667599
3.010296789824349,-0.0192914145469665,-0.0573632437705994,-0.225115650844574
3.010902483343428,-0.028871492671966502,-0.0765234000205994,-0.27301604146957403
3.0115081768625074,0.148359952640533,0.12944827966690098,0.684991771030426
3.012113870381587,0.129199796390533,0.20848392419815098,0.519735423374176
3.0127195639006663,0.153149991703033,0.040832557010650604,-0.124524830532074
3.0133252574197456,-0.0121063559532165,0.004907264041900621,0.17724763040542602
3.013930950938825,0.00944881982803346,-0.08370845861434939,0.0838418686866759
3.0145366444579045,0.0525591713905335,-0.0334130484580994,0.0239663804054259
3.0151423379769837,0.0142388588905335,-0.09089351720809939,-0.059859303188324095
3.015748031496063,0.107644620609283,0.050412635135650606,0.280233470249176
3.016353725015142,0.100459562015533,-0.10286861486434899,0.263468333530426
3.016959418534222,0.0812994057655335,0.0695727913856506,-0.00716887350082415
3.017565112053301,-0.06479678564071649,-0.00227779455184938,0.222753001499176
3.0181708055723804,-0.07677188329696649,-0.23938472814559902,0.20119782571792602
3.0187764990914596,0.112434659671783,0.0144873421669006,0.0455215561866759
3.0193821926105393,-0.0839569418907165,0.0599927132606506,0.004806224155425851
3.0199878861296185,-0.131857332515717,0.0743628304481506,-0.11494475240707401
3.020593579648698,-0.009711336421966539,-0.14118892736434902,0.148507396030426
3.021199273167777,0.0765093667030335,-0.16513912267684902,0.25388825540542603
3.0218049666868563,0.107644620609283,0.0216724007606506,0.19161774759292602
3.022410660205936,0.0860894448280335,-0.0142528922080994,0.18682770853042602
3.023016353725015,-0.0240814536094665,-0.138793907833099,-0.124524830532074
3.0236220472440944,-0.0145013754844665,0.048017615604400606,-0.10296965475082401
3.0242277407631737,0.0812994057655335,-0.16034908361434902,0.174852610874176
3.0248334342822534,-0.009711336421966539,-0.0741283804893494,0.11976716165542599
3.0254391278013326,-0.117487215328217,0.0623877327919006,0.057496653842925904
3.026044821320412,-0.16778262548446699,-0.134003868770599,0.06707673196792589
3.026650514839491,0.184285245609283,0.09112796716690061,-0.0766244399070741
3.027256208358571,0.102854581546783,0.00730228357315062,0.100607005405426
3.02786190187765,-0.12706729345321702,-0.050178185176849396,0.105397044467926
3.0284675953967293,-0.105512117671967,0.09112796716690061,0.280233470249176
3.0290732889158085,0.0741143471717835,0.05280765466690061,0.208382884311676
3.0296789824348878,0.100459562015533,-0.09328853673934939,0.0886319077491759
3.0302846759539674,-0.201312898921967,0.00730228357315062,-0.0119589125633241
3.0308903694730467,-0.06479678564071649,0.00730228357315062,-0.0454891860008241
3.031496062992126,0.114829679203033,0.0288574593544006,0.24670319681167602
3.032101756511205,-0.119882234859467,0.127053260135651,0.17245759134292601
3.032707450030285,0.0741143471717835,-0.08849849767684939,0.0431265366554259
3.033313143549364,0.143569913578033,-0.08849849767684939,0.143717356967926
3.0339188370684433,-0.20849795751571698,-0.122028771114349,0.167667552280426
3.0345245305875226,0.22500057764053302,-0.0549682242393494,0.17245759134292601
3.0351302241066023,0.0765093667030335,0.0360425179481506,-0.0478842055320741
3.0357359176256815,-0.196522859859467,-0.047783165645599396,-0.0454891860008241
3.0363416111447608,-0.13425235204696698,-0.00227779455184938,-0.0454891860008241
3.03694730466384,-0.119882234859467,0.0120923226356506,-0.0119589125633241
3.0375529981829192,0.129199796390533,-0.157954064083099,0.167667552280426
3.038158691701999,-0.0192914145469665,0.12944827966690098,0.13653229837417602
3.038764385221078,0.0812994057655335,-0.0525732047080994,0.0239663804054259
3.0393700787401574,0.184285245609283,0.0719678109169006,-0.18200529928207398
3.0399757722592367,-0.25879336767196703,-0.047783165645599396,-0.256250904750824
3.0405814657783163,-0.0815619223594665,-0.18429927892684903,0.0982119858741759
3.0411871592973956,0.00226376123428346,0.045622596073150605,0.682596751499176
3.041792852816475,-0.13425235204696698,-0.0645483023643494,0.804742747592926
3.042398546335554,0.12680477685928299,0.100708045291901,0.112582103061676
3.0430042398546338,0.016633878421783498,-0.138793907833099,-0.0502792250633241
3.043609933373713,0.00226376123428346,0.0815478890419006,0.0479165757179259
3.0442156268927922,0.0357940346717835,-0.09089351720809939,-0.10775969381332401
3.0448213204118715,-0.000131258296966542,-0.167534142208099,0.0766568100929259
3.0454270139309507,0.20584042139053302,-0.0597582633018494,0.110187083530426
3.0460327074500304,0.0573492104530335,-0.0310180289268494,0.11976716165542599
3.0466384009691097,-0.103117098140717,0.00969730310440062,0.225148021030426
3.047244094488189,0.0262139565467835,-0.0525732047080994,0.11976716165542599
3.047849788007268,0.0286089760780335,-0.124423790645599,-0.10296965475082401
3.048455481526348,0.14117489404678302,0.0743628304481506,0.0958169663429259
3.049061175045427,0.13159481592178301,-0.050178185176849396,0.107792063999176
3.0496668685645063,0.0693243081092835,-0.217829552364349,0.110187083530426
3.0502725620835855,0.00944881982803346,-0.09328853673934939,0.00720124368667585
3.050878255602665,0.0190288979530335,-0.186694298458099,0.20119782571792602
3.0514839491217445,-0.06479678564071649,0.105498084354401,0.273048411655426
3.0520896426408237,-0.0336615317344665,0.0767578499794006,0.055101634311675904
3.052695336159903,0.169915128421783,-0.0645483023643494,-0.136499928188324
3.053301029678982,-0.0576117270469665,-0.00227779455184938,0.14132233743667602
3.053906723198062,-0.174967684078217,0.0240674202919006,0.213172923374176
3.054512416717141,-0.0264764731407165,0.08394290857315061,0.016781321811675902
3.0551181102362204,-0.0121063559532165,-0.047783165645599396,0.0479165757179259
3.0557238037552996,0.102854581546783,-0.0262279898643494,0.059891673374175905
3.0563294972743793,-0.009711336421966539,-0.143583946895599,0.18682770853042602
3.0569351907934585,-0.160597566890717,-0.0741283804893494,1.6185092925851098e-05
3.057540884312538,0.20105038232803302,0.19890384607315098,0.0143863022804259
3.058146577831617,0.0789043862342835,0.105498084354401,-0.0862045180320741
3.0587522713506967,-0.119882234859467,0.14381839685440098,-0.06464934225082411
3.059357964869776,-0.07437686376571649,0.0025122445106506197,0.158087474155426
3.059963658388855,0.15554501123428302,-0.08131343908309939,0.0622866929054259
3.0605693519079344,0.0333990151405335,0.136633338260651,0.19640778665542602
3.0611750454270137,-0.0312665122032165,-0.126818810176849,0.0622866929054259
3.0617807389460934,0.102854581546783,-0.08370845861434939,-0.00477385396957415
3.0623864324651726,-0.0336615317344665,-0.112448692989349,0.299393626499176
3.062992125984252,0.0238189370155335,-0.22022457189559902,0.138927317905426
3.063597819503331,-0.0815619223594665,0.13902835779190098,-0.11254973287582401
3.064203513022411,0.0597442299842835,-0.0238329703330994,-0.134104908657074
3.06480920654149,0.268110929203033,-0.16513912267684902,0.0503115952491759
3.0654149000605693,0.0238189370155335,-0.09328853673934939,-0.11973479146957401
3.0660205935796485,-0.0576117270469665,0.24440921716690098,-0.0383041274070741
3.066626287098728,0.0765093667030335,0.299494666385651,0.165272532749176
3.0672319806178074,0.0765093667030335,0.09352298669815061,-0.289781178188324
3.0678376741368867,0.14596493310928302,0.0623877327919006,0.06468171243667589
3.068443367655966,-0.0264764731407165,-0.042993126583099395,0.0718667710304259
3.0690490611750456,-0.0815619223594665,0.0288574593544006,0.0790518296241759
3.069654754694125,0.102854581546783,-0.0765234000205994,0.354479075717926
3.070260448213204,0.13638485498428302,0.004907264041900621,0.33531891946792597
3.0708661417322833,0.12680477685928299,-0.0166479117393494,0.158087474155426
3.071471835251363,0.133989835453033,-0.126818810176849,0.459859935092926
3.0720775287704423,0.00226376123428346,0.141423377323151,0.34489899759292597
3.0726832222895215,-0.000131258296966542,0.0623877327919006,0.184432688999176
3.0732889158086008,0.114829679203033,-0.0645483023643494,0.160482493686676
3.07389460932768,-0.009711336421966539,-0.0238329703330994,-0.0933895766258241
3.0745003028467597,-0.0145013754844665,0.0384375374794006,0.134137278842926
3.075105996365839,0.193865323734283,0.040832557010650604,0.0024112046241758496
3.075711689884918,0.06453426904678351,-0.0286230093955994,-0.0191439711570741
3.0763173834039974,-0.165387605953217,0.0767578499794006,0.004806224155425851
3.076923076923077,0.0238189370155335,-0.222619591426849,0.0431265366554259
3.0775287704421563,0.38067684717178296,0.0144873421669006,0.031151438999175902
3.0781344639612356,0.0597442299842835,0.045622596073150605,0.0958169663429259
3.078740157480315,-0.00492129735946654,-0.112448692989349,-0.0838094985008241
3.0793458509993945,0.22021053857803302,-0.14118892736434902,0.059891673374175905
3.0799515445184737,-0.22765811376571699,-0.167534142208099,-0.026329029750824098
3.080557238037553,0.06453426904678351,0.17016361169815097,-0.170030201625824
3.0811629315566322,-0.0216864340782165,0.08873294763565061,-0.129314869594574
3.0817686250757115,-0.028871492671966502,-0.050178185176849396,0.179642649936676
3.082374318594791,0.0573492104530335,-0.114843712520599,-0.0526742445945741
3.0829800121138704,-0.230053133296967,-0.0597582633018494,-0.0167489516258241
3.0835857056329496,-0.124672273921967,0.09591800622940061,0.5125503647804259
3.084191399152029,-0.12706729345321702,0.0599927132606506,0.129347239780426
3.0847970926711086,-0.0121063559532165,0.232434119510651,0.18682770853042602
3.085402786190188,-0.06719180517196649,0.285124549198151,0.057496653842925904
3.086008479709267,-0.06479678564071649,0.0120923226356506,-0.035909107875824096
3.0866141732283463,0.0453741127967835,0.08394290857315061,-0.028724049282074098
3.087219866747426,0.0262139565467835,-0.08131343908309939,-0.10296965475082401
3.0878255602665052,0.107644620609283,-0.00227779455184938,0.0934219468116759
3.0884312537855845,0.0429790932655335,0.048017615604400606,0.14132233743667602
3.0890369473046637,-0.0600067465782165,-0.339975548458099,-0.10536467428207401
3.0896426408237434,0.19147030420303301,0.09352298669815061,0.0287564194679259
3.0902483343428226,0.179495206546783,0.0384375374794006,-0.0957845961570741
3.090854027861902,-0.028871492671966502,-0.0717333609580994,-0.225115650844574
3.091459721380981,-0.0240814536094665,0.0144873421669006,0.0766568100929259
3.092065414900061,-0.151017488765717,0.0240674202919006,0.019176341342925902
3.09267110841914,0.129199796390533,0.040832557010650604,0.103002024936676
3.0932768019382193,-0.0624017661094665,0.0623877327919006,0.167667552280426
3.0938824954572985,-0.0911420004844665,0.13902835779190098,0.14611237649917602
3.094488188976378,-0.00252627782821654,-0.08370845861434939,0.0143863022804259
3.0950938824954575,-0.0983270590782165,-0.0142528922080994,0.160482493686676
3.0956995760145367,0.0333990151405335,-0.00227779455184938,0.0383364975929259
3.096305269533616,-0.189337801265717,-0.0310180289268494,-0.136499928188324
3.096910963052695,0.06453426904678351,-0.00227779455184938,0.0742617905616759
3.097516656571775,0.107644620609283,0.0575976937294006,-0.0143539320945741
3.098122350090854,0.0429790932655335,0.0767578499794006,-0.033514088344574096
3.0987280436099334,0.0405840737342835,0.0743628304481506,-0.0430941664695741
3.0993337371290126,-0.0935370200157165,-0.0166479117393494,0.00959626321792585
3.0999394306480923,0.031003995609283498,-0.10286861486434899,0.493390208530426
3.100545124167171,-0.00731631689071654,-0.0118578726768494,0.795162669467926
3.101150817686251,-0.00252627782821654,-0.0166479117393494,-0.0191439711570741
3.10175651120533,-0.244423250484467,0.103103064823151,0.330528880405426
3.102362204724409,-0.06958682470321649,0.21327396326065098,0.18203766946792602
3.102967898243489,0.0381890542030335,0.09112796716690061,0.057496653842925904
3.103573591762568,-0.20370791845321698,-0.0980785758018494,0.222753001499176
3.104179285281647,0.117224698734283,-0.12921382970809903,-0.15805510396957398
3.104784978800727,0.0118438393592835,0.05280765466690061,0.155692454624176
3.105390672319806,-0.0624017661094665,-0.126818810176849,-0.138894947719574
3.105996365838886,-0.0121063559532165,-0.107658653926849,-0.062254322719574096
3.106602059357965,-0.036056551265716504,-0.119633751583099,0.0239663804054259
3.107207752877044,0.12680477685928299,-0.14597896642684902,0.0455215561866759
3.107813446396124,0.0381890542030335,0.0192773812294006,-0.184400318813324
3.108419139915203,-0.115092195796967,0.294704627323151,-0.07422942037582411
3.109024833434282,-0.10072207860946701,0.0719678109169006,-0.275411061000824
3.109630526953362,-0.25879336767196703,-0.162744103145599,-0.0933895766258241
3.110236220472441,-0.00492129735946654,-0.0238329703330994,0.213172923374176
3.11084191399152,0.119619718265533,-0.0070678336143493795,0.0742617905616759
3.1114476075106,-0.124672273921967,0.048017615604400606,0.0790518296241759
3.112053301029679,0.13159481592178301,-0.0118578726768494,0.016781321811675902
3.112658994548758,-0.0408465903282165,0.0288574593544006,0.0694717514991759
3.113264688067838,0.143569913578033,0.13902835779190098,0.100607005405426
3.113870381586917,0.0501641518592835,0.08633792810440061,0.103002024936676
3.114476075105996,-0.280348543453217,0.237224158573151,0.0024112046241758496
3.115081768625076,0.251345792484283,0.00969730310440062,0.364059153842926
3.115687462144155,0.0693243081092835,-0.08849849767684939,-0.00716887350082415
3.116293155663234,0.114829679203033,0.206088904666901,-0.0502792250633241
3.116898849182314,-0.107907137203217,0.0623877327919006,0.294603587436676
3.117504542701393,-0.206102937984467,-0.0334130484580994,0.0503115952491759
3.118110236220472,0.256135831546783,-0.0573632437705994,-0.0311190688133241
3.118715929739552,0.122014737796783,-0.198669396114349,0.0359414780616759
3.119321623258631,0.00944881982803346,0.136633338260651,0.12455720071792599
3.11992731677771,0.031003995609283498,-0.0142528922080994,-0.07183440084457411
3.12053301029679,0.016633878421783498,-0.047783165645599396,-0.0406991469383241
3.121138703815869,-0.0312665122032165,0.13423831872940098,0.0862368882179259
3.121744397334949,-0.07916690282821649,0.00969730310440062,0.0119912827491759
3.122350090854028,0.112434659671783,0.0360425179481506,0.174852610874176
3.122955784373107,0.0621392495155335,-0.0621532828330994,0.23233307962417601
3.123561477892187,-0.141437410640717,0.0288574593544006,0.0479165757179259
3.124167171411266,-0.00252627782821654,0.0599927132606506,0.107792063999176
3.1247728649303452,0.117224698734283,0.0384375374794006,0.14611237649917602
3.125378558449425,0.0118438393592835,0.08873294763565061,0.174852610874176
3.125984251968504,-0.0168963950157165,-0.126818810176849,0.17724763040542602
3.126589945487583,-0.110302156734467,-0.12921382970809903,0.0862368882179259
3.127195639006663,-0.115092195796967,0.043227576541900604,-0.00956389303207415
3.127801332525742,0.102854581546783,-0.122028771114349,0.00959626321792585
3.128407026044821,0.13638485498428302,0.0695727913856506,0.0862368882179259
3.129012719563901,0.0789043862342835,0.146213416385651,0.215567942905426
3.12961841308298,0.0717193276405335,-0.0549682242393494,0.162877513217926
3.130224106602059,-0.000131258296966542,-0.20106441564559902,-0.196375416469574
3.130829800121139,-0.0863519614219665,0.0815478890419006,-0.37121184225082404
3.1314354936402182,0.0381890542030335,-0.0334130484580994,0.34489899759292597
3.132041187159297,0.0789043862342835,0.0192773812294006,0.14132233743667602
3.132646880678377,-0.15341250829696698,0.18932376794815098,-0.023934010219574097
3.133252574197456,-0.16778262548446699,0.040832557010650604,0.189222728061676
3.133858267716535,-0.15820254735946698,-0.20106441564559902,-0.136499928188324
3.134463961235615,-0.0480316489219665,-0.047783165645599396,0.107792063999176
3.135069654754694,0.0357940346717835,0.24919925622940098,0.222753001499176
3.135675348273773,0.0357940346717835,-0.0549682242393494,-0.06943938131332411
3.136281041792853,-0.009711336421966539,-0.0645483023643494,-0.15326506490707398
3.136886735311932,-0.160597566890717,-0.0573632437705994,0.0742617905616759
3.137492428831012,-0.06958682470321649,-0.08610347814559939,0.0431265366554259
3.1380981223500912,-0.07437686376571649,-0.00946285314559938,0.0407315171241759
3.13870381586917,0.15554501123428302,0.050412635135650606,-0.10296965475082401
3.13930950938825,0.19147030420303301,0.043227576541900604,0.129347239780426
3.139915202907329,-0.0240814536094665,-0.15555904455184902,0.0383364975929259
3.140520896426408,-0.036056551265716504,0.0264624398231506,0.057496653842925904
3.141126589945488,-0.174967684078217,-0.0166479117393494,0.203592845249176
3.141732283464567,0.0789043862342835,-0.047783165645599396,0.0455215561866759
3.142337976983646,-0.0145013754844665,0.040832557010650604,0.174852610874176
3.142943670502726,-0.07677188329696649,-0.198669396114349,-0.0933895766258241
3.143549364021805,0.0884844643592835,0.0552026741981506,0.00959626321792585
3.144155057540884,-0.0240814536094665,-0.0142528922080994,0.299393626499176
3.144760751059964,-0.0384515707969665,-0.114843712520599,0.0790518296241759
3.145366444579043,0.0286089760780335,-0.08131343908309939,0.0838418686866759
3.145972138098122,0.0836944252967835,0.215668982791901,0.330528880405426
3.146577831617202,-0.0336615317344665,0.206088904666901,0.36645417337417596
3.147183525136281,-0.0456366293907165,-0.12921382970809903,-0.12212981100082401
3.14778921865536,0.0765093667030335,-0.0597582633018494,-0.059859303188324095
3.14839491217444,0.06453426904678351,-0.00467281408309938,0.170062571811676
3.149000605693519,-0.131857332515717,0.196508826541901,-0.0430941664695741
3.149606299212598,0.0357940346717835,0.117473182010651,0.0431265366554259
3.150211992731678,0.0118438393592835,0.00969730310440062,0.0287564194679259
3.150817686250757,-0.0624017661094665,0.0384375374794006,-0.344866627407074
3.151423379769836,0.306431241703033,0.122263221073151,-0.10296965475082401
3.152029073288916,0.0429790932655335,0.0168823616981506,0.0024112046241758496
3.152634766807995,0.0525591713905335,-0.138793907833099,-0.033514088344574096
3.153240460327075,-0.0312665122032165,-0.08849849767684939,0.0383364975929259
3.153846153846154,-0.0552167075157165,-0.0334130484580994,0.0359414780616759
3.154451847365233,0.0621392495155335,-0.00227779455184938,0.227543040561676
3.155057540884313,0.016633878421783498,0.103103064823151,-0.0957845961570741
3.155663234403392,0.0812994057655335,0.112683142948151,-0.136499928188324
3.156268927922471,0.0381890542030335,-0.110053673458099,0.0287564194679259
3.156874621441551,0.0789043862342835,-0.0621532828330994,-0.00477385396957415
3.15748031496063,-0.0528216879844665,0.09831302576065061,0.107792063999176
3.158086008479709,0.229790616703033,-0.13639888830184901,0.100607005405426
3.158691701998789,0.153149991703033,-0.203459435176849,-0.0191439711570741
3.159297395517868,-0.10072207860946701,0.0240674202919006,0.0263613999366759
3.159903089036947,-0.0528216879844665,-0.0070678336143493795,-0.208350514125824
3.160508782556027,0.0501641518592835,-0.15555904455184902,-0.328101490688324
3.161114476075106,0.148359952640533,0.004907264041900621,-0.16763518209457398
3.161720169594185,0.184285245609283,-0.0142528922080994,0.421539622592926
3.162325863113265,0.0597442299842835,-0.08370845861434939,0.100607005405426
3.162931556632344,-0.0145013754844665,0.0791528695106506,-0.10057463521957401
3.163537250151423,-0.009711336421966539,-0.122028771114349,-0.0526742445945741
3.164142943670503,0.00944881982803346,0.0025122445106506197,-0.24188078756332398
3.164748637189582,0.00944881982803346,0.191718787479401,0.112582103061676
3.165354330708661,-0.0600067465782165,0.131843299198151,0.0838418686866759
3.165960024227741,-0.115092195796967,0.000117224979400624,0.0119912827491759
3.16656571774682,-0.0432416098594665,0.0120923226356506,-0.00477385396957415
3.167171411265899,0.248950772953033,0.151003455448151,0.198802806186676
3.167777104784979,0.129199796390533,0.167768592166901,-0.16763518209457398
3.168382798304058,-0.00492129735946654,0.182138709354401,-0.10057463521957401
3.168988491823137,0.00705380029678346,0.0815478890419006,0.17245759134292601
3.169594185342217,-0.0576117270469665,0.09112796716690061,-0.18200529928207398
3.170199878861296,-0.19412784032821698,-0.00467281408309938,-0.0430941664695741
3.170805572380376,0.102854581546783,-0.143583946895599,-0.0478842055320741
3.171411265899455,0.148359952640533,-0.09568355627059939,-0.033514088344574096
3.172016959418534,0.00226376123428346,-0.038203087520599394,0.0838418686866759
3.172622652937614,-0.136647371578217,0.0025122445106506197,-0.0406991469383241
3.173228346456693,-0.0863519614219665,-0.08131343908309939,0.0431265366554259
3.173834039975772,0.162730069828033,0.043227576541900604,0.031151438999175902
3.174439733494852,0.138779874515533,0.004907264041900621,0.0718667710304259
3.1750454270139308,-0.00252627782821654,-0.038203087520599394,-0.0790194594383241
3.17565112053301,-0.165387605953217,0.115078162479401,0.0910269272804259
3.17625681405209,-0.0552167075157165,-0.045388146114349395,0.13174225931167602
3.176862507571169,0.0621392495155335,-0.0717333609580994,-0.0526742445945741
3.177468201090248,0.0501641518592835,-0.042993126583099395,-0.0502792250633241
3.178073894609328,-0.0312665122032165,0.0168823616981506,-0.0311190688133241
3.178679588128407,0.16033505029678302,0.182138709354401,0.0790518296241759
3.179285281647486,-0.0264764731407165,0.124658240604401,-0.00716887350082415
3.179890975166566,0.19147030420303301,0.0599927132606506,-0.0383041274070741
3.180496668685645,0.0860894448280335,-0.040598107051849394,-0.138894947719574
3.181102362204724,-0.15820254735946698,-0.34716060705184904,0.0431265366554259
3.1817080557238038,-0.0935370200157165,0.0647827523231506,0.0527066147804259
3.182313749242883,-0.151017488765717,0.19411380701065098,-0.06704436178207411
3.182919442761962,0.0932745034217835,-0.0645483023643494,0.0503115952491759
3.183525136281042,0.0860894448280335,-0.00227779455184938,-0.0526742445945741
3.184130829800121,-0.0552167075157165,-0.260939903926849,-0.0526742445945741
3.1847365233192,0.0405840737342835,-0.0621532828330994,0.0024112046241758496
3.18534221683828,0.06692928857803351,-0.15076900548934902,0.18203766946792602
3.185947910357359,0.0501641518592835,0.0695727913856506,0.0503115952491759
3.186553603876439,0.184285245609283,-0.0238329703330994,0.0814468491554259
3.187159297395518,0.0789043862342835,-0.23459468908309902,-0.06464934225082411
3.187764990914597,0.12680477685928299,-0.0789184195518494,-0.201165455532074
3.1883706844336768,0.119619718265533,0.0552026741981506,-0.0862045180320741
3.188976377952756,0.0118438393592835,0.0312524788856506,-0.0526742445945741
3.189582071471835,0.129199796390533,-0.0549682242393494,-0.10775969381332401
3.190187764990915,0.0286089760780335,-0.0980785758018494,-0.193980396938324
3.190793458509994,-0.0839569418907165,-0.0238329703330994,-0.0119589125633241
3.191399152029073,-0.0432416098594665,0.0168823616981506,0.225148021030426
3.192004845548153,0.0429790932655335,-0.03580806798934939,0.0766568100929259
3.192610539067232,0.06453426904678351,0.0216724007606506,-0.0933895766258241
3.193216232586311,0.0621392495155335,-0.050178185176849396,0.292208567905426
3.193821926105391,0.0741143471717835,-0.00227779455184938,0.0766568100929259
3.19442761962447,0.0980645424842835,0.0336474984169006,-0.0383041274070741
3.195033313143549,-0.0552167075157165,0.17016361169815097,0.0503115952491759
3.195639006662629,0.107644620609283,-0.09328853673934939,-0.131709889125824
3.196244700181708,0.22500057764053302,0.040832557010650604,0.059891673374175905
3.196850393700787,0.110039640140533,-0.177114220333099,0.17724763040542602
3.197456087219867,0.0741143471717835,-0.0765234000205994,-0.174820240688324
3.198061780738946,-0.13904239110946698,0.253989295291901,-0.0478842055320741
3.1986674742580252,0.0501641518592835,0.0312524788856506,0.20598786478042602
3.199273167777105,0.102854581546783,0.09352298669815061,0.0766568100929259
3.199878861296184,0.0549541909217835,0.050412635135650606,0.004806224155425851
3.200484554815263,0.0190288979530335,0.160583533573151,0.19161774759292602
3.201090248334343,-0.22765811376571699,0.177348670291901,0.17724763040542602
3.201695941853422,-0.0600067465782165,-0.0741283804893494,0.0407315171241759
3.202301635372502,-0.036056551265716504,0.186928748416901,0.00959626321792585
3.202907328891581,-0.107907137203217,-0.0597582633018494,0.0742617905616759
3.20351302241066,0.19147030420303301,-0.143583946895599,-0.0933895766258241
3.20411871592974,-0.136647371578217,0.107893103885651,-0.148475025844574
3.204724409448819,-0.0863519614219665,0.040832557010650604,0.114977122592926
3.205330102967898,-0.00731631689071654,-0.14118892736434902,-0.0311190688133241
3.205935796486978,0.0765093667030335,-0.16513912267684902,-0.12212981100082401
3.206541490006057,0.0405840737342835,0.100708045291901,0.155692454624176
3.207147183525136,-0.105512117671967,-0.045388146114349395,-0.0023788344383241502
3.207752877044216,0.0741143471717835,-0.09328853673934939,0.0024112046241758496
3.208358570563295,-0.0600067465782165,0.040832557010650604,0.227543040561676
3.208964264082374,0.0214239174842835,0.107893103885651,0.23233307962417601
3.209569957601454,0.0357940346717835,-0.0645483023643494,0.28502350931167597
3.210175651120533,0.0142388588905335,-0.050178185176849396,0.103002024936676
3.210781344639612,-0.0624017661094665,-0.0118578726768494,0.114977122592926
3.211387038158692,-0.0240814536094665,-0.126818810176849,-0.208350514125824
3.211992731677771,0.0741143471717835,-0.0142528922080994,-0.205955494594574
3.21259842519685,-0.00252627782821654,-0.047783165645599396,-0.059859303188324095
3.21320411871593,-0.028871492671966502,-0.038203087520599394,-0.0790194594383241
3.213809812235009,0.0118438393592835,-0.08849849767684939,-0.0909945570945741
3.214415505754088,0.119619718265533,-0.14597896642684902,0.0527066147804259
3.215021199273168,0.13638485498428302,0.0312524788856506,0.18203766946792602
3.215626892792247,0.227395597171783,0.151003455448151,-0.210745533657074
3.216232586311326,0.0621392495155335,-0.13639888830184901,0.057496653842925904
3.216838279830406,-0.06479678564071649,-0.124423790645599,-0.06943938131332411
3.217443973349485,0.0573492104530335,0.141423377323151,-0.0862045180320741
3.218049666868565,-0.184547762203217,-0.040598107051849394,0.0718667710304259
3.218655360387644,-0.146227449703217,-0.08849849767684939,0.0766568100929259
3.219261053906723,-0.06958682470321649,0.115078162479401,-0.0167489516258241
3.219866747425803,0.0597442299842835,-0.03580806798934939,0.126952220249176
3.220472440944882,-0.00492129735946654,-0.0573632437705994,0.0407315171241759
3.221078134463961,-0.186942781734467,0.18453372888565098,0.019176341342925902
3.221683827983041,-0.15341250829696698,0.00730228357315062,0.440699778842926
3.22228952150212,0.0262139565467835,-0.08610347814559939,0.20119782571792602
3.222895215021199,-0.117487215328217,0.0815478890419006,-0.0311190688133241
3.223500908540279,-0.07437686376571649,0.23961917810440098,-0.00956389303207415
3.224106602059358,0.06453426904678351,0.08873294763565061,0.031151438999175902
3.224712295578437,-0.189337801265717,-0.241779747676849,0.105397044467926
3.225317989097517,-0.0168963950157165,-0.222619591426849,0.0455215561866759
3.225923682616596,-0.0432416098594665,-0.0525732047080994,0.0742617905616759
3.226529376135675,-0.115092195796967,0.0025122445106506197,0.055101634311675904
3.227135069654755,0.0453741127967835,-0.00227779455184938,-0.10057463521957401
3.227740763173834,-0.06479678564071649,-0.10047359533309899,-0.06464934225082411
3.228346456692913,-0.191732820796967,-0.181904259395599,-0.10057463521957401
3.228952150211993,0.110039640140533,-0.126818810176849,0.0838418686866759
3.229557843731072,0.0860894448280335,-0.16513912267684902,0.0383364975929259
3.230163537250151,0.114829679203033,-0.0262279898643494,0.158087474155426
3.230769230769231,-0.107907137203217,0.08394290857315061,0.021571360874175903
3.23137492428831,0.031003995609283498,-0.09328853673934939,-0.0574642836570741
3.231980617807389,0.263320890140533,-0.0621532828330994,0.0958169663429259
3.232586311326469,-0.00731631689071654,-0.153164025020599,-0.129314869594574
3.233192004845548,-0.0480316489219665,-0.045388146114349395,-0.0550692641258241
3.233797698364627,-0.0983270590782165,0.043227576541900604,0.162877513217926
3.234403391883707,-0.155807527828217,0.12944827966690098,-0.07422942037582411
3.235009085402786,-0.0384515707969665,-0.10047359533309899,0.143717356967926
3.235614778921866,0.153149991703033,-0.09089351720809939,0.0383364975929259
3.236220472440945,-0.0240814536094665,0.0743628304481506,0.0766568100929259
3.236826165960024,-0.0168963950157165,-0.12921382970809903,0.198802806186676
3.237431859479104,-0.009711336421966539,-0.10526363439559899,0.17245759134292601
3.238037552998183,-0.0480316489219665,-0.0310180289268494,-0.10296965475082401
3.238643246517262,-0.009711336421966539,0.110288123416901,-0.299361256313324
3.239248940036342,0.213025479984283,-0.10047359533309899,0.004806224155425851
3.239854633555421,0.12680477685928299,0.0216724007606506,0.100607005405426
3.2404603270745,0.107644620609283,-0.0286230093955994,0.0455215561866759
3.24106602059358,0.110039640140533,-0.0166479117393494,-0.0957845961570741
3.241671714112659,0.0741143471717835,-0.0118578726768494,0.18203766946792602
3.2422774076317378,-0.00252627782821654,-0.12921382970809903,-0.0406991469383241
3.242883101150818,-0.0863519614219665,-0.0142528922080994,-0.0143539320945741
3.243488794669897,-0.0408465903282165,-0.0238329703330994,0.0239663804054259
3.244094488188976,0.122014737796783,0.107893103885651,-0.0574642836570741
3.244700181708056,-0.0121063559532165,-0.00467281408309938,0.0886319077491759
3.245305875227135,0.0214239174842835,-0.042993126583099395,-0.0550692641258241
3.245911568746214,0.0789043862342835,-0.119633751583099,0.0982119858741759
3.246517262265294,0.0621392495155335,-0.21543453283309902,0.11737214212417599
3.247122955784373,-0.028871492671966502,-0.217829552364349,-0.17721526021957398
3.247728649303452,-0.0576117270469665,0.045622596073150605,-0.0790194594383241
3.248334342822532,0.246555753421783,-0.0214379508018494,0.13653229837417602
3.2489400363416108,0.0860894448280335,0.0360425179481506,0.0119912827491759
3.24954572986069,-0.0552167075157165,0.13423831872940098,-0.07183440084457411
3.25015142337977,-0.186942781734467,-0.22980465002059902,0.0886319077491759
3.250757116898849,0.119619718265533,-0.050178185176849396,0.12455720071792599
3.251362810417929,-0.0552167075157165,0.0336474984169006,0.155692454624176
3.251968503937008,-0.0408465903282165,-0.172324181270599,0.653856517124176
3.252574197456087,0.208235440921783,0.0120923226356506,0.158087474155426
3.253179890975167,-0.0600067465782165,0.0240674202919006,-0.18200529928207398
3.253785584494246,-0.06958682470321649,0.0647827523231506,0.29699860696792596
3.254391278013325,-0.0192914145469665,-0.0214379508018494,-0.0502792250633241
3.254996971532405,0.0477691323280335,0.0815478890419006,-0.198770436000824
3.2556026650514838,-0.06479678564071649,0.103103064823151,-0.0191439711570741
3.256208358570563,-0.0552167075157165,-0.19627437658309901,-0.0502792250633241
3.256814052089643,-0.0168963950157165,-0.08370845861434939,-0.00716887350082415
3.257419745608722,-0.256398348140717,-0.08131343908309939,0.06468171243667589
3.258025439127801,0.0525591713905335,-0.050178185176849396,0.251493235874176
3.258631132646881,0.26092587060928296,0.00969730310440062,0.0239663804054259
3.25923682616596,-0.20849795751571698,-0.0525732047080994,-0.10296965475082401
3.259842519685039,-0.30908877782821703,-0.00946285314559938,0.129347239780426
3.260448213204119,0.0884844643592835,0.0168823616981506,0.19640778665542602
3.261053906723198,-0.103117098140717,0.08873294763565061,0.24191315774917602
3.261659600242277,0.186680265140533,-0.050178185176849396,-0.035909107875824096
3.2622652937613568,0.318406339359283,-0.29686519689559904,-0.18679533834457399
3.262870987280436,-0.07916690282821649,-0.198669396114349,-0.0526742445945741
3.263476680799515,-0.0576117270469665,0.0767578499794006,0.0718667710304259
3.264082374318595,0.0405840737342835,0.151003455448151,0.158087474155426
3.264688067837674,0.0525591713905335,0.0791528695106506,-0.10296965475082401
3.265293761356753,-0.136647371578217,-0.00946285314559938,-0.184400318813324
3.265899454875833,-0.00731631689071654,0.141423377323151,0.129347239780426
3.266505148394912,0.0860894448280335,0.0384375374794006,0.0958169663429259
3.267110841913992,0.0357940346717835,0.004907264041900621,-0.10775969381332401
3.267716535433071,-0.0336615317344665,0.0192773812294006,-0.10536467428207401
3.26832222895215,0.0789043862342835,0.146213416385651,0.016781321811675902
3.2689279224712298,-0.00731631689071654,0.273149451541901,-0.0430941664695741
3.269533615990309,-0.0839569418907165,-0.0525732047080994,-0.06943938131332411
3.2701393095093882,0.0142388588905335,0.115078162479401,-0.028724049282074098
3.270745003028468,0.107644620609283,-0.14597896642684902,0.00959626321792585
3.271350696547547,0.100459562015533,-0.050178185176849396,0.129347239780426
3.271956390066626,-0.0456366293907165,-0.0717333609580994,-0.07422942037582411
3.272562083585706,-0.0815619223594665,-0.203459435176849,0.00959626321792585
3.273167777104785,-0.0887469809532165,0.0025122445106506197,-0.026329029750824098
3.273773470623864,0.0190288979530335,-0.03580806798934939,-0.239485768032074
3.274379164142944,-0.0432416098594665,0.0791528695106506,0.143717356967926
3.274984857662023,0.06453426904678351,0.045622596073150605,0.0622866929054259
3.275590551181102,-0.0192914145469665,-0.042993126583099395,0.0838418686866759
3.276196244700182,-0.0863519614219665,0.110288123416901,0.150902415561676
3.2768019382192612,-0.189337801265717,-0.0525732047080994,0.273048411655426
3.27740763173834,-0.028871492671966502,-0.0693383414268494,0.143717356967926
3.27801332525742,0.179495206546783,0.160583533573151,-0.07183440084457411
3.278619018776499,-0.14383243017196698,-0.20106441564559902,-0.16284514303207398
3.279224712295578,-0.12706729345321702,-0.08131343908309939,-0.0790194594383241
3.279830405814658,-0.07916690282821649,-0.0262279898643494,0.7113369858741759
3.280436099333737,0.102854581546783,-0.143583946895599,0.138927317905426
3.281041792852816,0.169915128421783,-0.0980785758018494,0.110187083530426
3.281647486371896,-0.0240814536094665,0.122263221073151,0.682596751499176
3.282253179890975,-0.107907137203217,0.304284705448151,0.553265696811676
3.282858873410055,-0.172572664546967,-0.0238329703330994,0.0886319077491759
3.2834645669291342,-0.0935370200157165,-0.0166479117393494,-0.11494475240707401
3.284070260448213,0.14596493310928302,0.136633338260651,0.213172923374176
3.284675953967293,0.0836944252967835,-0.172324181270599,0.0359414780616759
3.285281647486372,-0.0552167075157165,0.0384375374794006,-0.021538990688324097
3.285887341005451,-0.129462312984467,0.167768592166901,0.0622866929054259
3.286493034524531,0.0789043862342835,-0.20585445470809902,0.0383364975929259
3.28709872804361,-0.0504266684532165,0.220459021854401,0.00959626321792585
3.287704421562689,-0.14383243017196698,0.0312524788856506,0.27783845071792596
3.288310115081769,-0.06958682470321649,-0.10286861486434899,0.174852610874176
3.288915808600848,-0.0863519614219665,0.0815478890419006,-0.059859303188324095
3.289521502119927,-0.07437686376571649,-0.0334130484580994,0.06468171243667589
3.2901271956390072,-0.105512117671967,0.25159427576065096,-0.00716887350082415
3.290732889158086,0.13159481592178301,0.09112796716690061,0.110187083530426
3.291338582677165,-0.028871492671966502,0.08394290857315061,-0.208350514125824
3.291944276196245,-0.0911420004844665,0.0120923226356506,-0.138894947719574
3.292549969715324,-0.12706729345321702,0.0743628304481506,0.210777903842926
3.293155663234403,-0.0480316489219665,0.110288123416901,0.016781321811675902
3.293761356753483,0.0789043862342835,-0.119633751583099,-0.021538990688324097
3.294367050272562,0.0621392495155335,0.196508826541901,-0.07183440084457411
3.294972743791641,-0.15341250829696698,-0.0310180289268494,0.0862368882179259
3.295578437310721,-0.0624017661094665,-0.208249474239349,0.215567942905426
3.2961841308298,-0.0216864340782165,-0.0525732047080994,0.20598786478042602
3.296789824348879,-0.07198184423446649,0.0025122445106506197,-0.06943938131332411
3.297395517867959,-0.0839569418907165,0.08873294763565061,-0.0957845961570741
3.298001211387038,-0.0887469809532165,-0.00467281408309938,-0.033514088344574096
3.298606904906118,0.22021053857803302,-0.0765234000205994,-0.143684986782074
3.299212598425197,0.157940030765533,-0.00467281408309938,-0.035909107875824096
3.299818291944276,0.0525591713905335,0.0815478890419006,0.17245759134292601
3.300423985463356,-0.273163484859467,0.0791528695106506,0.0766568100929259
3.301029678982435,0.0525591713905335,-0.0310180289268494,0.0503115952491759
3.301635372501514,0.12680477685928299,-0.047783165645599396,-0.0454891860008241
3.302241066020594,-0.00492129735946654,0.0192773812294006,0.00959626321792585
3.302846759539673,0.117224698734283,-0.038203087520599394,0.0742617905616759
3.303452453058752,0.0789043862342835,0.0144873421669006,0.0886319077491759
3.304058146577832,0.138779874515533,0.09352298669815061,0.270653392124176
3.304663840096911,-0.06958682470321649,0.0743628304481506,0.0766568100929259
3.30526953361599,-0.00492129735946654,-0.00227779455184938,0.0383364975929259
3.30587522713507,0.00705380029678346,0.0025122445106506197,0.26825837259292595
3.306480920654149,-0.0480316489219665,-0.217829552364349,0.31615876321792596
3.307086614173228,0.06692928857803351,-0.148373985958099,0.13653229837417602
3.307692307692308,0.0357940346717835,0.0216724007606506,0.24670319681167602
3.308298001211387,-0.10072207860946701,0.0192773812294006,-0.00716887350082415
3.308903694730466,0.0932745034217835,-0.0142528922080994,-0.160450123500824
3.309509388249546,0.107644620609283,0.0647827523231506,0.258678294467926
3.310115081768625,-0.0504266684532165,0.045622596073150605,0.380824290561676
3.310720775287704,0.0477691323280335,-0.0310180289268494,-0.00716887350082415
3.311326468806784,0.0262139565467835,-0.0597582633018494,-0.376001881313324
3.311932162325863,-0.0959320395469665,0.0168823616981506,-0.294571217250824
3.312537855844942,-0.0815619223594665,0.0216724007606506,0.0790518296241759
3.313143549364022,0.06692928857803351,0.00730228357315062,-0.0502792250633241
3.313749242883101,-0.0216864340782165,0.0623877327919006,-0.268226002407074
3.31435493640218,0.13159481592178301,0.0264624398231506,0.0263613999366759
3.31496062992126,-0.0528216879844665,-0.00467281408309938,-0.035909107875824096
3.315566323440339,-0.19891787939071698,-0.0645483023643494,0.00720124368667585
3.316172016959419,0.12680477685928299,0.122263221073151,0.06707673196792589
3.316777710478498,0.00705380029678346,0.0743628304481506,0.217962962436676
3.317383403997577,0.0765093667030335,-0.0525732047080994,0.138927317905426
3.317989097516657,0.153149991703033,0.0575976937294006,0.06707673196792589
3.318594791035736,0.0118438393592835,0.08633792810440061,0.160482493686676
3.319200484554815,-0.0839569418907165,-0.03580806798934939,0.0862368882179259
3.319806178073895,0.0621392495155335,-0.23938472814559902,0.114977122592926
3.320411871592974,0.0741143471717835,-0.0549682242393494,-0.0406991469383241
3.321017565112053,0.143569913578033,0.0719678109169006,0.143717356967926
3.321623258631133,-0.0935370200157165,-0.18429927892684903,0.0527066147804259
3.322228952150212,-0.191732820796967,0.23003909997940097,0.0119912827491759
3.3228346456692908,0.0884844643592835,0.141423377323151,0.0742617905616759
3.323440339188371,0.0549541909217835,-0.0741283804893494,-0.18200529928207398
3.32404603270745,0.110039640140533,-0.0310180289268494,0.194012767124176
3.324651726226529,-0.028871492671966502,-0.08131343908309939,0.174852610874176
3.325257419745609,-0.115092195796967,0.00969730310440062,-0.0023788344383241502
3.325863113264688,0.0908794838905335,-0.0310180289268494,0.0287564194679259
3.326468806783767,0.00705380029678346,-0.00467281408309938,0.18682770853042602
3.327074500302847,-0.0935370200157165,-0.0789184195518494,0.213172923374176
3.327680193821926,-0.000131258296966542,-0.265729942989349,-0.0191439711570741
3.328285887341005,0.016633878421783498,-0.12921382970809903,0.208382884311676
3.328891580860085,0.186680265140533,0.09831302576065061,-0.035909107875824096
3.3294972743791638,-0.06719180517196649,0.0695727913856506,-0.0167489516258241
3.330102967898244,0.172310147953033,0.146213416385651,0.0934219468116759
3.330708661417323,0.14596493310928302,0.0144873421669006,0.143717356967926
3.331314354936402,-0.15341250829696698,0.136633338260651,0.27783845071792596
3.331920048455482,0.00465878076553346,-0.0621532828330994,0.18682770853042602
3.332525741974561,0.0789043862342835,0.141423377323151,0.112582103061676
3.33313143549364,0.00465878076553346,0.277939490604401,-0.131709889125824
3.33373712901272,-0.22765811376571699,-0.131608849239349,-0.0550692641258241
3.334342822531799,-0.000131258296966542,-0.0573632437705994,0.174852610874176
3.334948516050878,0.0381890542030335,-0.0310180289268494,0.26586335306167597
3.335554209569958,-0.182152742671967,-0.208249474239349,0.103002024936676
3.3361599030890368,-0.0312665122032165,-0.16513912267684902,0.0455215561866759
3.336765596608116,0.0477691323280335,0.0575976937294006,0.299393626499176
3.337371290127196,-0.265978426265717,0.0647827523231506,0.105397044467926
3.337976983646275,-0.189337801265717,0.0599927132606506,-0.124524830532074
3.338582677165354,-0.00492129735946654,0.08394290857315061,0.143717356967926
3.339188370684434,-0.0959320395469665,0.122263221073151,-0.026329029750824098
3.339794064203513,0.0573492104530335,-0.0741283804893494,-0.136499928188324
3.340399757722592,-0.036056551265716504,0.0264624398231506,-0.42150725240707404
3.341005451241672,-0.0983270590782165,0.0168823616981506,-0.43108733053207404
3.341611144760751,0.0238189370155335,-0.124423790645599,0.28502350931167597
3.34221683827983,0.100459562015533,-0.110053673458099,0.431119700717926
3.3428225317989098,0.308826261234283,0.0623877327919006,0.105397044467926
3.343428225317989,0.189075284671783,0.151003455448151,0.0766568100929259
3.3440339188370682,-0.036056551265716504,0.0791528695106506,-0.059859303188324095
3.344639612356148,0.00465878076553346,-0.134003868770599,-0.0119589125633241
3.345245305875227,0.169915128421783,-0.16992916173934902,0.055101634311675904
3.345850999394306,0.114829679203033,0.0025122445106506197,0.110187083530426
3.346456692913386,-0.119882234859467,-0.138793907833099,0.26586335306167597
3.347062386432465,-0.0504266684532165,-0.0310180289268494,-0.06464934225082411
3.347668079951545,0.0836944252967835,0.0671777718544006,-0.0766244399070741
3.348273773470624,0.0262139565467835,-0.08131343908309939,0.14611237649917602
3.348879466989703,0.0429790932655335,-0.0262279898643494,0.129347239780426
3.3494851605087828,-0.0145013754844665,0.107893103885651,-0.0957845961570741
3.350090854027862,-0.13425235204696698,0.186928748416901,-0.10057463521957401
3.3506965475469412,-0.0408465903282165,-0.162744103145599,0.174852610874176
3.351302241066021,0.143569913578033,-0.038203087520599394,-0.023934010219574097
3.3519079345851,0.0741143471717835,0.105498084354401,-0.0478842055320741
3.352513628104179,0.112434659671783,-0.117238732051849,-0.134104908657074
3.353119321623259,0.0286089760780335,0.136633338260651,0.0359414780616759
3.353725015142338,0.0262139565467835,0.21327396326065098,0.13653229837417602
3.354330708661417,0.0501641518592835,-0.148373985958099,-0.0454891860008241
3.354936402180497,0.0238189370155335,0.131843299198151,-0.0119589125633241
3.355542095699576,0.246555753421783,0.136633338260651,-0.06704436178207411
3.356147789218655,0.138779874515533,-0.09328853673934939,-0.0526742445945741
3.356753482737735,-0.0145013754844665,0.165373572635651,0.11737214212417599
3.3573591762568142,-0.0216864340782165,0.0240674202919006,0.261073313999176
3.357964869775893,0.0836944252967835,0.00730228357315062,-0.0167489516258241
3.358570563294973,0.13638485498428302,0.0192773812294006,-0.22272063131332398
3.359176256814052,-0.0240814536094665,-0.0573632437705994,-0.07183440084457411
3.359781950333131,-0.151017488765717,-0.131608849239349,-0.0838094985008241
3.360387643852211,0.0262139565467835,0.0552026741981506,0.0383364975929259
3.36099333737129,0.21063046045303302,0.09831302576065061,0.170062571811676
3.361599030890369,-0.0959320395469665,-0.0118578726768494,-0.124524830532074
3.362204724409449,0.0453741127967835,0.08633792810440061,-0.196375416469574
3.362810417928528,-0.0839569418907165,0.225249060916901,1.6185092925851098e-05
3.363416111447607,-0.0432416098594665,-0.25854488439559903,0.330528880405426
3.3640218049666872,0.00705380029678346,-0.122028771114349,0.0503115952491759
3.364627498485766,-0.13904239110946698,-0.167534142208099,-0.00716887350082415
3.365233192004846,0.0741143471717835,-0.29686519689559904,0.00959626321792585
3.365838885523925,0.179495206546783,0.05280765466690061,0.00720124368667585
3.366444579043004,0.0860894448280335,-0.00227779455184938,-0.00477385396957415
3.367050272562084,-0.06719180517196649,0.0815478890419006,0.0383364975929259
3.367655966081163,-0.0312665122032165,-0.13639888830184901,0.134137278842926
3.368261659600242,0.0908794838905335,0.0120923226356506,0.239518138217926
3.368867353119322,0.0525591713905335,0.0695727913856506,0.234728099155426
3.369473046638401,-0.07916690282821649,-0.050178185176849396,0.103002024936676
3.37007874015748,0.124409757328033,-0.208249474239349,0.33771393899917596
3.3706844336765602,-0.0145013754844665,-0.0669433218955994,0.538895579624176
3.371290127195639,-0.000131258296966542,0.0336474984169006,0.538895579624176
3.371895820714718,0.0477691323280335,-0.045388146114349395,-0.160450123500824
3.372501514233798,-0.0168963950157165,0.05280765466690061,-0.059859303188324095
3.373107207752877,-0.0312665122032165,0.08873294763565061,0.20119782571792602
3.373712901271956,-0.0216864340782165,-0.0717333609580994,-0.0766244399070741
3.374318594791036,-0.0600067465782165,-0.0980785758018494,0.00959626321792585
3.374924288310115,0.0429790932655335,0.0120923226356506,-0.07183440084457411
3.375529981829194,0.16512508935928302,-0.0765234000205994,-0.141289967250824
3.376135675348274,0.15075497217178302,0.08633792810440061,0.00720124368667585
3.376741368867353,0.0477691323280335,-0.00227779455184938,0.06468171243667589
3.377347062386432,0.0621392495155335,-0.29686519689559904,0.107792063999176
3.377952755905512,0.06453426904678351,-0.00467281408309938,0.0431265366554259
3.378558449424591,-0.0624017661094665,0.105498084354401,0.0958169663429259
3.379164142943671,0.0118438393592835,-0.138793907833099,0.016781321811675902
3.37976983646275,0.0860894448280335,-0.042993126583099395,-0.0862045180320741
3.380375529981829,-0.0121063559532165,-0.0741283804893494,0.174852610874176
3.380981223500909,0.031003995609283498,-0.0166479117393494,0.11976716165542599
3.381586917019988,-0.00731631689071654,-0.124423790645599,0.0239663804054259
3.382192610539067,-0.0600067465782165,0.08394290857315061,-0.0790194594383241
3.382798304058147,0.0884844643592835,-0.047783165645599396,0.0694717514991759
3.383403997577226,0.0214239174842835,-0.390270958614349,0.114977122592926
3.384009691096305,0.0789043862342835,-0.0214379508018494,-0.028724049282074098
3.384615384615385,0.0741143471717835,0.09112796716690061,-0.06704436178207411
3.385221078134464,0.0765093667030335,0.12944827966690098,0.059891673374175905
3.385826771653543,0.110039640140533,0.09352298669815061,-0.026329029750824098
3.386432465172623,0.0405840737342835,0.105498084354401,0.021571360874175903
3.387038158691702,0.0190288979530335,0.0168823616981506,0.0119912827491759
3.387643852210781,-0.06719180517196649,-0.0693383414268494,-0.141289967250824
3.388249545729861,-0.210892977046967,0.0120923226356506,-0.0502792250633241
3.38885523924894,-0.124672273921967,-0.10047359533309899,-0.0981796156883241
3.389460932768019,-0.0576117270469665,-0.181904259395599,-0.0406991469383241
3.390066626287099,0.00944881982803346,0.0336474984169006,0.0886319077491759
3.390672319806178,0.20105038232803302,0.0336474984169006,0.021571360874175903
3.391278013325257,0.12680477685928299,-0.126818810176849,-0.10296965475082401
3.391883706844337,-0.0384515707969665,-0.143583946895599,-0.0526742445945741
3.392489400363416,-0.29950869970321703,-0.0166479117393494,0.004806224155425851
3.393095093882495,-0.112697176265717,-0.045388146114349395,0.0119912827491759
3.393700787401575,0.110039640140533,-0.0621532828330994,0.107792063999176
3.394306480920654,0.0190288979530335,-0.08610347814559939,0.0766568100929259
3.394912174439733,-0.07677188329696649,0.045622596073150605,-0.150870045375824
3.395517867958813,-0.0576117270469665,0.08394290857315061,-0.0862045180320741
3.396123561477892,-0.105512117671967,-0.181904259395599,-0.00716887350082415
3.396729254996972,-0.0528216879844665,-0.00227779455184938,-0.150870045375824
3.397334948516051,-0.0408465903282165,0.14860843591690098,-0.131709889125824
3.39794064203513,-0.182152742671967,0.0240674202919006,0.0359414780616759
3.39854633555421,0.0812994057655335,0.0168823616981506,0.0694717514991759
3.399152029073289,0.229790616703033,0.100708045291901,-0.033514088344574096
3.399757722592368,0.0286089760780335,-0.0118578726768494,-0.021538990688324097
3.400363416111448,-0.0168963950157165,-0.162744103145599,0.0407315171241759
3.400969109630527,0.20584042139053302,-0.00467281408309938,0.0119912827491759
3.401574803149606,0.112434659671783,0.0815478890419006,0.44788483743667595
3.402180496668686,0.0405840737342835,0.0360425179481506,0.680201731967926
3.402786190187765,-0.00252627782821654,0.100708045291901,0.20598786478042602
3.4033918837068438,-0.0863519614219665,-0.0693383414268494,0.031151438999175902
3.403997577225924,0.0836944252967835,-0.045388146114349395,0.0718667710304259
3.404603270745003,-0.0552167075157165,-0.27770504064559903,-0.146080006313324
3.405208964264082,-0.00492129735946654,-0.131608849239349,0.0455215561866759
3.405814657783162,0.0405840737342835,0.0552026741981506,-0.0167489516258241
3.406420351302241,-0.00252627782821654,-0.00227779455184938,0.059891673374175905
3.40702604482132,0.0381890542030335,-0.09089351720809939,-0.0143539320945741
3.4076317383404,-0.115092195796967,-0.0190429312705994,0.0359414780616759
3.408237431859479,-0.0456366293907165,0.196508826541901,0.227543040561676
3.408843125378558,-0.0576117270469665,0.117473182010651,0.00720124368667585
3.409448818897638,0.031003995609283498,-0.0238329703330994,0.12216218118667599
3.4100545124167168,-0.107907137203217,-0.0765234000205994,0.26825837259292595
3.410660205935796,-0.105512117671967,-0.0166479117393494,0.0335464585304259
3.411265899454876,0.0741143471717835,-0.20585445470809902,0.17245759134292601
3.411871592973955,0.00944881982803346,-0.08849849767684939,0.14611237649917602
3.412477286493035,0.0765093667030335,-0.0310180289268494,-0.0406991469383241
3.413082980012114,-0.0384515707969665,-0.03580806798934939,0.153297435092926
3.413688673531193,0.0956695229530335,0.0599927132606506,0.304183665561676
3.414294367050273,0.0956695229530335,0.15339847497940098,0.167667552280426
3.414900060569352,-0.210892977046967,0.124658240604401,0.227543040561676
3.415505754088431,0.0884844643592835,-0.22022457189559902,0.11737214212417599
3.416111447607511,0.0908794838905335,-0.157954064083099,0.0239663804054259
3.4167171411265898,-0.0240814536094665,0.0384375374794006,-0.0119589125633241
3.417322834645669,-0.0839569418907165,0.00730228357315062,-0.033514088344574096
3.417928528164749,-0.0983270590782165,0.0623877327919006,-0.0526742445945741
3.418534221683828,-0.0552167075157165,0.000117224979400624,-0.0191439711570741
3.419139915202907,-0.07437686376571649,0.167768592166901,0.138927317905426
3.419745608721987,-0.00492129735946654,0.0552026741981506,0.021571360874175903
3.420351302241066,-0.0408465903282165,-0.050178185176849396,-0.0454891860008241
3.420956995760145,0.0525591713905335,-0.23938472814559902,-0.16763518209457398
3.421562689279225,-0.0552167075157165,-0.10047359533309899,-0.028724049282074098
3.422168382798304,-0.15341250829696698,0.306679724979401,0.112582103061676
3.422774076317383,-0.201312898921967,-0.0621532828330994,-0.220325611782074
3.423379769836463,0.0717193276405335,0.0168823616981506,0.0383364975929259
3.423985463355542,0.169915128421783,0.15818851404190098,0.134137278842926
3.4245911568746212,-0.0552167075157165,0.09591800622940061,-0.06464934225082411
3.425196850393701,-0.00492129735946654,0.000117224979400624,0.0143863022804259
3.42580254391278,-0.028871492671966502,-0.16034908361434902,-0.11733977193832401
3.426408237431859,0.102854581546783,0.00730228357315062,0.0383364975929259
3.427013930950939,0.0573492104530335,-0.198669396114349,-0.06704436178207411
3.427619624470018,-0.00252627782821654,-0.08370845861434939,0.0934219468116759
3.428225317989098,0.0501641518592835,0.08873294763565061,0.0838418686866759
3.428831011508177,0.15075497217178302,-0.232199669551849,0.114977122592926
3.429436705027256,0.0812994057655335,-0.03580806798934939,0.24191315774917602
3.430042398546336,-0.301903719234467,0.0240674202919006,0.165272532749176
3.430648092065415,-0.119882234859467,0.050412635135650606,-0.189190357875824
3.4312537855844942,0.232185636234283,0.043227576541900604,-0.0167489516258241
3.431859479103574,-0.0432416098594665,0.0264624398231506,0.40716950540542596
3.432465172622653,-0.0264764731407165,0.232434119510651,0.165272532749176
3.433070866141732,0.0765093667030335,0.23961917810440098,0.11737214212417599
3.433676559660812,0.0405840737342835,0.004907264041900621,0.0383364975929259
3.434282253179891,0.16512508935928302,0.09591800622940061,-0.124524830532074
3.43488794669897,0.0118438393592835,-0.14597896642684902,0.210777903842926
3.43549364021805,-0.0168963950157165,0.110288123416901,0.004806224155425851
3.436099333737129,-0.0192914145469665,0.277939490604401,0.158087474155426
3.436705027256208,-0.07437686376571649,-0.0980785758018494,-0.148475025844574
3.437310720775288,-0.0815619223594665,0.26117435388565097,0.0455215561866759
3.4379164142943672,0.00226376123428346,-0.0741283804893494,0.354479075717926
3.438522107813446,0.0238189370155335,-0.119633751583099,-0.0143539320945741
3.439127801332526,-0.0600067465782165,0.0144873421669006,0.20119782571792602
3.439733494851605,-0.0240814536094665,-0.0765234000205994,0.06707673196792589
3.440339188370684,0.06453426904678351,0.08633792810440061,-0.131709889125824
3.440944881889764,0.0477691323280335,0.0192773812294006,-0.244275807094574
3.441550575408843,-0.07677188329696649,-0.0142528922080994,-0.136499928188324
3.442156268927922,0.0980645424842835,-0.00227779455184938,-0.062254322719574096
3.442761962447002,0.0357940346717835,-0.0214379508018494,0.12455720071792599
3.443367655966081,-0.0911420004844665,-0.0549682242393494,0.13174225931167602
3.44397334948516,-0.0815619223594665,-0.0214379508018494,-0.0406991469383241
3.4445790430042402,0.0597442299842835,-0.00946285314559938,-0.138894947719574
3.445184736523319,0.177100187015533,0.0623877327919006,0.0742617905616759
3.445790430042399,-0.15341250829696698,0.105498084354401,0.0431265366554259
3.446396123561478,-0.00731631689071654,-0.15076900548934902,0.0766568100929259
3.447001817080557,0.00705380029678346,-0.0334130484580994,0.021571360874175903
3.447607510599637,-0.16299258642196698,-0.0118578726768494,-0.170030201625824
3.448213204118716,-0.115092195796967,0.0767578499794006,0.0263613999366759
3.448818897637795,0.00226376123428346,0.08633792810440061,0.0407315171241759
3.449424591156875,-0.009711336421966539,0.0575976937294006,-0.035909107875824096
3.450030284675954,-0.0264764731407165,0.00730228357315062,0.0838418686866759
3.450635978195033,0.0525591713905335,-0.16513912267684902,-0.11015471334457401
3.4512416717141132,0.0549541909217835,0.0767578499794006,-0.23709074850082398
3.451847365233192,0.143569913578033,-0.042993126583099395,0.0407315171241759
3.452453058752271,-0.028871492671966502,-0.0645483023643494,0.100607005405426
3.453058752271351,-0.115092195796967,0.146213416385651,-0.0311190688133241
3.45366444579043,0.0477691323280335,-0.0645483023643494,-0.06464934225082411
3.454270139309509,0.00465878076553346,-0.0597582633018494,0.229938060092926
3.454875832828589,-0.160597566890717,-0.0980785758018494,0.0958169663429259
3.455481526347668,-0.07198184423446649,0.0312524788856506,0.14132233743667602
3.456087219866747,-0.0624017661094665,0.23961917810440098,0.0766568100929259
3.456692913385827,-0.0576117270469665,0.0168823616981506,-0.21793059225082398
3.457298606904906,0.14117489404678302,0.100708045291901,0.0838418686866759
3.457904300423985,-0.0624017661094665,-0.10526363439559899,0.103002024936676
3.458509993943065,0.0333990151405335,-0.0334130484580994,0.055101634311675904
3.459115687462144,0.162730069828033,0.26117435388565097,0.0886319077491759
3.459721380981224,-0.00731631689071654,-0.18908931798934903,-0.033514088344574096
3.460327074500303,0.129199796390533,-0.08849849767684939,-0.15326506490707398
3.460932768019382,0.0621392495155335,0.048017615604400606,0.0622866929054259
3.461538461538462,-0.0168963950157165,0.206088904666901,0.469440013217926
3.462144155057541,0.16033505029678302,-0.050178185176849396,0.373639231967926
3.46274984857662,-0.0504266684532165,-0.114843712520599,0.12216218118667599
3.4633555420957,-0.06479678564071649,0.146213416385651,0.23712311868667602
3.463961235614779,0.16033505029678302,-0.203459435176849,-0.146080006313324
3.464566929133858,0.0980645424842835,0.0360425179481506,-0.033514088344574096
3.465172622652938,-0.131857332515717,-0.114843712520599,0.184432688999176
3.465778316172017,-0.0552167075157165,0.00969730310440062,-0.0885995375633241
3.466384009691096,0.198655362796783,0.050412635135650606,-0.129314869594574
3.466989703210176,-0.0863519614219665,-0.08131343908309939,0.0119912827491759
3.467595396729255,0.119619718265533,0.146213416385651,0.0622866929054259
3.468201090248334,0.193865323734283,-0.0645483023643494,0.0622866929054259
3.468806783767414,-0.174967684078217,0.0647827523231506,-0.0933895766258241
3.469412477286493,-0.036056551265716504,-0.03580806798934939,-0.0574642836570741
3.470018170805572,-0.230053133296967,-0.03580806798934939,0.0958169663429259
3.470623864324652,0.138779874515533,0.115078162479401,0.0383364975929259
3.471229557843731,0.236975675296783,-0.042993126583099395,0.112582103061676
3.47183525136281,-0.15820254735946698,-0.222619591426849,-0.11973479146957401
3.47244094488189,-0.0576117270469665,0.17495365076065097,-0.0406991469383241
3.473046638400969,-0.0480316489219665,0.00730228357315062,0.0982119858741759
3.473652331920048,0.102854581546783,-0.289680138301849,-0.0311190688133241
3.474258025439128,-0.124672273921967,0.0599927132606506,-0.021538990688324097
3.474863718958207,-0.105512117671967,0.0743628304481506,0.0287564194679259
3.475469412477286,0.13159481592178301,0.00730228357315062,-0.00477385396957415
3.476075105996366,-0.0528216879844665,-0.143583946895599,0.0407315171241759
3.476680799515445,-0.028871492671966502,-0.0070678336143493795,-0.136499928188324
3.477286493034525,-0.112697176265717,-0.08849849767684939,-0.07422942037582411
3.477892186553604,-0.10072207860946701,-0.363925743770599,-0.0838094985008241
3.478497880072683,0.0717193276405335,-0.107658653926849,-0.0191439711570741
3.479103573591763,-0.0456366293907165,0.265964392948151,0.0838418686866759
3.479709267110842,-0.07916690282821649,-0.0573632437705994,-0.06464934225082411
3.480314960629921,0.21542049951553302,0.16297855310440099,0.0455215561866759
3.480920654149001,0.105249601078033,0.16297855310440099,-0.11973479146957401
3.48152634766808,0.157940030765533,-0.00946285314559938,-0.0957845961570741
3.482132041187159,0.0549541909217835,-0.0741283804893494,0.0239663804054259
3.482737734706239,-0.22765811376571699,0.107893103885651,0.00959626321792585
3.483343428225318,-0.172572664546967,0.0168823616981506,0.0527066147804259
3.483949121744397,-0.107907137203217,-0.284890099239349,1.6185092925851098e-05
3.484554815263477,0.28008602685928297,0.0575976937294006,0.11737214212417599
3.485160508782556,0.15075497217178302,0.09831302576065061,0.0934219468116759
3.485766202301635,-0.0121063559532165,-0.042993126583099395,0.13174225931167602
3.486371895820715,0.0765093667030335,0.0623877327919006,0.0838418686866759
3.486977589339794,0.153149991703033,0.117473182010651,-0.155660084438324
3.487583282858873,0.102854581546783,0.0791528695106506,0.107792063999176
3.4881889763779528,-0.000131258296966542,-0.045388146114349395,0.222753001499176
3.488794669897032,0.148359952640533,-0.08370845861434939,0.00959626321792585
3.489400363416111,0.102854581546783,0.20369388513565098,-0.026329029750824098
3.490006056935191,0.0549541909217835,0.05280765466690061,0.383219310092926
3.49061175045427,0.19147030420303301,0.043227576541900604,0.126952220249176
3.491217443973349,0.0980645424842835,0.186928748416901,-0.129314869594574
3.491823137492429,0.217815519046783,0.15818851404190098,0.18203766946792602
3.492428831011508,0.0118438393592835,-0.0262279898643494,0.0024112046241758496
3.493034524530587,-0.19891787939071698,0.0647827523231506,-0.033514088344574096
3.493640218049667,-0.07677188329696649,0.14860843591690098,-0.0191439711570741
3.494245911568746,0.112434659671783,-0.09089351720809939,0.28502350931167597
3.4948516050878258,-0.0168963950157165,-0.0741283804893494,0.0790518296241759
3.495457298606905,-0.0528216879844665,0.0623877327919006,-0.07422942037582411
3.496062992125984,-0.0408465903282165,-0.213039513301849,0.0742617905616759
3.496668685645064,0.0286089760780335,-0.0717333609580994,-0.0574642836570741
3.497274379164143,0.0381890542030335,0.08394290857315061,-0.0909945570945741
3.497880072683222,-0.103117098140717,-0.31842037267684903,-0.0933895766258241
3.498485766202302,0.0262139565467835,-0.284890099239349,0.225148021030426
3.499091459721381,0.00705380029678346,-0.217829552364349,0.14611237649917602
3.49969715324046,0.167520108890533,-0.00227779455184938,0.153297435092926
3.50030284675954,-0.000131258296966542,0.0791528695106506,0.213172923374176
3.500908540278619,0.0812994057655335,0.105498084354401,0.239518138217926
3.501514233797698,0.016633878421783498,-0.00227779455184938,0.100607005405426
3.502119927316778,-0.155807527828217,-0.16992916173934902,-0.143684986782074
3.5027256208358573,0.0190288979530335,-0.124423790645599,0.112582103061676
3.503331314354936,-0.189337801265717,0.0599927132606506,0.129347239780426
3.5039370078740157,0.0190288979530335,-0.0765234000205994,0.174852610874176
3.504542701393095,0.248950772953033,-0.0286230093955994,0.019176341342925902
3.5051483949121742,-0.0528216879844665,0.246804236698151,-0.0454891860008241
3.505754088431254,0.0525591713905335,0.0360425179481506,0.14611237649917602
3.506359781950333,0.0118438393592835,0.225249060916901,-0.07183440084457411
3.506965475469413,0.00465878076553346,-0.0166479117393494,-0.059859303188324095
3.507571168988492,0.0453741127967835,0.0240674202919006,-0.0933895766258241
3.508176862507571,-0.265978426265717,-0.0286230093955994,0.055101634311675904
3.50878255602665,0.0142388588905335,-0.21064449377059902,0.0359414780616759
3.5093882495457303,0.117224698734283,0.0288574593544006,-0.11015471334457401
3.509993943064809,-0.191732820796967,-0.112448692989349,0.0766568100929259
3.5105996365838887,-0.00252627782821654,0.040832557010650604,0.019176341342925902
3.511205330102968,-0.028871492671966502,-0.00467281408309938,0.239518138217926
3.5118110236220472,-0.0552167075157165,-0.222619591426849,0.24670319681167602
3.512416717141127,-0.0504266684532165,-0.134003868770599,-0.344866627407074
3.513022410660206,-0.155807527828217,0.0336474984169006,-0.0550692641258241
3.513628104179285,0.0405840737342835,0.136633338260651,-0.138894947719574
3.514233797698365,0.19147030420303301,-0.0717333609580994,0.0431265366554259
3.514839491217444,0.00944881982803346,-0.191484337520599,0.189222728061676
3.515445184736523,-0.0480316489219665,-0.0286230093955994,0.0335464585304259
3.5160508782556033,0.0812994057655335,0.237224158573151,-0.0526742445945741
3.516656571774682,0.0357940346717835,0.15818851404190098,-0.00716887350082415
3.517262265293761,0.00944881982803346,-0.222619591426849,0.198802806186676
3.517867958812841,-0.0624017661094665,0.0025122445106506197,-0.131709889125824
3.51847365233192,0.0118438393592835,0.112683142948151,0.0383364975929259
3.519079345850999,0.107644620609283,0.0384375374794006,-0.27062102193832405
3.519685039370079,-0.00252627782821654,-0.0262279898643494,0.18682770853042602
3.520290732889158,0.186680265140533,-0.119633751583099,0.19161774759292602
3.520896426408237,0.0789043862342835,0.0120923226356506,-0.059859303188324095
3.521502119927317,-0.0192914145469665,0.048017615604400606,0.641881419467926
3.522107813446396,-0.0863519614219665,-0.0214379508018494,-0.07183440084457411
3.522713506965475,-0.19891787939071698,0.0360425179481506,-0.296966236782074
3.523319200484555,0.0812994057655335,0.0312524788856506,0.184432688999176
3.523924894003634,0.117224698734283,-0.16992916173934902,-0.12212981100082401
3.524530587522714,0.0789043862342835,-0.00946285314559938,0.143717356967926
3.525136281041793,-0.244423250484467,0.040832557010650604,0.06468171243667589
3.525741974560872,-0.0240814536094665,0.0743628304481506,-0.028724049282074098
3.526347668079951,0.268110929203033,0.0743628304481506,0.12455720071792599
3.526953361599031,0.0238189370155335,-0.16513912267684902,-0.196375416469574
3.52755905511811,0.143569913578033,-0.263334923458099,-0.0119589125633241
3.52816474863719,0.222605558109283,-0.10526363439559899,0.055101634311675904
3.528770442156269,0.0333990151405335,0.09352298669815061,-0.136499928188324
3.529376135675348,0.0142388588905335,0.17495365076065097,0.004806224155425851
3.529981829194428,0.0142388588905335,-0.038203087520599394,0.100607005405426
3.530587522713507,-0.009711336421966539,0.09591800622940061,0.18203766946792602
3.531193216232586,0.15554501123428302,0.0815478890419006,-0.11015471334457401
3.531798909751666,0.0884844643592835,0.0791528695106506,0.100607005405426
3.532404603270745,0.0765093667030335,0.13902835779190098,0.294603587436676
3.533010296789824,-0.0624017661094665,-0.186694298458099,-0.028724049282074098
3.533615990308904,0.112434659671783,0.103103064823151,0.112582103061676
3.534221683827983,0.0860894448280335,-0.0238329703330994,0.105397044467926
3.534827377347062,0.0932745034217835,-0.256149864864349,-0.170030201625824
3.535433070866142,0.244160733890533,-0.0214379508018494,0.004806224155425851
3.536038764385221,-0.028871492671966502,0.0695727913856506,-0.0023788344383241502
3.5366444579043,0.133989835453033,-0.12921382970809903,-0.165240162563324
3.53725015142338,0.102854581546783,-0.0262279898643494,0.0455215561866759
3.537855844942459,0.0118438393592835,0.0312524788856506,-0.028724049282074098
3.538461538461538,-0.0863519614219665,-0.282495079708099,0.12455720071792599
3.539067231980618,-0.122277254390717,-0.09328853673934939,0.031151438999175902
3.539672925499697,0.174705167484283,0.24440921716690098,-0.129314869594574
3.540278619018776,0.21063046045303302,-0.0525732047080994,-0.06704436178207411
3.540884312537856,0.0501641518592835,-0.193879357051849,-0.325706471157074
3.541490006056935,-0.13425235204696698,0.0384375374794006,-0.10296965475082401
3.542095699576015,0.00226376123428346,0.0192773812294006,0.23233307962417601
3.542701393095094,0.306431241703033,0.146213416385651,-0.00716887350082415
3.543307086614173,-0.12706729345321702,0.13902835779190098,-0.0478842055320741
3.543912780133253,-0.0145013754844665,-0.047783165645599396,-0.033514088344574096
3.544518473652332,0.203445401859283,-0.16034908361434902,-0.131709889125824
3.545124167171411,0.0789043862342835,-0.119633751583099,0.0479165757179259
3.545729860690491,-0.107907137203217,-0.00946285314559938,0.105397044467926
3.54633555420957,-0.07198184423446649,0.05280765466690061,-0.11254973287582401
3.546941247728649,0.0956695229530335,-0.00227779455184938,0.227543040561676
3.547546941247729,0.0501641518592835,-0.124423790645599,0.208382884311676
3.548152634766808,-0.07677188329696649,-0.0645483023643494,-0.026329029750824098
3.5487583282858868,-0.0600067465782165,0.043227576541900604,0.280233470249176
3.549364021804967,0.0405840737342835,-0.0525732047080994,-0.028724049282074098
3.549969715324046,-0.117487215328217,-0.0693383414268494,-0.12212981100082401
3.550575408843125,0.00226376123428346,0.045622596073150605,0.584400950717926
3.551181102362205,-0.0552167075157165,-0.0214379508018494,-0.0550692641258241
3.551786795881284,0.0741143471717835,0.206088904666901,0.174852610874176
3.552392489400363,0.34954159326553297,0.155793494510651,0.34729401712417596
3.552998182919443,-0.0408465903282165,0.0192773812294006,-0.131709889125824
3.553603876438522,0.00944881982803346,-0.038203087520599394,0.23712311868667602
3.554209569957601,-0.0815619223594665,0.048017615604400606,-0.0478842055320741
3.554815263476681,-0.191732820796967,-0.00946285314559938,0.055101634311675904
3.5554209569957598,-0.0384515707969665,0.0623877327919006,0.0766568100929259
3.556026650514839,-0.129462312984467,-0.14597896642684902,-0.00477385396957415
3.556632344033919,-0.000131258296966542,-0.08370845861434939,-0.32091643209457404
3.557238037552998,-0.06719180517196649,-0.138793907833099,0.162877513217926
3.557843731072078,-0.07677188329696649,-0.191484337520599,-0.0191439711570741
3.558449424591157,0.0118438393592835,0.119868201541901,-0.23230070943832398
3.559055118110236,0.031003995609283498,-0.10526363439559899,0.160482493686676
3.559660811629316,-0.0168963950157165,0.0240674202919006,0.0862368882179259
3.560266505148395,0.00226376123428346,0.12944827966690098,0.0455215561866759
3.560872198667474,-0.0456366293907165,0.09112796716690061,-0.00716887350082415
3.561477892186554,-0.0576117270469665,0.004907264041900621,0.019176341342925902
3.5620835857056328,-0.129462312984467,0.0192773812294006,-0.0766244399070741
3.562689279224712,-0.00252627782821654,0.13423831872940098,-0.023934010219574097
3.563294972743792,0.0597442299842835,0.15818851404190098,0.00959626321792585
3.563900666262871,-0.0600067465782165,0.0168823616981506,0.110187083530426
3.5645063597819497,0.00944881982803346,0.160583533573151,0.153297435092926
3.56511205330103,-0.00252627782821654,-0.00467281408309938,1.6185092925851098e-05
3.565717746820109,0.153149991703033,-0.143583946895599,0.105397044467926
3.566323440339188,-0.009711336421966539,-0.107658653926849,0.227543040561676
3.566929133858268,0.100459562015533,0.0623877327919006,0.20119782571792602
3.567534827377347,0.148359952640533,0.151003455448151,0.0718667710304259
3.568140520896426,0.0812994057655335,0.09112796716690061,-0.225115650844574
3.5687462144155058,0.0597442299842835,0.08873294763565061,0.213172923374176
3.569351907934585,0.0860894448280335,-0.241779747676849,-0.0383041274070741
3.5699576014536643,0.33996151514053297,-0.143583946895599,-0.138894947719574
3.570563294972744,-0.14862246923446698,-0.040598107051849394,0.153297435092926
3.5711689884918227,-0.07677188329696649,0.0144873421669006,0.0119912827491759
3.571774682010902,-0.14862246923446698,-0.045388146114349395,0.0958169663429259
3.572380375529982,-0.0192914145469665,-0.26812496252059903,0.0838418686866759
3.572986069049061,0.265715909671783,-0.0597582633018494,0.0934219468116759
3.57359176256814,-0.06479678564071649,-0.0190429312705994,-0.07183440084457411
3.57419745608722,-0.06719180517196649,0.045622596073150605,-0.16284514303207398
3.574803149606299,-0.0192914145469665,0.0025122445106506197,0.0335464585304259
3.5754088431253788,0.119619718265533,-0.00227779455184938,-0.00956389303207415
3.576014536644458,0.0812994057655335,-0.045388146114349395,-0.06943938131332411
3.5766202301635373,0.00465878076553346,0.0743628304481506,-0.028724049282074098
3.577225923682617,0.0118438393592835,0.09591800622940061,0.0886319077491759
3.5778316172016957,0.0956695229530335,-0.042993126583099395,-0.0478842055320741
3.578437310720775,-0.0528216879844665,-0.0166479117393494,-0.146080006313324
3.579043004239855,-0.110302156734467,-0.10286861486434899,0.057496653842925904
3.579648697758934,0.0549541909217835,0.0025122445106506197,0.110187083530426
3.580254391278013,-0.0911420004844665,0.0767578499794006,0.36645417337417596
3.580860084797093,0.06453426904678351,0.105498084354401,0.239518138217926
3.581465778316172,-0.00731631689071654,0.201298865604401,0.459859935092926
3.582071471835251,-0.141437410640717,-0.0118578726768494,0.804742747592926
3.582677165354331,0.031003995609283498,-0.17471920080184902,0.0527066147804259
3.5832828588734102,0.186680265140533,-0.0190429312705994,-0.11254973287582401
3.583888552392489,-0.0911420004844665,-0.21543453283309902,-0.0454891860008241
3.5844942459115687,-0.00252627782821654,0.13423831872940098,0.06707673196792589
3.585099939430648,0.174705167484283,-0.0597582633018494,0.352084056186676
3.585705632949727,-0.0264764731407165,-0.15555904455184902,-0.0119589125633241
3.586311326468807,-0.0456366293907165,-0.191484337520599,-0.18200529928207398
3.586917019987886,-0.146227449703217,-0.270519982051849,0.059891673374175905
3.587522713506965,0.22500057764053302,0.297099646854401,0.031151438999175902
3.588128407026045,-0.07198184423446649,-0.167534142208099,-0.277806080532074
3.588734100545124,-0.07437686376571649,-0.16992916173934902,-0.021538990688324097
3.589339794064203,0.153149991703033,0.0264624398231506,-0.0143539320945741
3.5899454875832832,-0.0576117270469665,0.0168823616981506,0.057496653842925904
3.590551181102362,0.14117489404678302,0.273149451541901,0.17724763040542602
3.5911568746214417,0.0286089760780335,0.21327396326065098,-0.11973479146957401
3.591762568140521,-0.0528216879844665,-0.00946285314559938,-0.0430941664695741
3.5923682616596,0.217815519046783,0.050412635135650606,0.0742617905616759
3.59297395517868,0.102854581546783,-0.09089351720809939,-0.148475025844574
3.593579648697759,-0.009711336421966539,-0.0525732047080994,-0.23230070943832398
3.594185342216838,-0.0336615317344665,0.0120923226356506,0.0143863022804259
3.594791035735918,-0.00731631689071654,0.0360425179481506,0.059891673374175905
3.595396729254997,-0.07198184423446649,0.112683142948151,0.220357981967926
3.596002422774076,-0.0384515707969665,-0.191484337520599,0.0119912827491759
3.5966081162931562,-0.07437686376571649,-0.10047359533309899,-0.17242522115707398
3.597213809812235,0.00705380029678346,-0.18429927892684903,0.234728099155426
3.597819503331314,0.22500057764053302,-0.0573632437705994,0.0239663804054259
3.598425196850394,0.177100187015533,0.050412635135650606,-0.170030201625824
3.599030890369473,0.0621392495155335,0.0791528695106506,0.0527066147804259
3.599636583888552,-0.141437410640717,0.0025122445106506197,-0.021538990688324097
3.600242277407632,-0.103117098140717,-0.232199669551849,-0.0167489516258241
3.600847970926711,0.0741143471717835,-0.265729942989349,0.0143863022804259
3.60145366444579,0.133989835453033,-0.22980465002059902,0.105397044467926
3.60205935796487,-0.256398348140717,-0.0717333609580994,0.0790518296241759
3.602665051483949,-0.0480316489219665,-0.20106441564559902,0.0407315171241759
3.603270745003028,0.0357940346717835,0.206088904666901,0.222753001499176
3.603876438522108,-0.07916690282821649,0.110288123416901,0.134137278842926
3.604482132041187,0.248950772953033,-0.110053673458099,0.194012767124176
3.605087825560267,0.117224698734283,0.0288574593544006,-0.0502792250633241
3.605693519079346,-0.07677188329696649,-0.15555904455184902,0.0934219468116759
3.606299212598425,-0.036056551265716504,0.12944827966690098,0.0407315171241759
3.606904906117504,0.129199796390533,0.0719678109169006,-0.06943938131332411
3.607510599636584,-0.0624017661094665,0.167768592166901,-0.00716887350082415
3.608116293155663,-0.07916690282821649,0.0336474984169006,0.110187083530426
3.608721986674743,0.318406339359283,-0.0693383414268494,0.031151438999175902
3.609327680193822,-0.0432416098594665,0.000117224979400624,-0.23230070943832398
3.609933373712901,-0.0815619223594665,-0.08131343908309939,0.680201731967926
3.610539067231981,0.0573492104530335,0.0647827523231506,0.0479165757179259
3.61114476075106,-0.036056551265716504,0.115078162479401,-0.459827564907074
3.611750454270139,-0.0624017661094665,0.0025122445106506197,0.34729401712417596
3.612356147789219,-0.124672273921967,-0.138793907833099,0.160482493686676
3.612961841308298,0.0980645424842835,0.0695727913856506,-0.0502792250633241
3.613567534827377,0.0836944252967835,-0.08370845861434939,0.138927317905426
3.614173228346457,-0.10072207860946701,0.0671777718544006,0.0431265366554259
3.614778921865536,0.00226376123428346,-0.0118578726768494,0.0766568100929259
3.615384615384615,0.0357940346717835,-0.0741283804893494,0.189222728061676
3.615990308903695,-0.16778262548446699,0.196508826541901,0.0886319077491759
3.616596002422774,-0.0624017661094665,-0.110053673458099,-0.0454891860008241
3.617201695941853,0.248950772953033,-0.153164025020599,-0.0119589125633241
3.617807389460933,0.0238189370155335,-0.10286861486434899,-0.0909945570945741
3.618413082980012,-0.0384515707969665,-0.193879357051849,-0.126919850063324
3.619018776499091,-0.186942781734467,0.0647827523231506,0.100607005405426
3.619624470018171,-0.07437686376571649,-0.0765234000205994,0.0479165757179259
3.62023016353725,0.177100187015533,-0.153164025020599,0.0838418686866759
3.620835857056329,-0.0624017661094665,0.000117224979400624,0.0383364975929259
3.621441550575409,0.203445401859283,-0.162744103145599,-0.11254973287582401
3.622047244094488,0.0573492104530335,-0.00467281408309938,-0.0454891860008241
3.622652937613568,-0.0815619223594665,0.09352298669815061,0.00959626321792585
3.623258631132647,-0.000131258296966542,0.18453372888565098,-0.18679533834457399
3.623864324651726,0.0238189370155335,0.00969730310440062,-0.10775969381332401
3.624470018170806,-0.172572664546967,0.177348670291901,-0.11494475240707401
3.625075711689885,0.0405840737342835,0.09831302576065061,-0.0430941664695741
3.625681405208964,0.110039640140533,-0.0334130484580994,0.055101634311675904
3.626287098728044,-0.0384515707969665,-0.126818810176849,0.057496653842925904
3.626892792247123,-0.0408465903282165,-0.371110802364349,-0.0909945570945741
3.627498485766202,-0.00731631689071654,-0.045388146114349395,-0.10296965475082401
3.628104179285282,0.14117489404678302,-0.198669396114349,-0.00477385396957415
3.628709872804361,-0.0815619223594665,-0.12921382970809903,0.14132233743667602
3.6293155663234398,-0.10072207860946701,-0.0741283804893494,0.13174225931167602
3.62992125984252,-0.13425235204696698,-0.0190429312705994,0.0383364975929259
3.630526953361599,-0.0432416098594665,-0.00946285314559938,0.215567942905426
3.631132646880678,0.0549541909217835,0.00730228357315062,0.0958169663429259
3.631738340399758,-0.0911420004844665,-0.0717333609580994,-0.0167489516258241
3.632344033918837,-0.184547762203217,-0.304050255489349,0.114977122592926
3.632949727437916,0.0956695229530335,-0.045388146114349395,0.016781321811675902
3.633555420956996,-0.0959320395469665,0.14381839685440098,-0.15326506490707398
3.634161114476075,-0.0576117270469665,0.402480506229401,0.0742617905616759
3.634766807995154,0.143569913578033,0.043227576541900604,-0.059859303188324095
3.635372501514234,-0.0504266684532165,-0.0549682242393494,-0.0478842055320741
3.6359781950333128,-0.122277254390717,0.103103064823151,0.057496653842925904
3.636583888552392,-0.174967684078217,-0.311235314083099,-0.059859303188324095
3.637189582071472,0.06453426904678351,0.0719678109169006,0.179642649936676
3.637795275590551,-0.119882234859467,0.09591800622940061,0.299393626499176
3.638400969109631,0.0286089760780335,-0.10047359533309899,0.138927317905426
3.63900666262871,0.16512508935928302,0.0671777718544006,0.12455720071792599
3.639612356147789,0.14117489404678302,-0.16034908361434902,0.0886319077491759
3.640218049666869,0.404627042484283,0.00730228357315062,-0.0119589125633241
3.640823743185948,0.031003995609283498,0.0767578499794006,-0.0454891860008241
3.641429436705027,-0.189337801265717,-0.256149864864349,-0.24667082662582399
3.642035130224107,0.129199796390533,-0.0549682242393494,0.138927317905426
3.6426408237431858,0.0262139565467835,-0.23938472814559902,0.258678294467926
3.643246517262265,-0.0839569418907165,-0.236989708614349,0.0982119858741759
3.643852210781345,-0.0192914145469665,-0.00946285314559938,0.229938060092926
3.644457904300424,0.0381890542030335,-0.21064449377059902,0.263468333530426
3.6450635978195027,0.203445401859283,-0.00467281408309938,0.138927317905426
3.645669291338583,0.0789043862342835,-0.0525732047080994,-0.148475025844574
3.646274984857662,0.0597442299842835,-0.122028771114349,0.158087474155426
3.646880678376741,0.14117489404678302,0.15339847497940098,-0.0383041274070741
3.647486371895821,-0.0839569418907165,0.0216724007606506,0.0742617905616759
3.6480920654149003,0.117224698734283,-0.0717333609580994,0.110187083530426
3.648697758933979,0.117224698734283,-0.14597896642684902,-0.11733977193832401
3.6493034524530588,0.00226376123428346,-0.232199669551849,0.150902415561676
3.649909145972138,0.0812994057655335,0.13423831872940098,-0.00956389303207415
3.6505148394912172,0.0381890542030335,-0.09089351720809939,0.06468171243667589
3.651120533010297,0.00944881982803346,0.004907264041900621,0.0359414780616759
3.6517262265293757,-0.0959320395469665,0.05280765466690061,0.179642649936676
3.652331920048455,-0.146227449703217,-0.10526363439559899,-0.0862045180320741
3.652937613567535,-0.0432416098594665,-0.0765234000205994,-0.06464934225082411
3.653543307086614,0.00944881982803346,-0.16513912267684902,0.0790518296241759
3.654149000605693,0.13159481592178301,-0.208249474239349,-0.15326506490707398
3.6547546941247733,-0.131857332515717,-0.270519982051849,-0.0167489516258241
3.655360387643852,-0.215683016109467,-0.157954064083099,0.0383364975929259
3.6559660811629318,-0.0552167075157165,-0.110053673458099,0.170062571811676
3.656571774682011,-0.0480316489219665,0.0168823616981506,-0.201165455532074
3.6571774682010902,0.114829679203033,0.124658240604401,0.016781321811675902
3.65778316172017,0.12680477685928299,0.004907264041900621,0.20598786478042602
3.6583888552392487,0.0621392495155335,-0.050178185176849396,0.12216218118667599
3.658994548758328,0.0956695229530335,0.23961917810440098,0.0886319077491759
3.659600242277408,0.253740812015533,-0.0166479117393494,0.0335464585304259
3.660205935796487,0.133989835453033,0.122263221073151,-0.38079192037582404
3.660811629315566,0.114829679203033,-0.00467281408309938,-0.12212981100082401
3.6614173228346463,-0.0408465903282165,-0.203459435176849,0.244308177280426
3.662023016353725,-0.07198184423446649,0.103103064823151,-0.11733977193832401
3.662628709872804,-0.0504266684532165,-0.00227779455184938,0.138927317905426
3.663234403391884,-0.0528216879844665,0.0336474984169006,0.00959626321792585
3.6638400969109632,0.0956695229530335,-0.0597582633018494,-0.0383041274070741
3.664445790430042,0.016633878421783498,0.0384375374794006,0.220357981967926
3.6650514839491217,0.0573492104530335,-0.0717333609580994,0.203592845249176
3.665657177468201,-0.0384515707969665,0.0264624398231506,-0.11254973287582401
3.66626287098728,0.016633878421783498,0.08394290857315061,0.12455720071792599
3.66686856450636,0.138779874515533,0.0552026741981506,-0.035909107875824096
3.667474258025439,-0.0815619223594665,0.14381839685440098,-0.24188078756332398
3.668079951544518,0.124409757328033,-0.0525732047080994,0.0431265366554259
3.668685645063598,-0.230053133296967,-0.124423790645599,-0.275411061000824
3.669291338582677,0.0573492104530335,-0.0070678336143493795,-0.239485768032074
3.669897032101756,0.189075284671783,-0.143583946895599,0.0766568100929259
3.6705027256208362,-0.0264764731407165,-0.119633751583099,-0.184400318813324
3.671108419139915,0.21063046045303302,0.0695727913856506,0.28502350931167597
3.671714112658994,-0.107907137203217,-0.162744103145599,0.215567942905426
3.672319806178074,0.110039640140533,-0.0980785758018494,0.30657868509292596
3.672925499697153,0.16512508935928302,0.09831302576065061,0.210777903842926
3.673531193216233,-0.06479678564071649,-0.00946285314559938,-0.287386158657074
3.674136886735312,0.0357940346717835,-0.0142528922080994,0.00720124368667585
3.674742580254391,0.20584042139053302,0.182138709354401,-0.160450123500824
3.675348273773471,0.0884844643592835,0.0360425179481506,-0.239485768032074
3.67595396729255,-0.0480316489219665,0.00969730310440062,-0.026329029750824098
3.676559660811629,-0.009711336421966539,-0.110053673458099,0.167667552280426
3.6771653543307092,0.0333990151405335,0.0743628304481506,0.114977122592926
3.677771047849788,-0.06479678564071649,-0.0286230093955994,0.217962962436676
3.678376741368867,0.0118438393592835,0.050412635135650606,-0.06464934225082411
3.678982434887947,-0.07437686376571649,0.0312524788856506,0.138927317905426
3.679588128407026,-0.172572664546967,-0.227409630489349,0.0431265366554259
3.680193821926105,-0.0480316489219665,0.0168823616981506,-0.150870045375824
3.680799515445185,0.184285245609283,-0.00227779455184938,-0.11973479146957401
3.681405208964264,0.0932745034217835,-0.10047359533309899,0.00720124368667585
3.682010902483343,-0.0624017661094665,-0.124423790645599,0.134137278842926
3.682616596002423,-0.20370791845321698,0.0719678109169006,0.0814468491554259
3.683222289521502,-0.117487215328217,0.110288123416901,0.016781321811675902
3.683827983040581,0.0142388588905335,0.220459021854401,-0.131709889125824
3.684433676559661,0.0381890542030335,-0.0717333609580994,-0.00956389303207415
3.68503937007874,0.0693243081092835,-0.122028771114349,-0.340076588344574
3.68564506359782,-0.0887469809532165,0.08394290857315061,0.019176341342925902
3.686250757116899,0.016633878421783498,0.045622596073150605,0.23712311868667602
3.686856450635978,-0.0863519614219665,0.0384375374794006,-0.0790194594383241
3.687462144155058,0.13159481592178301,-0.138793907833099,0.0910269272804259
3.688067837674137,0.0142388588905335,-0.110053673458099,0.12216218118667599
3.688673531193216,-0.0192914145469665,-0.09568355627059939,1.6185092925851098e-05
3.689279224712296,0.14117489404678302,-0.198669396114349,0.004806224155425851
3.689884918231375,-0.036056551265716504,-0.162744103145599,1.6185092925851098e-05
3.690490611750454,0.0286089760780335,0.0767578499794006,-0.021538990688324097
3.691096305269534,0.198655362796783,0.323444861698151,0.174852610874176
3.691701998788613,0.208235440921783,0.09831302576065061,-0.10296965475082401
3.692307692307692,0.100459562015533,-0.13639888830184901,-0.366421803188324
3.692913385826772,-0.155807527828217,0.000117224979400624,0.059891673374175905
3.693519079345851,-0.20849795751571698,0.112683142948151,-0.035909107875824096
3.69412477286493,-0.00252627782821654,0.105498084354401,-0.0502792250633241
3.69473046638401,-0.0863519614219665,0.177348670291901,0.217962962436676
3.695336159903089,-0.028871492671966502,0.105498084354401,-0.11015471334457401
3.695941853422168,-0.06719180517196649,-0.0166479117393494,-0.10296965475082401
3.696547546941248,-0.028871492671966502,-0.08131343908309939,-0.165240162563324
3.697153240460327,-0.06719180517196649,-0.0238329703330994,0.194012767124176
3.697758933979406,-0.26837344579696704,0.0264624398231506,-0.062254322719574096
3.698364627498486,-0.0863519614219665,-0.0645483023643494,-0.160450123500824
3.698970321017565,-0.0168963950157165,-0.138793907833099,0.110187083530426
3.699576014536644,-0.122277254390717,0.0360425179481506,-0.0478842055320741
3.700181708055724,-0.07437686376571649,-0.138793907833099,-0.06464934225082411
3.700787401574803,-0.0600067465782165,-0.270519982051849,-0.155660084438324
3.701393095093882,0.00944881982803346,0.09112796716690061,0.11976716165542599
3.701998788612962,-0.00492129735946654,0.0623877327919006,0.0359414780616759
3.702604482132041,-0.265978426265717,0.0025122445106506197,0.0814468491554259
3.703210175651121,0.138779874515533,0.124658240604401,0.14132233743667602
3.7038158691702,0.169915128421783,-0.117238732051849,-0.0909945570945741
3.704421562689279,-0.07677188329696649,-0.045388146114349395,-0.0143539320945741
3.705027256208359,0.06692928857803351,-0.00467281408309938,0.0790518296241759
3.705632949727438,-0.0312665122032165,0.151003455448151,-0.18679533834457399
3.706238643246517,-0.0312665122032165,0.045622596073150605,-0.165240162563324
3.706844336765597,-0.177362703609467,-0.08849849767684939,-0.0766244399070741
3.707450030284676,-0.112697176265717,0.09352298669815061,-0.16763518209457398
3.708055723803755,0.102854581546783,-0.0525732047080994,-0.07183440084457411
3.708661417322835,-0.10072207860946701,0.151003455448151,-0.205955494594574
3.709267110841914,0.241765714359283,0.103103064823151,0.00720124368667585
3.7098728043609928,0.0190288979530335,0.0336474984169006,0.06468171243667589
3.710478497880073,-0.103117098140717,-0.00946285314559938,-0.00716887350082415
3.711084191399152,0.0357940346717835,0.225249060916901,-0.10536467428207401
3.711689884918231,-0.06719180517196649,-0.08370845861434939,0.14132233743667602
3.712295578437311,-0.028871492671966502,0.0575976937294006,0.25628327493667596
3.71290127195639,-0.06719180517196649,0.23482913904190097,0.0766568100929259
3.713506965475469,0.0357940346717835,0.0791528695106506,0.198802806186676
3.714112658994549,-0.0911420004844665,0.048017615604400606,0.0479165757179259
3.714718352513628,0.0190288979530335,-0.16034908361434902,-0.0957845961570741
3.7153240460327073,-0.0432416098594665,0.232434119510651,-0.11015471334457401
3.715929739551787,-0.20370791845321698,0.0815478890419006,0.100607005405426
3.7165354330708658,-0.107907137203217,0.09112796716690061,0.0479165757179259
3.717141126589945,0.0525591713905335,0.15339847497940098,0.217962962436676
3.717746820109025,-0.0216864340782165,-0.20585445470809902,0.112582103061676
3.718352513628104,0.16512508935928302,0.0384375374794006,-0.062254322719574096
3.718958207147184,0.20584042139053302,0.0767578499794006,-0.0430941664695741
3.719563900666263,-0.105512117671967,-0.122028771114349,-0.18200529928207398
3.720169594185342,0.0980645424842835,-0.045388146114349395,0.0718667710304259
3.720775287704422,0.117224698734283,-0.107658653926849,0.194012767124176
3.721380981223501,0.0573492104530335,0.0719678109169006,0.189222728061676
3.7219866747425803,-0.12706729345321702,0.0647827523231506,-0.0023788344383241502
3.72259236826166,-0.06958682470321649,-0.00946285314559938,-0.06464934225082411
3.7231980617807388,0.172310147953033,0.232434119510651,-0.225115650844574
3.723803755299818,0.031003995609283498,0.0336474984169006,-0.0143539320945741
3.724409448818898,0.0836944252967835,0.124658240604401,0.158087474155426
3.725015142337977,0.0477691323280335,0.08633792810440061,0.189222728061676
3.7256208358570557,-0.0408465903282165,0.00969730310440062,0.14611237649917602
3.726226529376136,0.0525591713905335,0.004907264041900621,0.0958169663429259
3.726832222895215,0.124409757328033,0.0192773812294006,0.129347239780426
3.727437916414294,0.179495206546783,0.0192773812294006,-0.0526742445945741
3.728043609933374,-0.00492129735946654,-0.265729942989349,-0.15326506490707398
3.7286493034524533,-0.165387605953217,-0.12921382970809903,-0.0406991469383241
3.729254996971532,0.0238189370155335,-0.0741283804893494,0.0407315171241759
3.7298606904906118,0.0429790932655335,-0.0310180289268494,0.019176341342925902
3.730466384009691,0.110039640140533,-0.162744103145599,0.5293155014991759
3.7310720775287702,0.213025479984283,-0.16513912267684902,0.0934219468116759
3.73167777104785,-0.0384515707969665,-0.08370845861434939,0.25388825540542603
3.732283464566929,0.0405840737342835,-0.126818810176849,0.100607005405426
3.732889158086008,-0.0240814536094665,-0.246569786739349,-0.0430941664695741
3.733494851605088,-0.0600067465782165,0.0288574593544006,0.32573884134292597
3.734100545124167,0.00705380029678346,0.25159427576065096,0.0527066147804259
3.734706238643246,0.122014737796783,-0.10526363439559899,0.13653229837417602
3.7353119321623263,0.0453741127967835,0.048017615604400606,0.0694717514991759
3.735917625681405,0.0405840737342835,0.0120923226356506,-0.0766244399070741
3.7365233192004847,0.0333990151405335,-0.16992916173934902,-0.0454891860008241
3.737129012719564,-0.165387605953217,0.0815478890419006,-0.033514088344574096
3.7377347062386432,0.102854581546783,0.172558631229401,0.0958169663429259
3.738340399757723,-0.0576117270469665,-0.09568355627059939,0.210777903842926
3.738946093276802,-0.206102937984467,-0.038203087520599394,0.13174225931167602
3.739551786795881,-0.117487215328217,0.12944827966690098,0.0143863022804259
3.740157480314961,-0.13425235204696698,-0.0310180289268494,0.105397044467926
3.74076317383404,0.251345792484283,-0.0262279898643494,0.112582103061676
3.741368867353119,0.0477691323280335,0.08633792810440061,-0.174820240688324
3.7419745608721993,0.0836944252967835,-0.0142528922080994,-0.0814144789695741
3.742580254391278,0.0812994057655335,-0.0142528922080994,-0.00956389303207415
3.743185947910357,-0.0863519614219665,-0.09328853673934939,-0.138894947719574
3.743791641429437,0.129199796390533,0.040832557010650604,0.0503115952491759
3.7443973349485162,-0.220473055171967,0.05280765466690061,0.0694717514991759
3.745003028467595,-0.0408465903282165,-0.08131343908309939,0.0119912827491759
3.745608721986675,0.119619718265533,0.043227576541900604,0.220357981967926
3.746214415505754,0.0357940346717835,0.050412635135650606,0.158087474155426
3.746820109024833,0.0932745034217835,0.0552026741981506,0.143717356967926
3.747425802543913,0.0765093667030335,0.14381839685440098,0.14132233743667602
3.748031496062992,0.0860894448280335,-0.040598107051849394,0.00720124368667585
3.748637189582071,0.27050594873428296,-0.110053673458099,-0.251460865688324
3.749242883101151,-0.0240814536094665,0.004907264041900621,-0.0957845961570741
3.74984857662023,-0.0839569418907165,0.00730228357315062,0.057496653842925904
3.75045427013931,0.0693243081092835,0.22285404138565099,0.019176341342925902
3.7510599636583892,-0.0121063559532165,0.0312524788856506,-0.170030201625824
3.751665657177468,-0.0456366293907165,-0.124423790645599,0.059891673374175905
3.752271350696547,-0.10072207860946701,0.09352298669815061,0.0407315171241759
3.752877044215627,0.016633878421783498,0.356975135135651,0.019176341342925902
3.753482737734706,0.0381890542030335,0.0192773812294006,0.0910269272804259
3.754088431253786,0.0789043862342835,0.08873294763565061,0.0335464585304259
3.754694124772865,-0.0168963950157165,-0.0142528922080994,0.24191315774917602
3.755299818291944,-0.06719180517196649,-0.148373985958099,-0.035909107875824096
3.755905511811024,0.102854581546783,0.124658240604401,-0.10775969381332401
3.756511205330103,-0.0552167075157165,-0.18908931798934903,-0.18200529928207398
3.757116898849182,0.00705380029678346,-0.045388146114349395,0.0263613999366759
3.7577225923682622,0.258530851078033,0.313864783573151,0.019176341342925902
3.758328285887341,-0.0839569418907165,0.0025122445106506197,-0.021538990688324097
3.75893397940642,0.12680477685928299,-0.0597582633018494,-0.028724049282074098
3.7595396729255,0.0860894448280335,-0.21064449377059902,-0.0119589125633241
3.760145366444579,-0.0456366293907165,-0.14118892736434902,0.304183665561676
3.760751059963658,0.203445401859283,0.0623877327919006,-0.0119589125633241
3.761356753482738,-0.215683016109467,-0.122028771114349,-0.294571217250824
3.761962447001817,-0.112697176265717,0.265964392948151,0.438304759311676
3.762568140520896,0.0333990151405335,0.0815478890419006,0.179642649936676
3.763173834039976,-0.13425235204696698,-0.148373985958099,-0.24188078756332398
3.763779527559055,-0.0983270590782165,0.00730228357315062,0.134137278842926
3.764385221078134,0.00226376123428346,0.165373572635651,-0.0526742445945741
3.764990914597214,0.184285245609283,0.263569373416901,-0.0167489516258241
3.765596608116293,0.105249601078033,0.117473182010651,-0.131709889125824
3.766202301635373,-0.0911420004844665,-0.10286861486434899,0.103002024936676
3.766807995154452,-0.0480316489219665,-0.0573632437705994,0.158087474155426
3.767413688673531,0.13638485498428302,-0.213039513301849,0.0766568100929259
3.768019382192611,0.227395597171783,-0.12921382970809903,0.25628327493667596
3.76862507571169,0.0621392495155335,0.0192773812294006,0.0431265366554259
3.769230769230769,-0.0983270590782165,-0.275310021114349,0.031151438999175902
3.769836462749849,0.0573492104530335,0.107893103885651,0.0263613999366759
3.770442156268928,0.00705380029678346,0.131843299198151,-0.0383041274070741
3.771047849788007,-0.0145013754844665,-0.13639888830184901,-0.205955494594574
3.771653543307087,0.0262139565467835,0.0695727913856506,0.12216218118667599
3.772259236826166,-0.151017488765717,-0.138793907833099,-0.0574642836570741
3.772864930345245,-0.0983270590782165,-0.10047359533309899,-0.17242522115707398
3.773470623864325,0.00226376123428346,0.227644080448151,0.299393626499176
3.774076317383404,0.0573492104530335,0.08394290857315061,0.239518138217926
3.774682010902483,0.06453426904678351,-0.08131343908309939,0.270653392124176
3.775287704421563,0.0381890542030335,-0.08370845861434939,0.0910269272804259
3.775893397940642,-0.009711336421966539,0.0312524788856506,0.12216218118667599
3.776499091459721,0.00944881982803346,-0.045388146114349395,0.100607005405426
3.777104784978801,0.0741143471717835,0.14381839685440098,-0.0550692641258241
3.77771047849788,-0.0935370200157165,0.16297855310440099,-0.07183440084457411
3.778316172016959,-0.0911420004844665,-0.17950923986434902,-0.138894947719574
3.778921865536039,0.133989835453033,0.155793494510651,-0.026329029750824098
3.779527559055118,-0.0312665122032165,0.23482913904190097,0.270653392124176
3.780133252574197,-0.215683016109467,0.19411380701065098,0.179642649936676
3.780738946093277,0.0693243081092835,0.119868201541901,0.0479165757179259
3.781344639612356,0.0908794838905335,-0.08131343908309939,0.150902415561676
3.781950333131435,0.06453426904678351,-0.038203087520599394,0.0359414780616759
3.782556026650515,0.0812994057655335,-0.0669433218955994,-0.12212981100082401
3.783161720169594,-0.225263094234467,0.08873294763565061,-0.138894947719574
3.783767413688674,0.0525591713905335,0.004907264041900621,0.0862368882179259
3.784373107207753,0.157940030765533,0.0623877327919006,-0.00956389303207415
3.784978800726832,0.0190288979530335,0.13902835779190098,-0.0814144789695741
3.785584494245912,-0.0216864340782165,0.0192773812294006,0.0359414780616759
3.786190187764991,0.143569913578033,-0.03580806798934939,0.0359414780616759
3.78679588128407,0.110039640140533,-0.0765234000205994,0.203592845249176
3.78740157480315,0.222605558109283,0.122263221073151,-0.021538990688324097
3.788007268322229,0.19147030420303301,-0.047783165645599396,-0.138894947719574
3.788612961841308,-0.00252627782821654,-0.0693383414268494,-0.0383041274070741
3.789218655360388,-0.00731631689071654,0.0360425179481506,0.004806224155425851
3.789824348879467,0.110039640140533,0.0216724007606506,-0.035909107875824096
3.7904300423985458,0.15554501123428302,-0.0597582633018494,0.36645417337417596
3.791035735917626,0.00944881982803346,-0.0142528922080994,0.217962962436676
3.791641429436705,0.0525591713905335,0.0671777718544006,0.0814468491554259
3.792247122955784,-0.07916690282821649,-0.138793907833099,0.184432688999176
3.792852816474864,-0.112697176265717,-0.042993126583099395,-0.0550692641258241
3.793458509993943,-0.237238191890717,0.0743628304481506,-0.184400318813324
3.794064203513022,0.0405840737342835,-0.0980785758018494,-0.198770436000824
3.794669897032102,0.169915128421783,-0.10526363439559899,0.20598786478042602
3.795275590551181,0.0812994057655335,0.0719678109169006,0.134137278842926
3.7958812840702603,0.15075497217178302,-0.00227779455184938,-0.0430941664695741
3.79648697758934,0.00226376123428346,0.13902835779190098,-0.0574642836570741
3.7970926711084187,0.138779874515533,-0.00467281408309938,0.213172923374176
3.797698364627498,0.0789043862342835,-0.10047359533309899,0.0622866929054259
3.798304058146578,-0.27795352392196704,0.112683142948151,-0.028724049282074098
3.798909751665657,0.06692928857803351,0.103103064823151,0.06468171243667589
3.799515445184736,0.0142388588905335,-0.117238732051849,-0.06464934225082411
3.800121138703816,-0.06479678564071649,0.0791528695106506,0.0024112046241758496
3.800726832222895,0.0573492104530335,0.117473182010651,0.273048411655426
3.8013325257419748,-0.0145013754844665,-0.13639888830184901,0.0455215561866759
3.801938219261054,0.124409757328033,-0.0334130484580994,-0.150870045375824
3.8025439127801333,-0.115092195796967,0.0216724007606506,0.059891673374175905
3.803149606299213,0.184285245609283,0.131843299198151,0.13174225931167602
3.8037552998182917,0.0789043862342835,0.000117224979400624,-0.15326506490707398
3.804360993337371,-0.335433992671967,0.115078162479401,0.0622866929054259
3.804966686856451,0.119619718265533,0.14860843591690098,0.208382884311676
3.80557238037553,-0.0336615317344665,-0.0693383414268494,0.11976716165542599
3.806178073894609,0.0693243081092835,0.0360425179481506,-0.0574642836570741
3.806783767413689,0.14596493310928302,0.19411380701065098,-0.0383041274070741
3.807389460932768,-0.0528216879844665,-0.153164025020599,0.129347239780426
3.807995154451847,0.0381890542030335,-0.0669433218955994,-0.062254322719574096
3.808600847970927,-0.0480316489219665,-0.193879357051849,-0.0311190688133241
3.8092065414900063,-0.000131258296966542,-0.14118892736434902,0.0263613999366759
3.809812235009085,0.105249601078033,0.17495365076065097,-0.10296965475082401
3.8104179285281647,0.100459562015533,-0.0741283804893494,0.0622866929054259
3.811023622047244,0.0693243081092835,0.0168823616981506,0.016781321811675902
3.8116293155663232,0.124409757328033,0.000117224979400624,0.0383364975929259
3.812235009085403,-0.0480316489219665,0.0120923226356506,0.148507396030426
3.812840702604482,-0.124672273921967,0.0144873421669006,0.11737214212417599
3.813446396123562,0.13159481592178301,0.182138709354401,0.28502350931167597
3.814052089642641,-0.0863519614219665,0.000117224979400624,0.270653392124176
3.81465778316172,-0.0408465903282165,-0.0238329703330994,0.0335464585304259
3.815263476680799,0.0286089760780335,0.31146976404190096,0.150902415561676
3.8158691701998793,-0.028871492671966502,0.151003455448151,0.0455215561866759
3.816474863718958,-0.0456366293907165,0.23961917810440098,-0.028724049282074098
3.8170805572380377,-0.0456366293907165,-0.0262279898643494,0.0119912827491759
3.817686250757117,0.16033505029678302,0.0384375374794006,0.031151438999175902
3.8182919442761962,-0.0145013754844665,-0.050178185176849396,0.18682770853042602
3.818897637795276,0.0357940346717835,-0.10526363439559899,1.6185092925851098e-05
3.819503331314355,-0.15820254735946698,0.206088904666901,0.0694717514991759
3.820109024833434,-0.151017488765717,-0.038203087520599394,0.419144603061676
3.820714718352514,0.114829679203033,0.08394290857315061,-0.0885995375633241
3.821320411871593,0.0118438393592835,-0.09089351720809939,-0.275411061000824
3.821926105390672,-0.0863519614219665,-0.134003868770599,0.766422435092926
3.8225317989097523,-0.0192914145469665,0.34020999841690097,0.29699860696792596
3.823137492428831,-0.0983270590782165,0.0312524788856506,-0.196375416469574
3.82374318594791,0.0118438393592835,0.048017615604400606,-0.155660084438324
3.82434887946699,0.0501641518592835,0.172558631229401,0.0527066147804259
3.8249545729860692,-0.15820254735946698,-0.107658653926849,0.0790518296241759
3.825560266505148,0.06453426904678351,-0.122028771114349,-0.00716887350082415
3.826165960024228,0.119619718265533,-0.24896480627059903,-0.193980396938324
3.826771653543307,-0.0216864340782165,0.0552026741981506,-0.191585377407074
3.827377347062386,-0.0959320395469665,-0.126818810176849,0.289813548374176
3.827983040581466,-0.10072207860946701,-0.198669396114349,0.0982119858741759
3.828588734100545,-0.07437686376571649,0.00969730310440062,-0.00716887350082415
3.829194427619624,-0.0815619223594665,-0.18908931798934903,0.244308177280426
3.829800121138704,-0.14383243017196698,-0.110053673458099,0.184432688999176
3.830405814657783,-0.136647371578217,0.155793494510651,0.103002024936676
3.831011508176863,-0.07437686376571649,-0.0717333609580994,0.294603587436676
3.831617201695942,0.143569913578033,-0.042993126583099395,-0.0167489516258241
3.832222895215021,0.244160733890533,0.119868201541901,0.0934219468116759
3.8328285887341,0.222605558109283,-0.172324181270599,-0.0383041274070741
3.83343428225318,-0.0456366293907165,-0.0190429312705994,-0.129314869594574
3.834039975772259,-0.112697176265717,0.0575976937294006,0.0455215561866759
3.834645669291339,0.0333990151405335,0.0168823616981506,-0.138894947719574
3.835251362810418,0.172310147953033,-0.08131343908309939,0.0527066147804259
3.835857056329497,0.33996151514053297,-0.162744103145599,-0.0454891860008241
3.836462749848577,-0.0240814536094665,0.0288574593544006,-0.136499928188324
3.837068443367656,-0.105512117671967,0.127053260135651,0.229938060092926
3.837674136886735,0.107644620609283,0.004907264041900621,0.19640778665542602
3.838279830405815,0.167520108890533,-0.0717333609580994,-0.00477385396957415
3.838885523924894,0.138779874515533,-0.10047359533309899,-0.10536467428207401
3.839491217443973,-0.036056551265716504,-0.148373985958099,-0.138894947719574
3.840096910963053,-0.0863519614219665,0.0767578499794006,0.17724763040542602
3.840702604482132,0.0621392495155335,-0.042993126583099395,0.0862368882179259
3.841308298001211,0.107644620609283,-0.107658653926849,-0.0119589125633241
3.841913991520291,0.0884844643592835,0.0264624398231506,0.155692454624176
3.84251968503937,-0.0815619223594665,-0.134003868770599,0.12216218118667599
3.843125378558449,-0.0911420004844665,-0.22980465002059902,0.0790518296241759
3.843731072077529,0.16512508935928302,0.0168823616981506,-0.062254322719574096
3.844336765596608,0.102854581546783,-0.09328853673934939,-0.021538990688324097
3.844942459115687,-0.160597566890717,-0.0621532828330994,0.143717356967926
3.845548152634767,0.00944881982803346,0.165373572635651,-0.00477385396957415
3.846153846153846,-0.0600067465782165,-0.047783165645599396,0.0838418686866759
3.846759539672925,-0.124672273921967,0.043227576541900604,-0.0526742445945741
3.847365233192005,-0.0576117270469665,-0.110053673458099,-0.16284514303207398
3.847970926711084,-0.00252627782821654,-0.0070678336143493795,-0.033514088344574096
3.848576620230164,0.265715909671783,0.16297855310440099,0.150902415561676
3.849182313749243,-0.0432416098594665,0.151003455448151,-0.0766244399070741
3.849788007268322,0.0405840737342835,0.103103064823151,-0.138894947719574
3.850393700787402,-0.0145013754844665,0.00969730310440062,0.500575267124176
3.850999394306481,-0.282743562984467,0.12944827966690098,0.0119912827491759
3.85160508782556,0.0573492104530335,-0.0190429312705994,0.107792063999176
3.85221078134464,-0.07198184423446649,-0.00946285314559938,0.742472239780426
3.852816474863719,-0.220473055171967,-0.0621532828330994,0.14132233743667602
3.853422168382798,-0.14383243017196698,-0.038203087520599394,-0.026329029750824098
3.854027861901878,0.110039640140533,-0.0765234000205994,-0.160450123500824
3.854633555420957,0.0621392495155335,-0.119633751583099,-0.035909107875824096
3.855239248940036,0.0381890542030335,0.045622596073150605,0.0479165757179259
3.855844942459116,0.06692928857803351,-0.15555904455184902,-0.244275807094574
3.856450635978195,-0.009711336421966539,0.0719678109169006,-0.06704436178207411
3.857056329497274,-0.103117098140717,0.155793494510651,0.0383364975929259
3.857662023016354,-0.07198184423446649,-0.09328853673934939,0.148507396030426
3.858267716535433,0.0405840737342835,0.05280765466690061,0.0838418686866759
3.858873410054512,-0.117487215328217,-0.047783165645599396,-0.0430941664695741
3.859479103573592,-0.009711336421966539,0.0671777718544006,-0.06943938131332411
3.860084797092671,-0.25160830907821696,0.136633338260651,-0.0191439711570741
3.86069049061175,-0.0528216879844665,-0.0693383414268494,0.059891673374175905
3.86129618413083,0.0501641518592835,-0.0334130484580994,0.165272532749176
3.8619018776499088,-0.06479678564071649,-0.275310021114349,0.11737214212417599
3.862507571168988,0.16033505029678302,-0.0310180289268494,0.0359414780616759
3.863113264688068,-0.0839569418907165,0.0647827523231506,-0.16763518209457398
3.863718958207147,0.0932745034217835,-0.0693383414268494,0.0503115952491759
3.864324651726227,-0.0959320395469665,-0.0214379508018494,0.251493235874176
3.864930345245306,-0.0216864340782165,0.13902835779190098,0.057496653842925904
3.865536038764385,0.277691007328033,0.22285404138565099,0.0862368882179259
3.866141732283465,0.16512508935928302,0.09831302576065061,0.06707673196792589
3.866747425802544,0.287271085453033,-0.0334130484580994,-0.0766244399070741
3.867353119321623,0.0214239174842835,0.045622596073150605,-0.0574642836570741
3.867958812840703,0.19147030420303301,0.0719678109169006,0.27783845071792596
3.8685645063597818,0.143569913578033,-0.15076900548934902,-0.0526742445945741
3.869170199878861,0.21063046045303302,0.0336474984169006,-0.265830982875824
3.869775893397941,0.016633878421783498,-0.18429927892684903,-0.131709889125824
3.87038158691702,-0.0552167075157165,-0.20585445470809902,-0.17721526021957398
3.8709872804360987,0.323196378421783,-0.134003868770599,-0.0454891860008241
3.871592973955179,0.0884844643592835,-0.13639888830184901,-0.23709074850082398
3.872198667474258,0.133989835453033,-0.0310180289268494,-0.0502792250633241
3.872804360993337,0.124409757328033,-0.09328853673934939,0.126952220249176
3.873410054512417,-0.0839569418907165,-0.0286230093955994,-0.0383041274070741
3.874015748031496,-0.06719180517196649,-0.047783165645599396,0.0407315171241759
3.874621441550575,0.0238189370155335,0.045622596073150605,0.112582103061676
3.8752271350696548,-0.115092195796967,0.0144873421669006,0.0862368882179259
3.875832828588734,-0.0312665122032165,-0.0789184195518494,-0.201165455532074
3.8764385221078133,0.0477691323280335,-0.12921382970809903,-0.028724049282074098
3.877044215626893,0.0501641518592835,-0.09568355627059939,0.0790518296241759
3.8776499091459717,-0.07677188329696649,0.131843299198151,0.332923899936676
3.878255602665051,0.0214239174842835,0.263569373416901,0.0239663804054259
3.878861296184131,0.13638485498428302,0.0815478890419006,-0.0143539320945741
3.87946698970321,0.0453741127967835,-0.0118578726768494,0.215567942905426
3.880072683222289,0.0381890542030335,-0.09328853673934939,0.126952220249176
3.880678376741369,-0.000131258296966542,-0.0597582633018494,-0.0383041274070741
3.881284070260448,-0.16778262548446699,0.0192773812294006,-0.5460482680320741
3.8818897637795278,0.0717193276405335,0.000117224979400624,0.28502350931167597
3.882495457298607,0.0333990151405335,0.103103064823151,0.29699860696792596
3.8831011508176863,-0.13425235204696698,-0.00227779455184938,-0.21793059225082398
3.883706844336766,0.138779874515533,-0.08849849767684939,-0.028724049282074098
3.8843125378558447,-0.14862246923446698,0.17495365076065097,-0.0909945570945741
3.884918231374924,-0.0887469809532165,-0.0621532828330994,-0.0814144789695741
3.885523924894004,-0.0624017661094665,0.05280765466690061,-0.033514088344574096
3.886129618413083,-0.0121063559532165,0.282729529666901,-0.0430941664695741
3.886735311932162,0.0333990151405335,0.115078162479401,-0.18200529928207398
3.887341005451242,-0.0528216879844665,-0.045388146114349395,-0.0311190688133241
3.887946698970321,0.0405840737342835,-0.186694298458099,-0.11015471334457401
3.8885523924894,-0.0935370200157165,-0.112448692989349,-0.16763518209457398
3.88915808600848,0.0549541909217835,-0.12921382970809903,0.13174225931167602
3.8897637795275593,-0.146227449703217,-0.08370845861434939,0.016781321811675902
3.890369473046638,-0.146227449703217,-0.0789184195518494,0.0263613999366759
3.8909751665657177,0.19147030420303301,-0.117238732051849,0.0862368882179259
3.891580860084797,0.16512508935928302,-0.193879357051849,0.0455215561866759
3.892186553603876,-0.06479678564071649,-0.12921382970809903,-0.026329029750824098
3.892792247122956,0.0812994057655335,-0.208249474239349,-0.0119589125633241
3.893397940642035,0.162730069828033,-0.0765234000205994,-0.0909945570945741
3.894003634161115,-0.0384515707969665,-0.15555904455184902,0.0407315171241759
3.894609327680194,-0.206102937984467,-0.0669433218955994,-0.0478842055320741
3.895215021199273,-0.0600067465782165,0.0336474984169006,0.0024112046241758496
3.895820714718352,-0.103117098140717,-0.20585445470809902,-0.0454891860008241
3.8964264082374322,0.0262139565467835,0.127053260135651,-0.0119589125633241
3.897032101756511,0.00705380029678346,-0.0070678336143493795,0.0790518296241759
3.8976377952755907,-0.170177645015717,-0.222619591426849,0.0263613999366759
3.89824348879467,0.0286089760780335,-0.0669433218955994,0.165272532749176
3.898849182313749,-0.107907137203217,-0.00227779455184938,-0.0191439711570741
3.899454875832829,-0.036056551265716504,-0.0334130484580994,-0.028724049282074098
3.900060569351908,0.153149991703033,-0.0118578726768494,-0.0550692641258241
3.900666262870987,0.0453741127967835,0.00730228357315062,0.14132233743667602
3.901271956390067,-0.107907137203217,0.0384375374794006,0.107792063999176
3.901877649909146,0.00944881982803346,0.05280765466690061,-0.138894947719574
3.902483343428225,0.110039640140533,0.112683142948151,0.0862368882179259
3.9030890369473052,0.153149991703033,0.105498084354401,0.14611237649917602
3.903694730466384,0.100459562015533,-0.17471920080184902,0.0383364975929259
3.904300423985463,0.124409757328033,0.09591800622940061,-0.0454891860008241
3.904906117504543,-0.151017488765717,-0.0789184195518494,-0.06704436178207411
3.905511811023622,-0.028871492671966502,0.00730228357315062,-0.17721526021957398
3.906117504542701,-0.0216864340782165,-0.00467281408309938,0.0431265366554259
3.906723198061781,0.0741143471717835,-0.236989708614349,-0.059859303188324095
3.90732889158086,0.122014737796783,0.045622596073150605,-0.22751067037582398
3.907934585099939,-0.036056551265716504,-0.0549682242393494,1.6185092925851098e-05
3.908540278619019,-0.0312665122032165,0.141423377323151,0.0742617905616759
3.909145972138098,-0.0552167075157165,0.21327396326065098,0.13653229837417602
3.909751665657177,0.153149991703033,0.0264624398231506,0.148507396030426
3.910357359176257,0.239370694828033,0.0168823616981506,0.342503978061676
3.910963052695336,0.14596493310928302,0.0575976937294006,0.414354563999176
3.911568746214416,0.0597442299842835,-0.12921382970809903,-0.15326506490707398
3.912174439733495,0.21063046045303302,-0.0142528922080994,-0.208350514125824
3.912780133252574,0.189075284671783,0.0312524788856506,0.110187083530426
3.913385826771653,0.14596493310928302,-0.0573632437705994,-0.275411061000824
3.913991520290733,0.0956695229530335,0.0384375374794006,0.100607005405426
3.914597213809812,0.0405840737342835,-0.0717333609580994,-0.12212981100082401
3.915202907328892,0.100459562015533,-0.21543453283309902,-0.10536467428207401
3.915808600847971,-0.009711336421966539,-0.0621532828330994,0.189222728061676
3.91641429436705,0.0549541909217835,-0.131608849239349,0.20119782571792602
3.91701998788613,-0.115092195796967,0.0767578499794006,0.0790518296241759
3.917625681405209,-0.215683016109467,0.0623877327919006,0.0287564194679259
3.918231374924288,0.0812994057655335,-0.0310180289268494,-0.0383041274070741
3.918837068443368,0.186680265140533,-0.08131343908309939,0.0407315171241759
3.919442761962447,-0.0336615317344665,-0.275310021114349,0.055101634311675904
3.920048455481526,-0.13425235204696698,-0.17950923986434902,-0.035909107875824096
3.920654149000606,0.00226376123428346,-0.198669396114349,0.251493235874176
3.921259842519685,0.102854581546783,0.043227576541900604,-0.0885995375633241
3.921865536038764,-0.0456366293907165,-0.0525732047080994,0.0527066147804259
3.922471229557844,0.0214239174842835,0.0360425179481506,0.282628489780426
3.923076923076923,0.00944881982803346,0.20369388513565098,0.0143863022804259
3.923682616596002,-0.0264764731407165,0.15818851404190098,-0.10775969381332401
3.924288310115082,-0.103117098140717,0.0743628304481506,-0.026329029750824098
3.924894003634161,-0.0192914145469665,0.0743628304481506,-0.193980396938324
3.92549969715324,0.0142388588905335,-0.08610347814559939,-0.10296965475082401
3.92610539067232,-0.232448152828217,0.0120923226356506,0.0958169663429259
3.926711084191399,0.0717193276405335,-0.00946285314559938,-0.026329029750824098
3.927316777710478,0.179495206546783,-0.246569786739349,-0.0574642836570741
3.927922471229558,-0.0312665122032165,-0.0286230093955994,-0.148475025844574
3.928528164748637,-0.0911420004844665,-0.0741283804893494,0.0479165757179259
3.929133858267717,-0.0839569418907165,0.0719678109169006,0.105397044467926
3.929739551786796,-0.06719180517196649,-0.313630333614349,-0.215535572719574
3.930345245305875,-0.0432416098594665,-0.17471920080184902,-0.0191439711570741
3.930950938824954,-0.0815619223594665,0.0743628304481506,-0.028724049282074098
3.931556632344034,0.0812994057655335,-0.09568355627059939,-0.148475025844574
3.932162325863113,0.0381890542030335,0.0312524788856506,0.0455215561866759
3.932768019382193,-0.0240814536094665,0.115078162479401,0.004806224155425851
3.933373712901272,-0.00252627782821654,0.242014197635651,0.100607005405426
3.933979406420351,0.0836944252967835,-0.186694298458099,0.194012767124176
3.934585099939431,0.0118438393592835,0.0120923226356506,0.17724763040542602
3.93519079345851,0.00465878076553346,0.0025122445106506197,0.165272532749176
3.9357964869775888,-0.206102937984467,-0.0262279898643494,0.0143863022804259
3.936402180496669,-0.141437410640717,0.09591800622940061,0.004806224155425851
3.937007874015748,-0.105512117671967,-0.191484337520599,0.0455215561866759
3.937613567534827,-0.0624017661094665,-0.119633751583099,-0.059859303188324095
3.938219261053907,-0.06719180517196649,0.20848392419815098,0.0335464585304259
3.938824954572986,-0.00731631689071654,-0.0286230093955994,-0.00956389303207415
3.939430648092065,0.153149991703033,-0.186694298458099,0.019176341342925902
3.940036341611145,-0.06958682470321649,0.115078162479401,-0.0119589125633241
3.940642035130224,-0.07677188329696649,-0.0118578726768494,-0.193980396938324
3.941247728649303,0.0190288979530335,-0.153164025020599,-0.0574642836570741
3.941853422168383,0.19147030420303301,0.0025122445106506197,0.12216218118667599
3.9424591156874618,0.21063046045303302,0.0216724007606506,0.562845774936676
