Time (s),Accel X (m/s^2),Accel Y (m/s^2),Accel Z (m/s^2)
1.0,0.0590440609931946,-0.12314947185516399,-0.127045027256012
1.0006060606060605,0.025513787555694598,-0.159074764823914,-0.27553623819351203
1.0012121212121212,-0.041546759319305404,-0.226135311698914,-0.014479109287262199
1.0018181818181817,-0.144532599163055,-0.0896191984176636,0.134012101650238
1.0024242424242424,0.00395861177444456,-0.103989315605164,0.157962296962738
1.003030303030303,-0.0966322085380555,-0.07045904216766359,0.119641984462738
1.0036363636363637,-0.0511268374443054,-0.07045904216766359,-0.014479109287262199
1.0042424242424242,0.0326988461494446,-0.149494686698914,0.07653163290023779
1.0048484848484849,0.147659783649445,-0.00579351482391358,-0.0192691483497622
1.0054545454545454,-0.0319666811943054,-0.195000057792664,0.21544276571273802
1.006060606060606,-0.0247816226005554,0.058872012519836404,-0.12465000772476201
1.0066666666666666,0.11652452974319501,0.058872012519836404,-0.0288492264747622
1.0072727272727273,0.135684685993195,0.0924022859573364,0.22502284383773802
1.0078787878787878,0.111734490680695,0.034921817207336406,-0.26356114053726204
1.0084848484848485,-0.06549695463180549,0.0181566804885864,-0.237215925693512
1.009090909090909,0.157239861774445,0.0516869539260864,-0.232425886631012
1.0096969696969698,-0.19003797025680502,-0.199790096855164,-0.29230137491226205
1.0103030303030303,-0.0798670718193055,-0.154284725761414,0.0310262618064878
1.010909090909091,-0.039151739788055404,0.154672793769836,-0.177340437412262
1.0115151515151515,-0.0774720522880555,0.0708471101760864,-0.172550398349762
1.0121212121212122,0.106944451618195,0.0732421297073364,0.0932967696189878
1.0127272727272727,-0.041546759319305404,0.00139154376983642,-0.0192691483497622
1.0133333333333332,-0.0319666811943054,-0.053693905448913594,0.181912492275238
1.013939393939394,-0.0487318179130554,0.14269769611358601,0.23939296102523802
1.0145454545454544,0.0326988461494446,0.0660570711135864,0.356748918056488
1.0151515151515151,0.06862413911819451,0.231313418769836,0.0956917891502378
1.0157575757575759,-0.0463367983818054,-0.0848291593551636,0.014261125087737801
1.0163636363636364,-0.0487318179130554,-0.0944092374801636,-0.0551944413185122
1.016969696969697,-0.0942371890068055,-0.053693905448913594,0.014261125087737801
1.0175757575757576,-0.0990272280693055,-0.173444882011414,0.07892665243148779
1.0181818181818183,0.00635363130569456,-0.125544491386414,-0.17973545694351198
1.0187878787878788,0.0374888852119446,0.101982364082336,-0.036034285068512195
1.0193939393939393,0.0853892758369445,-0.00579351482391358,0.0358163008689878
1.02,-0.0726820132255555,-0.214160214042664,-0.0456143631935122
1.0206060606060605,-0.019991583538055403,-0.0153735929489136,0.09090175008773779
1.0212121212121212,-0.0774720522880555,0.0636620515823364,0.0310262618064878
1.0218181818181817,-0.0295716616630554,-0.195000057792664,0.12682704305648798
1.0224242424242425,0.049463982868194596,-0.0512988859176636,-0.153390242099762
1.023030303030303,0.0997593930244445,0.0421068758010864,0.0382113204002378
1.0236363636363637,-0.0463367983818054,-0.238110409355164,0.0334212813377378
1.0242424242424242,0.07580919771194451,-0.0249536710739136,-0.222845808506012
1.024848484848485,0.07101915864944451,0.272028750801086,0.253763078212738
1.0254545454545454,0.152449822711945,0.149882754707336,0.198677628993988
1.0260606060606061,0.257830682086945,-0.130334530448914,0.07892665243148779
1.0266666666666666,-0.16608777494430502,0.0492919343948364,0.0262362227439878
1.0272727272727273,-0.17566785306930502,0.0516869539260864,0.287293351650238
1.0278787878787878,-0.13495252103805502,-0.0273486906051636,0.189097550868988
1.0284848484848486,-0.137347540569305,0.0492919343948364,-0.0815396561622622
1.029090909090909,-0.13495252103805502,-0.130334530448914,-0.021664167881012202
1.0296969696969698,0.07820421724319451,-0.132729549980164,-0.0192691483497622
1.0303030303030303,-0.168482794475555,-0.10877935466766399,0.193887589931488
1.030909090909091,-0.0918421694755555,-0.0896191984176636,0.153172257900238
1.0315151515151515,0.11652452974319501,-0.0010034757614135802,0.236997941493988
1.032121212121212,-0.13974256010055502,0.0971923250198364,0.0645565352439878
1.0327272727272727,0.00156359224319456,0.0660570711135864,-0.100699812412262
1.0333333333333332,-0.0607069155693054,-0.00339849529266358,0.282503312587738
1.033939393939394,-0.019991583538055403,-0.228530331230164,0.157962296962738
1.0345454545454544,-0.125372442913055,-0.178234921073914,-0.141415144443512
1.0351515151515152,-0.108607306194305,0.00378656330108642,-0.141415144443512
1.0357575757575759,-0.0870521304130555,-0.0968042570114136,-0.0504044022560122
1.0363636363636364,0.011143670368194601,-0.10877935466766399,0.124432023525238
1.036969696969697,0.253040643024445,0.0804271883010864,0.198677628993988
1.0375757575757576,-0.0247816226005554,-0.11596441326141399,-0.12225498819351201
1.038181818181818,0.07101915864944451,-0.221345272636414,-0.0527994217872622
1.0387878787878788,0.049463982868194596,-0.195000057792664,0.248973039150238
1.0393939393939393,-0.0607069155693054,-0.0991992765426636,-0.0120840897560122
1.04,-0.019991583538055403,0.0852172273635864,0.517215226650238
1.0406060606060605,0.07820421724319451,0.00378656330108642,-0.000108992099762181
1.0412121212121213,0.07101915864944451,-0.053693905448913594,0.181912492275238
1.0418181818181818,0.0877842953681945,-0.0369287687301636,0.39506923055648796
1.0424242424242425,-0.0846571108818055,0.0205517000198364,-0.201290632724762
1.043030303030303,-0.19482800931930502,0.0492919343948364,-0.09830479288101221
1.0436363636363637,0.0973643734931945,-0.15188970623016398,-0.12465000772476201
1.0442424242424242,-0.182852911663055,-0.209370174980164,0.141197160243988
1.0448484848484847,-0.0152015444755554,0.056476992988586404,0.0645565352439878
1.0454545454545454,0.0542540219306946,-0.053693905448913594,0.11485194540023799
1.0460606060606061,-0.00562146635055544,-0.0800391202926636,-0.146205183506012
1.0466666666666666,-0.11339734525680499,-0.0632739835739136,-0.09111973428726221
1.0472727272727274,-0.187642950725555,-0.254875546073914,0.0406063399314878
1.0478787878787879,0.0326988461494446,-0.125544491386414,-0.26356114053726204
1.0484848484848486,-0.13974256010055502,0.00139154376983642,-0.146205183506012
1.049090909090909,-0.0559168765068054,0.015761660957336398,0.0453963789939878
1.0496969696969698,-0.0559168765068054,-0.0632739835739136,0.0382113204002378
1.0503030303030303,-0.043941778850555405,-0.247690487480164,0.222627824306488
1.0509090909090908,-0.13016248197555502,-0.07524908123016359,0.00707606649398782
1.0515151515151515,-0.151717657756805,0.0468969148635864,-0.162970320224762
1.052121212121212,0.0901793148994445,0.0876122468948364,0.054976457118987805
1.0527272727272727,-0.142137579631805,-0.0417188077926636,0.177122453212738
1.0533333333333332,-0.06549695463180549,-0.056088924980163594,0.0932967696189878
1.053939393939394,0.0183287289619446,-0.058483944511413595,0.0597664961814878
1.0545454545454545,0.06383410005569459,0.192993106269836,0.18430751180648802
1.0551515151515152,0.102154412555695,0.363039492988586,0.054976457118987805
1.055757575757576,0.0877842953681945,0.032526797676086405,-0.0264542069435122
1.0563636363636364,0.0398839047431946,-0.0153735929489136,0.153172257900238
1.056969696969697,-0.178062872600555,-0.0944092374801636,0.00947108602523782
1.0575757575757576,-0.19003797025680502,-0.178234921073914,0.08371669149398779
1.0581818181818181,-0.0798670718193055,-0.032138729667663596,0.11245692586898799
1.0587878787878788,0.0973643734931945,-0.187814999198914,-0.09830479288101221
1.0593939393939393,0.0566490414619446,-0.0249536710739136,-0.0456143631935122
1.06,-0.0990272280693055,0.0468969148635864,-0.0719595780372622
1.0606060606060606,-0.242728399944305,0.0756371492385864,0.0262362227439878
1.0612121212121213,-0.15650769681930501,0.11156244220733601,-0.12944004678726198
1.0618181818181818,0.0135386898994446,-0.11596441326141399,-0.014479109287262199
1.0624242424242425,0.217115350055695,0.11874750080108601,0.167542375087738
1.063030303030303,0.0997593930244445,0.00378656330108642,0.213047746181488
1.0636363636363635,-0.000831427288055444,0.0492919343948364,0.21544276571273802
1.0642424242424242,-0.0128065249443054,0.00857660236358642,-0.100699812412262
1.0648484848484847,-0.0295716616630554,-0.214160214042664,0.181912492275238
1.0654545454545454,-0.0870521304130555,0.0947973054885864,-0.225240828037262
1.0660606060606062,-0.000831427288055444,-0.058483944511413595,-0.0839346756935122
1.0666666666666667,-0.0583118960380554,-0.168654842948914,0.16993739461898802
1.0672727272727274,0.00156359224319456,0.178622989082336,-0.014479109287262199
1.0678787878787879,-0.0726820132255555,0.0660570711135864,-0.000108992099762181
1.0684848484848486,-0.101422247600555,-0.07285406169891359,0.397464250087738
1.069090909090909,0.06622911958694451,-0.07045904216766359,0.10287684774398799
1.0696969696969698,-0.16129773588180502,0.0421068758010864,-0.0575894608497622
1.0703030303030303,-0.142137579631805,0.101982364082336,0.6848665938377381
1.0709090909090908,-0.202013067913055,-0.029743710136413602,0.134012101650238
1.0715151515151515,-0.0702869936943055,0.164252871894836,0.124432023525238
1.072121212121212,0.011143670368194601,0.032526797676086405,0.23460292196273802
1.0727272727272728,-0.019991583538055403,-0.0369287687301636,-0.258771101474762
1.0733333333333333,-0.158902716350555,0.0109716218948364,-0.014479109287262199
1.073939393939394,-0.0774720522880555,-0.056088924980163594,0.0453963789939878
1.0745454545454545,-0.132557501506805,0.101982364082336,-0.311461531162262
1.0751515151515152,-0.18524793119430502,-0.0848291593551636,0.07653163290023779
1.0757575757575757,0.12370958833694501,-0.00339849529266358,0.241787980556488
1.0763636363636364,-0.154112677288055,0.0540819734573364,0.10766688680648799
1.076969696969697,-0.204408087444305,-0.0872241788864136,-0.0264542069435122
1.0775757575757576,0.00156359224319456,-0.218950253105164,0.0645565352439878
1.0781818181818181,-0.0487318179130554,-0.0489038663864136,0.0358163008689878
1.0787878787878789,0.06383410005569459,0.0732421297073364,-0.213265730381012
1.0793939393939394,-0.022386603069305403,0.0445018953323364,0.191492570400238
1.08,0.0829942563056945,0.0995873445510864,0.10766688680648799
1.0806060606060606,-0.0463367983818054,0.188203067207336,-0.0168741288185122
1.0812121212121213,-0.187642950725555,0.0253417390823364,0.167542375087738
1.0818181818181818,0.0566490414619446,-0.11356939373016399,0.246578019618988
1.0824242424242425,-0.0750770327568055,0.058872012519836404,0.0693465743064878
1.083030303030303,0.11652452974319501,-0.058483944511413595,0.10048182821273799
1.0836363636363635,0.0997593930244445,-0.101594296073914,0.282503312587738
1.0842424242424242,0.157239861774445,-0.0129785734176636,-0.000108992099762181
1.084848484848485,-0.0631019351005554,-0.0177686124801636,-0.000108992099762181
1.0854545454545454,-0.0607069155693054,-0.060878964042663596,0.057371476650237806
1.0860606060606062,0.027908807086944598,-0.00818853435516358,-0.0168741288185122
1.0866666666666667,-0.352899298381805,0.034921817207336406,0.08850673055648779
1.0872727272727274,-0.0463367983818054,0.0732421297073364,0.189097550868988
1.087878787878788,0.111734490680695,-0.0441138273239136,0.0645565352439878
1.0884848484848484,-0.019991583538055403,0.0253417390823364,0.023841203212737798
1.089090909090909,-0.146927618694305,-0.053693905448913594,-0.0480093827247622
1.0896969696969696,0.07580919771194451,-0.103989315605164,-0.000108992099762181
1.0903030303030303,0.00395861177444456,-0.127939510917664,0.16993739461898802
1.0909090909090908,-0.266678595256805,-0.00818853435516358,0.189097550868988
1.0915151515151515,-0.0726820132255555,0.0924022859573364,-0.004899031162262179
1.092121212121212,0.207535271930695,-0.06806402263641359,0.22981288290023802
1.0927272727272728,0.14286974458694499,0.0636620515823364,0.16993739461898802
1.0933333333333333,0.0374888852119446,-0.252480526542664,0.08611171102523779
1.093939393939394,0.06383410005569459,-0.060878964042663596,-0.0240591874122622
1.0945454545454545,0.0326988461494446,0.0468969148635864,-0.287511335849762
1.0951515151515152,-0.0367567202568054,-0.00339849529266358,0.08371669149398779
1.0957575757575757,0.06862413911819451,-0.00339849529266358,-0.0767496170997622
1.0963636363636364,-0.13974256010055502,-0.058483944511413595,0.122037003993988
1.096969696969697,-0.0774720522880555,0.0924022859573364,0.15556727743148802
1.0975757575757576,0.391951775836945,0.0445018953323364,0.07653163290023779
1.0981818181818181,0.0949693539619445,0.0780321687698364,-0.0168741288185122
1.0987878787878789,0.047068963336944596,-0.0249536710739136,0.181912492275238
1.0993939393939394,0.126104607868195,-0.0010034757614135802,-0.000108992099762181
1.1,-0.281048712444305,0.0516869539260864,0.0430013594627378
1.100606060606061,0.0183287289619446,-0.00579351482391358,0.589065812587738
1.101212121212121,0.214720330524445,-0.034533749198913596,0.320823625087738
1.101818181818182,0.0590440609931946,0.0277367586135864,0.07413661336898779
1.102424242424242,-0.108607306194305,0.00857660236358642,-0.0168741288185122
1.103030303030303,-0.0511268374443054,-0.06806402263641359,0.057371476650237806
1.103636363636364,0.0901793148994445,0.0516869539260864,-0.117464949131012
1.104242424242424,0.0374888852119446,-0.0177686124801636,0.12682704305648798
1.104848484848485,-0.0631019351005554,0.188203067207336,0.07413661336898779
1.105454545454545,0.0973643734931945,-0.0417188077926636,-0.038429304599762196
1.106060606060606,0.114129510211945,-0.226135311698914,0.22981288290023802
1.106666666666667,-0.0343617007255554,0.058872012519836404,-0.280326277256012
1.107272727272727,-0.0463367983818054,-0.144704647636414,0.10048182821273799
1.107878787878788,-0.11818738431930499,-0.029743710136413602,0.134012101650238
1.108484848484848,-0.137347540569305,-0.0417188077926636,-0.28272129678726204
1.109090909090909,-0.125372442913055,-0.034533749198913596,0.07892665243148779
1.10969696969697,-0.0990272280693055,0.00857660236358642,0.138802140712738
1.11030303030303,-0.127767462444305,0.0468969148635864,-0.0695645585060122
1.110909090909091,-0.142137579631805,-0.173444882011414,0.0717415938377378
1.111515151515152,-0.211593146038055,0.0229467195510864,0.00947108602523782
1.112121212121212,-0.0631019351005554,0.061267032051086405,-0.0288492264747622
1.112727272727273,-0.12058240385055499,-0.180629940605164,0.16514735555648802
1.113333333333333,-0.103817267131805,0.0947973054885864,0.023841203212737798
1.113939393939394,0.011143670368194601,-0.0489038663864136,0.141197160243988
1.114545454545455,0.023118768024444597,0.11874750080108601,0.153172257900238
1.115151515151515,0.07341417818069451,0.0397118562698364,0.10048182821273799
1.115757575757576,-0.13016248197555502,-0.15667974529266399,0.22502284383773802
1.116363636363636,-0.106212286663055,-0.0896191984176636,-0.004899031162262179
1.116969696969697,0.0350938656806946,-0.010583553886413601,-0.0192691483497622
1.117575757575758,-0.0966322085380555,0.104377383613586,0.023841203212737798
1.118181818181818,-0.11818738431930499,-0.053693905448913594,-0.0839346756935122
1.118787878787879,0.0326988461494446,-0.11596441326141399,0.0453963789939878
1.119393939393939,0.12370958833694501,0.0636620515823364,-0.19889561319351198
1.12,-0.041546759319305404,0.0780321687698364,0.023841203212737798
1.120606060606061,-0.101422247600555,-0.101594296073914,0.0645565352439878
1.121212121212121,-0.11579236478805499,-0.0920142179489136,0.023841203212737798
1.121818181818182,0.008748650836944559,-0.053693905448913594,0.177122453212738
1.122424242424242,0.0374888852119446,-0.0129785734176636,-0.09590977334976221
1.123030303030303,-0.0511268374443054,-0.0848291593551636,-0.036034285068512195
1.123636363636364,0.0446739438056946,0.00857660236358642,0.11485194540023799
1.124242424242424,-0.06549695463180549,0.0109716218948364,-0.00968907022476218
1.124848484848485,0.07820421724319451,0.190598086738586,0.177122453212738
1.125454545454545,-0.22596326322555502,-0.07764410076141359,0.08132167196273779
1.126060606060606,-0.18045789213180502,-0.144704647636414,0.0693465743064878
1.126666666666667,0.382371697711945,0.037316836738586406,-0.00968907022476218
1.127272727272727,0.023118768024444597,0.00378656330108642,-0.297091413974762
1.127878787878788,-0.017596564006805402,0.0924022859573364,0.213047746181488
1.128484848484848,-0.0247816226005554,0.135512637519836,-0.19889561319351198
1.129090909090909,-0.0750770327568055,0.0828222078323364,0.361538957118988
1.12969696969697,-0.211593146038055,-0.10877935466766399,0.555535539150238
1.13030303030303,-0.144532599163055,-0.056088924980163594,0.49326503133773797
1.130909090909091,-0.0535218569755554,-0.034533749198913596,0.478894914150238
1.131515151515152,-0.125372442913055,-0.0489038663864136,-0.222845808506012
1.132121212121212,-0.00801648588180544,-0.15188970623016398,0.129222062587738
1.132727272727273,0.221905389118195,0.0756371492385864,-0.14381016397476198
1.133333333333333,0.07580919771194451,0.056476992988586404,0.0190511641502378
1.133939393939394,0.0135386898994446,-0.0441138273239136,0.145987199306488
1.134545454545455,0.205140252399445,0.0468969148635864,0.00468104696273782
1.135151515151515,0.14286974458694499,0.0205517000198364,0.0310262618064878
1.135757575757576,0.253040643024445,0.20736322345733602,0.21544276571273802
1.136363636363636,-0.0942371890068055,0.226523379707336,0.148382218837738
1.136969696969697,0.027908807086944598,-0.125544491386414,-0.0432193436622622
1.137575757575758,0.195560174274445,0.034921817207336406,0.08850673055648779
1.138181818181818,-0.13495252103805502,0.173832950019836,0.00947108602523782
1.138787878787879,-0.0822620913505555,0.0445018953323364,0.0382113204002378
1.139393939393939,0.109339471149445,-0.0129785734176636,0.00707606649398782
1.1400000000000001,0.0614390805244446,-0.10877935466766399,-0.038429304599762196
1.140606060606061,0.0374888852119446,-0.0441138273239136,0.050186418056487804
1.1412121212121211,-0.151717657756805,-0.12314947185516399,-0.000108992099762181
1.141818181818182,0.205140252399445,-0.0225586515426636,0.0118661055564878
1.1424242424242421,0.14286974458694499,0.226523379707336,0.0262362227439878
1.143030303030303,-0.293023810100555,0.0109716218948364,0.308848527431488
1.143636363636364,-0.0990272280693055,-0.13751958904266398,-0.00729405069351218
1.144242424242424,0.008748650836944559,-0.00339849529266358,-0.0743545975685122
1.144848484848485,0.130894646930695,-0.0369287687301636,0.241787980556488
1.145454545454545,0.0805992367744445,-0.21655523357391399,0.22981288290023802
1.146060606060606,0.102154412555695,-0.15188970623016398,0.023841203212737798
1.146666666666667,0.00635363130569456,-0.07045904216766359,0.00707606649398782
1.147272727272727,-0.017596564006805402,-0.0129785734176636,0.17472743368148802
1.147878787878788,0.023118768024444597,0.058872012519836404,0.138802140712738
1.148484848484848,-0.132557501506805,0.032526797676086405,0.08611171102523779
1.149090909090909,-0.017596564006805402,-0.11835943279266399,-0.14860020303726199
1.1496969696969699,-0.00322644681930544,-0.13751958904266398,-0.0671695389747622
1.15030303030303,0.102154412555695,0.0780321687698364,-0.131835066318512
1.1509090909090909,0.154844842243195,-0.0465088468551636,0.270528214931488
1.151515151515152,-0.0846571108818055,0.061267032051086405,0.119641984462738
1.1521212121212119,0.0446739438056946,0.0780321687698364,-0.0240591874122622
1.152727272727273,-0.0319666811943054,0.032526797676086405,0.0621615157127378
1.1533333333333329,0.0207237484931946,-0.139914608573914,-0.00729405069351218
1.153939393939394,-0.0487318179130554,0.204968203926086,-0.20847569131851199
1.154545454545455,-0.125372442913055,0.128327578926086,-0.117464949131012
1.155151515151515,0.130894646930695,-0.14709966716766398,0.0477913985252378
1.155757575757576,0.114129510211945,0.176227969551086,-0.222845808506012
1.156363636363636,-0.0247816226005554,-0.101594296073914,0.196282609462738
1.156969696969697,-0.202013067913055,-0.058483944511413595,0.16993739461898802
1.157575757575758,-0.0678919741630555,-0.0225586515426636,-0.18452549600601198
1.158181818181818,0.135684685993195,0.030131778144836398,0.0693465743064878
1.158787878787879,-0.13016248197555502,0.12114252033233601,-0.103094831943512
1.159393939393939,0.16442492036819498,-0.0872241788864136,0.31603358602523796
1.16,0.102154412555695,-0.13751958904266398,0.5627205977439881
1.160606060606061,-0.0942371890068055,-0.058483944511413595,0.12682704305648798
1.161212121212121,0.130894646930695,0.0684520906448364,0.0597664961814878
1.161818181818182,0.18358507661819498,0.0732421297073364,-0.09830479288101221
1.162424242424242,0.102154412555695,-0.11117437419891399,0.09090175008773779
1.163030303030303,-0.13016248197555502,0.0253417390823364,-0.172550398349762
1.163636363636364,-0.108607306194305,-0.125544491386414,0.162752336025238
1.164242424242424,0.0829942563056945,-0.101594296073914,-0.033639265537262195
1.164848484848485,-0.0822620913505555,0.032526797676086405,0.10048182821273799
1.165454545454545,-0.11579236478805499,-0.139914608573914,0.22502284383773802
1.166060606060606,-0.0702869936943055,-0.0010034757614135802,-0.0839346756935122
1.166666666666667,0.06862413911819451,0.0421068758010864,0.11245692586898799
1.167272727272727,0.008748650836944559,-0.034533749198913596,0.11245692586898799
1.167878787878788,-0.259493536663055,0.0852172273635864,-0.00968907022476218
1.168484848484848,-0.06549695463180549,-0.07524908123016359,-0.12944004678726198
1.169090909090909,0.008748650836944559,-0.11356939373016399,-0.038429304599762196
1.16969696969697,-0.0631019351005554,-0.07524908123016359,0.00228602743148782
1.17030303030303,-0.28823377103805503,-0.33870122966766397,0.11245692586898799
1.170909090909091,-0.13495252103805502,-0.13751958904266398,-0.040824324131012196
1.171515151515152,0.0446739438056946,0.0780321687698364,-0.17494541788101198
1.172121212121212,-0.0678919741630555,0.0109716218948364,0.0956917891502378
1.172727272727273,-0.0942371890068055,-0.125544491386414,0.227417863368988
1.173333333333333,0.00395861177444456,-0.07764410076141359,-0.110279890537262
1.173939393939394,-0.0152015444755554,0.058872012519836404,0.08611171102523779
1.174545454545455,-0.0822620913505555,0.0445018953323364,0.122037003993988
1.175151515151515,-0.0152015444755554,-0.21655523357391399,0.052581437587737805
1.175757575757576,-0.0702869936943055,-0.163864803886414,0.122037003993988
1.176363636363636,-0.0104115054130554,-0.10877935466766399,-0.0839346756935122
1.176969696969697,0.00395861177444456,-0.07764410076141359,0.0453963789939878
1.177575757575758,0.00395861177444456,0.0947973054885864,0.00228602743148782
1.178181818181818,0.14286974458694499,-0.0920142179489136,0.0430013594627378
1.178787878787879,0.049463982868194596,-0.0201636320114136,-0.0863296952247622
1.179393939393939,-0.149322638225555,0.056476992988586404,0.0693465743064878
1.18,-0.0152015444755554,0.0804271883010864,0.0430013594627378
1.180606060606061,0.0398839047431946,0.0205517000198364,0.10527186727523799
1.181212121212121,0.0374888852119446,-0.0848291593551636,0.08611171102523779
1.181818181818182,0.154844842243195,-0.173444882011414,-0.014479109287262199
1.182424242424242,0.176400018024445,0.101982364082336,0.07653163290023779
1.183030303030303,0.104549432086945,0.164252871894836,0.208257707118988
1.183636363636364,-0.0511268374443054,-0.139914608573914,0.387884171962738
1.184242424242424,-0.00322644681930544,-0.056088924980163594,-0.13902012491226198
1.184848484848485,-0.206803106975555,0.00139154376983642,0.0717415938377378
1.185454545454545,0.011143670368194601,-0.0944092374801636,0.16514735555648802
1.186060606060606,0.047068963336944596,0.128327578926086,0.157962296962738
1.186666666666667,-0.022386603069305403,0.0660570711135864,0.186702531337738
1.187272727272727,-0.043941778850555405,0.0636620515823364,-0.00250401163101218
1.187878787878788,-0.017596564006805402,-0.106384335136414,0.16035731649398802
1.188484848484848,-0.0247816226005554,-0.11356939373016399,-0.117464949131012
1.189090909090909,0.00156359224319456,0.11874750080108601,-0.416842390537262
1.18969696969697,0.0542540219306946,-0.0177686124801636,-0.12465000772476201
1.19030303030303,-0.0846571108818055,-0.106384335136414,0.478894914150238
1.190909090909091,0.0326988461494446,-0.228530331230164,0.328008683681488
1.191515151515152,0.0901793148994445,-0.032138729667663596,0.0693465743064878
1.192121212121212,-0.0295716616630554,0.0516869539260864,0.15556727743148802
1.192727272727273,-0.233148321819305,0.164252871894836,0.25615809774398796
1.193333333333333,-0.0367567202568054,-0.07285406169891359,0.119641984462738
1.193939393939394,-0.0559168765068054,0.0660570711135864,0.222627824306488
1.194545454545455,-0.22596326322555502,0.0181566804885864,0.186702531337738
1.195151515151515,-0.132557501506805,0.00618158283233642,0.00707606649398782
1.195757575757576,0.0997593930244445,0.0924022859573364,0.129222062587738
1.196363636363636,-0.11579236478805499,-0.0249536710739136,0.172332414150238
1.196969696969697,-0.127767462444305,0.0109716218948364,0.167542375087738
1.197575757575758,0.07341417818069451,-0.0800391202926636,0.148382218837738
1.198181818181818,-0.154112677288055,-0.0177686124801636,0.361538957118988
1.198787878787879,-0.101422247600555,0.0181566804885864,0.148382218837738
1.199393939393939,-0.182852911663055,0.061267032051086405,0.0453963789939878
1.2,0.008748650836944559,-0.0369287687301636,-0.110279890537262
1.2006060606060611,0.025513787555694598,-0.15188970623016398,0.0310262618064878
1.201212121212121,-0.144532599163055,-0.0273486906051636,0.014261125087737801
1.2018181818181821,-0.0966322085380555,0.11635248126983601,-0.0312442460060122
1.202424242424242,-0.11818738431930499,0.00618158283233642,-0.0671695389747622
1.2030303030303031,-0.0487318179130554,-0.0991992765426636,0.16035731649398802
1.203636363636364,-0.151717657756805,0.109167422676086,0.15077723836898801
1.2042424242424241,0.0901793148994445,0.204968203926086,0.0310262618064878
1.204848484848485,-0.0295716616630554,-0.0417188077926636,0.09090175008773779
1.2054545454545451,-0.00562146635055544,-0.12314947185516399,0.153172257900238
1.206060606060606,-0.0894471499443055,-0.0920142179489136,0.054976457118987805
1.206666666666667,-0.019991583538055403,-0.032138729667663596,0.201072648525238
1.207272727272727,0.241065545368195,0.0636620515823364,0.17951747274398802
1.207878787878788,0.00635363130569456,-0.0920142179489136,0.0693465743064878
1.208484848484848,0.0159337094306946,0.125932559394836,0.15556727743148802
1.209090909090909,-0.0247816226005554,0.20257318439483601,0.0406063399314878
1.20969696969697,-0.06549695463180549,-0.233320370292664,0.07413661336898779
1.21030303030303,-0.0607069155693054,0.00618158283233642,-0.172550398349762
1.210909090909091,0.00395861177444456,-0.0656690031051636,0.141197160243988
1.2115151515151519,-0.108607306194305,-0.00579351482391358,-0.038429304599762196
1.212121212121212,-0.146927618694305,0.0780321687698364,-0.0168741288185122
1.2127272727272729,0.11891954927444501,0.135512637519836,-0.0671695389747622
1.213333333333333,0.0422789242744446,0.243288516426086,-0.13423008584976198
1.213939393939394,-0.178062872600555,0.0445018953323364,0.0358163008689878
1.214545454545455,0.0183287289619446,0.12353753986358601,-0.0575894608497622
1.215151515151515,0.0207237484931946,-0.168654842948914,0.0621615157127378
1.215757575757576,-0.0846571108818055,-0.221345272636414,-0.0527994217872622
1.216363636363636,0.0997593930244445,0.0421068758010864,-0.131835066318512
1.216969696969697,0.06622911958694451,0.056476992988586404,0.11245692586898799
1.217575757575758,-0.0247816226005554,0.14748773517608602,-0.14381016397476198
1.218181818181818,0.07101915864944451,0.12114252033233601,0.08611171102523779
1.218787878787879,0.07580919771194451,0.0732421297073364,0.222627824306488
1.219393939393939,-0.017596564006805402,-0.11117437419891399,-0.297091413974762
1.22,-0.137347540569305,-0.11117437419891399,0.416624406337738
1.220606060606061,0.0590440609931946,-0.101594296073914,-0.000108992099762181
1.221212121212121,0.11891954927444501,-0.221345272636414,-0.08872471475601221
1.221818181818182,0.236275506305695,0.0540819734573364,0.0717415938377378
1.222424242424242,0.06622911958694451,0.00378656330108642,0.0621615157127378
1.223030303030303,-0.137347540569305,-0.0512988859176636,0.193887589931488
1.223636363636364,-0.0918421694755555,0.030131778144836398,-0.131835066318512
1.224242424242424,0.0374888852119446,-0.00339849529266358,0.11245692586898799
1.224848484848485,-0.0846571108818055,0.0421068758010864,0.16035731649398802
1.225454545454545,-0.18524793119430502,-0.0249536710739136,0.0717415938377378
1.226060606060606,0.13328966646194498,-0.07045904216766359,0.0310262618064878
1.226666666666667,0.0997593930244445,-0.0393237882614136,0.0477913985252378
1.227272727272727,0.0997593930244445,0.0421068758010864,0.0262362227439878
1.227878787878788,-0.000831427288055444,0.0780321687698364,-0.17494541788101198
1.228484848484848,0.06862413911819451,-0.058483944511413595,-0.17494541788101198
1.229090909090909,-0.00322644681930544,-0.12314947185516399,0.0406063399314878
1.22969696969697,-0.0702869936943055,0.12353753986358601,0.0406063399314878
1.23030303030303,-0.0128065249443054,0.00139154376983642,0.119641984462738
1.230909090909091,-0.197223028850555,-0.060878964042663596,0.0430013594627378
1.231515151515152,0.0183287289619446,0.015761660957336398,0.22023280477523802
1.232121212121212,-0.11818738431930499,-0.0369287687301636,0.15556727743148802
1.232727272727273,-0.276258673381805,0.178622989082336,0.08611171102523779
1.233333333333333,0.12849962739944498,0.21215326251983602,0.08850673055648779
1.233939393939394,-0.043941778850555405,0.030131778144836398,0.378304093837738
1.234545454545455,0.0398839047431946,0.21215326251983602,0.260948136806488
1.235151515151515,0.221905389118195,0.21215326251983602,0.0166561446189878
1.235757575757576,0.0303038266181946,-0.11596441326141399,-0.0767496170997622
1.2363636363636359,0.150054803180695,-0.07285406169891359,-0.0839346756935122
1.236969696969697,0.171609978961945,0.0229467195510864,0.09090175008773779
1.237575757575758,-0.00322644681930544,0.00378656330108642,0.00707606649398782
1.238181818181818,-0.13495252103805502,-0.0968042570114136,-0.004899031162262179
1.238787878787879,-0.125372442913055,-0.199790096855164,-0.00968907022476218
1.239393939393939,0.07101915864944451,0.0181566804885864,-0.265956160068512
1.24,-0.11818738431930499,-0.130334530448914,0.07653163290023779
1.240606060606061,0.102154412555695,-0.053693905448913594,0.12682704305648798
1.241212121212121,0.257830682086945,-0.0153735929489136,0.0286312422752378
1.241818181818182,-0.00801648588180544,-0.106384335136414,0.26573817586898796
1.242424242424242,-0.202013067913055,0.0804271883010864,-0.0432193436622622
1.243030303030303,-0.158902716350555,-0.058483944511413595,0.119641984462738
1.243636363636364,-0.017596564006805402,0.137907657051086,0.0645565352439878
1.244242424242424,-0.0798670718193055,0.0828222078323364,-0.0192691483497622
1.244848484848485,0.07580919771194451,-0.0273486906051636,0.27531825399398796
1.245454545454545,0.0949693539619445,-0.12314947185516399,0.277713273525238
1.246060606060606,-0.18045789213180502,-0.103989315605164,0.0477913985252378
1.246666666666667,-0.0631019351005554,0.00857660236358642,-0.100699812412262
1.247272727272727,0.0853892758369445,-0.192605038261414,0.0597664961814878
1.247878787878788,-0.13974256010055502,-0.11117437419891399,-0.206080671787262
1.248484848484848,-0.06549695463180549,0.015761660957336398,-0.12944004678726198
1.249090909090909,-0.0942371890068055,-0.0273486906051636,-0.206080671787262
1.24969696969697,-0.16608777494430502,-0.056088924980163594,0.18430751180648802
1.25030303030303,-0.11818738431930499,-0.0010034757614135802,0.878863175868988
1.250909090909091,0.0877842953681945,-0.0153735929489136,0.203467668056488
1.251515151515152,-0.108607306194305,-0.166259823417664,0.198677628993988
1.252121212121212,-0.168482794475555,0.0516869539260864,0.124432023525238
1.252727272727273,0.181190057086945,0.0397118562698364,-0.0288492264747622
1.253333333333333,0.0925743344306945,0.0229467195510864,0.0980868086814878
1.253939393939394,-0.041546759319305404,0.0708471101760864,0.236997941493988
1.254545454545455,0.049463982868194596,-0.0177686124801636,0.052581437587737805
1.255151515151515,-0.24033338041305502,0.12114252033233601,0.10048182821273799
1.255757575757576,-0.18045789213180502,-0.0656690031051636,0.07892665243148779
1.256363636363636,0.13328966646194498,-0.154284725761414,0.196282609462738
1.256969696969697,-0.0104115054130554,0.12114252033233601,0.0932967696189878
1.257575757575758,-0.0750770327568055,0.0492919343948364,0.0262362227439878
1.258181818181818,-0.168482794475555,-0.07045904216766359,0.28489833211898796
1.258787878787879,0.06622911958694451,-0.0225586515426636,0.0645565352439878
1.259393939393939,0.0326988461494446,0.00139154376983642,0.181912492275238
1.26,0.0446739438056946,-0.11835943279266399,0.37351405477523797
1.260606060606061,0.0135386898994446,-0.060878964042663596,0.08611171102523779
1.261212121212121,-0.0678919741630555,-0.07764410076141359,0.10048182821273799
1.261818181818182,-0.16129773588180502,-0.11117437419891399,0.282503312587738
1.262424242424242,0.027908807086944598,0.013366641426086399,-0.100699812412262
1.263030303030303,-0.0104115054130554,-0.0153735929489136,0.057371476650237806
1.2636363636363641,-0.12297742338180499,0.15227777423858602,0.0286312422752378
1.264242424242424,0.0805992367744445,-0.12075445232391399,0.014261125087737801
1.264848484848485,0.0446739438056946,-0.185419979667664,-0.08872471475601221
1.265454545454545,0.114129510211945,0.0995873445510864,-0.0312442460060122
1.266060606060606,-0.0559168765068054,-0.11596441326141399,0.15556727743148802
1.266666666666667,-0.019991583538055403,-0.106384335136414,-0.0504044022560122
1.267272727272727,-0.125372442913055,0.0468969148635864,-0.0671695389747622
1.267878787878788,-0.0990272280693055,-0.0920142179489136,0.0693465743064878
1.268484848484848,-0.197223028850555,-0.11117437419891399,0.17951747274398802
1.269090909090909,-0.17566785306930502,0.0492919343948364,-0.18931553506851198
1.26969696969697,0.162029900836945,0.0756371492385864,0.0932967696189878
1.27030303030303,0.0925743344306945,-0.226135311698914,0.23939296102523802
1.270909090909091,0.025513787555694598,-0.0896191984176636,-0.12944004678726198
1.271515151515151,0.07101915864944451,0.0780321687698364,0.054976457118987805
1.272121212121212,0.0518590023994446,0.032526797676086405,0.122037003993988
1.272727272727273,0.12131456880569501,-0.0273486906051636,-0.036034285068512195
1.273333333333333,-0.108607306194305,-0.07764410076141359,-0.09830479288101221
1.273939393939394,0.0350938656806946,0.00378656330108642,0.09090175008773779
1.2745454545454549,0.209930291461945,0.128327578926086,-0.318646589756012
1.275151515151515,0.11652452974319501,-0.0153735929489136,0.129222062587738
1.2757575757575759,-0.0583118960380554,-0.0848291593551636,0.253763078212738
1.276363636363636,-0.06549695463180549,0.030131778144836398,-0.036034285068512195
1.2769696969696969,0.00635363130569456,-0.07285406169891359,0.16035731649398802
1.277575757575758,-0.0774720522880555,-0.0465088468551636,-0.00729405069351218
1.2781818181818179,-0.00801648588180544,-0.0177686124801636,0.119641984462738
1.278787878787879,-0.019991583538055403,-0.00339849529266358,0.280108293056488
1.2793939393939389,-0.0798670718193055,-0.0010034757614135802,-0.258771101474762
1.28,-0.0487318179130554,-0.0824341398239136,0.141197160243988
1.280606060606061,0.0542540219306946,-0.0512988859176636,0.119641984462738
1.281212121212121,-0.0295716616630554,0.0732421297073364,0.10048182821273799
1.281818181818182,0.0518590023994446,0.013366641426086399,0.17951747274398802
1.282424242424242,-0.0152015444755554,0.0205517000198364,-0.246796003818512
1.283030303030303,0.0303038266181946,-0.199790096855164,0.08850673055648779
1.2836363636363641,0.22909044771194498,-0.0824341398239136,-0.172550398349762
1.284242424242424,-0.019991583538055403,0.176227969551086,0.050186418056487804
1.2848484848484851,-0.182852911663055,0.0445018953323364,0.0669515547752378
1.285454545454545,-0.0942371890068055,-0.149494686698914,0.0669515547752378
1.2860606060606061,-0.12058240385055499,-0.233320370292664,0.157962296962738
1.286666666666667,-0.0463367983818054,-0.0512988859176636,-0.12944004678726198
1.2872727272727271,0.12131456880569501,0.00618158283233642,0.145987199306488
1.287878787878788,0.0973643734931945,-0.0441138273239136,0.37590907430648796
1.288484848484849,-0.0463367983818054,-0.0872241788864136,0.129222062587738
1.289090909090909,-0.0607069155693054,0.0109716218948364,0.272923234462738
1.28969696969697,-0.0750770327568055,0.056476992988586404,-0.0504044022560122
1.29030303030303,0.0135386898994446,-0.11117437419891399,0.136407121181488
1.290909090909091,0.0805992367744445,-0.0201636320114136,-0.127045027256012
1.291515151515152,0.06862413911819451,0.0780321687698364,-0.196500593662262
1.292121212121212,0.236275506305695,0.0684520906448364,0.270528214931488
1.292727272727273,0.0542540219306946,0.15227777423858602,0.0334212813377378
1.293333333333333,-0.0846571108818055,0.0468969148635864,-0.00968907022476218
1.293939393939394,-0.0247816226005554,0.14269769611358601,-0.150995222568512
1.2945454545454549,-0.13495252103805502,-0.0129785734176636,0.00228602743148782
1.295151515151515,0.07820421724319451,-0.178234921073914,0.157962296962738
1.2957575757575759,0.0925743344306945,-0.07524908123016359,-0.0599844803810122
1.296363636363636,-0.11100232572555499,-0.0656690031051636,-0.0240591874122622
1.2969696969696969,0.185980096149445,-0.00339849529266358,0.232207902431488
1.297575757575758,0.12131456880569501,-0.058483944511413595,-0.0456143631935122
1.2981818181818179,0.0973643734931945,-0.135124569511414,-0.0719595780372622
1.298787878787879,0.06622911958694451,-0.00339849529266358,-0.0192691483497622
1.2993939393939389,0.0877842953681945,-0.159074764823914,0.08132167196273779
1.3,0.0398839047431946,-0.132729549980164,0.0597664961814878
1.300606060606061,-0.25709851713180504,0.0732421297073364,-0.141415144443512
1.301212121212121,-0.043941778850555405,-0.135124569511414,0.253763078212738
1.301818181818182,-0.017596564006805402,-0.0273486906051636,0.167542375087738
1.302424242424242,-0.0822620913505555,0.034921817207336406,-0.0120840897560122
1.303030303030303,-0.106212286663055,-0.00579351482391358,0.25615809774398796
1.303636363636364,-0.23554334135055502,-0.0010034757614135802,0.24418300008773802
1.304242424242424,-0.0918421694755555,0.030131778144836398,0.11724696493148799
1.304848484848485,-0.06549695463180549,0.0421068758010864,0.136407121181488
1.305454545454545,-0.28823377103805503,0.0109716218948364,-0.00250401163101218
1.306060606060606,0.13807970552444498,-0.11356939373016399,0.236997941493988
1.306666666666667,0.0183287289619446,-0.0512988859176636,0.0980868086814878
1.307272727272727,0.12131456880569501,0.0876122468948364,0.12682704305648798
1.307878787878788,0.166819939899445,-0.221345272636414,0.15077723836898801
1.308484848484848,-0.264283575725555,-0.0920142179489136,-0.136625105381012
1.309090909090909,0.0614390805244446,0.0804271883010864,-0.277931257724762
1.30969696969697,-0.125372442913055,-0.0249536710739136,0.371119035243988
1.31030303030303,-0.0104115054130554,-0.101594296073914,0.560325578212738
1.310909090909091,-0.211593146038055,-0.218950253105164,-0.155785261631012
1.311515151515152,-0.00562146635055544,-0.125544491386414,0.014261125087737801
1.312121212121212,0.114129510211945,0.0253417390823364,-0.246796003818512
1.312727272727273,-0.0583118960380554,0.0445018953323364,0.189097550868988
1.313333333333333,0.0925743344306945,0.0900072664260864,0.17472743368148802
1.313939393939394,-0.0894471499443055,0.149882754707336,0.08611171102523779
1.314545454545455,0.0925743344306945,0.0277367586135864,0.0118661055564878
1.315151515151515,-0.0990272280693055,-0.0369287687301636,-0.153390242099762
1.315757575757576,-0.0487318179130554,-0.0824341398239136,0.296873429775238
1.316363636363636,0.07820421724319451,-0.0512988859176636,0.023841203212737798
1.316969696969697,-0.237938360881805,-0.0177686124801636,0.00468104696273782
1.317575757575758,-0.11579236478805499,-0.00579351482391358,0.21065272665023801
1.318181818181818,-0.0271766421318054,0.101982364082336,-0.040824324131012196
1.318787878787879,-0.132557501506805,-0.07285406169891359,0.10766688680648799
1.319393939393939,0.0326988461494446,-0.056088924980163594,-0.0719595780372622
1.32,0.0446739438056946,-0.159074764823914,-0.19889561319351198
1.320606060606061,0.023118768024444597,-0.180629940605164,-0.112674910068512
1.321212121212121,0.106944451618195,0.128327578926086,-0.0791446366310122
1.321818181818182,0.0614390805244446,0.12353753986358601,-0.0695645585060122
1.322424242424242,0.00156359224319456,0.104377383613586,0.00228602743148782
1.323030303030303,0.07820421724319451,-0.0656690031051636,0.248973039150238
1.323636363636364,-0.0750770327568055,-0.12075445232391399,-0.0671695389747622
1.324242424242424,0.0614390805244446,0.0540819734573364,-0.0791446366310122
1.324848484848485,0.011143670368194601,-0.12075445232391399,0.177122453212738
1.325454545454545,-0.0463367983818054,-0.0010034757614135802,0.00468104696273782
1.326060606060606,0.0518590023994446,0.0995873445510864,0.0334212813377378
1.326666666666667,0.0303038266181946,-0.185419979667664,0.00228602743148782
1.327272727272727,-0.11579236478805499,-0.103989315605164,-0.237215925693512
1.327878787878788,0.0398839047431946,0.0660570711135864,0.18430751180648802
1.328484848484848,-0.041546759319305404,0.109167422676086,-0.0120840897560122
1.329090909090909,-0.16608777494430502,-0.053693905448913594,0.11006190633773799
1.32969696969697,0.0542540219306946,-0.0465088468551636,0.18430751180648802
1.33030303030303,-0.017596564006805402,-0.07524908123016359,0.054976457118987805
1.330909090909091,0.0207237484931946,-0.11117437419891399,0.24418300008773802
1.331515151515152,0.12131456880569501,0.16185785236358602,0.00228602743148782
1.332121212121212,0.0398839047431946,-0.171049862480164,0.122037003993988
1.332727272727273,0.00395861177444456,-0.11356939373016399,0.0406063399314878
1.333333333333333,0.00635363130569456,0.0636620515823364,-0.220450788974762
1.333939393939394,-0.0295716616630554,-0.13751958904266398,0.014261125087737801
1.334545454545455,-0.163692755413055,0.0780321687698364,0.08132167196273779
1.335151515151515,-0.0942371890068055,0.135512637519836,-0.13423008584976198
1.335757575757576,0.200350213336945,-0.0417188077926636,-0.268351179599762
1.336363636363636,0.0805992367744445,-0.0800391202926636,0.172332414150238
1.336969696969697,0.171609978961945,-0.029743710136413602,0.447759660243988
1.3375757575757579,-0.0750770327568055,-0.00818853435516358,0.0693465743064878
1.338181818181818,-0.22596326322555502,0.135512637519836,0.00947108602523782
1.338787878787879,-0.144532599163055,-0.07524908123016359,-0.253981062412262
1.339393939393939,-0.00562146635055544,-0.204580135917664,-0.0192691483497622
1.34,0.13807970552444498,-0.07285406169891359,0.46452479696273796
1.340606060606061,0.0398839047431946,-0.0369287687301636,0.11485194540023799
1.341212121212121,0.049463982868194596,-0.127939510917664,0.136407121181488
1.341818181818182,-0.173272833538055,-0.12075445232391399,-0.136625105381012
1.342424242424242,-0.043941778850555405,-0.11596441326141399,-0.0767496170997622
1.343030303030303,-0.00562146635055544,-0.0177686124801636,0.07413661336898779
1.343636363636364,-0.168482794475555,-0.127939510917664,-0.0504044022560122
1.344242424242424,-0.0702869936943055,-0.0872241788864136,-0.112674910068512
1.344848484848485,0.023118768024444597,-0.0369287687301636,0.054976457118987805
1.345454545454545,-0.142137579631805,-0.0920142179489136,0.289688371181488
1.346060606060606,-0.144532599163055,0.058872012519836404,0.0406063399314878
1.3466666666666671,-0.0535218569755554,0.12353753986358601,0.119641984462738
1.347272727272727,-0.000831427288055444,-0.06806402263641359,0.25615809774398796
1.3478787878787881,0.0997593930244445,-0.0968042570114136,0.26573817586898796
1.348484848484849,0.20274523286819499,0.0708471101760864,-0.0551944413185122
1.3490909090909091,0.0207237484931946,-0.00818853435516358,-0.040824324131012196
1.34969696969697,-0.0607069155693054,-0.056088924980163594,-0.004899031162262179
1.3503030303030301,0.049463982868194596,-0.11356939373016399,-0.0288492264747622
1.350909090909091,0.157239861774445,-0.12075445232391399,-0.115069929599762
1.351515151515152,0.0829942563056945,0.0205517000198364,-0.0120840897560122
1.352121212121212,0.0422789242744446,0.0708471101760864,0.201072648525238
1.352727272727273,-0.0870521304130555,0.11635248126983601,0.191492570400238
1.353333333333333,-0.304998907756805,0.14269769611358601,0.17472743368148802
1.353939393939394,-0.11339734525680499,-0.010583553886413601,0.287293351650238
1.354545454545455,-0.0870521304130555,-0.132729549980164,0.23460292196273802
1.355151515151515,-0.0247816226005554,-0.00579351482391358,-0.158180281162262
1.355757575757576,0.00395861177444456,0.0780321687698364,-0.0168741288185122
1.356363636363636,0.00635363130569456,0.169042910957336,0.0453963789939878
1.356969696969697,0.025513787555694598,0.164252871894836,0.00228602743148782
1.3575757575757579,-0.0894471499443055,-0.0249536710739136,0.00947108602523782
1.358181818181818,0.0829942563056945,-0.053693905448913594,-0.09590977334976221
1.3587878787878789,0.147659783649445,-0.183024960136414,0.0430013594627378
1.359393939393939,0.06862413911819451,-0.060878964042663596,0.119641984462738
1.3599999999999999,0.0901793148994445,0.00378656330108642,-0.000108992099762181
1.360606060606061,-0.108607306194305,-0.257270565605164,-0.00968907022476218
1.3612121212121209,0.0374888852119446,-0.0225586515426636,0.0406063399314878
1.361818181818182,-0.0487318179130554,0.20257318439483601,0.0621615157127378
1.3624242424242419,-0.18524793119430502,0.128327578926086,-0.0647745194435122
1.363030303030303,-0.0487318179130554,-0.0129785734176636,0.0669515547752378
1.363636363636364,-0.0271766421318054,0.0397118562698364,0.0118661055564878
1.364242424242424,0.18837511568069498,0.0947973054885864,-0.119859968662262
1.364848484848485,0.166819939899445,0.032526797676086405,0.172332414150238
1.365454545454545,0.0207237484931946,0.0421068758010864,0.07413661336898779
1.366060606060606,-0.00562146635055544,-0.15667974529266399,-0.17494541788101198
1.366666666666667,-0.06549695463180549,-0.056088924980163594,-0.17494541788101198
1.367272727272727,0.0207237484931946,-0.12314947185516399,0.00468104696273782
1.3678787878787881,0.221905389118195,0.125932559394836,-0.172550398349762
1.368484848484848,0.130894646930695,0.125932559394836,0.0262362227439878
1.3690909090909091,-0.11339734525680499,0.14748773517608602,-0.0863296952247622
1.36969696969697,-0.039151739788055404,-0.0273486906051636,-0.359361921787262
1.3703030303030301,0.0350938656806946,-0.223740292167664,0.42380946493148797
1.370909090909091,0.0422789242744446,-0.168654842948914,0.320823625087738
1.371515151515152,0.0614390805244446,0.0181566804885864,-0.0264542069435122
1.372121212121212,0.00395861177444456,0.0732421297073364,0.177122453212738
1.372727272727273,0.008748650836944559,-0.0201636320114136,0.22023280477523802
1.373333333333333,-0.132557501506805,0.26963373126983603,0.052581437587737805
1.373939393939394,-0.000831427288055444,0.037316836738586406,0.00707606649398782
1.374545454545455,-0.0343617007255554,0.037316836738586406,0.141197160243988
1.375151515151515,-0.0918421694755555,0.11874750080108601,0.17472743368148802
1.375757575757576,0.185980096149445,-0.10877935466766399,-0.0504044022560122
1.376363636363636,-0.0247816226005554,-0.07764410076141359,0.0693465743064878
1.376969696969697,-0.108607306194305,0.00378656330108642,-0.0480093827247622
1.377575757575758,0.025513787555694598,-0.0177686124801636,-0.13902012491226198
1.378181818181818,-0.0774720522880555,-0.07045904216766359,0.10527186727523799
1.378787878787879,-0.00801648588180544,0.133117617988586,0.10048182821273799
1.379393939393939,0.0135386898994446,0.015761660957336398,0.09090175008773779
1.38,0.011143670368194601,-0.230925350761414,0.0406063399314878
1.380606060606061,0.0925743344306945,-0.0512988859176636,-0.038429304599762196
1.381212121212121,0.0159337094306946,0.030131778144836398,-0.0312442460060122
1.381818181818182,0.0566490414619446,-0.0465088468551636,0.00947108602523782
1.382424242424242,0.06383410005569459,-0.0968042570114136,0.208257707118988
1.383030303030303,-0.022386603069305403,0.0828222078323364,0.186702531337738
1.383636363636364,-0.125372442913055,-0.0273486906051636,0.08850673055648779
1.384242424242424,-0.168482794475555,-0.281220760917664,0.0645565352439878
1.384848484848485,0.15963488130569498,0.185808047676086,-0.0671695389747622
1.385454545454545,-0.108607306194305,-0.0632739835739136,0.07892665243148779
1.386060606060606,-0.23554334135055502,-0.199790096855164,-0.107884871006012
1.386666666666667,0.0901793148994445,-0.00579351482391358,-0.0839346756935122
1.387272727272727,-0.0966322085380555,-0.31954107341766397,0.181912492275238
1.387878787878788,0.008748650836944559,-0.0848291593551636,0.014261125087737801
1.388484848484848,-0.0870521304130555,-0.106384335136414,0.023841203212737798
1.389090909090909,-0.0463367983818054,-0.0800391202926636,0.0956917891502378
1.38969696969697,-0.0152015444755554,-0.07524908123016359,-0.0863296952247622
1.39030303030303,-0.173272833538055,-0.11356939373016399,-0.119859968662262
1.390909090909091,0.047068963336944596,0.20736322345733602,-0.040824324131012196
1.391515151515152,-0.0559168765068054,-0.0441138273239136,0.129222062587738
1.392121212121212,-0.0990272280693055,-0.168654842948914,0.22981288290023802
1.392727272727273,-0.0367567202568054,-0.0848291593551636,0.0932967696189878
1.393333333333333,-0.11339734525680499,0.14269769611358601,0.10527186727523799
1.393939393939394,-0.0152015444755554,0.125932559394836,0.0406063399314878
1.394545454545455,0.0542540219306946,0.056476992988586404,0.052581437587737805
1.395151515151515,0.0183287289619446,0.11395746173858601,0.11245692586898799
1.395757575757576,-0.0487318179130554,-0.163864803886414,0.08132167196273779
1.396363636363636,-0.0487318179130554,0.015761660957336398,-0.033639265537262195
1.396969696969697,0.07820421724319451,0.0756371492385864,0.0453963789939878
1.397575757575758,0.12849962739944498,0.14748773517608602,0.172332414150238
1.398181818181818,-0.019991583538055403,-0.0153735929489136,0.052581437587737805
1.398787878787879,-0.204408087444305,-0.0177686124801636,-0.12465000772476201
1.399393939393939,-0.11339734525680499,0.109167422676086,-0.038429304599762196
1.4,-0.0607069155693054,0.11395746173858601,0.476499894618988
1.400606060606061,0.027908807086944598,-0.0369287687301636,0.0693465743064878
1.401212121212121,-0.13495252103805502,-0.106384335136414,0.0645565352439878
1.401818181818182,-0.23075330228805502,0.190598086738586,0.11485194540023799
1.402424242424242,0.130894646930695,0.0468969148635864,0.0932967696189878
1.403030303030303,0.171609978961945,0.12114252033233601,0.253763078212738
1.403636363636364,0.027908807086944598,0.0468969148635864,0.0980868086814878
1.404242424242424,0.22909044771194498,-0.185419979667664,0.227417863368988
1.404848484848485,0.11652452974319501,-0.0369287687301636,0.162752336025238
1.405454545454545,-0.149322638225555,-0.11596441326141399,-0.08872471475601221
1.406060606060606,0.0326988461494446,-0.00579351482391358,-0.0743545975685122
1.406666666666667,-0.000831427288055444,0.032526797676086405,0.11006190633773799
1.407272727272727,-0.00322644681930544,0.00618158283233642,0.119641984462738
1.407878787878788,0.06622911958694451,-0.032138729667663596,0.143592179775238
1.4084848484848491,-0.0583118960380554,-0.0273486906051636,0.17472743368148802
1.409090909090909,-0.017596564006805402,0.058872012519836404,0.177122453212738
1.4096969696969701,-0.0798670718193055,-0.058483944511413595,0.0166561446189878
1.41030303030303,-0.197223028850555,0.101982364082336,0.0118661055564878
1.4109090909090911,-0.039151739788055404,-0.00818853435516358,0.08371669149398779
1.411515151515152,0.13807970552444498,-0.20697515544891398,0.148382218837738
1.412121212121212,0.0422789242744446,-0.0920142179489136,-0.033639265537262195
1.412727272727273,0.11891954927444501,0.00139154376983642,0.09090175008773779
1.413333333333333,0.135684685993195,-0.07285406169891359,0.26573817586898796
1.413939393939394,-0.103817267131805,-0.180629940605164,0.021446183681487797
1.414545454545455,-0.0678919741630555,0.11874750080108601,-0.038429304599762196
1.415151515151515,0.0207237484931946,0.11874750080108601,-0.0767496170997622
1.415757575757576,-0.0271766421318054,0.00618158283233642,-0.038429304599762196
1.416363636363636,-0.0631019351005554,-0.199790096855164,-0.00729405069351218
1.416969696969697,-0.017596564006805402,0.0181566804885864,-0.0743545975685122
1.417575757575758,-0.0367567202568054,0.37980462970733603,-0.287511335849762
1.418181818181818,0.114129510211945,-0.0824341398239136,0.0286312422752378
1.418787878787879,0.0901793148994445,0.0492919343948364,0.27531825399398796
1.419393939393939,0.0159337094306946,0.130722598457336,0.0382113204002378
1.42,-0.228358282756805,-0.0369287687301636,0.0406063399314878
1.4206060606060609,-0.211593146038055,-0.058483944511413595,0.0190511641502378
1.421212121212121,0.027908807086944598,-0.214160214042664,-0.0671695389747622
1.4218181818181819,-0.0894471499443055,0.0636620515823364,-0.033639265537262195
1.422424242424242,-0.137347540569305,0.0109716218948364,-0.000108992099762181
1.4230303030303029,0.0901793148994445,-0.06806402263641359,0.00228602743148782
1.423636363636364,-0.0750770327568055,0.00857660236358642,0.0453963789939878
1.4242424242424239,0.07101915864944451,0.137907657051086,-0.040824324131012196
1.424848484848485,0.255435662555695,0.037316836738586406,-0.0264542069435122
1.4254545454545449,-0.017596564006805402,0.061267032051086405,-0.18452549600601198
1.426060606060606,-0.0367567202568054,0.0109716218948364,-0.0456143631935122
1.426666666666667,0.0446739438056946,-0.192605038261414,0.15556727743148802
1.427272727272727,0.104549432086945,0.00378656330108642,-0.172550398349762
1.427878787878788,0.109339471149445,-0.0848291593551636,0.205862687587738
1.428484848484848,0.0159337094306946,0.0181566804885864,0.22023280477523802
1.429090909090909,0.023118768024444597,0.185808047676086,-0.23961094522476198
1.4296969696969701,0.0398839047431946,-0.0872241788864136,-0.186920515537262
1.43030303030303,-0.0750770327568055,-0.0153735929489136,0.318428605556488
1.4309090909090911,-0.132557501506805,-0.00818853435516358,0.167542375087738
1.431515151515152,0.0422789242744446,-0.13751958904266398,0.0118661055564878
1.4321212121212121,0.162029900836945,-0.0369287687301636,0.0382113204002378
1.432727272727273,0.0590440609931946,0.0876122468948364,-0.0480093827247622
1.4333333333333331,0.07341417818069451,0.00378656330108642,0.17951747274398802
1.433939393939394,-0.00562146635055544,0.0492919343948364,-0.08872471475601221
1.434545454545455,-0.101422247600555,0.0636620515823364,-0.00968907022476218
1.435151515151515,-0.0367567202568054,-0.0369287687301636,0.10527186727523799
1.435757575757576,-0.022386603069305403,0.11156244220733601,0.00707606649398782
1.436363636363636,-0.043941778850555405,-0.0800391202926636,0.119641984462738
1.436969696969697,-0.0750770327568055,0.015761660957336398,0.0645565352439878
1.437575757575758,0.0829942563056945,-0.0944092374801636,0.203467668056488
1.438181818181818,-0.0247816226005554,-0.0991992765426636,-0.00250401163101218
1.438787878787879,0.0374888852119446,0.0516869539260864,-0.00968907022476218
1.439393939393939,0.0183287289619446,0.00618158283233642,0.131617082118988
1.44,-0.218778204631805,0.015761660957336398,0.11485194540023799
1.440606060606061,-0.0104115054130554,-0.264455624198914,0.260948136806488
1.441212121212121,-0.0750770327568055,-0.163864803886414,-0.153390242099762
1.4418181818181819,-0.0894471499443055,0.0181566804885864,-0.14381016397476198
1.442424242424242,-0.15650769681930501,-0.00579351482391358,0.189097550868988
1.4430303030303029,-0.0870521304130555,0.0205517000198364,-0.0695645585060122
1.443636363636364,-0.022386603069305403,-0.187814999198914,0.0597664961814878
1.4442424242424239,0.13807970552444498,-0.180629940605164,-0.00729405069351218
1.444848484848485,-0.13016248197555502,-0.029743710136413602,-0.131835066318512
1.4454545454545449,-0.0271766421318054,-0.07524908123016359,0.0453963789939878
1.446060606060606,0.0614390805244446,-0.168654842948914,-0.0527994217872622
1.446666666666667,-0.0559168765068054,-0.07045904216766359,-0.0551944413185122
1.447272727272727,0.126104607868195,0.20257318439483601,-0.0647745194435122
1.447878787878788,-0.22596326322555502,0.0492919343948364,0.0669515547752378
1.448484848484848,-0.0559168765068054,0.154672793769836,0.10287684774398799
1.449090909090909,-0.192432989788055,0.0708471101760864,0.22502284383773802
1.44969696969697,-0.0870521304130555,-0.144704647636414,0.0286312422752378
1.45030303030303,0.011143670368194601,0.0708471101760864,-0.00968907022476218
1.450909090909091,-0.11100232572555499,-0.166259823417664,0.11724696493148799
1.451515151515152,0.130894646930695,-0.060878964042663596,-0.0240591874122622
1.452121212121212,0.011143670368194601,0.104377383613586,0.08371669149398779
1.452727272727273,0.023118768024444597,0.0229467195510864,0.021446183681487797
1.453333333333333,0.0949693539619445,-0.010583553886413601,0.052581437587737805
1.453939393939394,-0.022386603069305403,-0.178234921073914,0.157962296962738
1.454545454545455,0.13807970552444498,-0.12075445232391399,-0.0719595780372622
1.455151515151515,-0.142137579631805,0.190598086738586,-0.119859968662262
1.455757575757576,-0.24991345853805502,-0.07764410076141359,-0.119859968662262
1.456363636363636,-0.0487318179130554,-0.0656690031051636,0.0382113204002378
1.456969696969697,0.0446739438056946,0.176227969551086,0.16514735555648802
1.457575757575758,0.12849962739944498,-0.0441138273239136,0.021446183681487797
1.458181818181818,0.150054803180695,0.128327578926086,0.0286312422752378
1.458787878787879,0.181190057086945,-0.0920142179489136,0.5100301680564879
1.459393939393939,0.226695428180695,-0.135124569511414,0.181912492275238
1.46,0.047068963336944596,0.0421068758010864,0.22502284383773802
1.460606060606061,-0.206803106975555,-0.101594296073914,0.411834367275238
1.461212121212121,-0.043941778850555405,0.0421068758010864,0.00228602743148782
1.461818181818182,0.07580919771194451,0.0684520906448364,-0.0575894608497622
1.462424242424242,0.267410760211945,-0.0393237882614136,-0.038429304599762196
1.463030303030303,-0.149322638225555,0.0468969148635864,0.138802140712738
1.463636363636364,-0.209198126506805,0.0876122468948364,0.129222062587738
1.464242424242424,0.0159337094306946,0.013366641426086399,0.08132167196273779
1.464848484848485,0.023118768024444597,-0.228530331230164,0.30645350790023795
1.465454545454545,-0.132557501506805,-0.154284725761414,0.153172257900238
1.466060606060606,0.0422789242744446,-0.00339849529266358,-0.036034285068512195
1.466666666666667,0.025513787555694598,-0.149494686698914,0.0693465743064878
1.467272727272727,-0.13495252103805502,0.0540819734573364,-0.036034285068512195
1.467878787878788,0.0901793148994445,0.00618158283233642,0.16035731649398802
1.468484848484849,-0.041546759319305404,0.061267032051086405,0.08371669149398779
1.469090909090909,0.0829942563056945,-0.0010034757614135802,-0.000108992099762181
1.46969696969697,-0.000831427288055444,-0.11835943279266399,-0.000108992099762181
1.47030303030303,-0.0128065249443054,0.00857660236358642,-0.112674910068512
1.470909090909091,0.0422789242744446,-0.07764410076141359,-0.0575894608497622
1.471515151515151,0.0614390805244446,0.037316836738586406,-0.062379499912262194
1.472121212121212,0.047068963336944596,0.197783145332336,0.0310262618064878
1.472727272727273,-0.11339734525680499,0.0876122468948364,0.0693465743064878
1.473333333333333,0.0853892758369445,-0.15667974529266399,0.213047746181488
1.473939393939394,-0.11818738431930499,0.0229467195510864,0.0693465743064878
1.474545454545455,-0.137347540569305,0.013366641426086399,0.07653163290023779
1.475151515151515,-0.0343617007255554,-0.0824341398239136,0.0286312422752378
1.475757575757576,-0.218778204631805,-0.19739507732391398,-0.186920515537262
1.476363636363636,-0.0702869936943055,-0.12075445232391399,-0.268351179599762
1.476969696969697,-0.022386603069305403,-0.149494686698914,-0.13423008584976198
1.477575757575758,0.023118768024444597,-0.0512988859176636,-0.191710554599762
1.478181818181818,-0.0535218569755554,-0.0512988859176636,0.141197160243988
1.478787878787879,-0.0798670718193055,-0.163864803886414,0.287293351650238
1.479393939393939,-0.00322644681930544,-0.0177686124801636,-0.18452549600601198
1.48,-0.0319666811943054,0.0636620515823364,0.10527186727523799
1.480606060606061,-0.0942371890068055,-0.0369287687301636,0.10048182821273799
1.481212121212121,-0.017596564006805402,-0.0249536710739136,-0.0671695389747622
1.481818181818182,0.0446739438056946,-0.0800391202926636,0.08132167196273779
1.482424242424242,0.104549432086945,-0.029743710136413602,0.0477913985252378
1.483030303030303,0.0303038266181946,0.11874750080108601,0.136407121181488
1.4836363636363639,-0.146927618694305,-0.0393237882614136,0.21065272665023801
1.484242424242424,0.0303038266181946,-0.0010034757614135802,0.16035731649398802
1.4848484848484849,0.047068963336944596,-0.106384335136414,0.28489833211898796
1.485454545454545,-0.0894471499443055,-0.125544491386414,0.11245692586898799
1.486060606060606,0.0135386898994446,-0.305170956230164,-0.12944004678726198
1.486666666666667,0.0326988461494446,-0.0920142179489136,-0.12465000772476201
1.487272727272727,-0.0918421694755555,-0.12314947185516399,0.00468104696273782
1.487878787878788,-0.233148321819305,-0.056088924980163594,-0.230030867099762
1.488484848484848,0.0326988461494446,0.0229467195510864,-0.251586042881012
1.489090909090909,0.023118768024444597,0.0253417390823364,-0.0551944413185122
1.48969696969697,-0.187642950725555,0.11395746173858601,-0.400077253818512
1.49030303030303,0.0590440609931946,-0.195000057792664,-0.00968907022476218
1.490909090909091,-0.15650769681930501,-0.199790096855164,0.299268449306488
1.4915151515151521,-0.146927618694305,0.030131778144836398,-0.12225498819351201
1.492121212121212,-0.00322644681930544,0.00857660236358642,-0.0504044022560122
1.4927272727272731,-0.0104115054130554,-0.0920142179489136,0.11245692586898799
1.493333333333333,-0.13016248197555502,0.204968203926086,0.193887589931488
1.4939393939393941,0.0542540219306946,0.106772403144836,-0.19889561319351198
1.494545454545455,0.109339471149445,-0.0201636320114136,-0.0791446366310122
1.4951515151515151,-0.12058240385055499,0.00857660236358642,0.122037003993988
1.495757575757576,-0.295418829631805,-0.056088924980163594,-0.004899031162262179
1.4963636363636361,-0.0990272280693055,0.056476992988586404,-0.0647745194435122
1.496969696969697,0.12131456880569501,0.0253417390823364,-0.09111973428726221
1.497575757575758,-0.0726820132255555,0.159462832832336,0.153172257900238
1.498181818181818,0.0350938656806946,-0.0010034757614135802,0.157962296962738
1.498787878787879,0.176400018024445,-0.11835943279266399,0.10766688680648799
1.499393939393939,0.162029900836945,0.0971923250198364,0.050186418056487804
1.5,-0.0319666811943054,-0.00339849529266358,0.10287684774398799
1.500606060606061,-0.197223028850555,0.0540819734573364,-0.036034285068512195
1.501212121212121,0.18837511568069498,-0.0201636320114136,-0.13423008584976198
1.501818181818182,-0.039151739788055404,0.0636620515823364,-0.0671695389747622
1.502424242424242,-0.06549695463180549,0.0756371492385864,0.0334212813377378
1.503030303030303,-0.106212286663055,0.0468969148635864,0.054976457118987805
1.5036363636363639,-0.0104115054130554,0.0445018953323364,0.0980868086814878
1.504242424242424,-0.041546759319305404,-0.0920142179489136,0.09090175008773779
1.5048484848484849,-0.0894471499443055,-0.11356939373016399,-0.186920515537262
1.505454545454545,0.00156359224319456,0.0732421297073364,-0.301881453037262
1.5060606060606059,0.0183287289619446,-0.0201636320114136,-0.021664167881012202
1.506666666666667,0.0183287289619446,0.0421068758010864,0.12682704305648798
1.5072727272727269,-0.0726820132255555,0.034921817207336406,-0.00729405069351218
1.507878787878788,0.0925743344306945,-0.0512988859176636,-0.0168741288185122
1.508484848484849,-0.041546759319305404,0.0421068758010864,-0.033639265537262195
1.509090909090909,-0.202013067913055,-0.11117437419891399,-0.000108992099762181
1.50969696969697,0.011143670368194601,0.00378656330108642,-0.0791446366310122
1.51030303030303,0.11652452974319501,0.00378656330108642,0.0190511641502378
1.510909090909091,0.008748650836944559,0.037316836738586406,-0.0120840897560122
1.511515151515151,0.0135386898994446,0.0708471101760864,-0.00250401163101218
1.512121212121212,-0.137347540569305,0.00378656330108642,-0.0647745194435122
1.5127272727272731,0.0566490414619446,-0.07524908123016359,0.09090175008773779
1.513333333333333,-0.041546759319305404,0.14748773517608602,0.00707606649398782
1.5139393939393941,-0.15650769681930501,0.145092715644836,-0.13902012491226198
1.514545454545455,0.0590440609931946,-0.0441138273239136,0.0382113204002378
1.5151515151515151,0.12849962739944498,-0.053693905448913594,-0.038429304599762196
1.515757575757576,-0.043941778850555405,-0.127939510917664,0.0693465743064878
1.5163636363636361,0.0614390805244446,-0.0417188077926636,-0.26356114053726204
1.516969696969697,0.047068963336944596,-0.032138729667663596,0.0430013594627378
1.517575757575758,0.0446739438056946,0.0732421297073364,0.050186418056487804
1.518181818181818,0.047068963336944596,0.204968203926086,-0.12465000772476201
1.518787878787879,0.023118768024444597,0.0468969148635864,0.00707606649398782
1.519393939393939,-0.269073614788055,0.030131778144836398,-0.309066511631012
1.52,-0.0128065249443054,0.0995873445510864,0.572300675868988
1.520606060606061,0.0183287289619446,-0.0393237882614136,0.651336320400238
1.521212121212121,0.0207237484931946,-0.125544491386414,0.054976457118987805
1.521818181818182,-0.0607069155693054,0.0708471101760864,-0.09351475381851221
1.522424242424242,-0.223568243694305,-0.0632739835739136,-0.038429304599762196
1.523030303030303,0.11652452974319501,-0.0848291593551636,0.0932967696189878
1.523636363636364,-0.000831427288055444,0.0995873445510864,-0.09830479288101221
1.524242424242424,0.0997593930244445,-0.0153735929489136,0.157962296962738
1.524848484848485,-0.0247816226005554,-0.175839901542664,0.0406063399314878
1.5254545454545458,-0.0535218569755554,-0.0201636320114136,-0.09590977334976221
1.526060606060606,-0.103817267131805,0.0995873445510864,-0.09111973428726221
1.5266666666666668,0.06622911958694451,-0.12075445232391399,0.00707606649398782
1.527272727272727,0.0542540219306946,0.188203067207336,0.153172257900238
1.5278787878787878,-0.0487318179130554,0.034921817207336406,0.32321864461898797
1.528484848484848,-0.0367567202568054,-0.07524908123016359,0.22023280477523802
1.5290909090909088,-0.273863653850555,0.013366641426086399,-0.0120840897560122
1.52969696969697,-0.237938360881805,-0.0010034757614135802,0.0430013594627378
1.53030303030303,-0.0463367983818054,-0.0489038663864136,0.11724696493148799
1.530909090909091,-0.0295716616630554,-0.0512988859176636,0.057371476650237806
1.531515151515151,-0.017596564006805402,-0.0968042570114136,0.0645565352439878
1.532121212121212,0.0901793148994445,0.0708471101760864,-0.00968907022476218
1.5327272727272732,-0.0511268374443054,0.185808047676086,0.07413661336898779
1.533333333333333,0.0566490414619446,-0.0848291593551636,-0.0168741288185122
1.5339393939393942,0.14286974458694499,0.00857660236358642,-0.0456143631935122
1.534545454545455,0.0590440609931946,-0.214160214042664,0.08611171102523779
1.5351515151515152,-0.019991583538055403,-0.312356014823914,-0.115069929599762
1.535757575757576,-0.125372442913055,-0.0872241788864136,0.22502284383773802
1.5363636363636362,-0.0535218569755554,0.169042910957336,-0.0288492264747622
1.536969696969697,0.0350938656806946,0.0516869539260864,-0.0599844803810122
1.537575757575758,-0.127767462444305,-0.0153735929489136,0.0286312422752378
1.538181818181818,-0.16608777494430502,-0.00339849529266358,-0.12225498819351201
1.538787878787879,0.0997593930244445,-0.058483944511413595,0.08371669149398779
1.539393939393939,0.0326988461494446,-0.010583553886413601,0.193887589931488
1.54,-0.173272833538055,-0.07764410076141359,0.0621615157127378
1.540606060606061,0.171609978961945,-0.056088924980163594,0.08371669149398779
1.541212121212121,0.12131456880569501,-0.0800391202926636,0.22502284383773802
1.541818181818182,-0.106212286663055,-0.130334530448914,0.27531825399398796
1.542424242424242,0.00156359224319456,0.015761660957336398,0.0932967696189878
1.543030303030303,0.20274523286819499,-0.0944092374801636,0.0693465743064878
1.543636363636364,0.145264764118195,-0.178234921073914,0.145987199306488
1.544242424242424,0.15963488130569498,0.11635248126983601,-0.062379499912262194
1.544848484848485,0.150054803180695,-0.11835943279266399,0.23460292196273802
1.545454545454545,0.06622911958694451,-0.15188970623016398,0.11245692586898799
1.546060606060606,-0.00322644681930544,-0.0944092374801636,-0.0647745194435122
1.5466666666666669,0.07820421724319451,-0.235715389823914,0.11245692586898799
1.547272727272727,0.023118768024444597,0.0421068758010864,-0.141415144443512
1.5478787878787879,-0.11100232572555499,-0.056088924980163594,0.0190511641502378
1.548484848484848,-0.132557501506805,0.204968203926086,0.608225968837738
1.5490909090909089,-0.333739142131805,-0.175839901542664,0.0286312422752378
1.54969696969697,0.0853892758369445,-0.223740292167664,-0.49348301553726204
1.5503030303030298,0.109339471149445,-0.0225586515426636,0.0310262618064878
1.550909090909091,-0.168482794475555,0.15706781330108602,0.0477913985252378
1.551515151515152,-0.0152015444755554,0.0708471101760864,-0.0767496170997622
1.552121212121212,0.0518590023994446,-0.0273486906051636,0.0190511641502378
1.552727272727273,-0.0487318179130554,0.20736322345733602,0.11006190633773799
1.553333333333333,0.145264764118195,-0.235715389823914,0.00228602743148782
1.553939393939394,-0.0894471499443055,-0.173444882011414,0.134012101650238
1.5545454545454551,-0.12297742338180499,0.0205517000198364,-0.0695645585060122
1.555151515151515,-0.192432989788055,0.058872012519836404,-0.08872471475601221
1.5557575757575761,-0.15650769681930501,0.11156244220733601,-0.0743545975685122
1.556363636363636,0.13807970552444498,-0.0153735929489136,0.311243546962738
1.5569696969696971,0.14286974458694499,-0.0417188077926636,0.241787980556488
1.557575757575758,0.0829942563056945,0.00139154376983642,0.119641984462738
1.5581818181818181,0.12370958833694501,-0.0273486906051636,0.134012101650238
1.558787878787879,-0.178062872600555,-0.053693905448913594,-0.0575894608497622
1.559393939393939,-0.0511268374443054,-0.0920142179489136,-0.0264542069435122
1.56,0.12370958833694501,0.013366641426086399,0.07653163290023779
1.560606060606061,-0.16608777494430502,-0.0369287687301636,0.232207902431488
1.561212121212121,0.008748650836944559,0.030131778144836398,-0.00968907022476218
1.561818181818182,-0.019991583538055403,0.109167422676086,0.131617082118988
1.562424242424242,0.011143670368194601,-0.159074764823914,0.0477913985252378
1.563030303030303,-0.0559168765068054,-0.0896191984176636,-0.0192691483497622
1.563636363636364,-0.17087781400680502,0.0684520906448364,0.138802140712738
1.564242424242424,-0.21638318510055501,-0.060878964042663596,0.143592179775238
1.564848484848485,-0.0942371890068055,0.00378656330108642,-0.186920515537262
1.565454545454545,-0.0631019351005554,0.0492919343948364,-0.14381016397476198
1.566060606060606,0.14286974458694499,-0.0489038663864136,0.052581437587737805
1.5666666666666669,0.286570916461945,-0.0848291593551636,0.0430013594627378
1.567272727272727,0.14286974458694499,-0.0153735929489136,0.27531825399398796
1.5678787878787879,-0.06549695463180549,0.0852172273635864,0.217837785243988
1.568484848484848,-0.0487318179130554,0.0971923250198364,-0.170155378818512
1.5690909090909089,0.0303038266181946,-0.0369287687301636,-0.378522078037262
1.56969696969697,-0.000831427288055444,-0.060878964042663596,-0.12465000772476201
1.5703030303030299,0.19316515474319498,-0.144704647636414,0.10766688680648799
1.570909090909091,-0.041546759319305404,-0.245295467948914,0.0980868086814878
1.571515151515152,-0.15650769681930501,0.0397118562698364,-0.040824324131012196
1.572121212121212,0.025513787555694598,0.286398867988586,-0.141415144443512
1.572727272727273,0.0829942563056945,0.0828222078323364,0.0166561446189878
1.573333333333333,0.0207237484931946,-0.0489038663864136,0.145987199306488
1.573939393939394,-0.13016248197555502,-0.0968042570114136,0.124432023525238
1.5745454545454551,0.14286974458694499,-0.0177686124801636,-0.00729405069351218
1.575151515151515,-0.00801648588180544,-0.230925350761414,0.11724696493148799
1.5757575757575761,-0.0535218569755554,-0.175839901542664,-0.136625105381012
1.576363636363636,0.135684685993195,0.037316836738586406,-0.146205183506012
1.5769696969696971,0.109339471149445,0.0492919343948364,0.301663468837738
1.577575757575758,-0.0319666811943054,0.15227777423858602,0.08850673055648779
1.5781818181818181,-0.0271766421318054,0.058872012519836404,-0.004899031162262179
1.578787878787879,0.24346056489944498,-0.0800391202926636,0.38548915243148796
1.5793939393939391,0.07101915864944451,-0.144704647636414,-0.215660749912262
1.58,-0.187642950725555,-0.032138729667663596,-0.201290632724762
1.580606060606061,0.308126092243195,0.0397118562698364,0.181912492275238
1.581212121212121,0.221905389118195,-0.0656690031051636,0.0693465743064878
1.581818181818182,-0.0966322085380555,-0.130334530448914,0.07653163290023779
1.582424242424242,0.07341417818069451,-0.178234921073914,-0.0527994217872622
1.583030303030303,0.140474725055695,-0.07524908123016359,-0.0647745194435122
1.583636363636364,0.106944451618195,-0.0896191984176636,0.203467668056488
1.584242424242424,0.00635363130569456,-0.11356939373016399,0.15556727743148802
1.584848484848485,-0.0607069155693054,-0.233320370292664,-0.062379499912262194
1.585454545454545,0.0398839047431946,-0.242900448417664,0.131617082118988
1.586060606060606,-0.15650769681930501,-0.168654842948914,0.145987199306488
1.586666666666667,0.102154412555695,-0.0944092374801636,-0.0767496170997622
1.587272727272727,0.257830682086945,0.0828222078323364,-0.038429304599762196
1.587878787878788,-0.13016248197555502,-0.163864803886414,0.15077723836898801
1.588484848484848,-0.13016248197555502,-0.154284725761414,-0.021664167881012202
1.5890909090909089,-0.0271766421318054,0.0900072664260864,-0.277931257724762
1.58969696969697,0.14286974458694499,-0.144704647636414,-0.00250401163101218
1.5903030303030299,0.0614390805244446,0.0253417390823364,0.16035731649398802
1.590909090909091,-0.132557501506805,0.0684520906448364,0.07413661336898779
1.591515151515152,0.0326988461494446,-0.07285406169891359,0.134012101650238
1.592121212121212,0.07820421724319451,0.15706781330108602,0.0453963789939878
1.592727272727273,0.171609978961945,0.11395746173858601,-0.040824324131012196
1.593333333333333,0.0183287289619446,-0.0369287687301636,-0.0264542069435122
1.593939393939394,-0.0487318179130554,-0.0249536710739136,-0.160575300693512
1.5945454545454552,0.12131456880569501,-0.15667974529266399,0.021446183681487797
1.595151515151515,0.00635363130569456,-0.0465088468551636,0.07892665243148779
1.5957575757575762,0.027908807086944598,-0.0201636320114136,-0.24440098428726198
1.596363636363636,-0.0678919741630555,-0.127939510917664,-0.13902012491226198
1.5969696969696972,0.16921495943069498,-0.0656690031051636,-0.232425886631012
1.597575757575758,0.111734490680695,-0.0273486906051636,0.16993739461898802
1.5981818181818181,0.150054803180695,-0.12075445232391399,0.15556727743148802
1.598787878787879,-0.0128065249443054,-0.034533749198913596,-0.172550398349762
1.5993939393939391,-0.0966322085380555,0.12114252033233601,0.141197160243988
1.6,0.0518590023994446,-0.12075445232391399,0.198677628993988
1.600606060606061,-0.16129773588180502,0.0540819734573364,-0.14381016397476198
1.601212121212121,-0.142137579631805,0.16185785236358602,0.0430013594627378
1.601818181818182,0.049463982868194596,-0.058483944511413595,0.232207902431488
1.602424242424242,0.0207237484931946,-0.034533749198913596,0.014261125087737801
1.603030303030303,0.0973643734931945,-0.0944092374801636,0.023841203212737798
1.603636363636364,-0.0104115054130554,-0.0968042570114136,0.10766688680648799
1.604242424242424,-0.142137579631805,0.015761660957336398,-0.0480093827247622
1.604848484848485,0.0949693539619445,-0.0944092374801636,-0.0671695389747622
1.605454545454545,-0.0319666811943054,0.015761660957336398,0.148382218837738
1.606060606060606,0.0973643734931945,-0.058483944511413595,0.023841203212737798
1.606666666666667,0.19316515474319498,-0.0991992765426636,0.11724696493148799
1.607272727272727,-0.041546759319305404,-0.0273486906051636,0.23460292196273802
1.607878787878788,0.0135386898994446,-0.00818853435516358,0.268133195400238
1.6084848484848489,0.0566490414619446,0.013366641426086399,-0.261166121006012
1.609090909090909,0.152449822711945,-0.060878964042663596,-0.206080671787262
1.6096969696969698,0.236275506305695,0.056476992988586404,0.397464250087738
1.61030303030303,-0.0128065249443054,0.21694330158233602,0.282503312587738
1.6109090909090908,-0.0607069155693054,0.0516869539260864,0.0669515547752378
1.611515151515152,0.0614390805244446,-0.00579351482391358,-0.12465000772476201
1.6121212121212118,-0.12297742338180499,0.159462832832336,-0.117464949131012
1.612727272727273,-0.019991583538055403,0.204968203926086,0.0477913985252378
1.6133333333333328,-0.022386603069305403,-0.0632739835739136,0.23939296102523802
1.613939393939394,0.150054803180695,-0.0632739835739136,-0.0719595780372622
1.614545454545455,-0.0343617007255554,0.00378656330108642,-0.040824324131012196
1.615151515151515,-0.0702869936943055,-0.199790096855164,-0.0839346756935122
1.615757575757576,0.07820421724319451,-0.0153735929489136,-0.0551944413185122
1.616363636363636,-0.101422247600555,0.15227777423858602,0.0597664961814878
1.616969696969697,0.0901793148994445,0.0468969148635864,0.10527186727523799
1.617575757575758,0.140474725055695,0.0876122468948364,0.368724015712738
1.6181818181818182,-0.06549695463180549,-0.0872241788864136,0.021446183681487797
1.618787878787879,-0.0152015444755554,-0.00339849529266358,0.15556727743148802
1.6193939393939392,0.0303038266181946,0.00857660236358642,0.280108293056488
1.62,-0.0798670718193055,0.034921817207336406,0.0262362227439878
1.620606060606061,-0.0607069155693054,0.0516869539260864,0.050186418056487804
1.621212121212121,-0.187642950725555,0.0397118562698364,-0.270746199131012
1.621818181818182,-0.043941778850555405,0.034921817207336406,-0.119859968662262
1.622424242424242,-0.00562146635055544,-0.10877935466766399,0.18430751180648802
1.623030303030303,-0.0104115054130554,0.034921817207336406,-0.0671695389747622
1.623636363636364,-0.0319666811943054,-0.12075445232391399,-0.0551944413185122
1.624242424242424,-0.0942371890068055,-0.0489038663864136,-0.119859968662262
1.624848484848485,0.07580919771194451,-0.14230962810516398,-0.09830479288101221
1.625454545454545,0.0159337094306946,-0.12314947185516399,-0.0695645585060122
1.626060606060606,-0.0702869936943055,-0.0010034757614135802,-0.033639265537262195
1.626666666666667,-0.0463367983818054,-0.0273486906051636,-0.0120840897560122
1.627272727272727,-0.106212286663055,0.0468969148635864,0.25615809774398796
1.627878787878788,-0.12297742338180499,0.130722598457336,0.153172257900238
1.6284848484848489,-0.137347540569305,-0.185419979667664,0.0453963789939878
1.629090909090909,0.114129510211945,-0.297985897636414,0.0286312422752378
1.6296969696969699,0.195560174274445,-0.0273486906051636,-0.107884871006012
1.63030303030303,-0.0990272280693055,-0.132729549980164,0.189097550868988
1.6309090909090909,-0.0822620913505555,-0.0177686124801636,0.15556727743148802
1.631515151515151,-0.00322644681930544,-0.0393237882614136,0.186702531337738
1.6321212121212119,0.104549432086945,0.14748773517608602,-0.0839346756935122
1.632727272727273,0.0183287289619446,0.0660570711135864,-0.0695645585060122
1.6333333333333329,-0.17566785306930502,-0.175839901542664,0.16993739461898802
1.633939393939394,-0.0990272280693055,0.00139154376983642,-0.00250401163101218
1.634545454545455,-0.00322644681930544,0.0181566804885864,0.0358163008689878
1.635151515151515,0.011143670368194601,-0.060878964042663596,-0.0695645585060122
1.635757575757576,0.0590440609931946,-0.053693905448913594,0.12682704305648798
1.636363636363636,0.00395861177444456,0.0756371492385864,0.186702531337738
1.636969696969697,-0.0750770327568055,0.135512637519836,0.021446183681487797
1.6375757575757581,0.104549432086945,0.0492919343948364,0.07653163290023779
1.638181818181818,-0.163692755413055,0.00618158283233642,0.196282609462738
1.6387878787878791,-0.11818738431930499,-0.144704647636414,0.361538957118988
1.639393939393939,0.20274523286819499,-0.0872241788864136,0.0453963789939878
1.6400000000000001,0.12131456880569501,-0.228530331230164,0.44296962118148797
1.640606060606061,-0.0152015444755554,-0.14230962810516398,0.0956917891502378
1.6412121212121211,-0.0583118960380554,-0.053693905448913594,-0.256376081943512
1.641818181818182,0.0949693539619445,-0.07045904216766359,-0.09590977334976221
1.6424242424242421,0.162029900836945,0.21215326251983602,-0.036034285068512195
1.643030303030303,-0.00801648588180544,0.200178164863586,0.124432023525238
1.643636363636364,0.0614390805244446,-0.12075445232391399,0.08371669149398779
1.644242424242424,0.12849962739944498,-0.0489038663864136,-0.033639265537262195
1.644848484848485,0.0949693539619445,0.164252871894836,-0.201290632724762
1.645454545454546,-0.0774720522880555,0.0205517000198364,-0.0312442460060122
1.646060606060606,-0.11100232572555499,-0.0872241788864136,-0.0671695389747622
1.646666666666667,-0.12297742338180499,-0.149494686698914,0.193887589931488
1.647272727272727,-0.19482800931930502,-0.0273486906051636,0.0382113204002378
1.647878787878788,-0.19003797025680502,-0.010583553886413601,0.189097550868988
1.648484848484848,0.025513787555694598,0.11395746173858601,0.198677628993988
1.649090909090909,0.12849962739944498,-0.242900448417664,0.16993739461898802
1.6496969696969699,-0.0319666811943054,-0.250085507011414,0.0430013594627378
1.65030303030303,-0.0247816226005554,-0.175839901542664,-0.107884871006012
1.6509090909090909,0.07341417818069451,-0.135124569511414,0.050186418056487804
1.651515151515151,-0.017596564006805402,-0.0489038663864136,-0.036034285068512195
1.6521212121212119,0.181190057086945,-0.15188970623016398,0.136407121181488
1.652727272727273,0.162029900836945,-0.0920142179489136,-0.0240591874122622
1.6533333333333329,0.11652452974319501,-0.12075445232391399,-0.105489851474762
1.653939393939394,0.135684685993195,0.032526797676086405,0.0717415938377378
1.654545454545455,-0.106212286663055,-0.11835943279266399,-0.0504044022560122
1.655151515151515,0.15963488130569498,-0.0273486906051636,-0.158180281162262
1.655757575757576,0.207535271930695,0.013366641426086399,0.153172257900238
1.656363636363636,0.027908807086944598,-0.00339849529266358,0.0980868086814878
1.656969696969697,-0.0319666811943054,0.0660570711135864,-0.0456143631935122
1.6575757575757581,-0.0271766421318054,-0.0369287687301636,0.052581437587737805
1.658181818181818,0.0374888852119446,-0.0369287687301636,0.24418300008773802
1.6587878787878791,-0.039151739788055404,-0.0249536710739136,0.28489833211898796
1.659393939393939,-0.0894471499443055,-0.0201636320114136,0.0669515547752378
1.6600000000000001,0.0590440609931946,0.0900072664260864,-0.0432193436622622
1.660606060606061,-0.0870521304130555,0.0804271883010864,0.08850673055648779
1.6612121212121211,-0.11339734525680499,-0.07285406169891359,-0.036034285068512195
1.661818181818182,-0.0152015444755554,-0.0129785734176636,-0.0551944413185122
1.6624242424242421,0.0901793148994445,0.140302676582336,0.023841203212737798
1.663030303030303,0.0183287289619446,-0.010583553886413601,0.138802140712738
1.663636363636364,-0.149322638225555,-0.101594296073914,0.16514735555648802
1.664242424242424,-0.0942371890068055,0.030131778144836398,0.172332414150238
1.664848484848485,0.152449822711945,-0.058483944511413595,0.131617082118988
1.665454545454545,-0.0846571108818055,0.00139154376983642,0.29447841024398796
1.666060606060606,-0.151717657756805,-0.14230962810516398,-0.0527994217872622
1.666666666666667,0.008748650836944559,0.159462832832336,-0.0432193436622622
1.667272727272727,-0.019991583538055403,0.0780321687698364,0.356748918056488
1.667878787878788,0.171609978961945,-0.31954107341766397,-0.004899031162262179
1.668484848484848,-0.039151739788055404,-0.230925350761414,0.5675106368064881
1.669090909090909,-0.192432989788055,-0.12075445232391399,0.0430013594627378
1.66969696969697,0.0949693539619445,0.0109716218948364,0.35435389852523796
1.67030303030303,-0.022386603069305403,-0.07764410076141359,0.672891496181488
1.670909090909091,-0.0918421694755555,-0.07524908123016359,0.17472743368148802
1.6715151515151518,-0.213988165569305,0.034921817207336406,0.17472743368148802
1.672121212121212,-0.0846571108818055,0.0277367586135864,0.11724696493148799
1.6727272727272728,0.07820421724319451,-0.058483944511413595,0.268133195400238
1.673333333333333,-0.06549695463180549,-0.06806402263641359,0.0190511641502378
1.6739393939393938,-0.0822620913505555,-0.0968042570114136,0.119641984462738
1.674545454545455,0.0183287289619446,0.0828222078323364,0.0430013594627378
1.6751515151515148,0.0422789242744446,0.030131778144836398,-0.0264542069435122
1.675757575757576,-0.16608777494430502,-0.0465088468551636,0.301663468837738
1.6763636363636358,0.07820421724319451,-0.199790096855164,0.246578019618988
1.676969696969697,0.162029900836945,0.0852172273635864,-0.110279890537262
1.6775757575757582,-0.0319666811943054,0.0971923250198364,0.00707606649398782
1.678181818181818,-0.163692755413055,0.0660570711135864,-0.153390242099762
1.6787878787878792,0.0518590023994446,0.00857660236358642,-0.00968907022476218
1.679393939393939,0.157239861774445,-0.15667974529266399,0.25615809774398796
1.6800000000000002,0.06383410005569459,-0.238110409355164,-0.14860020303726199
1.680606060606061,0.00156359224319456,-0.341096249198914,-0.112674910068512
1.6812121212121212,0.13328966646194498,-0.056088924980163594,0.0406063399314878
1.681818181818182,0.0446739438056946,-0.11356939373016399,0.162752336025238
1.6824242424242422,-0.13495252103805502,0.0852172273635864,0.08132167196273779
1.683030303030303,-0.127767462444305,0.15227777423858602,-0.0767496170997622
1.683636363636364,-0.0511268374443054,-0.0417188077926636,0.131617082118988
1.684242424242424,-0.0128065249443054,0.0109716218948364,0.21544276571273802
1.684848484848485,-0.0511268374443054,0.0660570711135864,0.227417863368988
1.685454545454545,-0.137347540569305,-0.0273486906051636,0.00468104696273782
1.686060606060606,0.0446739438056946,0.034921817207336406,-0.115069929599762
1.686666666666667,0.0326988461494446,-0.029743710136413602,0.124432023525238
1.687272727272727,-0.0702869936943055,0.0397118562698364,-0.0264542069435122
1.687878787878788,-0.11100232572555499,0.0277367586135864,-0.105489851474762
1.688484848484848,-0.0271766421318054,0.00139154376983642,0.050186418056487804
1.689090909090909,0.154844842243195,0.109167422676086,0.10287684774398799
1.68969696969697,-0.0607069155693054,-0.032138729667663596,0.122037003993988
1.69030303030303,0.176400018024445,-0.221345272636414,0.0980868086814878
1.690909090909091,0.07101915864944451,-0.0249536710739136,0.0932967696189878
1.6915151515151519,0.0949693539619445,-0.0800391202926636,0.153172257900238
1.692121212121212,0.15963488130569498,-0.0417188077926636,0.054976457118987805
1.6927272727272729,-0.0295716616630554,-0.101594296073914,-0.014479109287262199
1.693333333333333,-0.151717657756805,0.0516869539260864,0.11245692586898799
1.6939393939393939,-0.137347540569305,-0.0177686124801636,0.10527186727523799
1.694545454545455,0.377581658649445,-0.0153735929489136,-0.014479109287262199
1.6951515151515149,0.00156359224319456,0.0181566804885864,-0.00250401163101218
1.695757575757576,-0.0607069155693054,-0.19739507732391398,-0.021664167881012202
1.6963636363636359,0.11891954927444501,0.15227777423858602,-0.390497175693512
1.696969696969697,-0.127767462444305,-0.00818853435516358,-0.12944004678726198
1.697575757575758,-0.187642950725555,0.0109716218948364,0.213047746181488
1.698181818181818,0.0566490414619446,0.0445018953323364,0.15077723836898801
1.698787878787879,0.14286974458694499,-0.135124569511414,0.054976457118987805
1.699393939393939,-0.144532599163055,-0.13751958904266398,0.593855851650238
1.7,0.0159337094306946,-0.0465088468551636,0.6010409102439881
1.7006060606060611,0.0901793148994445,-0.166259823417664,0.201072648525238
1.701212121212121,0.245855584430695,-0.11835943279266399,0.11245692586898799
1.7018181818181821,-0.06549695463180549,0.0756371492385864,0.00468104696273782
1.702424242424242,0.0518590023994446,-0.13751958904266398,0.167542375087738
1.7030303030303031,0.257830682086945,0.130722598457336,-0.0120840897560122
1.703636363636364,0.00635363130569456,0.27921380939483603,-0.172550398349762
1.7042424242424241,0.0973643734931945,0.12353753986358601,-0.0863296952247622
1.704848484848485,0.0446739438056946,-0.06806402263641359,0.0358163008689878
1.7054545454545451,0.047068963336944596,-0.209370174980164,-0.0575894608497622
1.706060606060606,-0.158902716350555,-0.204580135917664,-0.141415144443512
1.706666666666667,-0.13495252103805502,-0.103989315605164,-0.299486433506012
1.707272727272727,-0.16129773588180502,0.0995873445510864,0.0118661055564878
1.707878787878788,-0.324159064006805,-0.0848291593551636,0.138802140712738
1.708484848484848,0.0590440609931946,0.0397118562698364,0.198677628993988
1.709090909090909,0.0949693539619445,0.034921817207336406,0.31603358602523796
1.70969696969697,0.00156359224319456,-0.19739507732391398,0.09090175008773779
1.71030303030303,-0.0942371890068055,-0.10877935466766399,-0.105489851474762
1.710909090909091,-0.0535218569755554,-0.032138729667663596,0.208257707118988
1.7115151515151519,0.008748650836944559,0.0852172273635864,0.332798722743988
1.712121212121212,0.0350938656806946,0.11874750080108601,0.22502284383773802
1.7127272727272729,0.0997593930244445,0.0277367586135864,-0.119859968662262
1.713333333333333,-0.0559168765068054,-0.195000057792664,-0.0432193436622622
1.7139393939393939,-0.0535218569755554,-0.0656690031051636,0.0286312422752378
1.714545454545455,0.06862413911819451,-0.0848291593551636,-0.0432193436622622
1.7151515151515149,-0.0271766421318054,-0.240505428886414,0.0956917891502378
1.715757575757576,-0.00801648588180544,-0.032138729667663596,-0.131835066318512
1.7163636363636359,0.0949693539619445,0.015761660957336398,-0.136625105381012
1.716969696969697,-0.0870521304130555,-0.11835943279266399,0.09090175008773779
1.717575757575758,-0.0894471499443055,-0.264455624198914,0.153172257900238
1.718181818181818,-0.019991583538055403,-0.053693905448913594,-0.0120840897560122
1.718787878787879,-0.0559168765068054,0.109167422676086,0.07653163290023779
1.719393939393939,-0.043941778850555405,0.0109716218948364,0.0956917891502378
1.72,-0.12058240385055499,0.0205517000198364,0.17472743368148802
1.7206060606060611,-0.0678919741630555,0.0828222078323364,0.143592179775238
1.721212121212121,-0.000831427288055444,-0.161469784355164,0.0621615157127378
1.7218181818181821,0.0326988461494446,0.104377383613586,0.014261125087737801
1.722424242424242,-0.000831427288055444,0.149882754707336,0.205862687587738
1.7230303030303031,-0.0702869936943055,-0.175839901542664,0.16514735555648802
1.723636363636364,-0.0128065249443054,-0.010583553886413601,0.054976457118987805
1.7242424242424241,-0.039151739788055404,-0.07524908123016359,-0.0264542069435122
1.724848484848485,-0.0678919741630555,-0.178234921073914,0.07653163290023779
1.7254545454545451,0.0326988461494446,-0.07764410076141359,-0.0839346756935122
1.726060606060606,0.0326988461494446,0.0804271883010864,0.0334212813377378
1.726666666666667,0.109339471149445,-0.0010034757614135802,0.191492570400238
1.727272727272727,0.023118768024444597,-0.125544491386414,0.16514735555648802
1.727878787878788,-0.132557501506805,-0.07524908123016359,0.10287684774398799
1.728484848484849,-0.00322644681930544,-0.07764410076141359,-0.23961094522476198
1.729090909090909,0.114129510211945,-0.0991992765426636,-0.378522078037262
1.72969696969697,0.104549432086945,-0.0512988859176636,-0.23961094522476198
1.73030303030303,0.0303038266181946,-0.0512988859176636,0.17472743368148802
1.730909090909091,-0.11579236478805499,-0.0944092374801636,-0.038429304599762196
1.731515151515152,-0.00322644681930544,-0.0417188077926636,0.10527186727523799
1.732121212121212,0.19316515474319498,0.137907657051086,-0.014479109287262199
1.732727272727273,-0.204408087444305,-0.029743710136413602,-0.215660749912262
1.733333333333333,-0.0798670718193055,-0.053693905448913594,0.0669515547752378
1.733939393939394,-0.00322644681930544,0.030131778144836398,0.21544276571273802
1.7345454545454548,-0.259493536663055,-0.15188970623016398,0.16035731649398802
1.735151515151515,-0.12058240385055499,-0.264455624198914,-0.119859968662262
1.735757575757576,-0.0894471499443055,-0.130334530448914,-0.18931553506851198
1.7363636363636359,0.07101915864944451,0.037316836738586406,-0.131835066318512
1.736969696969697,-0.163692755413055,-0.00818853435516358,-0.12465000772476201
1.737575757575758,-0.106212286663055,0.013366641426086399,-0.09590977334976221
1.738181818181818,0.0590440609931946,-0.0465088468551636,-0.0719595780372622
1.738787878787879,0.0614390805244446,-0.221345272636414,0.08132167196273779
1.739393939393939,0.047068963336944596,-0.0800391202926636,0.145987199306488
1.74,-0.0918421694755555,0.015761660957336398,0.136407121181488
1.7406060606060612,0.0829942563056945,-0.106384335136414,0.052581437587737805
1.741212121212121,0.0446739438056946,-0.13751958904266398,0.11006190633773799
1.7418181818181822,-0.125372442913055,-0.0249536710739136,-0.141415144443512
1.742424242424242,-0.0894471499443055,0.192993106269836,-0.162970320224762
1.7430303030303032,0.0135386898994446,0.169042910957336,0.07653163290023779
1.743636363636364,0.171609978961945,-0.00579351482391358,0.129222062587738
1.7442424242424241,0.06383410005569459,0.032526797676086405,0.339983781337738
1.744848484848485,-0.0678919741630555,0.0516869539260864,0.186702531337738
1.7454545454545451,0.111734490680695,-0.175839901542664,-0.146205183506012
1.746060606060606,-0.022386603069305403,-0.214160214042664,-0.213265730381012
1.746666666666667,0.0829942563056945,-0.029743710136413602,-0.20368565225601198
1.747272727272727,-0.0918421694755555,0.128327578926086,-0.00729405069351218
1.747878787878788,0.025513787555694598,-0.0129785734176636,0.186702531337738
1.748484848484849,0.07101915864944451,-0.15667974529266399,0.0980868086814878
1.749090909090909,-0.12058240385055499,0.032526797676086405,-0.033639265537262195
1.74969696969697,-0.0463367983818054,0.00857660236358642,0.0334212813377378
1.75030303030303,0.14286974458694499,0.034921817207336406,0.124432023525238
1.750909090909091,-0.00801648588180544,-0.254875546073914,0.17472743368148802
1.751515151515151,0.0374888852119446,-0.0800391202926636,0.0621615157127378
1.752121212121212,0.221905389118195,0.164252871894836,0.0477913985252378
1.752727272727273,-0.0870521304130555,-0.07045904216766359,0.181912492275238
1.753333333333333,0.157239861774445,0.257658633613586,0.057371476650237806
1.753939393939394,0.049463982868194596,0.104377383613586,0.119641984462738
1.7545454545454549,-0.0487318179130554,0.0492919343948364,-0.100699812412262
1.755151515151515,-0.039151739788055404,-0.130334530448914,0.11485194540023799
1.7557575757575759,-0.237938360881805,-0.0417188077926636,0.09090175008773779
1.756363636363636,-0.192432989788055,0.192993106269836,0.08611171102523779
1.7569696969696968,0.0374888852119446,0.0109716218948364,0.00947108602523782
1.757575757575758,0.18837511568069498,0.0109716218948364,0.07413661336898779
1.7581818181818178,-0.0726820132255555,0.0900072664260864,0.052581437587737805
1.758787878787879,-0.168482794475555,0.0253417390823364,-0.0575894608497622
1.7593939393939388,0.0901793148994445,-0.214160214042664,0.10766688680648799
1.76,0.07341417818069451,-0.221345272636414,0.591460832118988
1.760606060606061,-0.041546759319305404,-0.0920142179489136,0.23939296102523802
1.761212121212121,0.0614390805244446,-0.372231503105164,-0.040824324131012196
1.761818181818182,-0.0774720522880555,0.056476992988586404,0.196282609462738
1.762424242424242,0.0374888852119446,0.192993106269836,-0.08872471475601221
1.763030303030303,0.00635363130569456,-0.240505428886414,0.26334315633773797
1.7636363636363641,0.0398839047431946,0.0205517000198364,-0.09830479288101221
1.764242424242424,-0.017596564006805402,-0.0656690031051636,-0.09111973428726221
1.764848484848485,-0.206803106975555,-0.0848291593551636,-0.038429304599762196
1.7654545454545452,0.06862413911819451,-0.11596441326141399,-0.17494541788101198
1.766060606060606,0.166819939899445,0.109167422676086,-0.196500593662262
1.766666666666667,0.147659783649445,0.0900072664260864,-0.103094831943512
1.767272727272727,-0.101422247600555,-0.07764410076141359,0.0597664961814878
1.767878787878788,-0.137347540569305,-0.235715389823914,0.17472743368148802
1.768484848484848,-0.103817267131805,-0.139914608573914,-0.12944004678726198
1.769090909090909,-0.11339734525680499,0.14748773517608602,-0.251586042881012
1.76969696969697,-0.0607069155693054,-0.0465088468551636,0.0453963789939878
1.77030303030303,0.109339471149445,-0.12075445232391399,0.172332414150238
1.770909090909091,0.0829942563056945,-0.127939510917664,0.0190511641502378
1.771515151515151,-0.173272833538055,0.00378656330108642,-0.036034285068512195
1.772121212121212,-0.0894471499443055,0.037316836738586406,0.07892665243148779
1.772727272727273,0.00156359224319456,0.137907657051086,0.0597664961814878
1.773333333333333,-0.0942371890068055,0.0804271883010864,-0.004899031162262179
1.773939393939394,-0.0295716616630554,-0.0273486906051636,-0.0192691483497622
1.7745454545454549,0.0853892758369445,0.137907657051086,0.30645350790023795
1.775151515151515,0.20274523286819499,0.00378656330108642,-0.0504044022560122
1.7757575757575759,0.008748650836944559,-0.130334530448914,-0.0671695389747622
1.776363636363636,-0.144532599163055,-0.175839901542664,0.0477913985252378
1.7769696969696969,-0.0511268374443054,0.0804271883010864,-0.0432193436622622
1.777575757575758,-0.16129773588180502,0.14269769611358601,0.11006190633773799
1.7781818181818179,-0.0295716616630554,0.11156244220733601,0.153172257900238
1.778787878787879,0.0398839047431946,0.0995873445510864,0.054976457118987805
1.7793939393939389,0.152449822711945,-0.00579351482391358,0.0430013594627378
1.78,0.17879503755569498,0.0900072664260864,0.119641984462738
1.780606060606061,-0.0319666811943054,0.013366641426086399,-0.0695645585060122
1.781212121212121,-0.00322644681930544,-0.0369287687301636,-0.00968907022476218
1.781818181818182,0.00156359224319456,0.0876122468948364,0.25615809774398796
1.782424242424242,0.0877842953681945,-0.178234921073914,0.052581437587737805
1.783030303030303,0.0614390805244446,0.0253417390823364,-0.227635847568512
1.7836363636363641,-0.0104115054130554,0.034921817207336406,-0.004899031162262179
1.784242424242424,-0.16608777494430502,-0.0512988859176636,0.00228602743148782
1.7848484848484851,-0.149322638225555,0.0421068758010864,-0.103094831943512
1.785454545454545,-0.0583118960380554,-0.101594296073914,0.014261125087737801
1.7860606060606061,-0.441515021038055,0.0971923250198364,-0.08872471475601221
1.786666666666667,-0.043941778850555405,0.133117617988586,0.0717415938377378
1.7872727272727271,0.11891954927444501,0.130722598457336,0.0980868086814878
1.787878787878788,-0.187642950725555,0.224128360176086,0.057371476650237806
1.7884848484848481,-0.0367567202568054,0.0828222078323364,-0.0288492264747622
1.789090909090909,-0.0463367983818054,-0.209370174980164,0.198677628993988
1.78969696969697,-0.0511268374443054,-0.11356939373016399,0.0118661055564878
1.79030303030303,-0.11579236478805499,0.140302676582336,0.533980363368988
1.790909090909091,-0.00322644681930544,0.058872012519836404,0.371119035243988
1.791515151515152,-0.0343617007255554,-0.12314947185516399,-0.251586042881012
1.792121212121212,0.0326988461494446,0.192993106269836,0.138802140712738
1.792727272727273,-0.0247816226005554,0.101982364082336,0.054976457118987805
1.793333333333333,-0.041546759319305404,0.0397118562698364,0.07653163290023779
1.793939393939394,-0.132557501506805,0.0828222078323364,0.00468104696273782
1.7945454545454549,-0.197223028850555,0.0636620515823364,0.189097550868988
1.795151515151515,-0.108607306194305,-0.060878964042663596,0.0621615157127378
1.7957575757575759,-0.0894471499443055,0.034921817207336406,0.282503312587738
1.796363636363636,0.126104607868195,0.0516869539260864,0.191492570400238
1.7969696969696969,0.0159337094306946,-0.139914608573914,0.00707606649398782
1.797575757575758,-0.11339734525680499,-0.21655523357391399,0.07413661336898779
1.7981818181818179,-0.039151739788055404,-0.10877935466766399,-0.265956160068512
1.798787878787879,-0.12297742338180499,-0.07764410076141359,-0.0575894608497622
1.7993939393939389,-0.06549695463180549,-0.132729549980164,0.162752336025238
1.8,-0.13016248197555502,0.0971923250198364,0.014261125087737801
1.800606060606061,0.027908807086944598,-0.058483944511413595,0.00228602743148782
1.801212121212121,0.205140252399445,-0.132729549980164,0.270528214931488
1.801818181818182,0.06383410005569459,0.00857660236358642,0.17951747274398802
1.802424242424242,0.0925743344306945,-0.010583553886413601,-0.00729405069351218
1.803030303030303,-0.144532599163055,0.11395746173858601,0.0382113204002378
1.8036363636363641,-0.0631019351005554,-0.00339849529266358,-0.172550398349762
1.804242424242424,0.209930291461945,-0.149494686698914,-0.0527994217872622
1.8048484848484851,-0.0678919741630555,0.0181566804885864,0.0118661055564878
1.805454545454545,-0.151717657756805,-0.060878964042663596,0.014261125087737801
1.8060606060606061,-0.0367567202568054,-0.0417188077926636,-0.000108992099762181
1.806666666666667,-0.192432989788055,0.0708471101760864,-0.158180281162262
1.8072727272727271,0.185980096149445,0.037316836738586406,-0.0504044022560122
1.807878787878788,0.212325310993195,0.0947973054885864,0.181912492275238
1.8084848484848481,-0.043941778850555405,0.0684520906448364,0.00228602743148782
1.809090909090909,0.07341417818069451,-0.0944092374801636,0.07653163290023779
1.80969696969697,0.221905389118195,-0.0872241788864136,0.18430751180648802
1.81030303030303,-0.0367567202568054,-0.0369287687301636,0.136407121181488
1.810909090909091,-0.0774720522880555,0.00857660236358642,-0.0551944413185122
1.811515151515152,-0.041546759319305404,0.226523379707336,0.162752336025238
1.812121212121212,-0.13495252103805502,0.14748773517608602,0.0693465743064878
1.812727272727273,0.06622911958694451,-0.00339849529266358,-0.206080671787262
1.813333333333333,-0.0487318179130554,-0.07285406169891359,-0.0312442460060122
1.813939393939394,-0.0607069155693054,0.0205517000198364,0.0310262618064878
1.814545454545455,0.0973643734931945,0.061267032051086405,0.205862687587738
1.815151515151515,0.195560174274445,-0.103989315605164,0.10048182821273799
1.815757575757576,0.0590440609931946,-0.060878964042663596,0.10287684774398799
1.816363636363636,0.0135386898994446,0.034921817207336406,0.143592179775238
1.816969696969697,0.0446739438056946,-0.0177686124801636,0.193887589931488
1.8175757575757578,0.114129510211945,-0.058483944511413595,-0.00729405069351218
1.818181818181818,-0.0128065249443054,-0.032138729667663596,0.10766688680648799
1.8187878787878788,-0.233148321819305,0.0492919343948364,0.0406063399314878
1.819393939393939,0.0997593930244445,0.030131778144836398,-0.160575300693512
1.8199999999999998,0.07820421724319451,0.0780321687698364,0.438179582118988
1.820606060606061,-0.101422247600555,0.15706781330108602,0.797432511806488
1.8212121212121208,0.0207237484931946,0.00139154376983642,0.191492570400238
1.821818181818182,0.0398839047431946,0.0852172273635864,-0.0504044022560122
1.8224242424242418,-0.108607306194305,0.11874750080108601,0.11485194540023799
1.823030303030303,-0.19003797025680502,0.0971923250198364,-0.0551944413185122
1.8236363636363642,-0.15650769681930501,-0.159074764823914,0.208257707118988
1.824242424242424,-0.144532599163055,0.058872012519836404,-0.0504044022560122
1.8248484848484852,0.00395861177444456,0.214548282051086,-0.0695645585060122
1.825454545454545,-0.108607306194305,-0.0249536710739136,-0.0575894608497622
1.8260606060606062,-0.041546759319305404,-0.0872241788864136,-0.0312442460060122
1.826666666666667,0.0829942563056945,-0.13751958904266398,0.246578019618988
1.8272727272727272,-0.151717657756805,-0.0129785734176636,-0.119859968662262
1.827878787878788,-0.0702869936943055,-0.10877935466766399,0.217837785243988
1.8284848484848482,-0.0678919741630555,-0.0656690031051636,0.145987199306488
1.829090909090909,-0.0942371890068055,-0.15188970623016398,0.0693465743064878
1.82969696969697,-0.041546759319305404,-0.0489038663864136,-0.23961094522476198
1.83030303030303,0.0374888852119446,-0.0273486906051636,-0.378522078037262
1.830909090909091,0.0303038266181946,-0.07524908123016359,0.17951747274398802
1.831515151515152,-0.21638318510055501,0.192993106269836,0.0382113204002378
1.832121212121212,0.190770135211945,0.0229467195510864,-0.115069929599762
1.832727272727273,0.176400018024445,0.0253417390823364,0.021446183681487797
1.833333333333333,-0.13495252103805502,-0.056088924980163594,0.07413661336898779
1.833939393939394,0.0542540219306946,0.135512637519836,0.08611171102523779
1.834545454545455,0.0183287289619446,0.0852172273635864,0.09090175008773779
1.835151515151515,-0.127767462444305,-0.0968042570114136,0.222627824306488
1.835757575757576,-0.0966322085380555,-0.00818853435516358,0.07653163290023779
1.836363636363636,-0.0607069155693054,-0.11117437419891399,0.0980868086814878
1.836969696969697,-0.041546759319305404,0.173832950019836,-0.110279890537262
1.8375757575757579,0.049463982868194596,0.056476992988586404,-0.0839346756935122
1.838181818181818,-0.21638318510055501,0.0684520906448364,0.124432023525238
1.8387878787878789,-0.218778204631805,0.173832950019836,0.00707606649398782
1.839393939393939,0.0901793148994445,0.056476992988586404,0.119641984462738
1.8399999999999999,-0.223568243694305,-0.053693905448913594,-0.0264542069435122
1.840606060606061,-0.18045789213180502,-0.034533749198913596,-0.0264542069435122
1.8412121212121209,0.0518590023994446,-0.0824341398239136,-0.0480093827247622
1.841818181818182,0.157239861774445,0.0397118562698364,0.0334212813377378
1.8424242424242419,0.027908807086944598,0.137907657051086,0.134012101650238
1.843030303030303,-0.158902716350555,-0.21176519451141398,0.021446183681487797
1.843636363636364,0.12849962739944498,-0.0201636320114136,-0.0240591874122622
1.844242424242424,0.0805992367744445,-0.00339849529266358,0.08371669149398779
1.844848484848485,0.07820421724319451,-0.0465088468551636,-0.0240591874122622
1.845454545454545,-0.0678919741630555,-0.07524908123016359,0.0286312422752378
1.846060606060606,-0.13974256010055502,-0.135124569511414,0.162752336025238
1.8466666666666671,0.06862413911819451,0.281608828926086,-0.110279890537262
1.847272727272727,0.0877842953681945,0.0181566804885864,-0.0168741288185122
1.8478787878787881,-0.13016248197555502,-0.0991992765426636,0.07892665243148779
1.848484848484849,-0.0152015444755554,0.0971923250198364,0.0597664961814878
1.8490909090909091,0.0422789242744446,0.135512637519836,0.342378800868988
1.84969696969697,0.0374888852119446,0.0277367586135864,-0.0192691483497622
1.8503030303030301,-0.142137579631805,-0.0249536710739136,0.498055070400238
1.850909090909091,0.298546014118195,0.0804271883010864,0.38309413290023797
1.851515151515152,0.114129510211945,-0.13751958904266398,-0.23961094522476198
1.852121212121212,-0.283443731975555,-0.13751958904266398,-0.00729405069351218
1.852727272727273,-0.0487318179130554,-0.00339849529266358,-0.0743545975685122
1.853333333333333,-0.0702869936943055,0.109167422676086,0.050186418056487804
1.853939393939394,0.18358507661819498,0.0684520906448364,0.07892665243148779
1.854545454545454,0.147659783649445,0.0732421297073364,0.023841203212737798
1.855151515151515,0.0925743344306945,-0.0656690031051636,-0.062379499912262194
1.855757575757576,-0.0535218569755554,-0.163864803886414,0.10048182821273799
1.856363636363636,-0.13495252103805502,-0.12075445232391399,-0.0551944413185122
1.856969696969697,0.102154412555695,0.11156244220733601,0.050186418056487804
1.8575757575757579,0.145264764118195,0.159462832832336,0.136407121181488
1.858181818181818,-0.0104115054130554,0.034921817207336406,-0.0120840897560122
1.8587878787878789,-0.0870521304130555,0.185808047676086,-0.014479109287262199
1.859393939393939,0.06862413911819451,0.128327578926086,-0.103094831943512
1.8599999999999999,-0.0846571108818055,0.032526797676086405,0.0358163008689878
1.860606060606061,-0.206803106975555,-0.161469784355164,-0.136625105381012
1.8612121212121209,-0.043941778850555405,0.015761660957336398,-0.131835066318512
1.861818181818182,0.19795519380569498,0.030131778144836398,0.191492570400238
1.8624242424242419,0.114129510211945,-0.0824341398239136,0.0166561446189878
1.863030303030303,-0.0798670718193055,-0.242900448417664,0.021446183681487797
1.863636363636364,0.267410760211945,-0.132729549980164,0.08611171102523779
1.864242424242424,0.0997593930244445,0.030131778144836398,-0.0480093827247622
1.864848484848485,-0.11579236478805499,0.0181566804885864,-0.0456143631935122
1.865454545454545,0.0422789242744446,-0.199790096855164,0.134012101650238
1.866060606060606,-0.017596564006805402,-0.0848291593551636,-0.215660749912262
1.8666666666666671,0.126104607868195,0.0636620515823364,-0.0695645585060122
1.867272727272727,0.0159337094306946,-0.149494686698914,0.260948136806488
1.8678787878787881,-0.0918421694755555,0.264843692207336,-0.040824324131012196
1.868484848484849,-0.202013067913055,0.106772403144836,0.153172257900238
1.8690909090909091,-0.209198126506805,-0.0896191984176636,0.021446183681487797
1.86969696969697,-0.0343617007255554,-0.0800391202926636,-0.0575894608497622
1.8703030303030301,-0.0487318179130554,0.015761660957336398,0.356748918056488
1.870909090909091,-0.0822620913505555,0.0397118562698364,0.208257707118988
1.8715151515151511,-0.0702869936943055,-0.171049862480164,0.050186418056487804
1.872121212121212,0.195560174274445,0.0636620515823364,-0.08872471475601221
1.872727272727273,0.162029900836945,0.176227969551086,-0.062379499912262194
1.873333333333333,0.047068963336944596,-0.0465088468551636,-0.160575300693512
1.873939393939394,0.205140252399445,0.20736322345733602,-0.004899031162262179
1.874545454545455,-0.154112677288055,0.101982364082336,0.148382218837738
1.875151515151515,-0.0583118960380554,-0.0968042570114136,0.09090175008773779
1.875757575757576,-0.00801648588180544,-0.132729549980164,0.21065272665023801
1.876363636363636,-0.154112677288055,-0.0632739835739136,-0.107884871006012
1.876969696969697,-0.0104115054130554,0.0947973054885864,-0.162970320224762
1.877575757575758,0.0159337094306946,0.11156244220733601,0.021446183681487797
1.878181818181818,-0.0128065249443054,-0.0249536710739136,0.11006190633773799
1.878787878787879,-0.0966322085380555,0.0229467195510864,-0.107884871006012
1.879393939393939,0.130894646930695,0.192993106269836,-0.0168741288185122
1.88,0.135684685993195,-0.159074764823914,0.39506923055648796
1.8806060606060608,0.154844842243195,0.037316836738586406,0.466919816493988
1.881212121212121,-0.0631019351005554,0.037316836738586406,0.0669515547752378
1.8818181818181818,-0.290628790569305,-0.168654842948914,0.201072648525238
1.882424242424242,-0.12297742338180499,-0.0369287687301636,0.08850673055648779
1.883030303030303,-0.24991345853805502,-0.0465088468551636,0.10766688680648799
1.883636363636364,-0.17566785306930502,0.037316836738586406,0.0717415938377378
1.884242424242424,-0.019991583538055403,0.058872012519836404,-0.196500593662262
1.884848484848485,-0.0798670718193055,0.0229467195510864,0.258553117275238
1.885454545454545,0.06383410005569459,0.058872012519836404,0.198677628993988
1.886060606060606,-0.0463367983818054,-0.11356939373016399,0.023841203212737798
1.8866666666666672,0.176400018024445,-0.175839901542664,0.052581437587737805
1.887272727272727,0.322496209430695,0.037316836738586406,-0.0791446366310122
1.8878787878787882,0.154844842243195,0.0492919343948364,-0.103094831943512
1.888484848484848,-0.17566785306930502,0.00618158283233642,-0.0647745194435122
1.8890909090909092,-0.0750770327568055,0.11635248126983601,0.0310262618064878
1.88969696969697,-0.041546759319305404,-0.149494686698914,0.11245692586898799
1.8903030303030302,-0.0870521304130555,-0.0249536710739136,0.11724696493148799
1.890909090909091,0.047068963336944596,0.137907657051086,0.148382218837738
1.8915151515151511,0.0566490414619446,-0.302775936698914,0.136407121181488
1.892121212121212,0.30094103364944497,-0.0944092374801636,0.0310262618064878
1.892727272727273,-0.16129773588180502,0.0468969148635864,0.30645350790023795
1.893333333333333,-0.16608777494430502,-0.00339849529266358,0.34477382040023796
1.893939393939394,0.24825060396194498,0.0660570711135864,0.0932967696189878
1.894545454545455,0.011143670368194601,0.030131778144836398,-0.0288492264747622
1.895151515151515,-0.182852911663055,0.109167422676086,-0.036034285068512195
1.895757575757576,-0.039151739788055404,0.0109716218948364,0.193887589931488
1.896363636363636,0.0805992367744445,-0.125544491386414,0.162752336025238
1.896969696969697,-0.022386603069305403,0.159462832832336,-0.0192691483497622
1.897575757575758,-0.11100232572555499,0.190598086738586,0.193887589931488
1.898181818181818,-0.0750770327568055,0.0205517000198364,0.186702531337738
1.898787878787879,-0.06549695463180549,-0.032138729667663596,-0.103094831943512
1.899393939393939,-0.106212286663055,-0.0393237882614136,0.0597664961814878
1.9,-0.0343617007255554,-0.06806402263641359,-0.0288492264747622
1.9006060606060609,0.0326988461494446,-0.00579351482391358,0.07653163290023779
1.901212121212121,0.0207237484931946,-0.103989315605164,0.00468104696273782
1.9018181818181819,0.109339471149445,-0.11596441326141399,0.11006190633773799
1.902424242424242,-0.041546759319305404,-0.029743710136413602,-0.131835066318512
1.9030303030303028,-0.12297742338180499,-0.0417188077926636,-0.000108992099762181
1.903636363636364,0.11652452974319501,-0.056088924980163594,0.282503312587738
1.9042424242424238,0.011143670368194601,-0.0249536710739136,0.134012101650238
1.904848484848485,0.0925743344306945,0.034921817207336406,0.213047746181488
1.9054545454545448,0.0374888852119446,-0.15188970623016398,-0.155785261631012
1.906060606060606,-0.0631019351005554,0.0540819734573364,-0.12944004678726198
1.906666666666667,-0.132557501506805,0.16185785236358602,-0.103094831943512
1.907272727272727,-0.0607069155693054,-0.058483944511413595,-0.00968907022476218
1.907878787878788,0.0183287289619446,-0.11117437419891399,0.368724015712738
1.908484848484848,0.0542540219306946,0.0924022859573364,0.778272355556488
1.909090909090909,-0.0726820132255555,0.00857660236358642,-0.0288492264747622
1.9096969696969701,0.025513787555694598,0.0660570711135864,-0.361756941318512
1.91030303030303,0.0374888852119446,-0.0632739835739136,0.246578019618988
1.9109090909090911,-0.22117322416305502,-0.190210018730164,0.282503312587738
1.911515151515152,0.047068963336944596,-0.0465088468551636,0.0453963789939878
1.912121212121212,0.11652452974319501,0.00378656330108642,0.0286312422752378
1.912727272727273,0.0446739438056946,-0.029743710136413602,-0.00729405069351218
1.913333333333333,-0.043941778850555405,-0.130334530448914,0.0597664961814878
1.913939393939394,-0.00562146635055544,-0.12075445232391399,0.18430751180648802
1.914545454545455,0.11652452974319501,-0.297985897636414,-0.215660749912262
1.915151515151515,0.0901793148994445,-0.175839901542664,0.124432023525238
1.915757575757576,-0.108607306194305,0.013366641426086399,-0.0168741288185122
1.916363636363636,0.231485467243195,-0.0129785734176636,0.00947108602523782
1.916969696969697,0.0350938656806946,-0.130334530448914,0.18430751180648802
1.917575757575758,-0.0726820132255555,-0.233320370292664,-0.328226667881012
1.918181818181818,0.0901793148994445,-0.0632739835739136,-0.115069929599762
1.918787878787879,-0.12058240385055499,0.0804271883010864,-0.033639265537262195
1.919393939393939,0.205140252399445,0.0181566804885864,0.136407121181488
1.92,0.0303038266181946,-0.0512988859176636,0.301663468837738
1.9206060606060609,-0.0343617007255554,-0.163864803886414,0.07653163290023779
1.921212121212121,0.0422789242744446,-0.053693905448913594,-0.0192691483497622
1.9218181818181819,-0.295418829631805,0.0876122468948364,0.08132167196273779
1.922424242424242,-0.0870521304130555,0.0492919343948364,0.0693465743064878
1.9230303030303029,0.387161736774445,0.190598086738586,-0.014479109287262199
1.923636363636364,0.0997593930244445,-0.053693905448913594,-0.0240591874122622
1.9242424242424239,-0.022386603069305403,-0.13751958904266398,-0.0743545975685122
1.924848484848485,0.00156359224319456,0.032526797676086405,-0.0719595780372622
1.9254545454545449,-0.0942371890068055,-0.11835943279266399,-0.062379499912262194
1.926060606060606,-0.187642950725555,-0.0153735929489136,-0.182130476474762
1.926666666666667,-0.043941778850555405,0.0397118562698364,0.023841203212737798
1.927272727272727,0.279385857868195,0.195388125801086,-0.09351475381851221
1.927878787878788,0.13807970552444498,0.0684520906448364,-0.182130476474762
1.928484848484848,-0.0966322085380555,-0.20697515544891398,0.260948136806488
1.929090909090909,0.0518590023994446,-0.0441138273239136,0.00468104696273782
1.9296969696969701,-0.00322644681930544,0.058872012519836404,-0.0815396561622622
1.93030303030303,-0.0247816226005554,0.0780321687698364,0.00947108602523782
1.9309090909090911,-0.0894471499443055,0.032526797676086405,-0.0743545975685122
1.931515151515152,0.047068963336944596,-0.060878964042663596,0.0980868086814878
1.9321212121212121,0.34165636568069496,-0.010583553886413601,0.16035731649398802
1.932727272727273,-0.0535218569755554,-0.06806402263641359,-0.0192691483497622
1.9333333333333331,-0.103817267131805,-0.127939510917664,-0.18931553506851198
1.933939393939394,-0.16129773588180502,-0.187814999198914,0.0621615157127378
1.934545454545455,-0.11100232572555499,0.133117617988586,-0.0863296952247622
1.935151515151515,0.027908807086944598,0.231313418769836,0.014261125087737801
1.935757575757576,0.0135386898994446,-0.15188970623016398,0.0477913985252378
1.936363636363636,0.023118768024444597,0.0756371492385864,-0.280326277256012
1.936969696969697,0.0853892758369445,-0.056088924980163594,0.10048182821273799
1.937575757575758,0.0422789242744446,-0.159074764823914,0.11245692586898799
1.938181818181818,-0.06549695463180549,-0.032138729667663596,-0.08872471475601221
1.938787878787879,-0.13974256010055502,0.106772403144836,0.205862687587738
1.939393939393939,0.0590440609931946,0.013366641426086399,0.277713273525238
1.94,0.185980096149445,-0.252480526542664,-0.00729405069351218
1.940606060606061,0.111734490680695,-0.0944092374801636,0.390279191493988
1.941212121212121,-0.192432989788055,-0.0417188077926636,0.07413661336898779
1.9418181818181819,-0.178062872600555,-0.034533749198913596,-0.220450788974762
