Time (s),Accel X (m/s^2),Accel Y (m/s^2),Accel Z (m/s^2)
4.546875,0.0535554433822632,-0.0462465173721313,-0.219233071231842
4.54748069351908,-0.08535568943023679,-0.07738177127838129,-0.188097817325592
4.5480863870381585,-0.0254802011489868,-0.12528216190338098,-0.17612271966934198
4.548692080557238,0.060740501976013196,-0.0917518884658813,-0.23120816888809198
4.549297774076317,0.0367903066635132,0.0782944982528687,-0.123432289981842
4.549903467595397,0.09666579494476321,-0.039061458778381304,0.11846468267440799
4.550509161114476,-0.20750168552398698,-0.139652279090881,0.108884604549408
4.551114854633555,0.032000267601013196,0.0878745763778687,-0.142592446231842
4.551720548152635,0.360117943382263,-0.07977679080963129,0.12085970220565799
4.5523262416717145,-0.09972580661773679,0.011233951377868699,-0.11624723138809201
4.552931935190793,-0.30090744724273705,-0.230663021278381,-0.11385221185684201
4.553537628709873,-0.20750168552398698,-0.168392513465881,-0.283898598575592
4.554143322228952,-0.145231177711487,0.0615293615341187,-0.257553383731842
4.5547490157480315,-0.257797095680237,0.0615293615341187,0.231030600643158
4.555354709267111,-0.14762619724273698,0.0615293615341187,-0.238393227481842
4.55596040278619,-0.0278752206802368,-0.300118587684631,0.341201499080658
4.55656609630527,-0.0398503183364868,0.162120181846619,0.401076987361908
4.557171789824349,0.16133132228851302,0.0639243810653687,-0.11385221185684201
4.557777483343428,0.012840111351013199,-0.0869618494033813,0.041824057674408006
4.558383176862508,-0.011110083961486801,0.0615293615341187,0.049009116268158
4.558988870381587,0.0272102285385132,-0.142047298622131,0.056194174861908
4.559594563900666,-0.102120826148987,-0.0151112634658813,-0.228813149356842
4.560200257419746,-0.08296066989898679,0.0351841466903687,-0.034816567325592
4.560805950938825,0.199651634788513,-0.18036761112213098,-0.032421547794342
4.5614116444579045,-0.08296066989898679,-0.146837337684631,-0.11385221185684201
4.562017337976983,-0.243426978492737,-0.0222963220596313,0.0657742529869081
4.562623031496063,0.0583454824447632,-0.07498675174713129,-0.123432289981842
4.563228725015143,-0.123676001930237,0.142960025596619,0.08493440923690809
4.5638344185342214,-0.238636939430237,0.221995670127869,0.101699545955658
4.564440112053301,-0.104515845680237,0.133379947471619,0.12325472173690799
4.565045805572381,0.22599684963226302,0.0351841466903687,-0.037211586856842
4.56565149909146,-0.07577561130523679,-0.0199013025283813,0.037034018611908005
4.566257192610539,0.0152351308822632,-0.13007220096588099,0.302881186580658
4.566862886129618,0.0559504629135132,-0.10133196659088099,0.032243979549408004
4.567468579648698,0.0511604238510132,0.0256040685653687,-0.010866372013092
4.5680742731677775,-0.00392502536773682,-0.151627376747131,-0.025236489200592002
4.568679966686856,-0.00153000583648682,0.0830845373153687,-0.027631508731842
4.569285660205936,0.15654128322601302,0.0615293615341187,-0.025236489200592002
4.569891353725015,-0.109305884742737,0.109429752159119,-0.027631508731842
4.5704970472440944,0.0487654043197632,0.00644391231536866,-0.173727700138092
4.571102740763174,-0.104515845680237,-0.170787532997131,-0.051581704044341994
4.571708434282253,-0.14762619724273698,-0.0486415369033813,0.00110872564315805
4.572314127801333,-0.00392502536773682,-0.0199013025283813,-0.056371743106841996
4.572919821320412,0.09187575588226321,-0.039061458778381304,0.051404135799408
4.573525514839491,0.139776146507263,-0.0486415369033813,0.0897244482994081
4.574131208358571,0.09427077541351321,0.00165387325286866,0.14241487798690802
4.57473690187765,-0.0446403573989868,-0.07738177127838129,0.11846468267440799
4.575342595396729,0.175701439476013,0.0663194005966187,0.235820639705658
4.575948288915809,0.300242455101013,0.195650455284119,-0.0683468407630919
4.576553982434888,0.10145583400726299,0.0854795568466187,-0.0659518212318419
4.577159675953967,-0.173971412086487,-0.0558265954971313,0.20229036626815802
4.577765369473046,-0.308092505836487,-0.118097103309631,0.0993045264244081
4.578371062992126,0.0583454824447632,-0.0534315759658813,0.056194174861908
4.578976756511206,0.060740501976013196,0.109429752159119,0.25498079595565804
4.579582450030284,0.000865013694763175,0.0878745763778687,0.12085970220565799
4.580188143549364,-0.0278752206802368,0.0782944982528687,-0.0707418602943419
4.580793837068444,0.15175124416351302,0.140565006065369,0.07056429204940809
4.581399530587523,0.09906081447601321,0.0878745763778687,-0.013261391544342001
4.582005224106602,-0.13804611911773698,-0.134862240028381,-0.149777504825592
4.582610917625681,-0.159601294898987,-0.0630116540908813,-0.044396645450592
4.583216611144761,-0.07577561130523679,-0.0893568689346313,0.0657742529869081
4.58382230466384,0.0727155996322632,-0.115702083778381,0.06816927251815809
4.584427998182919,-0.21229172458648699,0.0950596349716187,-0.125827309513092
4.585033691701999,-0.00871506443023682,-0.00553118534088134,0.175945151424408
4.585639385221078,-0.111700904273987,0.0495542638778687,-0.197677895450592
4.586245078740157,-0.08775070896148679,-0.0318764001846313,-0.17133268060684198
4.586850772259237,0.134986107444763,0.0806895177841187,0.578308432674408
4.587456465778316,0.09906081447601321,-0.0510365564346313,0.034638999080658005
4.588062159297396,0.237971947288513,-0.00553118534088134,-0.192887856388092
4.588667852816475,-0.209896705055237,0.200440494346619,0.0657742529869081
4.589273546335554,-0.111700904273987,-0.0989369470596313,0.101699545955658
4.589879239854634,0.0727155996322632,-0.00792620487213134,0.154389975643158
4.5904849333737126,0.154146263694763,0.111824771690369,0.041824057674408006
4.591090626892792,0.09906081447601321,0.0735044591903687,0.039429038143158006
4.591696320411872,-0.0350602792739868,-0.07259173221588129,-0.00368131341934195
4.592302013930951,-0.059010474586486804,-0.00553118534088134,-0.008471352481841951
4.59290770745003,0.0367903066635132,-0.00313616580963134,0.221450522518158
4.593513400969109,0.00565505275726318,-0.187552669715881,-0.025236489200592002
4.594119094488189,-0.0638005136489868,0.0399741857528687,-0.23120816888809198
4.594724788007269,-0.0518254159927368,-0.0342714197158813,-0.022841469669342
4.595330481526347,-0.0374552988052368,-0.0534315759658813,0.049009116268158
4.595936175045427,0.07990065822601321,0.17409527950286902,0.022663901424408
4.596541868564507,-0.12607102146148702,-0.0151112634658813,0.00589876470565805
4.5971475620835855,-0.00871506443023682,-0.0558265954971313,0.37712679204940797
4.597753255602665,-0.0326652597427368,-0.0845668298721313,-0.09948209466934191
4.598358949121744,-0.221871802711487,0.104639713096619,-0.010866372013092
4.598964642640824,0.14696120510101301,0.485447818565369,-1.3329171532630901
4.599570336159903,-0.286537330055237,-0.9395888025283811,0.310066245174408
4.600176029678982,0.281082298851013,0.255525943565369,1.07647249517441
4.600781723198062,0.578064720726013,0.348931705284119,0.590283530330658
4.601387416717141,-0.830206763648987,0.00404889278411866,0.08493440923690809
4.60199311023622,0.470288841819763,0.533348209190369,-0.8036178368568421
4.6025988037553,-0.310487525367737,-1.50241839237213,-0.37969937982559204
4.603204497274379,-0.09733078708648679,0.504607974815369,1.02617708501816
4.6038101907934585,0.554114525413513,1.74283307247162,2.0105301123619097
4.604415884312538,-0.176366431617737,-1.71557513065338,-0.6455465477943421
4.605021577831617,-0.159601294898987,-0.506090267372131,-1.9436471337318402
4.605627271350697,0.273897240257263,0.653099185752869,-0.868283364200592
4.6062329648697755,-0.30330246677398703,-0.259403255653381,1.07647249517441
4.606838658388855,0.522979271507263,-0.173182552528381,0.678899252986908
4.607444351907935,-0.0638005136489868,1.12491803340912,-0.731767250919342
4.608050045427014,-1.0553385995864901,-0.728827083778381,-1.4646432274818402
4.608655738946093,0.8510969472885129,0.0567393224716187,-1.51972867670059
4.609261432465172,0.07990065822601321,-0.161207454872131,0.975881674861908
4.609867125984252,-0.34162277927398704,-0.170787532997131,2.4703738623619103
4.6104728195033315,0.8103816152572629,2.02065533809662,0.305276206111908
4.61107851302241,-0.600284888648987,-2.8077040369033797,-1.08623014154434
4.61168420654149,-0.47334885349273703,0.315401431846619,-1.03114469232559
4.61228990006057,0.992403099632263,1.67816754512787,0.116069663143158
4.6128955935796485,-1.1439543222427402,-1.67964983768463,1.8620389014244099
4.613501287098728,0.740926048851013,0.0711094396591187,0.07535433111190809
4.614106980617807,-0.0518254159927368,1.54883649044037,-2.5687472313880897
4.614712674136887,-1.43854172458649,-0.9371937829971311,-1.84305631341934
4.615318367655966,0.975637962913513,0.368091861534119,0.880080893611908
4.615924061175045,0.233181908226013,0.272291080284119,1.76144808111191
4.616529754694125,-0.631420142555237,-0.453399837684631,0.26935091314315796
4.6171354482132045,0.755296166038513,2.31284772090912,0.674109213924408
4.617741141732283,-0.494904029273987,-3.2004872400283797,-0.6048312157630921
4.618346835251363,-0.557174537086487,-0.187552669715881,0.039429038143158006
4.618952528770442,1.38997634181976,2.6768906896591202,0.853735678768158
4.6195582222895215,-0.777516333961487,-1.99818743534088,0.954326499080658
4.620163915808601,0.640335228538513,0.375276920127869,-0.9640841454505921
4.62076960932768,0.338562767601013,0.574063541221619,-1.38560758295059
4.62137530284676,-1.25891525974274,-0.6138661462783811,-0.568905922794342
4.6219809963658385,1.67498366603851,0.7009995763778689,-0.24557828607559198
4.622586689884918,-0.811046607398987,0.35132672481536903,1.0453372412681599
4.623192383403998,-1.22059494724274,-0.949168880653381,-0.35095914545059204
4.623798076923077,0.642730248069763,2.66252057247162,-0.889838539981842
4.624403770442156,0.0511604238510132,-2.0891981775283797,-0.183307778263092
4.625009463961236,-0.732010962867737,-0.7168519861221311,1.5243411475181599
4.625615157480315,1.4857771230697598,2.67210065059662,0.33880647954940796
4.6262208509993945,-0.772726294898987,-2.78614886112213,-0.5257955712318421
4.626826544518473,0.30503249416351297,0.255525943565369,-0.197677895450592
4.627432238037553,0.894207298851013,1.97754498653412,-0.025236489200592002
4.628037931556633,-1.6708586191177401,-2.14667864627838,-0.061161782169342
4.6286436250757115,1.7372541738510099,0.894996158409119,-1.33531217279434
4.629249318594791,-0.614655005836487,1.38597516231537,-0.188097817325592
4.62985501211387,-0.875712134742737,-1.35871722049713,0.00350374517440805
4.63046070563295,1.08101882228851,2.25057721309662,-0.532980629825592
4.631066399152029,0.185281517601013,-2.27361468143463,0.599863608455658
4.631672092671108,-0.779911353492737,-0.0821718103408813,0.281326010799408
4.632277786190188,1.24388015041351,2.41343854122162,0.226240561580658
4.6328834797092675,-1.17987961521149,-3.5597401697158797,-0.820382973575592
4.633489173228346,0.513399193382263,-0.0318764001846313,0.602258627986908
4.634094866747426,1.4474568105697598,3.6923789709091204,0.561543295955658
4.634700560266505,-1.5343425058364901,-2.59694231815338,-0.8658883446693421
4.6353062537855845,1.33728591213226,0.41120221309661903,-1.54367887201309
4.635911947304664,0.28587233791351296,1.20634869747162,-0.597646157169342
4.636517640823743,-1.32597580661774,-1.1695106775283801,0.642973960018158
4.637123334342823,1.3995564199447599,2.4709190099716203,0.00110872564315805
4.637729027861902,-0.123676001930237,-2.81967913455963,1.13634798345566
4.638334721380981,-1.25412522068024,0.188465396690369,-1.48380338373184
4.638940414900061,1.47619704494476,2.74874127559662,-0.39167447748184203
4.63954610841914,-1.05294358005524,-2.92985003299713,0.264560874080658
4.640151801938219,0.688235619163513,-0.405499447059631,1.47883577642441
4.640757495457299,0.784036400413513,3.07206891231537,-0.010866372013092
4.641363188976378,-1.27568039646149,-2.6520277673721298,-1.10778531732559
4.6419688824954575,1.33010085353851,0.5596934240341189,-1.04072477045059
4.642574576014536,0.26671218166351296,1.36441998653412,-0.590461098575592
4.643180269533616,-1.74510422458649,-1.86406634159088,1.8788040381431599
4.643785963052696,1.7635993886947599,2.8876524084091204,0.391496909236908
4.644391656571774,-0.48292893161773703,-1.26052141971588,-0.32221891107559203
4.644997350090854,-1.67804367771149,-0.9539589197158811,-2.05860807123184
4.645603043609934,1.9695710683822598,2.31284772090912,0.31725130376815797
4.646208737129013,-0.681715552711487,-2.17062884159088,1.05970735845566
4.646814430648092,0.41520339260101297,-0.288143490028381,1.5243411475181599
4.647420124167171,0.30742751369476295,3.66124371700287,-0.123432289981842
4.648025817686251,-1.36429611911774,-4.182445247840881,-1.62031949701309
4.64863151120533,0.798406517601013,0.492632877159119,-1.65145475091934
4.649237204724409,0.546929466819763,2.01107525997162,1.79976839361191
4.649842898243489,-2.04927170505524,-1.45451800174713,2.18297151861191
4.650448591762568,1.26543532619476,2.72239606075287,-1.31615201654434
4.651054285281647,-0.43263352146148704,-1.67725481815338,-1.53170377435684
4.651659978800727,-1.41938156833649,-0.508485286903381,-1.4861984032630902
4.652265672319806,1.81628981838226,3.14391949825287,-0.140197426700592
4.652871365838886,-0.7248259042739871,-3.05199602909088,1.1219778662681599
4.653477059357965,0.182886498069763,-0.470164974403381,2.0009500342369098
4.654082752877044,1.08101882228851,4.2144932287216195,-1.6538497704505901
4.654688446396124,-1.6157731698989901,-4.29980120487213,-1.9101168602943401
4.655294139915203,0.616385033226013,0.389647037315369,-0.516215493106842
4.655899833434282,1.03551345119476,2.14759137325287,1.91951937017441
4.656505526953362,-1.99658127536774,-1.70599505252838,1.05252229986191
4.657111220472441,1.6486384511947598,2.29368756465912,-1.15568570795059
4.65771691399152,-0.748776099586487,-1.19346087284088,-2.0801632470130897
4.6583226075106,-1.49841721286774,-1.3491371423721301,-0.920973793888092
4.658928301029679,2.11087722072601,2.8637022130966203,1.09084261236191
4.659533994548758,-0.241031958961487,-1.84251116580963,1.96741976079941
4.660139688067838,-0.14762619724273698,-0.431844661903381,0.659739096736908
4.660745381586917,0.927737572288513,2.5810899084091203,-1.73528043451309
4.661351075105996,-1.50081223239899,-3.40166888065338,-0.434784829044342
4.661956768625076,1.0283283926010098,0.914156314659119,-0.822777993106842
4.662562462144155,1.1097590566635098,2.5379795568466204,1.67522737798691
4.663168155663234,-2.02292649021149,-3.31784319705963,0.937561362361908
4.663773849182314,1.4977522207260099,2.2481821935653703,-1.8334762352943401
4.664379542701393,-0.31288254489898704,-0.23545306034088098,-2.24062955560684
4.664985236220472,-1.6924137948989901,-1.94310198612213,-0.159357582950592
4.665590929739552,2.42222975978851,2.74874127559662,1.76623812017441
4.666196623258631,-0.602679908180237,-1.96705218143463,0.43700228033065797
4.66680231677771,-0.379943091773987,-0.336043880653381,-0.27192350091934203
4.66740801029679,1.05227858791351,3.92948590450287,-0.966479164981842
4.668013703815869,-1.6540934823989901,-4.77162005252838,-0.6647067040443421
4.668619397334949,0.800801537132263,0.552508365440369,0.235820639705658
4.669225090854028,1.1049690176010099,3.8145249670028702,2.28595735845566
4.669830784373107,-1.9151506113052401,-3.22204241580963,-0.698236977481842
4.670436477892187,0.9109724355697629,1.51291119747162,-2.67412809076309
4.671042171411266,0.242761986351013,-0.7192470056533811,0.19271028814315802
4.671647864930345,-1.58224289646149,-0.661766536903381,0.151994956111908
4.672253558449425,1.9599909902572599,2.4086485021591204,0.789070151424408
4.672859251968504,-1.21101486911774,-2.22331927127838,0.568728354549408
4.673464945487583,-0.5260392831802371,-1.03299456424713,-1.03114469232559
4.674070639006663,0.8894172597885129,4.413279849815369,-1.21556119623184
4.674676332525742,-1.33795090427399,-3.73457659549713,0.07295931158065809
4.675282026044821,0.721765892601013,0.5596934240341189,1.85724886236191
4.675887719563901,0.9301325918197629,3.08404400997162,0.913611167049408
4.67649341308298,-1.79779465427399,-3.5190248376846296,-1.6706149071693401
4.677099106602059,1.2295100332260098,2.54276959590912,-1.5724191063880901
4.677704800121139,0.08469069728851321,-0.503695247840881,0.300486167049408
4.678310493640218,-2.14507248630524,-2.07722307987213,1.26088899908066
4.678916187159297,1.86419020900726,2.80622174434662,0.451372397518158
4.679521880678377,-1.25891525974274,-0.9994642908096311,-0.600041176700592
4.680127574197456,-0.444608619117737,-1.6485145837783801,-1.3065719384193402
4.680733267716535,1.1097590566635098,3.5127525060653704,-0.41083463373184204
4.681338961235615,-1.0768937753677401,-2.80291399784088,-0.00368131341934195
4.681944654754694,0.419993431663513,0.425572330284119,0.17355013189315802
4.682550348273773,0.621175072288513,3.8217100255966203,1.23693880376816
4.683156041792853,-1.81695481052399,-5.073392513465881,-1.31375699701309
4.683761735311932,1.1528694082260098,1.78833844356537,-0.911393715763092
4.684367428831012,0.489448998069763,1.08659772090912,0.12325472173690799
4.684973122350091,-2.1043571542739903,-2.51072161502838,1.5291311865806598
4.68557881586917,2.13243239650726,2.52360943965912,0.314856284236908
4.68618450938825,-1.41938156833649,-1.48804827518463,-0.880258461856842
4.686790202907329,-0.46376877536773703,-0.403104427528381,0.032243979549408004
4.687395896426408,1.44027175197601,3.6923789709091204,-1.46703824701309
4.688001589945488,-1.36908615818024,-4.24950579471588,0.5112478857994079
4.688607283464567,0.618780052757263,0.535743228721619,-0.9449239892005921
4.689212976983646,0.542139427757263,4.52345074825287,1.2513089209556598
4.689818670502726,-1.85288010349274,-3.75134173221588,-0.568905922794342
4.690424364021805,0.8702571035385129,0.9572666662216189,-1.05748990716934
4.691030057540884,0.920552513694763,0.8231455724716189,0.0873294287681581
4.691635751059964,-1.62056320896149,-2.3095399744033798,0.662134116268158
4.692241444579043,1.53128249416351,2.70563092403412,1.19622347173691
4.692847138098122,-0.815836646461487,-1.56468890018463,-1.62510953607559
4.693452831617202,-0.897267310523987,-1.82095599002838,0.6309988623619079
4.694058525136281,1.98394118556976,4.16898785762787,-0.652731606388092
4.69466421865536,-1.6157731698989901,-3.1477968103408798,-0.0851119774818419
4.69526991217444,0.194861595726013,0.0950596349716187,-1.4311129540443401
4.695875605693519,1.25585524806976,3.1966099279403704,1.22256868658066
4.696481299212598,-1.72354904880524,-3.1765370447158796,0.738774741268158
4.697086992731678,1.4522468496322598,1.53925641231537,-1.59636930170059
4.697692686250757,-0.296117408180237,1.35483990840912,-0.233603188419342
4.698298379769836,-1.19424973239899,-3.46393938846588,-0.38209439935684203
4.698904073288916,1.5719978261947598,2.7200010412216202,0.856130698299408
4.699509766807995,-0.07817063083648679,-0.362389095497131,0.22863558111190802
4.700115460327075,-1.03138840427399,-1.95747210330963,0.904031088924408
4.700721153846154,1.31333571681976,3.7546494787216202,-1.18921598138809
4.701326847365233,-0.815836646461487,-3.28431292362213,-1.21077115716934
4.701932540884313,0.175701439476013,0.17409527950286902,-0.609621254825592
4.702538234403392,1.10736403713226,4.4539951818466195,1.03575716314316
4.703143927922471,-2.49953537693024,-4.33812151737213,0.480112631893158
4.703749621441551,1.2510652090072598,1.62547711544037,-0.22641812982559198
4.70435531496063,-0.0566154550552368,2.04221051387787,-1.79994596185684
4.704961008479709,-1.27568039646149,-3.94294329471588,-1.12455045404434
4.705566701998789,1.82107985744476,2.32242779903412,1.9482596045494098
4.706172395517868,-0.238636939430237,-0.930008724403381,1.0453372412681599
4.706778089036947,-0.799071509742737,-1.24375628299713,0.374731772518158
4.707383782556027,0.982823021507263,3.62052838497162,-1.21077115716934
4.707989476075106,-1.5032072519302402,-3.06876116580963,-1.2730416649818401
4.708595169594185,0.35772292385101295,-1.15993059940338,-1.4814083642005902
4.709200863113265,1.1217341543197599,5.0000596349716195,2.1350711279869103
4.709806556632344,-1.83611496677399,-2.52269671268463,1.03096712408066
4.710412250151423,0.743321068382263,0.382461978721619,-0.657521645450592
4.711017943670503,0.254737084007263,0.9405015295028689,-2.05860807123184
4.711623637189582,-1.4648869394302402,-3.48788958377838,-0.621596352481842
4.712229330708661,1.47140700588226,3.5055674474716203,2.25961214361191
4.712835024227741,0.000865013694763175,-1.37308733768463,1.63451204595566
4.71344071774682,-1.72354904880524,-1.98381731815338,0.918401206111908
4.714046411265899,1.8067097402572598,3.9414610021591203,-3.46927457513809
4.714652104784979,-1.7091789316177401,-2.5849672204971297,-1.8502413720130901
4.715257798304058,0.348142845726013,-0.8174428064346311,0.015478842830658
4.715863491823137,1.2845954824447599,3.74027936153412,2.09914583501816
4.716469185342217,-1.7091789316177401,-2.1658388025283797,0.379521811580658
4.717074878861296,1.23669509181976,0.535743228721619,-1.22753629388809
4.717680572380376,-0.40149826755523704,1.87934918575287,-1.63468961420059
4.718286265899455,-1.0888688730239902,-4.58959856815338,-0.875468422794342
4.718891959418534,1.27022536525726,2.91878766231537,3.48107210454941
4.719497652937614,0.534954369163513,0.7441099279403689,2.14704622564316
4.720103346456693,-1.50560227146149,-2.8340492517471296,-0.26234342279434203
4.720709039975772,1.2031648183822599,3.0169834630966204,-3.6465060204505897
4.721314733494852,-1.2421501230239902,-2.4891664392471298,-1.19879605951309
4.721920427013931,0.47507888088226297,-0.0151112634658813,0.22863558111190802
4.72252612053301,1.56481276760101,3.92709088497162,1.27765413579941
4.72313181405209,-2.14986252536774,-3.4926796228408796,1.81653353033066
4.723737507571169,1.2414851308822599,0.8039854162216189,-2.3196652001380897
4.724343201090248,-0.777516333961487,2.1715415685653703,-2.5184518212318396
4.724948894609328,-1.32118576755524,-3.83995745487213,0.22384554204940801
4.725554588128407,1.71330397853851,2.57869488887787,3.4355667334556603
4.726160281647486,-0.118885962867737,-0.257008236122131,0.880080893611908
4.726765975166566,-1.0289933847427402,-2.5849672204971297,-0.418019692325592
4.727371668685645,1.1049690176010099,3.7857847326278704,-1.82629117670059
4.727977362204724,-1.22059494724274,-2.47958636112213,-2.18793912591934
4.728583055723804,-0.0278752206802368,-1.79940081424713,1.04773226079941
4.729188749242883,1.95280593166351,5.18208111934662,2.10872591314316
4.729794442761962,-2.32230393161774,-2.3119349939346296,0.33880647954940796
4.730400136281042,0.36730300197601295,-0.5204603845596311,-3.09565152826309
4.731005829800121,-0.0614054941177368,1.53446637325287,-1.7209103173255902
4.7316115233192,-1.29723557224274,-2.62568255252838,0.820205405330658
4.73221721683828,1.67498366603851,3.48161725215912,1.85724886236191
4.732822910357359,-0.549989478492737,-0.870133236122131,1.9434695654869099
4.733428603876439,-0.861342017555237,-3.1501918298721296,-1.91730191888809
4.734034297395518,1.18400466213226,3.7283042638778703,-3.0980465477943397
4.734639990914597,-1.0840788339614902,-1.76108050174713,0.051404135799408
4.735245684433677,0.0487654043197632,-1.09526507205963,1.91472933111191
4.735851377952756,1.6270832754135098,3.93906598262787,0.647763999080658
4.736457071471835,-2.00855637302399,-2.25684954471588,-0.882653481388092
4.737062764990915,0.894207298851013,-0.00313616580963134,-0.688656899356842
4.737668458509994,0.173306419944763,2.4373887365341202,-2.22865445795059
4.738274152029073,-1.76186936130524,-3.97407854862213,0.590283530330658
4.738879845548153,1.7085139394760098,3.36186627559662,3.67267366704941
4.739485539067232,0.08948073635101321,0.7632700841903689,1.1818533545494099
4.740091232586311,-1.0337834238052401,-4.295011165809631,-3.03577603998184
4.740696926105391,1.17681960353851,3.02416852169037,-2.36996061029434
4.74130261962447,-0.5859147714614871,-1.47607317752838,1.23693880376816
4.741908313143549,0.31700759181976296,-0.645001400184631,1.3016043311119099
4.7425140066626295,0.944502709007263,3.9845713537216203,0.614233725643158
4.743119700181708,-1.95586594333649,-2.6376576501846296,-0.880258461856842
4.743725393700787,1.07622878322601,-0.489325130653381,-2.89925992670059
4.744331087219867,-0.154811255836487,2.55234967403412,-1.25867154779434
4.744936780738946,-1.4050114511489902,-2.7406434900283796,2.48953401861191
4.745542474258025,1.87377028713226,2.5212144201278703,2.70748079595566
4.746148167777105,-0.296117408180237,-0.47735003299713097,0.0993045264244081
4.746753861296184,-1.15592941989899,-3.5525551111221296,-2.24541959466934
4.747359554815263,1.35405104885101,3.95583111934662,-1.17963590326309
4.747965248334343,-0.7870964120864871,-2.1897889978408798,0.362756674861908
4.748570941853422,-0.140441138648987,-2.02932268924713,2.43684358892441
4.749176635372502,1.40195143947601,5.00245465450287,-0.224023110294342
4.749782328891581,-2.15225754489899,-2.26642962284088,-3.28964811029434
4.75038802241066,0.764876244163513,-1.06173479862213,-1.7257003563880902
4.75099371592974,0.283477318382263,2.4541538732528703,0.044219077205658
4.751599409448819,-1.47207199802399,-2.1299135095596298,1.7422879248619099
4.752205102967898,1.45464186916351,2.5116343420028704,1.54829134283066
4.752810796486978,-1.00264816989899,-0.110912044715881,0.777095053768158
4.753416490006057,-0.8254167245864871,-4.73090472049713,-2.80585416498184
4.754022183525136,1.49296218166351,3.3427061193466203,-0.710212075138092
4.754627877044216,-0.720035865211487,-0.527645443153381,2.4344485693931603
4.755233570563295,0.0751106191635132,-1.55271380252838,1.7638431006431599
4.755839264082374,1.1983747793197599,3.1966099279403704,-1.01916959466934
4.756444957601454,-2.09477707614899,-2.46282122440338,-2.31008512201309
4.757050651120533,1.12412917385101,0.41120221309661903,-1.1485006493568402
4.757656344639612,0.40562331447601296,2.43978375606537,-0.571300942325592
4.758262038158692,-1.96784104099274,-3.37532366580963,2.31948763189316
4.758867731677771,1.56002272853851,2.5906699865341203,0.9303763037681579
4.75947342519685,-0.928402564430237,1.41950543575287,-0.473105141544342
4.76007911871593,-0.8661320566177371,-4.53930315799713,-2.38672574701309
4.760684812235009,1.6318733144760098,2.3415879552841203,0.008293784236908049
4.761290505754088,-0.375153052711487,-0.355204036903381,1.8883841162681598
4.761896199273168,0.204441673851013,-1.54313372440338,0.995041831111908
4.762501892792247,0.939712669944763,3.6780088537216202,0.216660483455658
4.763107586311326,-1.9055705331802402,-2.72387835330963,-2.4489962548255897
4.763713279830406,0.678655541038513,-0.671346615028381,-1.85503141107559
4.764318973349485,0.721765892601013,3.35468121700287,0.482507651424408
4.764924666868565,-1.8025846933364902,-2.39097063846588,2.24284700689316
4.765530360387644,1.84742507228851,1.92245953731537,-0.228813149356842
4.766136053906723,-0.624235083961487,-0.07019671268463129,-0.140197426700592
4.766741747425803,-0.911637427711487,-3.3106581384658798,-0.6838668602943421
4.767347440944882,1.75641433010101,3.3163609045028704,-0.29108365716934204
4.767953134463961,-0.890082251930237,-1.10724016971588,1.34710970220566
4.768558827983041,0.7505061269760129,-2.7047181970596297,0.822600424861908
4.76916452150212,1.03790847072601,4.56895611934662,0.28851106939315796
4.769770215021199,-1.89120041599274,-1.9047816736221301,-1.91251187982559
4.770375908540279,0.5325593496322629,-1.3060267908096301,-0.956899086856842
4.770981602059358,0.8319367910385129,3.1990049474716202,-0.025236489200592002
4.771587295578437,-1.69720383396149,-2.5346718103408796,0.580703452205658
4.772192989097517,1.7420442129135099,2.4948692052841204,0.698059409236908
4.772798682616596,-0.573939673805237,1.0674375646591199,0.312461264705658
4.773404376135675,-1.37866623630524,-4.34291155643463,-1.8717965477943401
4.774010069654755,2.0174714590072598,3.0936240880966204,-0.33179898920059203
4.774615763173834,-1.12479416599274,-0.18515765018463098,1.06928743658066
4.775221456692913,0.784036400413513,-2.21134417362213,-0.018051430606842
4.775827150211993,0.901392357444763,3.3163609045028704,0.49687776861190797
4.776432843731072,-1.9822111581802402,-2.1730238611221298,-0.959294106388092
4.777038537250151,0.807986595726013,0.0423692052841187,-0.916183754825592
4.777644230769231,0.33616774806976296,2.9834531896591203,-0.911393715763092
4.77824992428831,-1.8624601816177402,-3.14540179080963,0.199895346736908
4.778855617807389,1.70611891994476,1.75480817012787,-0.046791664981842
4.779461311326469,-0.729615943336487,1.70690777950287,0.889660971736908
4.780067004845548,-1.4098014902114901,-3.38490374393463,-0.796432778263092
4.780672698364627,2.18512282619476,2.37032818965912,-0.901813637638092
4.781278391883707,-1.2038298105239902,-0.9204286462783811,0.501667807674408
4.781884085402786,0.439153587913513,-2.45084612674713,0.324436362361908
4.782489778921866,0.906182396507263,4.55219098262787,0.839365561580658
4.783095472440945,-1.30442063083649,-3.00170061893463,-0.997614418888092
4.783701165960024,0.518189232444763,-1.1264003259658801,-1.1820309227943402
4.784306859479104,0.5110041738510129,3.6516636388778703,-1.22753629388809
4.784912552998183,-2.15225754489899,-2.2424794275283797,0.518432944393158
4.785518246517262,1.62947829494476,1.06504254512787,-0.125827309513092
4.786123940036342,-0.221871802711487,0.447127506065369,0.43700228033065797
4.786729633555421,-1.47207199802399,-2.14428362674713,-0.317428872013092
4.7873353270745,2.07974196681976,2.6481504552841204,-1.19400602045059
4.78794102059358,-1.9055705331802402,-0.23545306034088098,1.00222688970566
4.788546714112659,1.04269850978851,-4.12496477909088,0.616628745174408
4.789152407631738,0.41759841213226295,4.88988873653412,0.710034506893158
4.789758101150818,-1.23257004489899,-1.48804827518463,-0.9233688134193421
4.790363794669897,0.855886986351013,-1.81616595096588,-0.659916664981842
4.790969488188976,0.460708763694763,3.0696738927841203,-1.01916959466934
4.791575181708056,-1.77623947849274,-2.4580311853408796,0.30767122564315796
4.792180875227135,1.5456526113510098,2.37272320919037,0.30767122564315796
4.792786568746214,-0.118885962867737,0.47107770137786903,-0.12103727045059201
4.793392262265294,-2.06364182224274,-3.55495013065338,-0.37011930170059204
4.793997955784373,2.3000837636947598,2.26015729122162,-1.23711637201309
4.794603649303452,-1.9534709238052401,1.02432721309662,0.784280112361908
4.795209342822532,0.937317650413513,-3.22922747440338,0.36754671392440796
4.795815036341611,1.08101882228851,2.8301719396591203,1.57703157720566
4.7964207298606905,-1.70678391208649,-1.29884173221588,-1.2299313134193401
4.79702642337977,0.745716087913513,-0.8342079431533811,-0.607226235294342
4.797632116898849,0.8103816152572629,2.9331577795028703,0.559148276424408
4.798237810417929,-1.57026779880524,-3.31544817752838,-0.47071012201309204
4.798843503937008,1.4857771230697598,1.15844830684662,0.769909995174408
4.799449197456087,-0.169181373023987,2.1811216466903702,-0.18570279779434198
4.800054890975167,-2.39415451755524,-2.8148890954971297,-0.619201332950592
4.800660584494246,2.81022292385101,1.63266217403412,-1.09102018060684
4.801266278013325,-1.82174484958649,0.0256040685653687,0.698059409236908
4.801871971532405,0.41520339260101297,-2.3789955408096297,0.710034506893158
4.802477665051484,1.11454909572601,4.24562848262787,0.259770835018158
4.803083358570563,-1.67325363864899,-2.6113124353408796,-0.753322426700592
4.803689052089643,1.24867018947601,-1.52636858768463,-1.95801725091934
4.804294745608722,0.333772728538513,3.45048199825287,0.6309988623619079
4.804900439127801,-1.4960221933364901,-2.26403460330963,1.30878938970566
4.805506132646881,1.3875813222885098,1.03390729122162,-0.020446450138092
4.80611182616596,0.30503249416351297,0.6818394201278689,-0.11145719232559201
4.806717519685039,-2.0013713144302403,-2.37420550174713,-0.0707418602943419
4.807323213204119,2.07255690822601,2.3846983068466203,-0.762902504825592
4.807928906723198,-1.5511076425552401,0.245945865440369,0.113674643611908
4.808534600242277,0.197256615257263,-3.7992421228408797,0.904031088924408
4.809140293761357,1.2414851308822599,4.68870709590912,0.401076987361908
4.8097459872804365,-1.9654460214614902,-1.25094134159088,-1.2083761376380902
4.810351680799515,1.1600544668197599,-2.12512347049713,-1.10778531732559
4.810957374318595,0.597224876976013,3.0074033849716204,0.209475424861908
4.811563067837674,-1.78821457614899,-2.6184974939346297,0.465742514705658
4.812168761356753,1.44027175197601,1.77157330684662,0.0657742529869081
4.812774454875833,-0.19792160739898698,0.8566758459091189,-0.487475258731842
4.813380148394912,-1.9917912363052401,-3.02565081424713,-0.425204750919342
4.813985841913992,2.20428298244476,1.79791852169037,-0.928158852481842
4.814591535433071,-1.60379807224274,1.41711041622162,1.4309353857994098
4.81519722895215,0.597224876976013,-2.55622698612213,0.765119956111908
4.81580292247123,1.47140700588226,2.6337803380966203,-0.327008950138092
4.816408615990309,-1.9606559823989902,-1.5287636072158801,-1.18921598138809
4.817014309509388,1.02114333400726,-1.2461513025283801,-0.861098305606842
4.817620003028468,0.635545189476013,3.65405865840912,1.19622347173691
4.818225696547547,-1.2684953378677402,-3.5789003259658796,0.204685385799408
4.8188313900666255,1.2678303457260098,0.7608750646591189,-0.046791664981842
4.819437083585706,-0.408683326148987,2.20028180294037,-1.59157926263809
4.820042777104785,-2.22171311130524,-2.79572893924713,-0.813197914981842
4.820648470623864,2.87249343166351,1.31651959590912,0.235820639705658
4.821254164142944,-1.5343425058364901,0.41120221309661903,0.662134116268158
4.821859857662023,0.10624587306976299,-2.11075335330963,0.23821565923690802
4.822465551181102,1.56481276760101,3.7115391271591203,-0.061161782169342
4.8230712447001824,-1.83132492771149,-1.75150042362213,-0.590461098575592
4.823676938219261,1.41153151760101,-2.34067522830963,-1.34728727045059
4.82428263173834,0.00565505275726318,4.240838443565369,2.5973098975181603
4.82488832525742,-1.3619010995864902,-1.77066057987213,1.15790315923691
4.825494018776499,1.2079548574447598,0.265106021690369,-1.58678922357559
4.826099712295578,-0.0614054941177368,1.00995709590912,-1.1652657860755902
4.826705405814658,-2.09238205661774,-2.0628529626846297,0.250190756893158
4.827311099333737,2.27373854885101,2.44696881465912,-0.25994840326309204
4.827916792852816,-1.3666911386489902,0.241155826377869,-0.274318520450592
4.828522486371896,-0.169181373023987,-3.63398577518463,1.18903841314316
4.829128179890975,1.62468825588226,3.60376324825287,-0.774877602481842
4.829733873410055,-2.61449631443024,-1.07849993534088,-1.1437106102943402
4.830339566929134,1.62468825588226,-1.91196673221588,-0.813197914981842
4.830945260448213,0.944502709007263,3.4528770177841204,2.26919222173691
4.831550953967293,-1.8840153573989902,-2.0724330408096296,-0.267133461856842
4.832156647486372,0.982823021507263,0.835120670127869,-1.55565396966934
4.832762341005451,0.09187575588226321,0.9189463537216189,0.0969095068931581
4.833368034524531,-1.1702995370864901,-2.8148890954971297,-0.338984047794342
4.83397372804361,1.6701936269760098,1.28298932247162,0.9519314795494079
4.834579421562689,-1.3331608652114901,1.65421734981537,0.956721518611908
4.835185115081769,-0.36317795505523703,-2.6376576501846296,-0.039606606388092
4.835790808600848,1.82586989650726,2.26015729122162,-1.9819674462318402
4.836396502119927,-2.02053147068024,-1.25094134159088,0.015478842830658
4.837002195639007,1.0498835683822598,-1.37787737674713,-0.777272622013092
4.837607889158086,0.798406517601013,4.17617291622162,1.1602981787681599
4.838213582677165,-1.89120041599274,-2.6975331384658796,0.23821565923690802
4.838819276196245,1.6222932363510099,-0.0989369470596313,-1.98915250482559
4.839424969715324,-0.571544654273987,1.8673740880966199,-1.50056852045059
4.840030663234403,-1.4050114511489902,-2.18499895877838,0.6717141943931579
4.840636356753483,2.5228205801010097,1.36441998653412,2.03687532720566
4.841242050272562,-0.851761939430237,0.456707584190369,-0.9449239892005921
4.841847743791641,-0.5859147714614871,-2.26642962284088,0.743564780330658
4.842453437310721,1.5456526113510098,3.3067808263778704,-0.583276039981842
4.8430591308298,-1.6924137948989901,-1.04736468143463,-0.46113004388809203
4.843664824348879,0.896602318382263,-2.6017323572158797,-0.928158852481842
4.844270517867959,0.6307551504135129,4.47555035762787,1.55547640142441
4.844876211387038,-1.9822111581802402,-1.30842181034088,0.5328030615806579
4.845481904906118,1.77557448635101,-1.0665248376846301,-1.94125211420059
4.846087598425197,-0.367967994117737,1.10096783809662,-0.588066079044342
4.846693291944276,-1.59900803318024,-1.94549700565338,0.219055502986908
4.847298985463356,1.53846755275726,2.20746686153412,0.889660971736908
4.847904678982435,-0.856551978492737,-0.118097103309631,-0.5257955712318421
4.848510372501514,-0.48292893161773703,-2.88194964237213,0.209475424861908
4.849116066020594,1.67977370510101,2.8110117834091204,-1.02395963373184
4.849721759539673,-2.07801193943024,-0.403104427528381,0.413052085018158
4.850327453058752,0.987613060569763,-1.95268206424713,-0.327008950138092
4.850933146577832,1.48817214260101,3.00261334590912,0.425027182674408
4.851538840096911,-2.43965988864899,-1.46409807987213,-0.243183266544342
4.85214453361599,1.46182692775726,-0.292933529090881,-0.736557289981842
4.85275022713507,-0.348807837867737,2.00149518184662,-0.592856118106842
4.853355920654149,-0.815836646461487,-3.42801409549713,0.27893099126815796
4.853961614173228,1.41632155666351,1.39316022090912,1.00701692876816
4.854567307692308,-1.0002531503677399,1.09138775997162,-0.717397133731842
4.855173001211387,-0.47334885349273703,-2.1658388025283797,-0.29108365716934204
4.855778694730466,2.07255690822601,2.17393658809662,-0.41083463373184204
4.856384388249546,-2.03011154880524,-0.762357357215881,0.889660971736908
4.856990081768625,0.726555931663513,-1.25573138065338,-1.2466964501380902
4.857595775287704,1.2247199941635099,3.20858502559662,1.14113802251816
4.858201468806784,-2.16902268161774,-2.1993690759658797,-0.063556801700592
4.858807162325863,1.89293044338226,-1.1695106775283801,-0.621596352481842
4.859412855844942,-0.923612525367737,3.07446393184662,0.116069663143158
4.860018549364022,-1.03857346286774,-2.3119349939346296,0.494482749080658
4.860624242883101,1.7635993886947599,1.03151227169037,1.15071810064316
4.86122993640218,-0.516459205055237,-0.156417415809631,-2.16877896966934
4.86183562992126,-1.32597580661774,-2.1897889978408798,0.415447104549408
4.862441323440339,1.90251052150726,3.53670270137787,-0.168937661075592
4.863047016959419,-1.69480881443024,-1.02101946659088,0.149599936580658
4.863652710478498,0.714580834007263,-3.05918108768463,-0.901813637638092
4.864258403997577,1.03790847072601,3.87919049434662,0.262165854549408
4.864864097516657,-2.61210129489899,-1.19825091190338,-0.0659518212318419
4.865469791035736,2.32882399806976,-1.17430071659088,-1.5676290673255902
4.866075484554815,-0.19792160739898698,2.01347027950287,1.0668924170494098
4.866681178073895,-1.3283708261489902,-1.81616595096588,-0.128222329044342
4.867286871592974,1.11454909572601,1.8242637365341199,0.762724936580658
4.867892565112053,-0.327252662086487,-0.570755794715881,-0.406044594669342
4.868498258631133,-1.0457585214614902,-2.42689593143463,-0.908998696231842
4.869103952150212,1.52649245510101,2.7942466466903704,-0.0827169579505919
4.869709645669291,-1.80497971286774,-0.0989369470596313,0.710034506893158
4.870315339188371,0.688235619163513,-1.8449061853408801,0.283721030330658
4.87092103270745,1.9096955801010098,3.12236432247162,-1.37842252435684
4.871526726226529,-2.93063889255524,-2.00776751346588,0.022663901424408
4.872132419745609,1.52170241603851,-0.24024309940338098,0.290906088924408
4.872738113264688,0.22599684963226302,2.9834531896591203,-0.750927407169342
4.873343806783767,-1.5463176034927402,-2.9202699548721296,0.453767417049408
4.873949500302847,1.59594802150726,1.11533795528412,0.616628745174408
4.874555193821926,-0.710455787086487,0.727344791221619,-0.183307778263092
4.875160887341005,-0.693690650367737,-1.89280657596588,-0.652731606388092
4.875766580860085,2.23302321681976,2.1380112951278702,-0.580881020450592
4.876372274379164,-1.77144943943024,-0.398314388465881,1.03815218267441
4.876977967898244,0.09666579494476321,-1.97902727909088,-0.738952309513092
4.877583661417323,1.2079548574447598,3.62052838497162,-0.750927407169342
4.878189354936402,-1.83611496677399,-1.7467103845596301,0.046614096736908
4.878795048455482,1.29178054103851,-1.79700579471588,-0.348564125919342
4.879400741974561,-0.31288254489898704,3.46485211544037,-0.204862954044342
4.88000643549364,-1.59182297458649,-2.04608782596588,0.635788901424408
4.88061212901272,1.85221511135101,0.7824302404403689,0.211870444393158
4.881217822531799,-0.0566154550552368,-0.06540667362213129,-1.09102018060684
4.881823516050878,-1.6756486581802401,-2.17062884159088,0.844155600643158
4.882429209569958,2.42222975978851,3.3666563146591204,-0.607226235294342
4.883034903089037,-1.59182297458649,-1.01862444705963,0.535198081111908
4.883640596608116,0.247552025413513,-3.2435975915908797,0.185525229549408
4.884246290127196,1.3995564199447599,4.1618027990341195,-0.532980629825592
4.884851983646275,-2.87076340427399,-0.146837337684631,0.058589194393158
4.885457677165354,1.94562087306976,-1.62935442752838,-0.942528969669342
4.886063370684434,-0.0182951425552368,2.2745274084091203,1.74468294439316
4.886669064203513,-1.69001877536774,-1.73713030643463,-0.396464516544342
4.887274757722592,1.15765944728851,1.35244488887787,0.33641146001815797
4.887880451241672,-0.106910865211487,0.339351627159119,0.45855745611190796
4.888486144760751,-1.17269455661774,-2.95619524784088,-1.07904508295059
4.88909183827983,1.61271315822601,2.43978375606537,-0.247973305606842
4.88969753179891,-1.5463176034927402,0.279476138877869,0.26935091314315796
4.890303225317989,0.010445091819763198,-2.1562587244033797,0.638183920955658
4.890908918837068,2.50845046291351,2.8708872716903704,-1.30417691888809
4.891514612356148,-2.99530441989899,-1.39224749393463,0.5136429053306579
4.892120305875227,1.68935378322601,-0.338438900184631,-0.23599820795059198
4.892725999394306,0.38646315822601296,2.8373569982528704,-0.336589028263092
4.893331692913386,-1.86006516208649,-3.0208607751846297,-0.020446450138092
4.893937386432465,2.04860671291351,1.10815289669037,0.161575034236908
4.894543079951545,-0.9068473886489871,1.15126324825287,0.535198081111908
4.895148773470624,-0.9044523691177371,-2.58017718143463,-0.873073403263092
4.895754466989703,2.26415847072601,1.6877476232528699,0.027453940486908
4.896360160508783,-1.33795090427399,-0.30730364627838097,0.283721030330658
4.8969658540278616,-0.130861060523987,-2.0628529626846297,0.156784995174408
4.897571547546941,1.59115798244476,4.121087467002869,-0.298268715763092
4.898177241066021,-1.98460617771149,-1.44014788455963,-0.384489418888092
4.8987829345851,1.3923713613510098,-2.26403460330963,-0.8658883446693421
4.899388628104179,0.144566185569763,3.61334332637787,0.13762483892440802
4.899994321623259,-1.77623947849274,-1.93352190799713,1.13634798345566
4.900600015142338,2.05818679103851,0.9428965490341189,-0.48029020013809204
4.901205708661417,-0.116490943336487,-0.0510365564346313,-0.621596352481842
4.901811402180497,-1.80497971286774,-2.16104876346588,0.28851106939315796
4.902417095699576,2.41025466213226,2.9403428380966203,-0.6239913720130921
4.903022789218655,-1.5726628183364901,-1.02341448612213,0.650159018611908
4.903628482737735,0.25713210353851296,-3.0040956384658797,0.789070151424408
4.904234176256814,1.5887629629135098,3.8648203771591203,-0.693446938419342
4.904839869775893,-2.83723313083649,-0.5755458337783811,-0.849123207950592
4.905445563294973,1.7085139394760098,-1.99339739627838,-0.901813637638092
4.906051256814052,0.508609154319763,2.78466656856537,0.657344077205658
4.906656950333131,-1.6828337167739902,-2.05806292362213,-0.039606606388092
4.907262643852211,1.1863996816635098,1.47938092403412,0.6932693701744079
4.90786833737129,-0.26258713474273704,0.7033945959091189,0.125649741268158
4.908474030890369,-1.6493034433364901,-3.58848040409088,-1.3832125634193402
4.909079724409449,2.21146804103851,2.12364117794037,0.12804476079940802
4.909685417928528,-1.4481218027114902,0.866255924034119,0.702849448299408
4.910291111447607,-0.00871506443023682,-2.6448427087783797,0.36754671392440796
4.910896804966687,2.23781325588226,2.49247418575287,-1.09581021966934
4.911502498485766,-2.7198771738052403,-1.21501604862213,-0.101877114200592
4.912108192004846,1.5025422597885099,-0.630631282997131,-0.777272622013092
4.912713885523925,0.616385033226013,2.98824322872162,-0.0803219384193419
4.913319579043004,-1.86964524021149,-2.9801454431533796,1.0932376318931598
4.913925272562084,1.97196608791351,0.986006900596619,-0.406044594669342
4.914530966081163,-0.684110572242737,1.29017438106537,0.116069663143158
4.915136659600242,-1.1104240488052401,-2.61610247440338,-0.22641812982559198
4.915742353119322,2.47252516994476,1.36202496700287,0.43700228033065797
4.916348046638401,-1.2517302011489901,0.0711094396591187,-0.159357582950592
4.91695374015748,-0.37275803318023704,-1.9263368494033801,1.27046907720566
4.91755943367656,1.2845954824447599,4.23125836544037,-0.276713539981842
4.918165127195639,-1.9271257089614902,-1.83053606815338,-1.51493863763809
4.918770820714718,0.987613060569763,-2.5322767908096298,-0.932948891544342
4.919376514233798,0.47747390041351295,4.02049664669037,0.161575034236908
4.919982207752877,-1.9007804941177402,-1.79221575565338,1.2465188818931598
4.920587901271956,2.1300373769760097,0.269896060752869,-0.913788735294342
4.921193594791036,-0.31288254489898704,0.135774967002869,0.39628694829940797
4.921799288310115,-1.55829270114899,-1.75389544315338,0.013083823299408
4.922404981829194,2.35516921291351,2.5978550451278704,-0.394069497013092
4.923010675348274,-1.43375168552399,-0.724037044715881,0.45855745611190796
4.923616368867353,0.21641677150726302,-3.05918108768463,0.623813803768158
4.924222062386432,1.29417556056976,3.93667096309662,-0.817987954044342
4.924827755905512,-2.4899552988052402,-0.254613216590881,-0.741347329044342
4.925433449424591,1.57439284572601,-2.10117327518463,-0.760507485294342
4.926039142943671,1.02114333400726,2.98105817012787,0.302881186580658
4.92664483646275,-1.96305100193024,-1.98860735721588,0.44897737798690796
4.927250529981829,1.1384992910385099,0.993191959190369,0.159180014705658
4.927856223500909,0.0535554433822632,0.854280826377869,-0.286293618106842
4.928461917019988,-1.5343425058364901,-3.5765053064346297,-0.956899086856842
4.929067610539067,1.81389479885101,2.27692242794037,0.422632163143158
4.929673304058147,-1.2253849863052402,1.09138775997162,0.20708040533065802
4.930278997577226,-0.0254802011489868,-2.50593157596588,-0.17612271966934198
4.930884691096305,2.01986647853851,2.6768906896591202,-1.00958951654434
4.931490384615385,-2.65042160739899,-0.9587489587783811,-0.16175260248184198
4.932096078134464,1.30854567775726,-0.862948177528381,-1.22274625482559
4.932701771653543,0.9301325918197629,2.91878766231537,0.705244467830658
4.933307465172623,-2.02532150974274,-2.47000628299713,0.894451010799408
4.933913158691702,1.8067097402572598,0.107034732627869,-1.1269454735755902
4.934518852210781,-0.43263352146148704,1.63984723262787,-0.010866372013092
4.935124545729861,-1.04096848239899,-2.18499895877838,0.175945151424408
4.93573023924894,2.35756423244476,1.29496442012787,0.927981284236908
4.936335932768019,-1.3547160409927401,0.150145084190369,-0.731767250919342
4.936941626287099,-0.6673454355239871,-2.4987465173721297,0.250190756893158
4.937547319806178,1.7252790761947598,4.00852154903412,-0.643151528263092
4.938153013325257,-1.77863449802399,-1.55750384159088,-0.779667641544342
4.938758706844337,0.7289509511947629,-2.57299212284088,-0.595251137638092
4.939364400363416,0.491844017601013,4.15940777950287,0.542383139705658
4.939970093882495,-2.3103288339614902,-1.79461077518463,0.47771761236190796
4.940575787401575,2.09171706447601,-0.328858822059631,-1.67779996576309
4.941181480920654,0.0439753652572632,0.609988834190369,0.125649741268158
4.941787174439733,-1.53913254489899,-1.83772112674713,0.264560874080658
4.942392867958813,2.1803327871322598,2.41583356075287,0.159180014705658
4.942998561477892,-1.2349650644302401,-0.010321224403381301,0.29809114751815796
4.943604254996972,-0.106910865211487,-3.45196429080963,-0.18091275873184198
4.944209948516051,1.3013606191635099,2.93794781856537,-1.30896695795059
4.94481564203513,-2.23129318943024,0.030394107627868698,0.156784995174408
4.94542133555421,1.25346022853851,-2.01016253299713,0.547173178768158
4.946027029073289,1.1265241933822598,2.7271860998153703,0.6333938818931579
4.946632722592368,-2.15944260349274,-2.0556679040908796,0.494482749080658
4.947238416111448,1.19358474025726,1.00277203731537,-0.26952848138809204
4.947844109630527,0.0415803457260132,1.35723492794037,-0.719792153263092
4.948449803149606,-1.41219650974274,-3.4759144861221296,-0.0755318993568419
4.949055496668686,1.75401931056976,2.0949009435653703,1.07886751470566
4.949661190187765,-1.16071945896149,1.45303570919037,0.214265463924408
4.950266883706844,-0.286537330055237,-2.96577532596588,-0.25994840326309204
4.950872577225924,2.02465651760101,1.9056944005966199,-0.973664223575592
4.951478270745003,-2.01813645114899,-0.7144569665908811,-0.149777504825592
4.952083964264082,0.776851341819763,-1.01622942752838,-0.801222817325592
4.952689657783162,1.1001789785385099,3.0936240880966204,1.76144808111191
4.953295351302241,-1.7522892831802401,-2.22331927127838,0.403472006893158
4.95390104482132,1.56481276760101,-0.273773372840881,-2.0897433251380897
4.9545067383404,-0.554779517555237,1.93203961544037,-0.214443032169342
4.9551124318594795,-1.22298996677399,-2.1586537439346296,0.8321805029869079
4.955718125378558,2.11327224025726,0.9836118810653689,1.63451204595566
4.956323818897638,-1.2134098886489901,0.159725162315369,-1.51493863763809
4.956929512416717,-0.5451994394302371,-2.6089174158096298,0.702849448299408
4.957535205935796,1.81389479885101,3.76422955684662,-0.31982389154434204
4.958140899454876,-1.64690842380524,-1.80898089237213,-1.23711637201309
4.958746592973955,0.980428001976013,-2.3095399744033798,-0.00368131341934195
4.959352286493035,1.23430007228851,4.70307721309662,1.19861849126816
4.959957980012114,-2.3007487558364903,-1.84969622440338,0.391496909236908
4.960563673531193,1.8450300527572598,-0.7192470056533811,-2.26218473138809
4.961169367050273,-0.0494303964614868,0.866255924034119,0.0945144873619081
4.961775060569352,-1.66846359958649,-1.8065858728408801,0.38670687017440797
4.962380754088431,1.73246413478851,1.96796490840912,0.796255210018158
4.962986447607511,-1.0337834238052401,-0.0222963220596313,-0.13540738763809199
4.96359214112659,-0.09733078708648679,-2.9011097986221297,-0.573695961856842
4.9641978346456686,1.3061506582260098,2.83496197872162,-0.908998696231842
4.964803528164749,-1.93670578708649,-0.6809266931533811,0.391496909236908
4.965409221683828,0.721765892601013,-1.31321184940338,0.590283530330658
4.966014915202907,1.6007380605697599,3.2157700841903702,-0.30066373529434204
4.966620608721987,-2.49474533786774,-2.45324114627838,-0.020446450138092
4.967226302241066,1.3708161855697598,0.48065777950286903,-1.27064664545059
4.967831995760145,0.202046654319763,2.0517905920028703,-1.1437106102943402
4.9684376892792255,-1.4864421152114902,-3.07594622440338,1.1602981787681599
4.969043382798304,2.33840407619476,1.18958356075287,2.12070101079941
4.969649076317383,-1.52715744724274,1.26382916622162,-0.774877602481842
4.970254769836463,-0.6074699472427371,-2.7142982751846296,-1.71612027826309
4.970860463355542,1.93604079494476,2.3320078771591204,-0.513820473575592
4.971466156874621,-1.7858195566177402,-0.6330263025283811,0.777095053768158
4.972071850393701,0.309822533226013,-1.15274554080963,-1.09102018060684
4.97267754391278,0.992403099632263,4.19293805294037,1.6225369482994099
4.973283237431859,-1.8409050058364902,-2.29037981815338,0.015478842830658
4.973888930950939,1.38518630275726,-1.5287636072158801,-2.57114225091934
4.974494624470018,-0.578729712867737,2.66970563106537,-0.305453774356842
4.975100317989098,-1.10084397068024,-1.65569964237213,1.8788040381431599
4.975706011508177,2.47731520900726,0.7991953771591189,2.1877615576744103
4.976311705027256,-1.4265666269302402,0.0471592443466187,-1.6322945946693401
4.976917398546336,-0.9475627206802371,-2.5179066736221296,-0.355749184513092
4.9775230920654145,2.06537184963226,3.9773862951278702,-0.681471840763092
4.978128785584494,-1.74031418552399,-1.88562151737213,0.508852866268158
4.978734479103574,0.197256615257263,-2.35983538455963,0.353176596736908
4.979340172622653,1.2295100332260098,4.7270274084091195,0.956721518611908
4.979945866141732,-2.86836838474274,-1.53594866580963,-0.853913247013092
4.980551559660812,1.61510817775726,-1.43056780643463,-2.10411344232559
4.981157253179891,0.060740501976013196,1.30454449825287,0.42742220220565796
4.98176294669897,-1.5726628183364901,-1.29165667362213,0.7124295264244079
4.98236864021805,1.55523268947601,1.7045127599716199,2.31230257329941
4.982974333737129,-1.18466965427399,0.257920963096619,-0.736557289981842
4.983580027256208,-0.336832740211487,-3.5094447595596296,-2.07058316888809
4.984185720775288,1.35405104885101,3.12475934200287,-1.45745816888809
4.984791414294367,-1.7211540292739902,-0.345623958778381,1.72312776861191
4.985397107813446,0.597224876976013,-1.60779925174713,1.2201736670494099
4.986002801332526,1.82586989650726,3.32354596309662,-0.873073403263092
4.986608494851605,-2.77017258396149,-1.83772112674713,-0.487475258731842
4.987214188370684,1.43548171291351,-0.118097103309631,-1.38081754388809
4.987819881889764,0.125406029319763,1.97275494747162,-1.22753629388809
4.988425575408843,-1.6061930917739902,-2.5011415369033796,1.68959749517441
4.989031268927922,2.1468025136947597,1.36441998653412,2.4512137061119104
4.989636962447002,-1.22298996677399,0.9644517248153689,-0.738952309513092
4.990242655966081,-0.722430884742737,-3.07594622440338,-2.0801632470130897
4.99084834948516,2.05818679103851,2.5906699865341203,-1.44069303216934
4.99145404300424,-1.49362717380524,-0.683321712684631,1.68001741704941
4.992059736523319,0.271502220726013,-1.69401995487213,-0.013261391544342001
4.992665430042399,1.47619704494476,3.86961041622162,0.920796225643158
4.993271123561478,-2.11154221286774,-2.05087786502838,-1.17963590326309
4.993876817080557,1.2630403066635099,-2.0987782556533796,-2.0969283837318398
4.994482510599637,-0.31288254489898704,2.9906382482528704,-0.0755318993568419
4.995088204118716,-1.15832443943024,-1.46409807987213,1.7638431006431599
4.995693897637795,2.1970979238510098,1.32609967403412,1.8452737647056598
4.996299591156875,-0.755961158180237,0.128589908409119,-1.91969693841934
4.996905284675954,-1.22059494724274,-3.01607073612213,-0.465920082950592
4.997510978195033,2.12524733791351,4.07797711544037,-1.21556119623184
4.998116671714113,-1.60858811130524,-1.69641497440338,1.07647249517441
4.998722365233192,0.508609154319763,-2.89631975955963,0.983066733455658
4.999328058752271,1.55283766994476,4.49471051387787,-0.037211586856842
4.999933752271351,-3.00967453708649,-1.11921526737213,-1.20598111810684
5.00053944579043,2.1300373769760097,-1.65809466190338,-1.67540494623184
5.001145139309509,0.25713210353851296,1.61829205684662,0.281326010799408
5.001750832828589,-1.4648869394302402,-1.55989886112213,0.520827963924408
5.002356526347668,1.60792311916351,2.04700055294037,2.38654817876816
5.002962219866747,-0.5260392831802371,0.375276920127869,-0.980849282169342
5.003567913385827,-1.00264816989899,-3.83995745487213,-2.14243375482559
5.004173606904906,1.3827912832260099,2.88286236934662,-0.8658883446693421
5.004779300423985,-1.32118576755524,0.23876080684661902,1.91951937017441
5.005384993943065,0.199651634788513,-2.09398821659088,1.50518099126816
5.005990687462144,1.90251052150726,2.88525738887787,-0.717397133731842
5.006596380981224,-2.97135422458649,-1.71078509159088,-0.528190590763092
5.007202074500303,1.5025422597885099,-0.194737728309631,-0.928158852481842
5.007807768019382,0.158936302757263,2.4876841466903703,-0.518610512638092
5.008413461538462,-1.4696769784927401,-2.5250917322158797,1.2465188818931598
5.009019155057541,1.79233962306976,1.53925641231537,1.59140169439316
5.00962484857662,-1.11760910739899,0.9812168615341189,-1.59876432123184
5.0102305420957,-0.861342017555237,-2.6352626306533797,-1.10060025873184
5.010836235614779,2.2234431386947597,1.8841392248153699,-0.38927945795059204
5.011441929133858,-1.3331608652114901,-0.07977679080963129,1.14592806158066
5.012047622652938,-0.0446403573989868,-1.81137591190338,0.405867026424408
5.012653316172017,1.79233962306976,3.86961041622162,-0.039606606388092
5.013259009691096,-2.26961350193024,-1.54073870487213,-1.44069303216934
5.013864703210176,1.09538893947601,-2.43647600955963,-1.34728727045059
5.014470396729255,-0.233846900367737,3.68279889278412,0.980671713924408
5.015076090248334,-1.19903977146149,-1.60779925174713,1.2728640967369098
5.015681783767414,1.9168806386947599,0.6986045568466189,0.104094565486908
5.016287477286493,-0.7272209238052371,0.00165387325286866,-1.4814083642005902
5.016893170805572,-1.42417160739899,-2.17062884159088,0.161575034236908
5.017498864324652,2.46773513088226,3.63968854122162,-0.978454262638092
5.018104557843731,-1.6828337167739902,-1.20543597049713,1.33034456548691
5.01871025136281,0.252342064476013,-3.24120257205963,0.583098471736908
5.01931594488189,1.53607253322601,4.02528668575287,-0.770087563419342
5.019921638400969,-3.08631516208649,-0.494115169715881,-0.930553872013092
5.020527331920048,2.22104811916351,-1.6652797204971301,-1.05988492670059
5.021133025439128,0.139776146507263,2.32003277950287,1.82611360845566
5.021738718958207,-1.61337815036774,-1.82335100955963,-0.561720864200592
5.0223444124772865,1.2295100332260098,1.69493268184662,0.518432944393158
5.022950105996366,0.0272102285385132,0.511793033409119,-0.384489418888092
5.023555799515445,-1.29723557224274,-3.5932704431533797,-1.05748990716934
5.024161493034525,1.8019197011947599,2.63617535762787,-0.219233071231842
5.024767186553604,-1.0673136972427402,0.6435191076278689,1.2513089209556598
5.025372880072683,-0.14283615818023698,-2.3789955408096297,0.568728354549408
5.025978573591763,2.22583815822601,2.59306500606537,-1.95562223138809
5.026584267110842,-2.86118332614899,-0.9922792322158811,0.17834017095565802
5.027189960629921,1.6438484121322599,-0.218687923622131,-0.437179848575592
5.027795654149001,-0.0278752206802368,2.7535313146591203,0.22863558111190802
5.02840134766808,-1.8073747323989902,-3.03523089237213,0.429817221736908
5.029007041187159,1.93364577541351,1.13928815059662,0.046614096736908
5.029612734706239,-0.5068791269302371,1.33328473262787,-0.650336586856842
5.030218428225318,-0.7870964120864871,-2.52269671268463,-0.415624672794342
5.030824121744397,2.28571364650726,2.03263043575287,0.350781577205658
5.031429815263477,-1.39782639255524,-0.225872982215881,0.34838655767440796
5.032035508782556,-0.41107834568023705,-2.57059710330963,0.518432944393158
5.032641202301635,1.74443923244476,3.94625104122162,-0.42999478998184204
5.033246895820715,-2.14507248630524,-1.56947893924713,-1.17245084466934
5.033852589339794,1.06904372463226,-2.5849672204971297,-0.691051918888092
5.034458282858873,0.0343952871322632,4.03247174434662,0.762724936580658
5.035063976377953,-1.79300461521149,-1.54073870487213,0.506457846736908
5.0356696698970325,2.16117263088226,0.6435191076278689,-0.7844576806068421
5.036275363416111,-0.5284343027114871,0.030394107627868698,-0.571300942325592
5.036881056935191,-1.5942179941177401,-1.86167132205963,0.762724936580658
5.03748675045427,2.45815505275726,3.0002183263778703,-0.324613930606842
5.038092443973349,-1.7906095956802401,-0.9946742517471311,0.820205405330658
5.038698137492429,0.300242455101013,-3.1573768884658797,0.616628745174408
5.039303831011508,1.45703688869476,3.55107281856537,-0.9832443017005921
5.039909524530587,-2.69113693943024,-0.374364193153381,-1.1700558251380901
5.040515218049667,1.96238600978851,-1.84730120487213,-0.817987954044342
5.041120911568746,0.49663405666351296,2.8996275060653702,1.3447146826744099
5.041726605087826,-1.9007804941177402,-1.89041155643463,-0.293478676700592
5.042332298606905,1.5073322988510098,1.2853843420028699,-0.173727700138092
5.042937992125984,0.192466576194763,1.14407818965912,-0.39167447748184203
5.043543685645064,-1.8073747323989902,-3.65793597049713,-1.03114469232559
5.044149379164143,1.7971296621322599,2.4206235998153702,0.159180014705658
5.0447550726832215,-1.46249191989899,1.17281842403412,0.793860190486908
5.045360766202302,0.000865013694763175,-2.58257220096588,0.22863558111190802
5.045966459721381,1.87616530666351,2.13082623653412,-1.4526681298255901
5.04657215324046,-2.67916184177399,-1.2677064783096301,-0.41083463373184204
5.04717784675954,1.61271315822601,-0.324068782997131,-0.9042086571693421
5.047783540278619,0.563694603538513,2.8708872716903704,1.0884475928306598
5.048389233797698,-1.9822111581802402,-2.8771596033096296,0.985461752986908
5.0489949273167785,1.4690119863510098,0.499817935752869,-1.49577848138809
5.049600620835857,-0.569149634742737,1.69972272090912,-0.362934243106842
5.050206314354936,-1.20143479099274,-2.62568255252838,-0.374909340763092
5.050812007874016,2.3863044668197597,1.74043805294037,1.16748323736191
5.051417701393095,-1.39543137302399,0.298636295127869,-0.015656411075592
5.052023394912174,-0.41107834568023705,-2.5921522790908798,0.575913413143158
5.052629088431254,1.6654035879135098,4.29592389278412,-0.32221891107559203
5.053234781950333,-2.1043571542739903,-2.54425188846588,-2.2957150048255897
5.053840475469413,0.7097907949447629,-2.55622698612213,-0.820382973575592
5.054446168988492,0.882232201194763,4.61446149044037,1.6608572607994099
5.055051862507571,-2.0612468027114903,-1.82095599002838,1.6225369482994099
5.05565755602665,2.03663161525726,0.154935123252869,-1.8023409813880902
5.05626324954573,-0.166786353492737,0.123799869346619,-0.8850485009193421
5.056868943064809,-1.8504850839614901,-1.95986712284088,-0.19049283685684198
5.057474636583889,2.31445388088226,2.60264508419037,0.681294272518158
5.0580803301029675,-1.33555588474274,-0.115702083778381,0.980671713924408
5.058686023622047,0.0511604238510132,-3.41843401737213,-0.372514321231842
5.059291717141127,1.50014724025726,3.24211529903412,-0.906603676700592
5.059897410660206,-2.08280197849274,-0.5923109704971311,-1.4694332665443401
5.0605031041792845,1.2079548574447598,-2.04848284549713,-0.827568032169342
5.061108797698365,1.20555983791351,3.3762363927841204,1.27525911626816
5.061714491217444,-2.09717209568024,-2.1323085290908796,0.578308432674408
5.062320184736523,1.43308669338226,0.806380435752869,-0.552140786075592
5.062925878255603,0.21641677150726302,1.23029889278412,-1.56523404779434
5.063531571774682,-1.56547775974274,-3.8327723962783797,-0.288688637638092
5.064137265293761,1.97196608791351,2.06376568965912,1.2800491553306599
5.064742958812841,-1.3547160409927401,1.12252301387787,0.8106253272056579
5.06534865233192,-0.39191818943023704,-2.8316542322158798,0.271745932674408
5.065954345850999,1.89293044338226,2.0517905920028703,-1.76641568841934
5.066560039370079,-2.01813645114899,-1.21022600955963,-0.537770668888092
5.067165732889158,0.834331810569763,-0.5994960290908811,-0.288688637638092
5.067771426408237,0.841516869163513,3.37384137325287,2.26200716314316
5.068377119927317,-1.86485520114899,-2.14428362674713,0.607048667049408
5.068982813446396,1.43308669338226,-0.846183040809631,-2.45378629388809
5.069588506965475,-0.614655005836487,1.83623883419037,-0.5856710595130921
5.070194200484555,-1.10084397068024,-2.58017718143463,0.480112631893158
5.070799894003634,2.20428298244476,1.08659772090912,1.74947298345566
5.0714055875227135,-1.26131027927399,0.674654361534119,-0.432389809513092
5.072011281041793,-0.590704810523987,-2.6879530603408797,0.6118387061119079
5.072616974560872,1.74443923244476,4.20491315059662,-1.4430880517005902
5.073222668079951,-1.8840153573989902,-2.3358851892471297,-1.90772184076309
5.0738283615990305,0.7313459707260129,-1.89280657596588,0.0993045264244081
5.07443405511811,1.47140700588226,4.61685650997162,1.54350130376816
5.07503974863719,-2.58815109958649,-1.71078509159088,0.925586264705658
5.075645442156269,1.9264607168197598,-0.6785316736221311,-2.41067594232559
5.076251135675348,-0.286537330055237,0.6770493810653689,-0.561720864200592
5.076856829194428,-1.6540934823989901,-1.56947893924713,0.07535433111190809
5.077462522713507,2.0438166738510097,1.97514996700287,1.9219143897056599
5.078068216232586,-1.3235807870864902,0.789615299034119,1.0501272803306598
5.078673909751666,-0.09493576755523679,-3.63398577518463,-1.40237271966934
5.079279603270745,1.27022536525726,3.03853863887787,-1.43829801263809
5.079885296789824,-1.91275559177399,-0.443819759559631,-0.815592934513092
5.080490990308904,0.738531029319763,-1.2892616540908801,0.19271028814315802
5.081096683827983,1.86419020900726,3.2900156896591204,1.4596756201744099
5.081702377347062,-2.5929411386489902,-2.24487444705963,0.39628694829940797
5.082308070866142,1.49535720119476,0.487842838096619,-1.61313443841934
5.082913764385221,0.300242455101013,1.32370465450287,-1.57960416498184
5.0835194579043,-1.51757736911774,-3.17174700565338,1.11718782720566
5.08412515142338,2.06537184963226,1.89850934200287,2.01532015142441
5.084730844942459,-1.4313566659927401,1.15844830684662,0.638183920955658
5.085336538461538,-0.286537330055237,-2.4915614587783796,-1.35686734857559
5.085942231980618,1.87616530666351,2.50205426387787,-2.1568038720130898
5.086547925499697,-1.86006516208649,-0.903663509559631,0.33641146001815797
5.0871536190187765,0.863072044944763,-0.7743324548721311,-0.703027016544342
5.087759312537856,1.32531081447601,3.8217100255966203,2.38654817876816
5.088365006056935,-1.8720402597427401,-2.01734759159088,0.149599936580658
5.088970699576015,1.4977522207260099,-1.9862123376846301,-2.4489962548255897
5.089576393095094,-0.679320533180237,2.97147809200287,-1.1101803368568401
5.090182086614173,-1.57026779880524,-1.97184222049713,1.0932376318931598
5.090787780133253,1.95280593166351,1.13928815059662,2.48234896001816
5.091393473652332,-1.10323899021149,0.461497623252869,-1.00958951654434
5.091999167171411,-0.791886451148987,-2.6879530603408797,-0.11385221185684201
5.092604860690491,2.15398757228851,4.31747906856537,-1.73767545404434
5.09321055420957,-1.6157731698989901,-1.98142229862213,-0.27192350091934203
5.093816247728649,0.901392357444763,-2.2592445642471297,0.28851106939315796
5.094421941247729,1.02593337306976,4.24323346309662,1.23933382329941
5.095027634766808,-2.6600016855239903,-0.946773861122131,0.264560874080658
5.095633328285887,2.25936843166351,-1.38027239627838,-2.39151578607559
5.096239021804967,-0.241031958961487,1.2470640295028699,-0.133012368106842
5.096844715324046,-1.32118576755524,-1.08089495487213,0.724404624080658
5.097450408843125,1.4642219472885099,1.9272495763778699,1.75426302251816
5.098056102362205,-0.7463810800552371,0.413597232627869,0.116069663143158
5.098661795881284,-0.418263404273987,-3.6268007165908798,-1.71612027826309
5.099267489400363,1.26064528713226,3.20379498653412,-1.24909146966934
5.099873182919443,-1.9654460214614902,-0.331253841590881,0.48729769048690796
5.1004788764385225,0.319402611351013,-1.79940081424713,0.865710776424408
5.101084569957601,1.93364577541351,3.40737164669037,0.393891928768158
5.101690263476681,-2.84681320896149,-1.90717669315338,-0.37969937982559204
5.10229595699576,1.39476638088226,-0.319278743934631,-1.02635465326309
5.1029016505148395,-0.0398503183364868,1.78115338497162,-1.0718600243568401
5.103507344033919,-1.17269455661774,-2.65681780643463,1.31597444829941
5.104113037552998,1.6486384511947598,1.53686139278412,1.1818533545494099
5.104718731072078,-1.45530686130524,0.8015903966903689,0.0993045264244081
5.105324424591157,-0.564359595680237,-2.61610247440338,-1.80473600091934
5.105930118110236,1.8833503652572599,2.0613706701278702,-2.02268277826309
5.106535811629316,-1.2732853769302401,-0.685716732215881,1.17227327642441
5.107141505148395,0.451128685569763,-1.52157854862213,-0.549745766544342
5.107747198667474,1.1600544668197599,3.8552402990341204,1.4093802100181598
5.108352892186554,-1.89838547458649,-1.87125140018463,-0.621596352481842
5.108958585705633,1.41153151760101,-1.9047816736221301,-1.6227145165443402
5.109564279224712,-0.276957251930237,2.9834531896591203,-1.20119107904434
5.110169972743792,-1.57026779880524,-2.0820131189346296,1.3447146826744099
5.110775666262871,2.15638259181976,1.39555524044037,2.2548221045494103
5.11138135978195,-0.842181861305237,0.0711094396591187,-1.4646432274818402
5.11198705330103,-1.60858811130524,-2.44605608768463,-0.425204750919342
5.112592746820109,2.03423659572601,3.86961041622162,-1.74007047357559
5.113198440339188,-1.9223356698989902,-1.55510882205963,0.686084311580658
5.1138041338582685,1.01874831447601,-2.52748675174713,0.9519314795494079
5.114409827377347,1.29896559963226,4.24323346309662,0.6932693701744079
5.115015520896426,-2.81328293552399,-0.9371937829971311,-0.911393715763092
5.115621214415506,1.9767561269760099,-1.91915179080963,-1.9867574852943402
5.1162269079345855,-0.0709855722427368,1.55602154903412,-0.578486000919342
5.116832601453664,-1.40261643161774,-1.37069231815338,0.41784212408065796
5.117438294972744,1.5193073965072599,2.1116660802841203,2.5470144873619103
5.118043988491823,-0.478138892555237,0.41120221309661903,0.08493440923690809
5.118649682010902,-1.10323899021149,-3.70823138065338,-2.23344449701309
5.119255375529982,1.50972731838226,3.06488385372162,-1.50535855951309
5.119861069049061,-1.7355241464614901,-0.201922786903381,0.6717141943931579
5.12046676256814,0.606804955101013,-1.7850306970596301,1.4045901709556599
5.12107245608722,2.02226149806976,3.39779156856537,0.45616243658065797
5.121678149606299,-2.9857243417739903,-1.47128313846588,-0.647941567325592
5.122283843125379,1.44506179103851,-0.0845668298721313,-1.10299527826309
5.122889536644458,0.0751106191635132,1.8841392248153699,-1.92448697748184
5.123495230163537,-1.34274094333649,-2.31672503299713,1.5890066748619098
5.124100923682617,2.10608718166351,1.63505719356537,2.07998567876816
5.124706617201696,-0.9667228769302371,1.21113873653412,-0.00128629388809195
5.1253123107207745,-0.918822486305237,-2.82207415409088,-1.88137662591934
5.125918004239855,2.05579177150726,1.6063169591903699,-1.95801725091934
5.126523697758934,-1.64211838474274,-0.364784115028381,0.789070151424408
5.127129391278013,-0.00392502536773682,-1.84251116580963,0.839365561580658
5.127735084797093,1.32052077541351,4.08516217403412,2.15902132329941
5.128340778316172,-1.9271257089614902,-1.84730120487213,-1.53649381341934
5.128946471835251,1.13610427150726,-2.1730238611221298,-2.4753414696693397
5.1295521653543314,0.158936302757263,3.2564854162216204,-0.595251137638092
5.13015785887341,-1.19424973239899,-1.61019427127838,1.9386795264244099
5.130763552392489,2.18751784572601,1.27580426387787,1.6488821631431598
5.131369245911569,-0.5883097909927371,0.016023990440368698,-0.377304360294342
5.131974939430648,-1.93910080661774,-2.4652162439346297,-0.791642739200592
5.132580632949727,2.0773469472885098,3.11517926387787,-2.43702115716934
5.133186326468807,-1.6325383066177401,-1.38985247440338,1.64648714361191
5.133792019987886,0.8103816152572629,-2.25445452518463,1.6225369482994099
5.134397713506965,1.27022536525726,4.29592389278412,0.453767417049408
5.135003407026045,-2.89471359958649,-0.8126527673721311,-2.02268277826309
5.135609100545124,1.77078444728851,-1.89999163455963,-2.15440885248184
5.136214794064203,0.331377709007263,2.0757407873153704,0.26935091314315796
5.136820487583283,-1.3930363534927401,-1.73713030643463,0.607048667049408
5.137426181102362,1.50972731838226,1.8841392248153699,2.8128616553306602
5.138031874621442,-0.08535568943023679,0.794405338096619,-0.355749184513092
5.1386375681405205,-1.4265666269302402,-4.15849505252838,-2.9974557274818396
5.1392432616596,1.5839729238510099,2.2745274084091203,-1.64187467279434
5.13984895517868,-1.34034592380524,0.574063541221619,2.10872591314316
5.140454648697759,0.30503249416351297,-1.91436175174713,1.73749788579941
5.141060342216838,1.8402400136947599,2.60504010372162,-0.559325844669342
5.141666035735918,-2.78214768161774,-1.78982073612213,-0.669496743106842
5.142271729254997,1.45464186916351,-0.419869564247131,-1.59876432123184
5.142877422774076,0.113430931663513,2.5283994787216204,-0.6838668602943421
5.143483116293156,-1.46009690036774,-2.83644427127838,1.97699983892441
5.144088809812235,1.85461013088226,1.35483990840912,1.61295687017441
5.144694503331314,-0.818231665992737,1.1871885412216199,-0.542560707950592
5.145300196850394,-1.3283708261489902,-2.86278948612213,-1.68498502435684
5.145905890369473,2.23062819728851,1.56560162715912,-0.750927407169342
5.146511583888552,-1.39543137302399,0.0711094396591187,0.262165854549408
5.147117277407632,-0.205106665992737,-2.1155433923721296,1.1100027686119098
5.147722970926711,1.5839729238510099,4.089952213096621,0.949536460018158
5.14832866444579,-1.87683029880524,-1.77066057987213,-2.0011276024818403
5.14893435796487,0.954082787132263,-2.8005189783096296,-1.94604215326309
5.149540051483949,-0.20750168552398698,3.74027936153412,0.410657065486908
5.150145745003028,-1.29963059177399,-1.47367815799713,2.31709261236191
5.150751438522108,2.06297683010101,0.950081607627869,-0.25276334466934197
5.151357132041187,-0.437423560523987,0.0711094396591187,-0.662311684513092
5.1519628255602665,-1.72354904880524,-1.99100237674713,-0.42999478998184204
5.152568519079346,1.9312507558822598,2.81819684200287,-1.9532272118568401
5.153174212598425,-1.37387619724274,-1.05215472049713,1.14592806158066
5.153779906117504,0.587644798851013,-3.04960100955963,1.3878250342369098
5.154385599636584,1.36363112697601,4.20251813106537,-0.40125455560684203
5.154991293155663,-2.53546066989899,-0.750382259559631,-1.97238736810684
5.155596986674743,1.43548171291351,-2.1131483728408798,-0.667101723575592
5.156202680193822,0.922947533226013,2.7511362951278704,1.6273269873619098
5.156808373712901,-1.83850998630524,-1.89041155643463,0.9710916357994079
5.157414067231981,1.01874831447601,1.3883701818466199,1.5411062842369099
5.15801976075106,0.113430931663513,0.7225547521591189,-0.178517739200592
5.158625454270139,-1.34753098239899,-3.5765053064346297,-2.0897433251380897
5.159231147789219,1.25346022853851,2.0278403966903698,-0.712607094669342
5.159836841308298,-1.7427092050552402,1.48896100215912,1.7806082373619099
5.160442534827377,0.362512962913513,-2.2089491540908797,0.844155600643158
5.161048228346457,1.8234748769760099,2.4206235998153702,-1.41913785638809
5.161653921865536,-2.2241081308364903,-0.908453548622131,-0.0731368798255919
5.162259615384615,1.15526442775726,-0.671346615028381,-1.3616573876380902
5.162865308903695,0.647520287132263,2.48289410762787,0.135229819393158
5.163471002422774,-1.3762712167739901,-2.37660052127838,1.73749788579941
5.164076695941853,1.8114997793197598,0.835120670127869,-0.243183266544342
5.164682389460933,-0.6865055917739871,1.49375104122162,-0.149777504825592
5.165288082980012,-1.35950608005524,-2.7645936853408797,-1.15089566888809
5.165893776499091,2.04860671291351,1.53207135372162,0.17355013189315802
5.166499470018171,-1.2469401620864902,0.6243589513778689,0.379521811580658
5.16710516353725,-0.28414231052398703,-2.64005266971588,1.0285721045494098
5.1677108570563295,1.38518630275726,4.13785260372162,0.350781577205658
5.168316550575409,-1.6277482675552402,-1.66767474002838,-2.08734830560684
5.168922244094488,0.843911888694763,-2.87955462284088,-1.57002408685684
5.169527937613568,0.451128685569763,3.99654645137787,0.987856772518158
5.170133631132647,-1.6540934823989901,-1.06173479862213,1.67522737798691
5.170739324651726,1.7588093496322599,0.293846256065369,-1.52212369623184
5.171345018170806,-0.652975318336487,0.221995670127869,-0.32940396966934204
5.171950711689885,-1.54392258396149,-1.76347552127838,-0.046791664981842
5.172556405208964,2.1372224355697598,2.62899029903412,-1.0287496727943402
5.173162098728044,-1.3762712167739901,-0.348018978309631,1.11718782720566
5.173767792247123,0.546929466819763,-3.0998964197158796,0.798650229549408
5.174373485766202,1.11694411525726,3.8744004552841202,-0.643151528263092
5.174979179285282,-2.5067204355239903,-0.491720150184631,-1.16287076654434
5.175584872804361,1.33728591213226,-2.23050432987213,-0.774877602481842
5.17619056632344,0.855886986351013,2.9666880529403703,1.20580354986191
5.17679625984252,-2.02053147068024,-1.74431536502838,-0.030026528263092
5.177401953361599,1.1313142324447598,0.9620567052841189,-0.104272133731842
5.178007646880678,0.22120681056976302,1.17042340450287,-0.178517739200592
5.178613340399758,-1.39543137302399,-3.66751604862213,-1.21077115716934
5.179219033918837,1.66300856838226,1.75001813106537,0.372336752986908
5.179824727437916,-1.33795090427399,1.66379742794037,0.978276694393158
5.180430420956996,0.0296052480697632,-2.6687929040908798,0.013083823299408
5.1810361144760755,1.93604079494476,2.23381207637787,-1.51014859857559
5.181641807995154,-2.00376633396149,-1.13119036502838,0.12325472173690799
5.182247501514234,1.18879470119476,-0.8916884119033811,-1.16766080560684
5.182853195033313,0.693025658226013,2.92836774044037,0.906426108455658
5.1834588885523925,-1.7858195566177402,-2.21373919315338,0.997436850643158
5.184064582071472,1.35884108791351,0.150145084190369,-1.87419156732559
5.184670275590551,-1.0289933847427402,1.69972272090912,-0.295873696231842
5.185275969109631,-1.1056340097427402,-2.34067522830963,0.108884604549408
5.18588166262871,2.15877761135101,1.42429547481537,1.5842166357994099
5.186487356147789,-1.11760910739899,0.7201597326278689,0.25498079595565804
5.187093049666869,-0.633815162086487,-2.7717787439346298,1.3710598975181598
5.187698743185948,1.42829665431976,3.8456602209091204,-0.595251137638092
5.188304436705027,-1.57984787693024,-1.93112688846588,-1.71612027826309
5.188910130224107,0.431968529319763,-2.51072161502838,-0.264738442325592
5.189515823743186,1.3444709707260099,4.37735455684662,1.5458963232994098
5.190121517262265,-2.36301926364899,-1.37787737674713,0.710034506893158
5.190727210781345,2.02465651760101,-0.587520931434631,-2.5256368798255897
5.191332904300424,-0.253007056617737,0.47107770137786903,0.0897244482994081
5.191938597819503,-1.82653488864899,-1.43775286502838,-0.018051430606842
5.192544291338583,2.2066780019760097,2.1020860021591203,0.688479331111908
5.193149984857662,-1.39064133396149,-0.0462465173721313,0.535198081111908
5.193755678376741,0.199651634788513,-3.06876116580963,-0.453944985294342
5.1943613718958215,0.898997337913513,3.10799420528412,-1.31615201654434
5.1949670654149,-1.80976975193024,-0.422264583778381,-0.358144204044342
5.195572758933979,1.29657058010101,-1.53355364627838,0.18792024908065802
5.196178452453059,1.65821852931976,3.05769879512787,0.516037924861908
5.1967841459721384,-2.30314377536774,-1.96226214237213,0.034638999080658005
5.197389839491217,1.21034987697601,0.205230533409119,-1.2299313134193401
5.197995533010297,0.281082298851013,1.46022076778412,0.044219077205658
5.198601226529376,-1.4145915292739901,-3.2507826501846298,0.341201499080658
5.199206920048455,1.93604079494476,1.49854108028412,1.4477005225181598
5.199812613567535,-1.36429611911774,1.39316022090912,-0.19528287591934199
5.200418307086614,-0.236241919898987,-2.52748675174713,-1.10778531732559
5.201024000605693,1.76599440822601,2.1284312170028703,-1.11976041498184
5.201629694124773,-1.9319157480239901,-0.9563539392471311,0.161575034236908
5.202235387643852,1.02593337306976,-0.5779408533096311,-0.980849282169342
5.202841081162932,1.04269850978851,3.19421490840912,1.59140169439316
5.203446774682011,-2.56899094333649,-2.08680315799713,0.508852866268158
5.20405246820109,2.07495192775726,-1.31800188846588,-2.51366178216934
5.20465816172017,-0.854156958961487,2.38948834590912,0.013083823299408
5.205263855239249,-1.21101486911774,-1.80419085330963,1.03815218267441
5.2058695487583275,2.41504470119476,1.05785748653412,2.0919607764244104
5.206475242277408,-1.33795090427399,0.437547427940369,-1.8286861962318401
5.207080935796487,-0.858946998023987,-2.65921282596588,-0.0659518212318419
5.207686629315566,1.57439284572601,4.08516217403412,-0.42999478998184204
5.208292322834646,-1.60858811130524,-2.08440813846588,-0.554535805606842
5.208898016353725,0.47507888088226297,-2.01016253299713,0.231030600643158
5.209503709872804,1.55283766994476,4.56895611934662,0.836970542049408
5.210109403391884,-3.1222404550552403,-1.64372454471588,-0.025236489200592002
5.210715096910963,2.24499831447601,-1.41380266971588,-2.26218473138809
5.211320790430042,-0.173971412086487,1.20155865840912,0.6118387061119079
5.211926483949122,-1.39064133396149,-1.21022600955963,0.657344077205658
5.212532177468201,1.63666335353851,1.7859434240341199,1.7422879248619099
5.21313787098728,-1.2637052988052402,0.0208140295028687,-1.05988492670059
5.21374356450636,-0.250612037086487,-2.89631975955963,-2.07776822748184
5.214349258025439,1.17921462306976,2.9666880529403703,-0.877863442325592
5.214954951544518,-1.60379807224274,-0.48693011112213097,1.3063943701744098
5.215560645063598,0.460708763694763,-1.46649309940338,1.65846224126816
5.216166338582677,1.8713752676010098,3.1032041662216203,-0.44196988763809203
5.216772032101756,-2.80130783786774,-2.02932268924713,-0.0851119774818419
5.217377725620836,1.8570051504135099,-0.204317806434631,-1.1053902977943402
5.217983419139915,-0.26258713474273704,2.0757407873153704,-0.961689125919342
5.218589112658994,-1.5463176034927402,-2.82207415409088,1.37584993658066
5.2191948061780735,1.95759597072601,1.63745221309662,1.52194612798691
5.219800499697153,-1.64211838474274,0.607593814659119,-1.2730416649818401
5.220406193216233,-0.698480689430237,-2.91308489627838,-1.56044400873184
5.221011886735312,2.23781325588226,2.3679331701278703,-0.777272622013092
5.221617580254391,-1.45530686130524,-0.7336171228408811,1.26088899908066
5.222223273773471,0.281082298851013,-1.36350725955963,-0.101877114200592
5.22282896729255,1.27741042385101,3.56783795528412,0.8728958350181579
5.223434660811629,-2.4204997323989903,-1.8664613611221301,-0.760507485294342
5.224040354330709,1.9599909902572599,-2.08680315799713,-1.6825900048255902
5.224646047849788,-0.48053391208648705,3.07446393184662,0.614233725643158
5.225251741368867,-1.24933518161774,-1.50002337284088,1.6704373389244098
5.225857434887947,2.00789138088226,0.772850162315369,1.03096712408066
5.226463128407026,-1.18466965427399,-0.273773372840881,-2.2789498681068396
5.227068821926105,-1.41938156833649,-2.15386370487213,-0.279108559513092
5.227674515445185,2.20428298244476,3.9773862951278702,-1.22035123529434
5.228280208964264,-1.71636399021149,-1.66048968143463,1.5075760107994098
5.228885902483343,0.388858177757263,-2.4891664392471298,0.700454428768158
5.229491596002423,1.61271315822601,4.03726178340912,-0.736557289981842
5.230097289521502,-3.09350022068024,-1.28207659549713,-1.2035860985755902
5.230702983040581,2.1899128652572597,-1.56947893924713,-0.7844576806068421
5.231308676559661,0.012840111351013199,2.1451963537216203,1.35668978033066
5.23191437007874,-1.4696769784927401,-1.4090126306533801,0.046614096736908
5.2325200635978195,1.3612361074447599,1.78833844356537,1.74947298345566
5.233125757116899,-0.437423560523987,-0.149232357215881,-1.20119107904434
5.233731450635978,-1.0289933847427402,-3.0639711267471297,-1.77839078607559
5.234337144155058,1.76599440822601,2.91160260372162,-0.583276039981842
5.234942837674137,-1.4217765878677402,0.274686099815369,2.48474397954941
5.235548531193216,0.5517195058822629,-1.80179583377838,1.10760774908066
5.236154224712296,1.94562087306976,2.3487730138778704,-2.12087857904434
5.236759918231375,-3.05757492771149,-1.6485145837783801,-0.09469205560684191
5.237365611750454,1.75641433010101,-0.211502865028381,-0.16175260248184198
5.237971305269534,-0.229056861305237,2.63617535762787,0.130439780330658
5.238576998788613,-1.31879074802399,-2.6711879236221296,1.0836575537681599
5.239182692307692,1.71090895900726,1.24227399044037,0.707639487361908
5.239788385826772,-1.25891525974274,0.789615299034119,-1.59876432123184
5.240394079345851,-1.4265666269302402,-2.57059710330963,-0.932948891544342
5.24099977286493,2.40067458400726,2.37272320919037,0.319646323299408
5.24160546638401,-1.4648869394302402,-0.355204036903381,1.23933382329941
5.242211159903089,-0.07817063083648679,-2.16823382205963,-0.21204801263809198
5.242816853422168,1.71330397853851,3.86242535762787,-0.197677895450592
5.243422546941248,-2.53546066989899,-1.85448626346588,-1.11976041498184
5.244028240460327,1.56002272853851,-2.0436928064346302,-1.15808072748184
5.244633933979406,-0.09493576755523679,3.5295176427841204,1.6991775732994099
5.245239627498486,-1.37387619724274,-1.24136126346588,1.32555452642441
5.245845321017565,2.02226149806976,0.710579654502869,-0.327008950138092
5.246451014536644,-0.7655412363052371,-0.5947059900283811,-1.5724191063880901
5.247056708055724,-1.5558976816177401,-1.54073870487213,-0.353354164981842
5.247662401574803,2.16117263088226,3.3786314123153702,-0.22162809076309198
5.2482680950938825,-1.69959885349274,-1.4473329431533801,1.50518099126816
5.248873788612962,0.30742751369476295,-3.0998964197158796,0.18313021001815802
5.249479482132041,1.53128249416351,4.14503766231537,-0.7461373681068421
5.250085175651121,-3.11505539646149,-1.11921526737213,-1.1868209618568402
5.2506908691702,1.64624343166351,-1.65809466190338,-0.413229653263092
5.251296562689279,0.333772728538513,2.9403428380966203,1.50997103033066
5.251902256208359,-1.83611496677399,-1.99579241580963,-0.497055336856842
5.252507949727438,1.1097590566635098,1.99431012325287,1.10281771001816
5.253113643246517,-0.0518254159927368,-0.0630116540908813,-0.966479164981842
5.253719336765597,-1.4050114511489902,-2.94182513065338,-1.41913785638809
5.254325030284676,2.0102864004135097,2.7942466466903704,0.130439780330658
5.254930723803755,-1.3930363534927401,0.408807193565369,1.8835940772056599
5.255536417322835,0.10145583400726299,-2.1897889978408798,0.27653597173690797
5.256142110841914,1.8067097402572598,2.23620709590912,-1.51972867670059
5.256747804360993,-2.88513352146149,-1.36111224002838,0.185525229549408
5.257353497880073,1.99352126369476,-0.7144569665908811,-0.317428872013092
5.257959191399152,0.10145583400726299,3.09122906856537,0.441792319393158
5.258564884918231,-1.35950608005524,-2.8771596033096296,0.815415366268158
5.259170578437311,1.7420442129135099,1.33567975215912,0.360361655330658
5.25977627195639,-0.937982642555237,0.971636783409119,-1.62989957513809
5.260381965475469,-1.42896164646149,-2.42450091190338,-0.346169106388092
5.260987658994549,2.57311599025726,2.29368756465912,0.290906088924408
5.2615933525136285,-1.2301750253677401,-0.412684505653381,0.432212241268158
5.262199046032707,-0.308092505836487,-2.10356829471588,0.707639487361908
5.262804739551787,1.65103347072601,3.7953648107528704,-0.540165688419342
5.263410433070866,-2.46121506443024,-1.79700579471588,-1.13413053216934
5.264016126589945,1.39476638088226,-2.3981556970596296,-0.571300942325592
5.264621820109025,0.00565505275726318,3.5558628576278704,1.64169710454941
5.265227513628104,-1.81934983005524,-1.49762835330963,0.305276206111908
5.265833207147184,1.88095534572601,0.648309146690369,-1.27064664545059
5.266438900666263,-0.530829322242737,-0.00553118534088134,-0.662311684513092
5.267044594185342,-1.54392258396149,-1.7251552087783801,-0.238393227481842
5.267650287704422,2.2665534902572597,3.17744977169037,-0.988034340763092
5.268255981223501,-1.2948405527114901,-1.15035052127838,1.05491731939316
5.26886167474258,0.14696120510101301,-3.16456194705963,0.987856772518158
5.26946736826166,1.4594319082260099,4.13306256465912,-1.36884244623184
5.270073061780739,-2.95458908786774,-0.848578060340881,-0.164147622013092
5.2706787552998176,1.68456374416351,-1.72994524784088,-0.147382485294342
5.271284448818898,0.697815697288513,2.73916119747162,0.925586264705658
5.271890142337977,-1.8552751230239901,-1.85927630252838,-0.741347329044342
5.272495835857056,1.4977522207260099,1.79791852169037,0.343596518611908
5.273101529376136,-0.154811255836487,0.772850162315369,0.046614096736908
5.273707222895215,-1.4145915292739901,-3.5429750329971297,-1.7137252587318401
5.274312916414294,1.65342849025726,2.1619614904403703,0.362756674861908
5.2749186099333745,-1.43375168552399,1.24945904903412,0.745959799861908
5.275524303452453,-0.236241919898987,-2.73585345096588,0.281326010799408
5.276129996971532,2.28810866603851,2.13322125606537,-1.4095577782630901
5.276735690490612,-2.83483811130524,-0.803072689247131,0.834575522518158
5.277341384009691,1.5576277090072599,-0.458189876747131,0.585493491268158
5.27794707752877,0.360117943382263,2.9834531896591203,-0.034816567325592
5.27855277104785,-2.09477707614899,-3.13582171268463,0.475322592830658
5.279158464566929,1.9911262441635098,1.22790387325287,-1.11257535638809
5.279764158086008,-0.8876872323989871,1.0674375646591199,-0.147382485294342
5.280369851605088,-0.813441626930237,-2.5921522790908798,0.290906088924408
5.280975545124167,2.64496657619476,1.85300397090912,0.38910188970565796
5.281581238643246,-1.16311447849274,-0.328858822059631,-0.128222329044342
5.282186932162326,-0.569149634742737,-1.97902727909088,0.12085970220565799
5.282792625681405,1.6821687246322599,3.3858164709091203,-0.41083463373184204
5.283398319200485,-2.02532150974274,-1.5287636072158801,-1.70654020013809
5.2840040127195635,1.24867018947601,-2.36462542362213,-0.497055336856842
5.284609706238643,0.664285423851013,3.93906598262787,1.3878250342369098
5.285215399757723,-2.01574143161774,-1.61258929080963,0.161575034236908
5.285821093276802,2.19949294338226,0.0926646154403687,-1.84784635248184
5.2864267867958805,-0.30090744724273705,0.449522525596619,0.319646323299408
5.287032480314961,-1.91754563083649,-2.1131483728408798,0.765119956111908
5.28763817383404,2.26894850978851,2.5379795568466204,-0.25994840326309204
5.288243867353119,-1.38585129489899,-0.5324354822158811,0.978276694393158
5.288849560872199,0.08469069728851321,-3.00649065799713,0.33880647954940796
5.289455254391278,1.5025422597885099,3.4720371740341203,-1.35926236810684
5.290060947910357,-2.66479172458649,-0.5923109704971311,-0.42999478998184204
5.290666641429437,1.37321120510101,-1.40422259159088,-0.204862954044342
5.291272334948516,0.954082787132263,3.14152447872162,0.453767417049408
5.291878028467595,-2.28158859958649,-2.0532728845596298,0.199895346736908
5.292483721986675,1.4905671621322598,1.1488682287216199,-1.00479947748184
5.293089415505754,-0.12846604099273698,1.14407818965912,-0.346169106388092
5.293695109024833,-1.72833908786774,-3.68428118534088,-0.408439614200592
5.294300802543913,2.0605818105697598,1.83863385372162,1.1698782568931598
5.294906496062992,-1.2900505136489901,1.59434186153412,0.6932693701744079
5.295512189582071,-0.231451880836487,-2.7310634119033796,-0.497055336856842
5.296117883101151,1.79473464260101,2.0757407873153704,-1.0503048485755901
5.29672357662023,-2.36301926364899,-0.9779091150283811,-0.413229653263092
5.2973292701393095,1.01156325588226,-0.611471126747131,-0.691051918888092
5.297934963658389,0.803196556663513,3.3498911779403704,1.11239778814316
5.298540657177468,-1.91754563083649,-2.82925921268463,1.0836575537681599
5.299146350696547,2.26894850978851,0.138169986534119,-2.23823453607559
5.2997520442156265,-0.952352759742737,1.79791852169037,-0.758112465763092
5.300357737734706,-1.4744670175552401,-2.51072161502838,0.829785483455658
5.300963431253786,2.57072097072601,1.4051353185653699,1.5458963232994098
5.301569124772865,-1.38585129489899,0.0447642248153687,-0.877863442325592
5.302174818291944,-0.5068791269302371,-2.1897889978408798,0.19271028814315802
5.302780511811024,1.68456374416351,3.80973492794037,-0.5257955712318421
5.303386205330103,-1.7307341073989901,-2.1562587244033797,-2.10171842279434
5.303991898849182,0.716975853538513,-2.05087786502838,-0.015656411075592
5.304597592368262,1.03551345119476,4.26957867794037,1.9865799170494098
5.305203285887341,-2.53067063083649,-1.6652797204971301,0.175945151424408
5.30580897940642,1.87616530666351,-0.685716732215881,-2.55437711420059
5.3064146729255,0.0415803457260132,0.550113345909119,0.101699545955658
5.307020366444579,-1.69720383396149,-1.73952532596588,1.13874300298691
5.307626059963658,2.18512282619476,2.26015729122162,1.25609896001816
5.308231753482738,-1.57984787693024,0.0950596349716187,0.793860190486908
5.308837447001817,-0.205106665992737,-2.9705653650283796,-0.853913247013092
5.309443140520896,1.54804763088226,3.24451031856537,-2.09453336420059
5.310048834039976,-2.19536789646149,-0.989884212684631,-0.0779269188880919
5.310654527559055,1.22711501369476,-0.987489193153381,0.808230307674408
5.311260221078134,1.39716140041351,3.07206891231537,0.882475913143158
5.311865914597214,-2.57138596286774,-2.64963274784088,-0.22641812982559198
5.312471608116293,1.3229157949447599,0.808775455284119,-2.0562130517005897
5.3130773016353725,-0.150021216773987,1.42190045528412,-0.8251730126380921
5.313682995154452,-1.64690842380524,-3.41843401737213,1.0333621436119098
5.314288688673531,2.21865309963226,1.9871250646591199,2.34343782720566
5.314894382192611,-1.3762712167739901,1.55841656856537,0.111279624080658
5.31550007571169,-0.914032447242737,-3.1501918298721296,-1.49817350091934
5.316105769230769,2.15638259181976,2.1547764318466203,-1.83826627435684
5.316711462749849,-1.78821457614899,-1.03299456424713,0.18792024908065802
5.317317156268928,0.678655541038513,-0.6761366540908811,0.041824057674408006
5.317922849788007,1.29178054103851,3.9342759435653702,1.61774690923691
5.318528543307087,-2.04208664646149,-2.7047181970596297,-0.16654264154434198
5.319134236826166,1.8067097402572598,-0.645001400184631,-3.38544889154434
5.319739930345245,-0.650580298805237,2.0493955724716204,-0.463525063419342
5.320345623864325,-1.16790451755524,-2.04608782596588,2.24284700689316
5.320951317383404,2.64736159572601,1.33807477169037,2.42247347173691
5.321557010902483,-1.00504318943024,0.0208140295028687,-1.4215328759193402
5.322162704421563,-1.1223991464614902,-2.28798479862213,-0.815592934513092
5.322768397940642,1.9432258535385099,3.6061582677841204,-1.28262174310684
5.323374091459721,-1.60858811130524,-1.89280657596588,-0.12103727045059201
5.323979784978801,0.49663405666351296,-2.10356829471588,1.1866433936119098
5.32458547849788,1.49296218166351,4.92820904903412,1.30399935064316
5.325191172016959,-3.00009445896149,-1.67485979862213,-1.2466964501380902
5.325796865536039,1.73964919338226,-1.55271380252838,-2.83219937982559
5.326402559055118,0.0439753652572632,1.49854108028412,0.568728354549408
5.327008252574197,-1.41219650974274,-1.68443987674713,1.41656526861191
5.327613946093277,2.01507643947601,1.95119977169037,1.94586458501816
5.328219639612356,-1.15832443943024,0.260315982627869,-0.588066079044342
5.3288253331314355,-0.48053391208648705,-3.37771868534088,-1.5508639306068401
5.329431026650515,1.62468825588226,2.94273785762787,-1.74486051263809
5.330036720169594,-2.16662766208649,-0.336043880653381,1.43333040533066
5.330642413688674,0.47747390041351295,-1.11682024784088,1.3279495459556598
5.331248107207753,1.72288405666351,3.00261334590912,-0.552140786075592
5.331853800726832,-2.90668869724274,-2.08440813846588,-0.899418618106842
5.332459494245912,1.62947829494476,0.162120181846619,-2.50168668451309
5.333065187764991,-0.0182951425552368,2.05418561153412,-0.061161782169342
5.33367088128407,-1.2565202402114901,-2.88673968143463,1.8788040381431599
5.33427657480315,2.16117263088226,1.5464414709091199,2.30032747564316
5.334882268322229,-1.2900505136489901,1.31651959590912,-1.0550948876380901
5.335487961841308,-1.09844895114899,-3.32502825565338,-2.25020963373184
5.336093655360388,2.1899128652572597,1.95838483028412,-0.580881020450592
5.336699348879467,-1.56068772068024,-0.671346615028381,1.6704373389244098
5.337305042398546,0.11103591213226299,-1.10245013065338,0.580703452205658
5.337910735917626,1.8114997793197598,3.70674908809662,0.913611167049408
5.338516429436705,-2.54504074802399,-2.22331927127838,-1.35686734857559
5.339122122955784,1.74922927150726,-1.71318011112213,-2.55437711420059
5.3397278164748645,-0.518854224586487,3.30438580684662,0.777095053768158
5.340333509993943,-1.43854172458649,-1.66767474002838,2.23566194829941
5.340939203513022,2.27373854885101,1.03390729122162,1.22256868658066
5.341544897032102,-1.01222824802399,-0.0438514978408813,-2.33164029779434
5.3421505905511815,-1.43375168552399,-2.44605608768463,-0.853913247013092
5.34275628407026,1.7468342519760098,4.00612652950287,-0.5257955712318421
5.34336197758934,-1.56547775974274,-1.5886390954971301,0.9327713232994079
5.343967671108419,0.218811791038513,-2.25445452518463,0.528013022518158
5.344573364627498,1.93364577541351,4.22646832637787,-0.21204801263809198
5.345179058146578,-3.33300217380524,-1.42338274784088,-1.5939742821693401
5.345784751665657,1.9432258535385099,-1.95028704471588,-1.16287076654434
5.346390445184736,0.202046654319763,2.40385846309662,1.71354769048691
5.346996138703816,-1.9750260995864901,-1.73234026737213,0.144809897518158
5.347601832222895,1.4522468496322598,1.62068707637787,1.1100027686119098
5.348207525741975,-0.808651587867737,0.00883893184661866,-0.755717446231842
5.348813219261054,-0.959537818336487,-3.5693202478408796,-2.1400387352943397
5.349418912780133,1.6390583730697599,2.78945660762787,-0.274318520450592
5.350024606299213,-1.4696769784927401,-0.00553118534088134,1.86443392095566
5.350630299818292,0.41520339260101297,-1.74910540409088,0.786675131893158
5.3512359933373705,2.1204572988510098,2.7511362951278704,-1.96759732904434
5.351841686856451,-2.99290940036774,-1.69880999393463,-0.09708707513809191
5.35244738037553,1.83784499416351,-0.381549251747131,-0.13540738763809199
5.353053073894609,-0.159601294898987,3.0002183263778703,-0.425204750919342
5.353658767413689,-1.78821457614899,-2.82925921268463,1.1698782568931598
5.354264460932768,1.88574538478851,1.75480817012787,0.264560874080658
5.354870154451847,-1.0337834238052401,0.732134830284119,-0.980849282169342
5.3554758479709275,-0.909242408180237,-3.08552630252838,-1.23951139154434
5.356081541490006,2.31205886135101,2.32721783809662,0.595073569393158
5.356687235009085,-1.3116056894302401,-0.424659603309631,1.11958284673691
5.357292928528165,-0.205106665992737,-1.9478920251846301,-0.432389809513092
5.357898622047244,1.5839729238510099,3.5558628576278704,-0.044396645450592
5.358504315566323,-2.28637863864899,-1.5886390954971301,-1.7520455712318401
5.359110009085403,1.67498366603851,-2.10835833377838,-1.1652657860755902
5.359715702604482,-0.0494303964614868,3.7785996740341203,1.17706331548691
5.360321396123562,-1.7690544198989901,-1.59103411502838,1.8404837256431599
5.360927089642641,2.20188796291351,0.9955869787216189,-0.698236977481842
5.36153278316172,-0.8852922128677371,-0.35759905643463097,-1.5891842431068401
5.362138476680799,-1.28047043552399,-2.1323085290908796,-0.149777504825592
5.362744170199879,2.09650710353851,3.7378843420028702,-0.25994840326309204
5.363349863718958,-1.73791916599274,-1.58624407596588,1.71115267095566
5.363955557238038,0.676260521507263,-2.59694231815338,0.719614585018158
5.3645612507571165,1.20076979885101,4.13066754512787,-1.18921598138809
5.365166944276196,-2.81328293552399,-1.35871722049713,-1.84305631341934
5.365772637795276,1.81628981838226,-1.7682655603408801,-0.36053922357559204
5.366378331314355,0.7097907949447629,2.8565171545028702,1.59858675298691
5.3669840248334335,-1.88641037693024,-1.84969622440338,0.899241049861908
5.367589718352514,1.3923713613510098,1.5081211584091199,1.13874300298691
5.368195411871593,-0.40389328708648703,0.221995670127869,-1.28022672357559
5.368801105390672,-1.2565202402114901,-3.6459608728408797,-1.77120572748184
5.369406798909752,2.11566725978851,2.97866315059662,0.717219565486908
5.370012492428831,-1.5894279550552401,0.332166568565369,1.97220979986191
5.37061818594791,0.060740501976013196,-2.12512347049713,1.01659700689316
5.37122387946699,2.19949294338226,2.44217877559662,-2.28134488763809
5.371829572986069,-2.68395188083649,-1.77066057987213,-0.425204750919342
5.372435266505148,1.63666335353851,0.119009830284119,-0.018051430606842
5.373040960024228,0.204441673851013,3.0097984045028703,-0.00128629388809195
5.373646653543307,-1.7738444589614901,-2.5179066736221296,1.71594271001816
5.374252347062386,2.03423659572601,0.9788218420028689,-0.228813149356842
5.374858040581466,-1.4529118417739901,0.8973911779403689,-1.18921598138809
5.375463734100545,-0.997858130836487,-2.90589983768463,-0.829963051700592
5.376069427619624,2.13243239650726,2.1020860021591203,0.597468588924408
5.376675121138704,-1.3163957284927401,-0.0917518884658813,0.599863608455658
5.377280814657783,-0.226661841773987,-2.43647600955963,0.403472006893158
5.3778865081768625,1.33489089260101,3.60376324825287,-0.17612271966934198
5.378492201695942,-2.14028244724274,-1.81616595096588,-2.00352262201309
5.379097895215021,1.29417556056976,-1.92154681034088,-0.434784829044342
5.3797035887341,0.40562331447601296,3.81931500606537,1.03815218267441
5.3803092822531795,-2.15944260349274,-1.64372454471588,0.803440268611908
5.380914975772259,1.90730056056976,0.451917545127869,-1.64187467279434
5.381520669291339,-0.595494849586487,-0.247428157997131,-0.13540738763809199
5.382126362810418,-1.43375168552399,-2.01255755252838,0.6118387061119079
5.382732056329497,2.54437575588226,2.99782330684662,-0.813197914981842
5.383337749848577,-1.75468430271149,-1.03059954471588,1.8021634131431599
5.383943443367656,0.563694603538513,-3.06636614627838,0.185525229549408
5.384549136886735,1.3109406972885098,3.7618345373153703,-1.3544723290443401
5.385154830405815,-2.7198771738052403,-0.5971010095596311,-1.35686734857559
5.385760523924894,1.8450300527572598,-1.73234026737213,-0.228813149356842
5.386366217443973,0.805591576194763,2.94513287715912,1.19382845220566
5.386971910963053,-1.8840153573989902,-2.1562587244033797,-0.032421547794342
5.387577604482132,1.2893855215072598,1.28777936153412,-0.168937661075592
5.388183298001211,0.0439753652572632,0.792010318565369,-0.044396645450592
5.388788991520291,-1.7091789316177401,-3.79445208377838,-0.976059243106842
5.38939468503937,1.78275954494476,2.27692242794037,0.470532553768158
5.390000378558449,-1.67325363864899,0.8758360021591189,1.11239778814316
5.390606072077529,0.22120681056976302,-2.4388710290908797,-0.283898598575592
5.391211765596608,2.20428298244476,2.57629986934662,-0.947319008731842
5.391817459115687,-2.28637863864899,-1.46649309940338,-0.674286782169342
5.392423152634767,1.48338210353851,-0.336043880653381,-0.42041471185684204
5.393028846153846,0.537349388694763,3.00261334590912,0.422632163143158
5.3936345396729255,-1.8935954355239901,-2.88673968143463,1.0453372412681599
5.394240233192005,1.94562087306976,0.528558170127869,-1.33052213373184
5.394845926711084,-1.05294358005524,1.29496442012787,-0.154567543888092
5.395451620230164,-1.63493332614899,-2.4747963220596296,-0.276713539981842
5.396057313749243,2.48689528713226,1.62547711544037,0.7531448584556579
5.396663007268322,-1.4313566659927401,0.389647037315369,0.245400717830658
5.397268700787402,-0.145231177711487,-2.1754188806533796,0.669319174861908
5.397874394306481,1.17921462306976,4.173777896690369,0.36754671392440796
5.39848008782556,-1.65888352146149,-2.4388710290908797,-2.48492154779434
5.39908578134464,1.09059890041351,-2.39097063846588,-0.295873696231842
5.399691474863719,1.09059890041351,4.3078989904403695,1.36387483892441
5.400297168382798,-2.30553879489899,-1.69401995487213,1.02617708501816
5.400902861901878,1.97436110744476,0.111824771690369,-1.8023409813880902
5.401508555420957,-0.274562232398987,0.356116763877869,-0.061161782169342
5.402114248940036,-2.20973801364899,-1.61019427127838,0.053799155330658
5.402719942459116,2.55874587306976,2.53318951778412,-0.183307778263092
5.403325635978195,-1.89120041599274,-0.010321224403381301,1.15071810064316
5.403931329497274,0.6307551504135129,-2.98972552127838,-0.295873696231842
5.404537023016354,1.1265241933822598,3.31157086544037,-1.34249723138809
5.405142716535433,-2.30793381443024,-1.3659022790908801,-1.29699186029434
5.405748410054512,1.3612361074447599,-1.44493792362213,0.19271028814315802
5.406354103573592,1.38518630275726,3.2924107091903703,1.23454378423691
5.4069597970926715,-2.1642326425552403,-2.1658388025283797,0.302881186580658
5.40756549061175,1.08101882228851,1.31651959590912,-0.612016274356842
5.40817118413083,0.23078688869476302,0.9405015295028689,-0.928158852481842
5.408776877649909,-1.66367356052399,-3.65793597049713,-0.19528287591934199
5.4093825711689885,2.10848220119476,2.1715415685653703,1.29202425298691
5.409988264688068,-2.03011154880524,1.60392193965912,0.666924155330658
5.410593958207147,-0.08296066989898679,-2.98972552127838,-0.789247719669342
5.411199651726227,1.95520095119476,2.2721323888778704,-1.3113619774818401
5.411805345245306,-1.99418625583649,-1.28207659549713,-0.338984047794342
5.412411038764385,1.02114333400726,-0.530040462684631,-0.513820473575592
5.413016732283465,0.726555931663513,3.20379498653412,1.64648714361191
5.413622425802544,-1.89838547458649,-2.60412737674713,0.741169760799408
5.414228119321623,2.04142165431976,0.142960025596619,-2.1065084618568397
5.414833812840703,-0.842181861305237,1.5679966466903699,-0.532980629825592
5.415439506359782,-1.7211540292739902,-2.2161342126846297,0.822600424861908
5.416045199878861,2.99942946681976,1.53207135372162,1.1650882178306599
5.416650893397941,-1.5415275644302402,0.0232090490341187,-0.657521645450592
5.41725658691702,-0.437423560523987,-2.5945472986221296,0.26695589361190797
5.417862280436099,1.77317946681976,4.32226910762787,-0.43957486810684204
5.418467973955179,-1.76665940036774,-2.1658388025283797,-1.51733365716934
5.419073667474258,0.958872826194763,-1.98860735721588,-0.17612271966934198
5.419679360993337,1.1001789785385099,4.3414292638778695,1.83569368658066
5.4202850545124175,-2.60731125583649,-1.93112688846588,-0.0731368798255919
5.420890748031496,1.8833503652572599,-0.542015560340881,-2.00352262201309
5.421496441550575,-0.08535568943023679,0.7225547521591189,0.300486167049408
5.422102135069655,-1.84809006443024,-1.81377093143463,0.259770835018158
5.4227078285887345,2.18751784572601,1.99191510372162,0.286116049861908
5.423313522107813,-1.58224289646149,-0.039061458778381304,0.537593100643158
5.423919215626893,0.14696120510101301,-2.9346400720596297,-0.48987027826309204
5.424524909145972,1.37560622463226,3.3091758459091203,-1.17963590326309
5.425130602665051,-2.22650315036774,-1.05933977909088,0.41784212408065796
5.425736296184131,1.28220046291351,-1.29165667362213,-0.0683468407630919
5.42634198970321,1.5408625722885099,2.9403428380966203,-0.008471352481841951
5.426947683222289,-2.4300798105239902,-2.4819813806533797,0.29809114751815796
5.427553376741369,1.65821852931976,0.7417149084091189,0.190315268611908
5.428159070260448,-0.15241623630523699,1.97754498653412,-0.659916664981842
5.428764763779528,-1.62056320896149,-3.7297865564346298,0.26935091314315796
5.429370457298607,1.91927565822601,1.82665875606537,0.868105795955658
5.429976150817686,-1.6157731698989901,1.5679966466903699,-0.554535805606842
5.430581844336766,-0.317672583961487,-3.17893206424713,-0.647941567325592
5.431187537855845,2.57311599025726,2.5140293615341203,-0.494660317325592
5.4317932313749235,-2.0013713144302403,-0.587520931434631,0.777095053768158
5.432398924894004,0.491844017601013,-0.9563539392471311,-1.4311129540443401
5.433004618413083,1.0882038808822598,3.1199693029403703,1.09563265142441
5.433610311932162,-2.21213303318024,-2.54664690799713,0.14720491704940802
5.434216005451242,2.0701618886947597,-0.381549251747131,-1.68977506341934
5.434821698970321,-0.897267310523987,2.31045270137787,-0.046791664981842
5.4354273924894,-1.2948405527114901,-2.01974261112213,1.1267679053306598
5.4360330860084805,2.51803054103851,1.58955182247162,0.868105795955658
5.436638779527559,-0.940377662086487,-0.0582216150283813,-1.5724191063880901
5.437244473046638,-0.9475627206802371,-2.57059710330963,0.9327713232994079
5.437850166565718,1.9049055410385098,4.10432233028412,-0.27192350091934203
5.438455860084797,-1.7307341073989901,-1.62216936893463,-0.590461098575592
5.439061553603876,0.764876244163513,-2.35983538455963,-0.31982389154434204
5.439667247122956,1.22232497463226,4.46836529903412,0.760329917049408
5.440272940642035,-2.98811936130524,-2.01734759159088,-0.841938149356842
5.440878634161115,2.32163893947601,-0.901268490028381,-1.1317355126380901
5.441484327680194,0.10385085353851299,1.59913190059662,1.0501272803306598
5.442090021199273,-1.95586594333649,-1.82095599002838,-0.11624723138809201
5.442695714718352,1.65582350978851,2.04221051387787,0.25737581548690797
5.443301408237432,-0.8445768808364871,-0.17557757205963098,-0.446759926700592
5.443907101756511,-0.250612037086487,-2.9442201501846297,-0.44196988763809203
5.444512795275591,1.9001155019760099,3.0792539709091202,-0.578486000919342
5.4451184887946695,-1.9319157480239901,-0.201922786903381,1.35429476079941
5.445724182313749,0.786431419944763,-1.72994524784088,-0.288688637638092
5.446329875832829,1.6390583730697599,2.77269147090912,-1.24909146966934
5.446935569351908,-2.51869553318024,-2.24487444705963,0.034638999080658005
5.447541262870987,1.43548171291351,0.5213731115341189,0.324436362361908
5.448146956390067,-0.0661955331802368,2.54516461544037,-0.11864225091934201
5.448752649909146,-1.4145915292739901,-3.36813860721588,0.274140952205658
5.449358343428225,1.7803645254135099,1.69253766231537,-0.00607633295059195
5.449964036947305,-1.09844895114899,0.9788218420028689,-0.832358071231842
5.450569730466384,-0.839786841773987,-2.56341204471588,0.259770835018158
5.451175423985463,2.56114089260101,2.27692242794037,-0.09948209466934191
5.451781117504543,-2.03011154880524,-0.5611757165908811,0.539988120174408
5.452386811023622,0.134986107444763,-1.75389544315338,-1.92448697748184
5.452992504542701,1.0666487051010098,3.31157086544037,0.956721518611908
5.453598198061781,-1.80018967380524,-2.20415911502838,0.116069663143158
5.45420389158086,1.91448561916351,-1.29405169315338,-0.813197914981842
5.454809585099939,-0.700875708961487,3.02177350215912,0.5519632178306579
5.455415278619019,-1.33795090427399,-1.9478920251846301,0.798650229549408
5.456020972138098,1.8617951894760099,0.8399107091903689,0.226240561580658
5.456626665657177,-0.643395240211487,-0.197132747840881,-1.43829801263809
5.457232359176257,-1.20622483005524,-2.03650774784088,1.8452737647056598
5.457838052695336,2.18272780666351,3.45766705684662,0.190315268611908
5.4584437462144155,-1.97742111911774,-1.68204485721588,-0.025236489200592002
5.459049439733495,0.542139427757263,-3.07834124393463,-1.35686734857559
5.459655133252574,1.00677321681976,4.446810123252869,0.144809897518158
5.460260826771653,-2.61210129489899,-1.38027239627838,0.20708040533065802
5.460866520290733,2.2402082754135098,-1.04017962284088,-0.432389809513092
5.461472213809812,0.09187575588226321,1.89850934200287,0.7124295264244079
5.462077907328892,-1.63732834568024,-1.97663225955963,-1.04790982904434
5.462683600847971,0.860677025413513,1.82186871700287,0.599863608455658
5.46328929436705,-0.370363013648987,0.0854795568466187,0.056194174861908
5.46389498788613,-0.437423560523987,-2.51311663455963,-0.286293618106842
5.464500681405209,1.6486384511947598,2.44696881465912,-0.528190590763092
5.465106374924288,-2.0708268808364902,-0.0438514978408813,0.798650229549408
5.465712068443368,0.43436354885101297,-2.05087786502838,-0.779667641544342
5.466317761962447,1.63666335353851,2.84454205684662,-1.0503048485755901
5.466923455481526,-2.49474533786774,-1.75150042362213,1.19861849126816
5.467529149000606,1.21513991603851,-0.0414564783096313,-0.058766762638091996
5.468134842519685,-0.20271164646148698,2.3942783849716203,-0.942528969669342
5.468740536038764,-1.17748459568024,-3.1406117517471297,-0.295873696231842
5.469346229557844,1.8450300527572598,1.07462262325287,1.13634798345566
5.469951923076923,-1.10802902927399,0.507002994346619,-0.355749184513092
5.470557616596002,-0.799071509742737,-2.3789955408096297,-0.051581704044341994
5.471163310115082,2.36235427150726,2.36553815059662,-0.597646157169342
5.471769003634161,-1.59900803318024,-0.9156386072158811,-0.022841469669342
5.47237469715324,0.16133132228851302,-1.8664613611221301,-1.15808072748184
5.47298039067232,1.2798054433822599,4.04205182247162,1.1698782568931598
5.473586084191399,-2.10196213474274,-1.44254290409088,0.647763999080658
5.4741917777104785,1.46182692775726,-1.98142229862213,-1.73767545404434
5.474797471229558,-0.425448462867737,2.7966416662216202,0.108884604549408
5.475403164748637,-1.3451359628677402,-1.53834368534088,-0.513820473575592
5.476008858267717,1.93604079494476,0.6051987951278689,0.6309988623619079
5.476614551786796,-0.715245826148987,0.145355045127869,-0.463525063419342
5.477220245305875,-1.2948405527114901,-1.73713030643463,0.393891928768158
5.477825938824954,2.11806227931976,3.7187241857528703,-1.15808072748184
5.478431632344034,-1.51039231052399,-1.95986712284088,0.032243979549408004
5.479037325863113,0.47747390041351295,-3.16935198612213,-0.010866372013092
5.479643019382193,1.75641433010101,4.80366803340912,0.0969095068931581
5.480248712901272,-2.93063889255524,-0.683321712684631,0.07056429204940809
5.480854406420351,2.05579177150726,-1.8065858728408801,-0.849123207950592
5.481460099939431,0.36490798244476297,1.91048443965912,-0.022841469669342
5.48206579345851,-1.45051682224274,-1.86167132205963,-1.6873800438880902
5.482671486977589,1.14089431056976,1.83384381465912,1.73510286626816
5.483277180496669,-0.185946509742737,0.487842838096619,0.884870932674408
5.483882874015748,-0.7655412363052371,-3.03283587284088,-1.24430143060684
5.484488567534827,1.3612361074447599,2.8110117834091204,-1.1053902977943402
5.485094261053907,-1.33795090427399,0.265106021690369,0.784280112361908
5.485699954572986,0.163726341819763,-2.30474993534088,0.460952475643158
5.486305648092065,2.1970979238510098,2.7104209630966203,-0.6263863915443421
5.486911341611145,-2.64802658786774,-1.16232561893463,0.9112161475181579
5.4875170351302245,1.21513991603851,-0.668951595497131,-0.15696256341934198
5.488122728649303,0.0463703847885132,2.48289410762787,-1.46224820795059
5.488728422168383,-1.27807541599274,-2.93943011112213,0.14720491704940802
5.489334115687462,1.88095534572601,1.8074985998153699,1.43333040533066
5.4899398092065415,-0.676925513648987,0.9213413732528689,0.041824057674408006
5.490545502725621,-1.1966447519302401,-2.49395647830963,-0.511425454044342
5.4911511962447,2.14201247463226,2.25057721309662,-1.1748458642005901
5.49175688976378,-1.3666911386489902,-0.6785316736221311,0.13283479986190802
5.492362583282859,-0.439818580055237,-1.90238665409088,0.216660483455658
5.492968276801938,1.51691237697601,3.61334332637787,0.362756674861908
5.493573970321018,-2.1043571542739903,-1.40182757205963,-0.7652975243568421
5.494179663840097,1.21034987697601,-2.5083265954971297,-1.03593473138809
5.494785357359176,-0.200316626930237,3.34749615840912,0.0945144873619081
5.495391050878256,-1.23736008396149,-1.77545061893463,0.125649741268158
5.495996744397335,2.0438166738510097,0.792010318565369,0.319646323299408
5.496602437916414,-0.32246262302398704,0.111824771690369,-0.26234342279434203
5.497208131435494,-1.9151506113052401,-1.9047816736221301,0.190315268611908
5.497813824954573,2.21146804103851,3.2325352209091203,-1.33531217279434
5.498419518473652,-1.4361467050552401,-0.848578060340881,0.27653597173690797
5.499025211992732,0.142171166038513,-2.96338030643463,0.793860190486908
5.499630905511811,1.5624177480697599,3.6253184240341203,-0.631176430606842
5.50023659903089,-3.05996994724274,-0.355204036903381,-0.530585610294342
5.5008422925499705,1.81389479885101,-1.66767474002838,-1.00479947748184
5.501447986069049,0.597224876976013,2.56192975215912,0.647763999080658
5.502053679588128,-1.7211540292739902,-2.31672503299713,-0.0683468407630919
5.502659373107208,1.27022536525726,1.74522809200287,0.508852866268158
5.5032650666262874,0.0583454824447632,0.614778873252869,-0.063556801700592
5.503870760145366,-1.3283708261489902,-3.4591493494033796,-1.0838351220130902
5.504476453664446,2.07495192775726,2.1715415685653703,-0.09708707513809191
5.505082147183525,-1.5846379159927402,1.26382916622162,0.607048667049408
5.505687840702604,-0.35120285739898705,-2.27121966190338,0.523222983455658
5.506293534221684,2.17075270900726,2.1811216466903702,-1.28022672357559
5.506899227740763,-2.7462223886489903,-0.9922792322158811,0.046614096736908
5.507504921259842,1.2582502676010099,-0.5779408533096311,-0.8443331688880921
5.508110614778922,0.41759841213226295,3.3953965490341202,0.470532553768158
5.508716308298001,-1.5415275644302402,-3.2795228845596296,0.796255210018158
5.509322001817081,1.88574538478851,0.7249497716903689,-0.789247719669342
5.50992769533616,-0.478138892555237,1.09378277950287,0.08493440923690809
5.510533388855239,-1.40022141208649,-2.53946184940338,-0.475500161075592
5.511139082374319,2.39588454494476,1.28777936153412,0.0873294287681581
5.511744775893398,-1.19903977146149,0.0447642248153687,-0.374909340763092
5.5123504694124765,-0.166786353492737,-1.99579241580963,0.839365561580658
5.512956162931557,1.7851545644760098,3.6348985021591202,0.027453940486908
5.513561856450636,-2.03969162693024,-1.60779925174713,-1.7209103173255902
5.514167549969715,0.982823021507263,-2.3119349939346296,-1.17724088373184
5.514773243488795,0.558904564476013,4.38932965450287,1.52194612798691
5.515378937007874,-1.71636399021149,-1.89520159549713,0.997436850643158
5.515984630526953,1.81389479885101,0.011233951377868699,-1.33052213373184
5.5165903240460334,0.187676537132263,0.277081119346619,-0.042001625919342
5.517196017565112,-1.97742111911774,-1.65569964237213,0.738774741268158
5.517801711084191,2.22823317775726,1.9655698888778699,-0.142592446231842
5.518407404603271,-1.3020256113052402,-0.48693011112213097,1.05491731939316
5.51901309812235,0.118220970726013,-2.56341204471588,0.714824545955658
5.519618791641429,1.5576277090072599,3.2397202795028703,-1.7041451806068402
5.520224485160509,-2.72706223239899,-0.704876888465881,-0.8060128563880921
5.520830178679588,1.0618586660385099,-1.69162493534088,-0.976059243106842
5.521435872198667,0.973242943382263,3.17505475215912,1.1483230811119098
5.522041565717747,-1.83850998630524,-2.18020891971588,0.425027182674408
5.522647259236826,0.982823021507263,1.0674375646591199,-0.0779269188880919
5.523252952755905,0.0679255605697632,1.29256940059662,-0.6048312157630921
5.523858646274985,-1.6109831308364901,-3.87348772830963,-1.10299527826309
5.524464339794064,1.78754958400726,1.65182233028412,1.2800491553306599
5.525070033313144,-1.03617844333649,1.53925641231537,0.664529135799408
5.5256757268322225,-0.497299048805237,-2.58257220096588,-0.22641812982559198
5.526281420351302,2.23781325588226,2.16435650997162,-1.03114469232559
5.526887113870382,-2.17141770114899,-1.01862444705963,0.16876009283065802
5.527492807389461,0.6307551504135129,-0.946773861122131,-1.6610348290443402
5.52809850090854,0.822356712913513,3.34031109981537,1.17466829595566
5.52870419442762,-1.68043869724274,-2.1299135095596298,1.4812307959556599
5.529309887946699,2.09411208400726,-0.07498675174713129,-1.91969693841934
5.529915581465778,-0.856551978492737,1.35723492794037,-0.657521645450592
5.530521274984858,-1.31400070896149,-2.58257220096588,0.18792024908065802
5.531126968503937,2.32403395900726,1.53207135372162,1.39501009283066
5.531732662023016,-1.32118576755524,0.23876080684661902,-0.688656899356842
5.532338355542096,-0.916427466773987,-2.50353655643463,0.492087729549408
