Time (s),Accel X (m/s^2),Accel Y (m/s^2),Accel Z (m/s^2)
7.0,0.11846094045639001,-0.0763198233604431,-0.310747609519958
7.000606060606061,0.10888086233139001,0.172762207889557,0.232921824073792
7.001212121212121,-0.05398046579360961,0.09372656335830691,0.158676218605042
7.001818181818182,-0.0108701142311096,-0.114640135860443,0.117960886573792
7.002424242424242,-0.14259618844986,-0.09547997961044309,0.101195749855042
7.003030303030303,-0.14499120798110998,0.08414648523330691,-0.10238091030120801
7.003636363636364,0.0609804717063904,-0.0739248038291931,-0.15507133998870798
7.004242424242424,-0.0659555634498596,0.000320801639556893,0.0173700662612918
7.004848484848485,0.0753505888938904,0.08654150476455691,0.237711863136292
7.005454545454546,-0.0204501923561096,0.0506162117958069,-0.05927055873870821
7.006060606060606,0.14959619436264002,-0.119430174922943,0.0868256326675418
7.006666666666667,-0.0132651337623596,-0.17212060461044298,-0.0808257345199582
7.007272727272727,-0.0276352509498596,-0.033209471797943105,-0.10238091030120801
7.007878787878788,-0.0300302704811096,0.223057618045807,0.0580853982925418
7.008484848484849,-0.051585446262359606,0.0482211922645569,0.695160593605042
7.009090909090909,0.11127588186264001,-0.0715297842979431,0.601754831886292
7.00969696969697,-0.13780614938736,0.10091162195205701,0.132331003761292
7.010303030303031,-0.11625097360610999,-0.0715297842979431,0.441288523292542
7.010909090909091,-0.24318700876236,-0.0691347647666931,-0.0041851095199581904
7.011515151515152,-0.0204501923561096,-0.174515624141693,-0.10717094936370801
7.012121212121212,0.00829004201889039,-0.124220213985443,0.0652704568862918
7.012727272727273,-0.07793066110610959,0.012295899295806899,0.00299994907379181
7.013333333333334,-0.23360693063736,-0.0691347647666931,0.110775827980042
7.013939393939394,-0.0132651337623596,-0.229601073360443,0.127540964698792
7.014545454545455,0.19989160451889001,-0.006864256954193111,0.0940106912612918
7.015151515151516,-0.17373144235611,0.0362460946083069,0.196996531105042
7.015757575757576,-0.0563754853248596,-0.037999510860443106,0.0269501443862918
7.016363636363637,0.0106850615501404,-0.0451845694541931,-0.10717094936370801
7.016969696969697,-0.046795407199859605,-0.198465819454193,0.00539496860504181
7.017575757575758,0.0274501982688904,0.0769614266395569,-0.0041851095199581904
7.0181818181818185,0.22863183889389,0.115281739139557,-0.0760356954574582
7.018787878787879,0.10409082326889,-0.059554686641693104,0.15388617954254202
7.0193939393939395,-0.0372153290748596,0.00271582117080689,0.110775827980042
7.02,0.03703027639389039,0.0170859383583069,0.127540964698792
7.0206060606060605,-0.0276352509498596,0.110491700077057,0.13951606235504202
7.0212121212121215,-0.12104101266860999,0.10330664148330701,-0.10477592983245801
7.0218181818181815,-0.0108701142311096,0.0170859383583069,0.0485053201675418
7.0224242424242425,0.10648584280014001,-0.129010253047943,0.0916156717300418
7.023030303030303,0.03703027639389039,-0.09787499914169309,-0.0377153829574582
7.0236363636363635,-0.0300302704811096,0.0386411141395569,0.0485053201675418
7.024242424242424,-0.039610348606109604,0.060196289920806896,0.158676218605042
7.0248484848484845,-0.0204501923561096,0.057801270389556896,0.163466257667542
7.025454545454545,0.0897207060813904,-0.006864256954193111,0.216156687355042
7.026060606060606,0.13043603811264,0.00271582117080689,0.0006049295425418089
7.026666666666666,0.0921157256126404,-0.119430174922943,0.034135202980041794
7.027272727272727,0.049005374050140396,-0.00207421789169311,0.0892206521987918
7.027878787878788,0.16875635061264,0.0218759774208069,-0.07124565639495821
7.028484848484848,-0.0611655243873596,0.117676758670807,0.0509003396987918
7.029090909090909,0.0154751006126404,0.211082520389557,0.182626413917542
7.029696969696969,0.0657705107688904,0.10330664148330701,0.271242136573792
7.03030303030303,-0.046795407199859605,0.108096680545807,0.108380808448792
7.030909090909091,0.12085595998764001,0.00271582117080689,-0.0161602071762082
7.031515151515151,-0.051585446262359606,-0.016444335079193097,0.192206492042542
7.032121212121212,-0.14978124704360998,-0.138590331172943,0.196996531105042
7.032727272727272,-0.12822607126236,0.012295899295806899,-0.188601613426208
7.033333333333333,0.15199121389389,0.0338510750770569,-0.186206593894958
7.033939393939394,-0.0372153290748596,0.0769614266395569,-0.0401104024887082
7.034545454545454,-0.044400387668609605,0.139231934452057,-0.0281353048324582
7.035151515151515,-0.00608007516860961,-0.0739248038291931,-0.0377153829574582
7.035757575757576,-0.07793066110610959,-0.00925927648544311,0.161071238136292
7.036363636363636,-0.0635605439186096,0.005110840702056889,0.151491160011292
7.036969696969697,-0.0970908173561096,-0.265526366329193,-0.0904058126449582
7.037575757575758,0.00350000295639039,-0.0499746085166931,-0.0616655782699582
7.038181818181818,0.15438623342514002,0.0985166024208069,-0.11435600795745801
7.038787878787879,0.12085595998764001,-0.09308496007919309,-0.011370168113708199
7.039393939393939,-0.051585446262359606,0.00271582117080689,0.220946726417542
7.04,0.0202651396751404,0.0625913094520569,0.582594675636292
7.040606060606061,-0.0851157196998596,0.055406250858306895,0.359857859230042
7.041212121212121,0.0561904326438904,0.026666016483306902,0.151491160011292
7.041818181818182,-0.051585446262359606,0.170367188358307,0.0892206521987918
7.042424242424242,0.044215334987640395,-0.006864256954193111,0.00539496860504181
7.043030303030303,-0.0659555634498596,-0.011654296016693102,0.24489692173004202
7.043636363636364,-0.08272070016860959,-0.030814452266693097,0.0269501443862918
7.044242424242424,0.0657705107688904,-0.198465819454193,0.163466257667542
7.044848484848485,-0.0252402314186096,0.029061036014556903,-0.0856157735824582
7.045454545454546,0.0250551787376404,-0.011654296016693102,-0.0880107931137082
7.046060606060606,0.0849306670188904,-0.018839354610443098,-0.06406059780120821
7.046666666666667,0.18073144826889,-0.0475795889854431,-0.11196098842620801
7.047272727272727,0.0346352568626404,-0.0499746085166931,0.0532953592300418
7.047878787878788,-0.15217626657486,0.0314560555458069,0.120355906105042
7.048484848484849,-0.12822607126236,-0.0236293936729431,0.120355906105042
7.049090909090909,0.0274501982688904,0.012295899295806899,-0.0928008321762082
7.04969696969697,0.0705605498313904,0.055406250858306895,0.00778998813629181
7.050303030303031,0.21186670217514,-0.0403945303916931,-0.0377153829574582
7.050909090909091,-0.044400387668609605,0.060196289920806896,0.0485053201675418
7.051515151515152,0.11846094045639001,-0.0212343741416931,0.237711863136292
7.052121212121212,-0.0372153290748596,-0.124220213985443,0.0197650857925418
7.052727272727273,-0.13541112985611,0.184737305545807,-0.11435600795745801
7.053333333333334,0.0561904326438904,0.0985166024208069,-0.11435600795745801
7.053939393939394,0.049005374050140396,-0.09308496007919309,-0.0928008321762082
7.054545454545455,0.0657705107688904,-0.133800292110443,-0.0257402853012082
7.055151515151516,-0.0683505829811096,-0.09547997961044309,-0.128726125144958
7.055757575757576,-0.11385595407485999,0.08414648523330691,0.0748505350112918
7.056363636363637,-0.13062109079361,-0.059554686641693104,0.220946726417542
7.056969696969697,0.09690576467514041,-0.191280760860443,-0.06885063686370821
7.057575757575758,0.0226601592063904,-0.033209471797943105,-0.176626515769958
7.058181818181819,-0.0635605439186096,-0.126615233516693,0.110775827980042
7.058787878787879,0.0058950224876403905,0.0482211922645569,-0.253267140769958
7.0593939393939396,-0.042005368137359604,0.0649863289833069,-0.0975908712387082
7.06,-0.044400387668609605,0.00990087976455689,-0.056875539207458206
7.0606060606060606,-0.12104101266860999,-0.030814452266693097,0.0748505350112918
7.0612121212121215,-0.19289159860611,0.053011231327056894,0.15388617954254202
7.0618181818181816,0.15199121389389,0.005110840702056889,0.0101850076675418
7.0624242424242425,0.13522607717514,-0.224811034297943,0.220946726417542
7.063030303030303,0.0897207060813904,-0.09068994054794309,-0.0137651876449582
7.0636363636363635,-0.18810155954361,0.0338510750770569,0.101195749855042
7.064242424242424,-0.18331152048111,0.165577149295807,-0.11196098842620801
7.0648484848484845,-0.0946957978248596,-0.0236293936729431,0.043715281105041796
7.065454545454545,-0.12104101266860999,-0.0212343741416931,0.0940106912612918
7.066060606060606,-0.12583105173111,-0.0811098624229431,-0.0185552267074582
7.066666666666666,-0.15696630563736,0.141626953983307,0.0700604959487918
7.067272727272727,0.0561904326438904,0.148812012577057,-0.0904058126449582
7.067878787878788,0.10409082326889,-0.09308496007919309,0.12993598423004202
7.068484848484848,0.0945107451438904,-0.133800292110443,-0.0209502462387082
7.069090909090909,-0.0563754853248596,-0.129010253047943,-0.0425054220199582
7.069696969696969,0.10409082326889,0.08414648523330691,0.41254828891754197
7.07030303030303,0.0849306670188904,-0.0499746085166931,0.45326362094879197
7.070909090909091,-0.0611655243873596,-0.117035155391693,0.18981147251129202
7.071515151515151,0.049005374050140396,-0.0715297842979431,-0.15028130092620798
7.072121212121212,-0.0012900361061096099,-0.148170409297943,0.0006049295425418089
7.072727272727272,-0.21684179391861,-0.061949706172943104,-0.0233452657699582
7.073333333333333,-0.049190426731109606,0.0482211922645569,-0.0305303243637082
7.073939393939394,0.0178701201438904,-0.09308496007919309,0.043715281105041796
7.074545454545454,0.0537954131126404,0.00271582117080689,-0.21015678920745798
7.075151515151515,-0.12822607126236,-0.00446923742294311,0.0317401834487918
7.075757575757576,0.0058950224876403905,-0.124220213985443,-0.119146047019958
7.076363636363636,0.20947168264389002,-0.100270018672943,-0.143096242332458
7.076969696969697,0.0130800810813904,-0.0811098624229431,-0.07124565639495821
7.077575757575757,0.0226601592063904,-0.09308496007919309,0.0485053201675418
7.078181818181818,0.039425295925140394,-0.006864256954193111,0.237711863136292
7.078787878787879,-0.0994858368873596,0.08175146570205691,0.132331003761292
7.079393939393939,-0.15217626657486,-0.035604491329193105,0.0556903787612918
7.08,0.0657705107688904,-0.129010253047943,0.0509003396987918
7.080606060606061,0.29329736623764,-0.00925927648544311,-0.06885063686370821
7.081212121212121,-0.07793066110610959,0.0697763680458069,0.0125800271987918
7.081818181818182,0.0729555693626404,-0.016444335079193097,0.20418158969879202
7.082424242424242,0.0729555693626404,-0.217625975704193,0.0868256326675418
7.083030303030303,-0.0635605439186096,-0.196070799922943,-0.0808257345199582
7.083636363636364,0.13283105764389,-0.006864256954193111,-0.0353203634262082
7.084242424242424,0.00829004201889039,-0.08829492101669309,0.20418158969879202
7.084848484848485,-0.044400387668609605,0.057801270389556896,0.132331003761292
7.085454545454545,-0.051585446262359606,0.08175146570205691,0.0006049295425418089
7.086060606060606,-0.15936132516860999,0.167972168827057,-0.11196098842620801
7.086666666666667,-0.19049657907486,0.165577149295807,0.223341745948792
7.087272727272727,0.00110498342514039,0.0194809578895569,-0.0041851095199581904
7.087878787878788,-0.049190426731109606,-0.061949706172943104,-0.0425054220199582
7.088484848484849,-0.0156601532936096,0.0170859383583069,0.038925242042541795
7.089090909090909,-0.0946957978248596,0.0194809578895569,-0.241292043113708
7.08969696969697,0.11846094045639001,-0.0715297842979431,0.12993598423004202
7.09030303030303,-0.049190426731109606,-0.0667397452354431,0.103590769386292
7.090909090909091,-0.12822607126236,-0.0715297842979431,0.0317401834487918
7.091515151515152,0.0298452178001404,-0.0236293936729431,0.28321723423004197
7.092121212121212,-0.0683505829811096,-0.102665038204193,0.0006049295425418089
7.092727272727273,0.22384179983139,-0.138590331172943,0.20418158969879202
7.093333333333334,0.0250551787376404,-0.0451845694541931,0.108380808448792
7.093939393939394,0.03703027639389039,0.029061036014556903,-0.15507133998870798
7.094545454545455,0.041820315456390394,0.055406250858306895,0.036530222511291795
7.095151515151515,-0.05398046579360961,0.0242709969520569,-0.00179008998870819
7.095757575757576,0.21665674123764,0.00271582117080689,0.228131785011292
7.096363636363637,0.0777456084251404,-0.08350488195419309,0.0940106912612918
7.096969696969697,-0.16894140329361,0.0434311532020569,0.0940106912612918
7.097575757575758,0.0322402373313904,0.148812012577057,0.288007273292542
7.098181818181819,0.09930078420639041,-0.138590331172943,0.022160105323791802
7.098787878787879,-0.07074560251235959,-0.102665038204193,-0.272427297019958
7.09939393939394,-0.0923007782936096,-0.035604491329193105,-0.21973686733245798
7.1,-0.042005368137359604,0.0338510750770569,0.27603217563629195
7.100606060606061,0.15199121389389,0.08654150476455691,0.27603217563629195
7.101212121212121,0.0202651396751404,0.060196289920806896,0.206576609230042
7.101818181818182,0.0537954131126404,-0.0691347647666931,0.266452097511292
7.102424242424242,-0.0851157196998596,-0.0475795889854431,0.13472602329254202
7.103030303030303,-0.046795407199859605,-0.0403945303916931,0.0772455545425418
7.103636363636364,0.00829004201889039,-0.124220213985443,0.06048041782379179
7.104242424242424,-0.00847509469985961,-0.0763198233604431,-0.0305303243637082
7.104848484848485,0.14959619436264002,-0.0284194327354431,0.177836374855042
7.105454545454545,0.20228662405014,0.0386411141395569,0.161071238136292
7.106060606060606,-0.0611655243873596,0.0146909188270569,0.13951606235504202
7.106666666666667,-0.10906591501235999,-0.17212060461044298,0.369437937355042
7.107272727272727,0.11606592092514001,-0.169725585079193,0.022160105323791802
7.107878787878788,-0.08272070016860959,-0.114640135860443,-0.10477592983245801
7.108484848484848,-0.18810155954361,-0.265526366329193,0.173046335792542
7.109090909090909,-0.13780614938736,-0.16254052648544298,0.0532953592300418
7.10969696969697,0.0106850615501404,0.0146909188270569,-0.0904058126449582
7.11030303030303,-0.0108701142311096,0.155997071170807,-0.0161602071762082
7.110909090909091,-0.0300302704811096,0.151207032108307,0.036530222511291795
7.111515151515152,0.0178701201438904,-0.016444335079193097,0.122750925636292
7.112121212121212,0.13522607717514,-0.0715297842979431,-0.0401104024887082
7.112727272727273,0.11127588186264001,0.0218759774208069,0.00539496860504181
7.113333333333333,-0.0683505829811096,-0.006864256954193111,-0.0257402853012082
7.113939393939394,-0.0372153290748596,-0.100270018672943,-0.116751027488708
7.114545454545455,-0.0683505829811096,0.0410361336708069,0.115565867042542
7.115151515151515,-0.0372153290748596,0.172762207889557,0.182626413917542
7.115757575757576,-0.11625097360610999,0.0482211922645569,0.0125800271987918
7.116363636363636,-0.0372153290748596,-0.08350488195419309,0.115565867042542
7.116969696969697,0.18312646780014,0.00750586023330689,0.125145945167542
7.117575757575758,0.16875635061264,-0.018839354610443098,0.0748505350112918
7.118181818181818,-0.16415136423111,-0.148170409297943,0.041320261573791796
7.118787878787879,-0.24558202829361,-0.061949706172943104,0.187416452980042
7.119393939393939,0.0154751006126404,-0.030814452266693097,0.043715281105041796
7.12,-0.0923007782936096,-0.0284194327354431,0.165861277198792
7.120606060606061,-0.12104101266860999,-0.0523696280479431,0.0580853982925418
7.121212121212121,-0.12583105173111,-0.0691347647666931,0.0269501443862918
7.121818181818182,-0.13301611032486,-0.09068994054794309,0.151491160011292
7.122424242424242,0.00829004201889039,-0.179305663204193,0.034135202980041794
7.123030303030303,-0.00847509469985961,-0.09787499914169309,-0.011370168113708199
7.123636363636364,-0.0659555634498596,-0.037999510860443106,0.120355906105042
7.124242424242424,0.041820315456390394,-0.112245116329193,0.223341745948792
7.124848484848485,0.0609804717063904,-0.143380370235443,0.0628754373550418
7.125454545454545,0.00350000295639039,-0.0763198233604431,-0.0425054220199582
7.126060606060606,0.11127588186264001,0.060196289920806896,0.15388617954254202
7.126666666666667,0.14959619436264002,0.194317383670807,0.29279731235504197
7.127272727272727,-0.0372153290748596,0.13683691492080702,-0.162256398582458
7.127878787878788,-0.0348203095436096,-0.0403945303916931,0.225736765480042
7.128484848484848,-0.0252402314186096,0.0362460946083069,-0.0041851095199581904
7.129090909090909,-0.05398046579360961,0.0410361336708069,-0.186206593894958
7.12969696969697,-0.0108701142311096,-0.100270018672943,-0.198181691551208
7.13030303030303,0.09690576467514041,-0.037999510860443106,0.237711863136292
7.130909090909091,-0.15936132516860999,0.0218759774208069,0.31435248813629196
7.131515151515152,-0.15696630563736,-0.0403945303916931,-0.0329253438949582
7.132121212121212,0.13762109670639,-0.0547646475791931,0.0676654764175418
7.132727272727273,-0.051585446262359606,-0.035604491329193105,0.022160105323791802
7.133333333333333,-0.0946957978248596,-0.09308496007919309,0.17544135532379201
7.133939393939394,0.0705605498313904,-0.006864256954193111,0.218551706886292
7.134545454545455,0.0154751006126404,-0.0763198233604431,-0.15986137905120798
7.135151515151515,0.0537954131126404,0.139231934452057,-0.0928008321762082
7.135757575757576,-0.0156601532936096,0.09372656335830691,0.256872019386292
7.136363636363636,-0.0587705048561096,-0.09068994054794309,-0.128726125144958
7.136969696969697,0.0130800810813904,0.146416993045807,0.23531684360504201
7.137575757575758,0.22623681936264,-0.059554686641693104,0.043715281105041796
7.138181818181818,-0.15696630563736,-0.267921385860443,0.06048041782379179
7.138787878787879,-0.15936132516860999,-0.181700682735443,-0.052085500144958205
7.139393939393939,0.21665674123764,-0.0811098624229431,-0.133516164207458
7.14,0.00829004201889039,-0.037999510860443106,0.0006049295425418089
7.140606060606061,-0.00847509469985961,-0.09068994054794309,-0.135911183738708
7.141212121212121,0.0585854521751404,-0.08829492101669309,-0.00897514858245819
7.141818181818182,0.0945107451438904,0.158392090702057,0.0293451639175418
7.142424242424242,-0.0659555634498596,0.00271582117080689,0.261662058448792
7.143030303030303,0.09930078420639041,-0.220020995235443,0.14909614048004202
7.1436363636363645,0.00829004201889039,0.00990087976455689,-0.00897514858245819
7.144242424242424,-0.0324252900123596,-0.0427895499229431,-0.20536675014495798
7.144848484848485,0.0202651396751404,-0.09787499914169309,0.12993598423004202
7.145454545454545,0.0178701201438904,0.0985166024208069,0.105985788917542
7.1460606060606064,0.19031152639389,-0.138590331172943,-0.135911183738708
7.146666666666667,-0.00608007516860961,-0.00207421789169311,-0.06406059780120821
7.1472727272727266,0.16157129201889,0.0434311532020569,0.0892206521987918
7.147878787878788,0.0921157256126404,-0.26073632726669305,0.256872019386292
7.148484848484848,-0.0324252900123596,-0.0427895499229431,-0.07364067592620821
7.149090909090909,-0.07074560251235959,-0.0763198233604431,0.038925242042541795
7.14969696969697,-0.0348203095436096,-0.08589990148544309,0.165861277198792
7.15030303030303,0.16636133108139,-0.124220213985443,0.0676654764175418
7.150909090909091,0.0202651396751404,0.215872559452057,-0.011370168113708199
7.151515151515152,-0.16415136423111,0.153602051639557,0.18981147251129202
7.152121212121212,-0.0300302704811096,-0.234391112422943,0.299982370948792
7.152727272727273,0.09690576467514041,-0.105060057735443,0.113170847511292
7.153333333333333,-0.10188085641861,-0.112245116329193,-0.0185552267074582
7.153939393939394,-0.0372153290748596,-0.0643447257041931,-0.0760356954574582
7.154545454545455,-0.19528661813736,-0.234391112422943,0.0197650857925418
7.155151515151515,0.0705605498313904,-0.037999510860443106,-0.217341847801208
7.155757575757576,0.0274501982688904,0.0338510750770569,-0.0329253438949582
7.156363636363636,-0.16894140329361,0.00750586023330689,-0.0784307149887082
7.156969696969697,-0.0228452118873596,0.117676758670807,-0.20536675014495798
7.157575757575758,-0.0899057587623596,0.146416993045807,0.254476999855042
7.158181818181818,0.23821191701889,-0.0236293936729431,0.23531684360504201
7.158787878787879,0.17594140920639,-0.169725585079193,0.326327585792542
7.159393939393939,-0.15696630563736,0.08893652429580691,-0.0401104024887082
7.16,0.0681655303001404,0.026666016483306902,0.321537546730042
7.160606060606061,-0.039610348606109604,0.0362460946083069,-0.0137651876449582
7.161212121212121,-0.15936132516860999,0.120071778202057,-0.135911183738708
7.161818181818182,0.14959619436264002,-0.00446923742294311,0.115565867042542
7.162424242424242,-0.20965673532485998,0.012295899295806899,-0.0329253438949582
7.163030303030303,-0.07793066110610959,0.124861817264557,0.29279731235504197
7.163636363636364,-0.0875107392311096,-0.08829492101669309,0.06048041782379179
7.164242424242424,-0.31024755563736,-0.136195311641693,0.0149750467300418
7.164848484848485,-0.0899057587623596,0.134441895389557,-0.0329253438949582
7.165454545454545,-0.0563754853248596,0.110491700077057,0.146701120948792
7.166060606060606,-0.0659555634498596,-0.0427895499229431,0.0485053201675418
7.166666666666667,-0.19528661813736,-0.109850096797943,0.103590769386292
7.167272727272727,-0.0300302704811096,-0.100270018672943,0.19939155063629202
7.167878787878788,-0.07553564157485959,-0.037999510860443106,0.101195749855042
7.168484848484848,0.00350000295639039,-0.0451845694541931,0.13472602329254202
7.169090909090909,0.19031152639389,-0.131405272579193,0.0652704568862918
7.16969696969697,-0.00608007516860961,0.09612158288955691,-0.16944145717620798
7.17030303030303,-0.044400387668609605,0.32604345788955696,0.00299994907379181
7.170909090909091,0.29090234670639,-0.09068994054794309,0.0772455545425418
7.171515151515152,0.0753505888938904,-0.112245116329193,0.196996531105042
7.172121212121212,-0.12104101266860999,0.0506162117958069,0.24010688266754202
7.172727272727273,0.10169580373764,-0.00446923742294311,0.27603217563629195
7.173333333333333,0.0657705107688904,-0.0451845694541931,0.27363715610504197
7.173939393939394,-0.0923007782936096,-0.08350488195419309,0.15388617954254202
7.174545454545455,-0.18091650094986,0.00990087976455689,0.0772455545425418
7.175151515151515,-0.0970908173561096,0.00271582117080689,-0.0305303243637082
7.175757575757576,-0.039610348606109604,0.0985166024208069,0.0772455545425418
7.176363636363636,-0.25995214548111,0.10091162195205701,0.0844306131362918
7.176969696969697,-0.0635605439186096,-0.059554686641693104,-0.0233452657699582
7.177575757575758,-0.14259618844986,-0.289476561641693,0.0173700662612918
7.178181818181818,-0.23839696969986,-0.191280760860443,0.170651316261292
7.178787878787879,-0.07074560251235959,0.0482211922645569,0.0197650857925418
7.179393939393939,-0.13780614938736,-0.114640135860443,0.247291941261292
7.18,0.15917627248764002,-0.0284194327354431,0.27363715610504197
7.180606060606061,0.049005374050140396,0.08414648523330691,0.242501902198792
7.181212121212121,-0.14978124704360998,0.053011231327056894,0.0485053201675418
7.181818181818182,-0.07074560251235959,0.129651856327057,0.0676654764175418
7.182424242424242,0.0585854521751404,-0.059554686641693104,0.0892206521987918
7.183030303030303,0.039425295925140394,-0.09068994054794309,0.232921824073792
7.183636363636364,-0.0970908173561096,-0.136195311641693,0.13472602329254202
7.184242424242424,-0.14259618844986,-0.251156249141693,-0.193391652488708
7.184848484848485,-0.0994858368873596,-0.09308496007919309,0.0988007303237918
7.185454545454545,-0.08272070016860959,-0.08589990148544309,-0.0449004415512082
7.186060606060606,0.0298452178001404,-0.102665038204193,0.108380808448792
7.186666666666667,-0.046795407199859605,-0.09068994054794309,0.108380808448792
7.187272727272727,-0.0635605439186096,-0.0523696280479431,0.0293451639175418
7.187878787878788,-0.16415136423111,-0.138590331172943,0.0700604959487918
7.188484848484848,-0.0276352509498596,-0.136195311641693,-0.22931694545745798
7.189090909090909,0.039425295925140394,-0.0787148428916931,-0.296377492332458
7.18969696969697,-0.0970908173561096,-0.0284194327354431,-0.430498586082458
7.19030303030303,-0.051585446262359606,-0.0739248038291931,0.168256296730042
7.190909090909091,-0.046795407199859605,0.124861817264557,0.18023139438629202
7.191515151515152,-0.16175634469986,0.00271582117080689,0.00299994907379181
7.192121212121212,0.0753505888938904,-0.208045897579193,0.0556903787612918
7.192727272727273,-0.0180551728248596,0.0697763680458069,-0.138306203269958
7.193333333333333,-0.10427587594986,-0.016444335079193097,-0.0305303243637082
7.193939393939394,0.10169580373764,-0.0715297842979431,-0.10477592983245801
7.194545454545455,0.0298452178001404,-0.0451845694541931,0.0485053201675418
7.195151515151515,-0.0923007782936096,0.10570166101455701,-0.00897514858245819
7.195757575757576,-0.16894140329361,0.026666016483306902,0.14430610141754202
7.196363636363636,0.0202651396751404,0.115281739139557,-0.0401104024887082
7.196969696969697,-0.051585446262359606,0.165577149295807,0.00299994907379181
7.197575757575758,-0.18331152048111,-0.037999510860443106,0.0772455545425418
7.198181818181818,-0.07074560251235959,-0.17212060461044298,-0.07364067592620821
7.198787878787879,0.0585854521751404,-0.114640135860443,0.0964057107925418
7.199393939393939,0.0058950224876403905,0.0194809578895569,-0.00897514858245819
7.2,0.0849306670188904,0.177552246952057,-0.052085500144958205
7.200606060606061,0.19031152639389,0.000320801639556893,0.14909614048004202
7.201212121212121,-0.0276352509498596,-0.016444335079193097,-0.0185552267074582
7.201818181818182,-0.0180551728248596,-0.208045897579193,-0.133516164207458
7.202424242424242,0.11127588186264001,-0.337376952266693,-0.011370168113708199
7.203030303030303,-0.07793066110610959,-0.09068994054794309,-0.138306203269958
7.203636363636364,-0.14499120798110998,0.0146909188270569,0.151491160011292
7.204242424242424,-0.05398046579360961,0.0218759774208069,0.122750925636292
7.204848484848485,-0.10188085641861,-0.0403945303916931,-0.15028130092620798
7.205454545454545,-0.0348203095436096,0.239822754764557,0.170651316261292
7.206060606060606,-0.12822607126236,0.0721713875770569,0.24489692173004202
7.206666666666667,-0.19049657907486,-0.0523696280479431,-0.0880107931137082
7.207272727272727,0.11606592092514001,0.110491700077057,0.173046335792542
7.207878787878788,-0.0132651337623596,0.0697763680458069,-0.0137651876449582
7.208484848484848,-0.0970908173561096,0.053011231327056894,-0.10238091030120801
7.209090909090909,-0.0611655243873596,0.00750586023330689,0.182626413917542
7.20969696969697,-0.07553564157485959,-0.006864256954193111,-0.14549126186370798
7.21030303030303,-0.0994858368873596,-0.0212343741416931,0.0317401834487918
7.210909090909091,0.044215334987640395,-0.136195311641693,0.20418158969879202
7.211515151515152,0.0585854521751404,-0.035604491329193105,-0.147886281394958
7.212121212121212,-0.044400387668609605,-0.114640135860443,-0.011370168113708199
7.212727272727273,-0.051585446262359606,0.00750586023330689,0.0868256326675418
7.213333333333333,-0.0348203095436096,0.115281739139557,-0.07124565639495821
7.213939393939394,-0.10427587594986,-0.220020995235443,-0.00897514858245819
7.214545454545455,0.044215334987640395,-0.138590331172943,0.0964057107925418
7.215151515151515,0.19510156545639,0.09133154382705691,0.00299994907379181
7.215757575757576,-0.15936132516860999,-0.0427895499229431,0.034135202980041794
7.216363636363636,-0.0683505829811096,-0.0212343741416931,0.034135202980041794
7.216969696969697,-0.0156601532936096,0.0218759774208069,0.0652704568862918
7.217575757575758,0.00829004201889039,0.0170859383583069,0.022160105323791802
7.218181818181818,-0.0875107392311096,0.110491700077057,-0.0137651876449582
7.218787878787879,0.15917627248764002,0.012295899295806899,0.122750925636292
7.219393939393939,0.0585854521751404,0.146416993045807,-0.171836476707458
7.22,-0.044400387668609605,-0.0236293936729431,0.0964057107925418
7.220606060606061,0.049005374050140396,0.000320801639556893,0.036530222511291795
7.221212121212121,-0.0012900361061096099,0.00750586023330689,0.177836374855042
7.221818181818182,0.0777456084251404,-0.0763198233604431,0.18502143344879202
7.222424242424242,-0.11385595407485999,-0.018839354610443098,0.18023139438629202
7.223030303030303,-0.16415136423111,-0.126615233516693,0.127540964698792
7.223636363636364,0.0753505888938904,0.0362460946083069,-0.332302785301208
7.224242424242424,0.0705605498313904,0.0506162117958069,-0.123936086082458
7.224848484848485,-0.20007665719985998,0.0745664071083069,0.12993598423004202
7.225454545454545,-0.20965673532485998,0.115281739139557,-0.0185552267074582
7.226060606060606,-0.0204501923561096,0.053011231327056894,0.00299994907379181
7.226666666666667,-0.0012900361061096099,0.141626953983307,0.110775827980042
7.227272727272727,-0.20965673532485998,0.08175146570205691,0.0724555154800418
7.227878787878788,-0.00847509469985961,-0.0715297842979431,0.0892206521987918
7.228484848484848,-0.0994858368873596,-0.0787148428916931,0.156281199073792
7.229090909090909,0.0178701201438904,-0.117035155391693,0.165861277198792
7.22969696969697,-0.10667089548111,0.0769614266395569,-0.16944145717620798
7.2303030303030305,-0.0348203095436096,0.13683691492080702,0.237711863136292
7.230909090909091,0.13283105764389,-0.037999510860443106,0.0868256326675418
7.231515151515152,-0.12822607126236,0.012295899295806899,0.0317401834487918
7.232121212121212,-0.12104101266860999,-0.0140493155479431,0.0700604959487918
7.232727272727273,-0.0012900361061096099,-0.09547997961044309,0.101195749855042
7.233333333333333,0.0322402373313904,-0.186490721797943,0.259267038917542
7.233939393939394,-0.0587705048561096,0.0769614266395569,-0.36583305873870803
7.234545454545455,0.18552148733139,0.124861817264557,-0.054480519676208206
7.235151515151515,0.0178701201438904,-0.08829492101669309,0.117960886573792
7.235757575757576,-0.15217626657486,0.0218759774208069,0.115565867042542
7.236363636363636,0.0322402373313904,-0.121825194454193,0.0916156717300418
7.236969696969697,0.00829004201889039,-0.0451845694541931,-0.131121144676208
7.237575757575758,-0.05398046579360961,0.029061036014556903,0.0892206521987918
7.238181818181818,-0.15936132516860999,-0.26073632726669305,0.14430610141754202
7.238787878787879,-0.17852148141861,-0.200860838985443,0.105985788917542
7.239393939393939,-0.18810155954361,0.029061036014556903,-0.241292043113708
7.24,-0.20486669626235998,0.0194809578895569,0.0173700662612918
7.240606060606061,-0.0132651337623596,-0.0284194327354431,0.158676218605042
7.241212121212121,0.0274501982688904,-0.0643447257041931,-0.0377153829574582
7.241818181818182,-0.11146093454360999,0.0625913094520569,0.18502143344879202
7.242424242424242,-0.0970908173561096,-0.148170409297943,-0.011370168113708199
7.243030303030303,-0.0156601532936096,0.00750586023330689,-0.26284721889495805
7.243636363636364,-0.08272070016860959,0.09372656335830691,0.110775827980042
7.244242424242424,-0.19768163766861,-0.294266600704193,0.319142527198792
7.244848484848485,0.09690576467514041,-0.0643447257041931,-0.11435600795745801
7.245454545454545,0.11367090139389001,0.220662598514557,0.0006049295425418089
7.246060606060606,-0.0348203095436096,-0.131405272579193,0.0461103006362918
7.246666666666667,-0.0252402314186096,-0.152960448360443,-0.06406059780120821
7.247272727272727,0.14001611623764001,0.134441895389557,-0.10238091030120801
7.247878787878788,0.11846094045639001,-0.037999510860443106,0.00299994907379181
7.248484848484848,-0.0851157196998596,-0.17212060461044298,-0.135911183738708
7.249090909090909,-0.08272070016860959,-0.105060057735443,-0.198181691551208
7.24969696969697,-0.0611655243873596,-0.033209471797943105,-0.279612355613708
7.25030303030303,-0.0875107392311096,-0.148170409297943,0.18023139438629202
7.250909090909091,0.0106850615501404,-0.138590331172943,-0.00897514858245819
7.251515151515152,0.20707666311264,0.0697763680458069,-0.310747609519958
7.252121212121212,-0.00608007516860961,-0.00446923742294311,0.187416452980042
7.252727272727273,-0.18091650094986,-0.148170409297943,0.18981147251129202
7.253333333333333,-0.051585446262359606,-0.186490721797943,-0.07124565639495821
7.253939393939394,-0.10667089548111,-0.114640135860443,-0.0880107931137082
7.254545454545455,-0.0012900361061096099,-0.0260244132041931,0.173046335792542
7.255151515151515,-0.00368505563735961,0.08414648523330691,0.0652704568862918
7.255757575757576,-0.0108701142311096,0.0434311532020569,0.14909614048004202
7.256363636363636,-0.00608007516860961,-0.212835936641693,0.0796405740737918
7.256969696969697,-0.0348203095436096,-0.09787499914169309,-0.052085500144958205
7.257575757575758,-0.0252402314186096,-0.08589990148544309,-0.0760356954574582
7.258181818181818,-0.05398046579360961,-0.102665038204193,0.242501902198792
7.258787878787879,-0.0683505829811096,0.158392090702057,-0.0305303243637082
7.259393939393939,-0.0012900361061096099,0.07935644617080691,0.022160105323791802
7.26,0.09930078420639041,-0.150565428829193,0.0652704568862918
7.260606060606061,-0.0372153290748596,0.211082520389557,-0.11196098842620801
7.261212121212121,0.0681655303001404,0.146416993045807,0.18981147251129202
7.261818181818182,0.12325097951889001,0.0673813485145569,0.17544135532379201
7.262424242424242,0.0729555693626404,0.00750586023330689,0.26405707798004197
7.263030303030303,-0.17852148141861,-0.224811034297943,0.113170847511292
7.263636363636364,-0.0635605439186096,0.057801270389556896,-0.200576711082458
7.264242424242424,-0.00608007516860961,-0.08829492101669309,0.036530222511291795
7.264848484848485,0.0705605498313904,-0.181700682735443,0.146701120948792
7.265454545454545,-0.049190426731109606,-0.0715297842979431,-0.0975908712387082
7.266060606060606,-0.17373144235611,-0.145775389766693,0.0006049295425418089
7.266666666666667,-0.0204501923561096,0.09612158288955691,-0.16944145717620798
7.267272727272727,-0.0132651337623596,0.0769614266395569,-0.0209502462387082
7.267878787878788,0.00350000295639039,-0.0451845694541931,0.0820355936050418
7.268484848484848,0.14241113576889,-0.109850096797943,0.113170847511292
7.269090909090909,-0.15696630563736,-0.00925927648544311,0.20418158969879202
7.2696969696969695,0.0346352568626404,0.129651856327057,0.108380808448792
7.27030303030303,0.22384179983139,-0.09068994054794309,0.0964057107925418
7.270909090909091,-0.26953222360611,-0.00925927648544311,0.12993598423004202
7.271515151515151,-0.0923007782936096,-0.0523696280479431,0.0724555154800418
7.2721212121212115,-0.0300302704811096,-0.0787148428916931,0.00778998813629181
7.272727272727273,0.0058950224876403905,-0.08350488195419309,0.0173700662612918
7.273333333333333,0.0609804717063904,0.0769614266395569,-0.0449004415512082
7.273939393939394,0.0130800810813904,-0.224811034297943,0.0197650857925418
7.274545454545455,0.0106850615501404,-0.16733056554794298,0.043715281105041796
7.275151515151515,-0.0348203095436096,0.177552246952057,0.06048041782379179
7.275757575757576,-0.0372153290748596,-0.0787148428916931,0.0149750467300418
7.276363636363636,-0.0228452118873596,-0.09547997961044309,-0.00897514858245819
7.276969696969697,-0.11146093454360999,-0.23199609289169298,0.132331003761292
7.277575757575758,-0.0276352509498596,0.08654150476455691,0.036530222511291795
7.278181818181818,0.0058950224876403905,-0.107455077266693,-0.0233452657699582
7.278787878787879,0.0849306670188904,-0.0787148428916931,0.321537546730042
7.279393939393939,-0.0252402314186096,-0.00925927648544311,-0.07124565639495821
7.28,-0.07553564157485959,-0.157750487422943,0.431708445167542
7.280606060606061,0.0825356474876404,-0.00925927648544311,-0.17902153530120798
7.281212121212121,0.12325097951889001,-0.109850096797943,0.0676654764175418
7.281818181818182,0.049005374050140396,-0.109850096797943,0.338302683448792
7.282424242424242,-0.0372153290748596,-0.0403945303916931,-0.15028130092620798
7.283030303030303,-0.20486669626235998,-0.109850096797943,0.0245551248550418
7.283636363636364,-0.0228452118873596,0.09372656335830691,0.041320261573791796
7.284242424242424,0.14720117483139,0.261377930545807,0.120355906105042
7.284848484848485,0.0897207060813904,0.10330664148330701,0.110775827980042
7.285454545454545,-0.0300302704811096,-0.00446923742294311,0.151491160011292
7.286060606060606,-0.0970908173561096,0.012295899295806899,-0.0329253438949582
7.286666666666667,-0.15457128610610998,-0.033209471797943105,0.158676218605042
7.287272727272727,-0.0587705048561096,0.0194809578895569,0.163466257667542
7.287878787878788,0.11606592092514001,0.208687500858307,0.14909614048004202
7.288484848484849,0.0561904326438904,-0.0787148428916931,-0.133516164207458
7.289090909090909,0.09690576467514041,-0.09787499914169309,-0.0784307149887082
7.28969696969697,0.0346352568626404,0.005110840702056889,0.120355906105042
7.29030303030303,-0.08272070016860959,-0.0643447257041931,0.14430610141754202
7.290909090909091,-0.0156601532936096,-0.0260244132041931,-0.00658012905120819
7.291515151515152,0.00829004201889039,-0.08589990148544309,0.220946726417542
7.292121212121212,-0.0635605439186096,-0.0691347647666931,-0.10238091030120801
7.292727272727273,0.0058950224876403905,-0.126615233516693,-0.0975908712387082
7.293333333333333,-0.07553564157485959,-0.0763198233604431,0.022160105323791802
7.293939393939394,0.00350000295639039,0.0362460946083069,-0.0808257345199582
7.294545454545455,-0.0970908173561096,-0.0403945303916931,0.158676218605042
7.295151515151515,-0.039610348606109604,-0.0451845694541931,0.232921824073792
7.295757575757576,0.0250551787376404,0.0482211922645569,0.20418158969879202
7.296363636363636,-0.16654638376236,0.053011231327056894,0.132331003761292
7.296969696969697,-0.0587705048561096,-0.152960448360443,0.13472602329254202
7.297575757575758,-0.29108739938736,-0.033209471797943105,0.043715281105041796
7.298181818181818,-0.12343603219985999,0.144021973514557,0.187416452980042
7.298787878787879,-0.14738622751236,0.0673813485145569,0.0101850076675418
7.299393939393939,-0.11864599313735999,-0.229601073360443,0.0269501443862918
7.3,-0.12583105173111,0.0625913094520569,-0.0856157735824582
7.300606060606061,-0.0659555634498596,0.0673813485145569,-0.188601613426208
7.301212121212121,0.0633754912376404,-0.0260244132041931,0.218551706886292
7.301818181818182,0.0921157256126404,-0.155355467891693,0.0868256326675418
7.302424242424242,0.03703027639389039,0.0218759774208069,-0.049690480613708204
7.303030303030303,-0.14259618844986,0.10570166101455701,0.146701120948792
7.303636363636364,-0.00847509469985961,-0.0284194327354431,0.24010688266754202
7.304242424242424,-0.0659555634498596,0.0170859383583069,0.0293451639175418
7.304848484848485,-0.0156601532936096,0.0194809578895569,-0.188601613426208
7.305454545454545,-0.23121191110611,0.108096680545807,-0.0401104024887082
7.306060606060606,0.0058950224876403905,-0.0763198233604431,-0.0161602071762082
7.306666666666667,0.34598779592514,-0.0547646475791931,0.0796405740737918
7.307272727272727,0.16157129201889,-0.184095702266693,-0.0425054220199582
7.307878787878788,0.0346352568626404,0.055406250858306895,-0.0616655782699582
7.308484848484848,0.0178701201438904,-0.0260244132041931,0.268847117042542
7.309090909090909,-0.00368505563735961,-0.061949706172943104,-0.135911183738708
7.3096969696969705,0.26216211233139003,0.177552246952057,-0.176626515769958
7.31030303030303,0.17354638967514,0.170367188358307,0.48439887485504196
7.310909090909091,-0.039610348606109604,0.141626953983307,0.113170847511292
7.311515151515152,0.0921157256126404,-0.133800292110443,-0.0760356954574582
7.3121212121212125,0.0250551787376404,-0.059554686641693104,-0.0377153829574582
7.312727272727273,0.049005374050140396,0.09372656335830691,-0.052085500144958205
7.313333333333333,-0.0012900361061096099,-0.160145506954193,0.0820355936050418
7.313939393939394,0.0202651396751404,-0.100270018672943,0.0006049295425418089
7.314545454545455,0.12085595998764001,0.053011231327056894,0.0796405740737918
7.315151515151515,0.041820315456390394,0.005110840702056889,-0.06406059780120821
7.315757575757576,0.0274501982688904,-0.0403945303916931,0.101195749855042
7.316363636363636,-0.0204501923561096,-0.0787148428916931,0.20418158969879202
7.316969696969697,0.0801406279563904,-0.0643447257041931,0.13472602329254202
7.317575757575758,0.13762109670639,0.08654150476455691,0.022160105323791802
7.318181818181818,-0.051585446262359606,0.18713232507705702,-0.0832207540512082
7.318787878787879,0.0202651396751404,0.0170859383583069,-0.06645561733245821
7.319393939393939,-0.039610348606109604,-0.035604491329193105,-0.011370168113708199
7.32,0.00110498342514039,0.0314560555458069,-0.0161602071762082
7.320606060606061,0.0657705107688904,0.144021973514557,0.125145945167542
7.321212121212121,-0.27432226266861,0.012295899295806899,0.0964057107925418
7.321818181818182,-0.0899057587623596,-0.035604491329193105,0.173046335792542
7.322424242424242,0.0921157256126404,-0.138590331172943,0.177836374855042
7.323030303030303,0.0154751006126404,-0.22720605382919298,-0.10717094936370801
7.323636363636364,-0.0012900361061096099,-0.188885741329193,-0.241292043113708
7.324242424242424,-0.0132651337623596,-0.112245116329193,-0.10717094936370801
7.324848484848485,-0.0635605439186096,-0.119430174922943,0.117960886573792
7.325454545454545,-0.27911230173111,-0.035604491329193105,-0.123936086082458
7.326060606060606,-0.0875107392311096,0.110491700077057,0.0628754373550418
7.326666666666667,-0.12583105173111,-0.033209471797943105,-0.0305303243637082
7.327272727272727,-0.0659555634498596,-0.105060057735443,-0.00179008998870819
7.327878787878788,-0.07314062204360959,-0.169725585079193,0.338302683448792
7.328484848484848,0.0130800810813904,-0.148170409297943,-0.116751027488708
7.329090909090909,0.28371728811264,0.0194809578895569,0.0245551248550418
7.32969696969697,0.0202651396751404,-0.0499746085166931,-0.07124565639495821
7.33030303030303,-0.0611655243873596,0.122466797733307,-0.0856157735824582
7.330909090909091,-0.19049657907486,0.026666016483306902,0.14909614048004202
7.331515151515152,-0.046795407199859605,-0.0451845694541931,0.00299994907379181
7.332121212121212,-0.00608007516860961,0.10570166101455701,-0.056875539207458206
7.332727272727273,-0.21444677438735998,0.026666016483306902,0.17544135532379201
7.333333333333333,-0.07314062204360959,-0.030814452266693097,0.0844306131362918
7.333939393939394,-0.11385595407485999,-0.0715297842979431,-0.0233452657699582
7.334545454545455,0.10888086233139001,0.08893652429580691,0.038925242042541795
7.335151515151515,-0.0300302704811096,0.172762207889557,0.0868256326675418
7.335757575757576,-0.13062109079361,-0.09787499914169309,-0.0353203634262082
7.336363636363636,0.0609804717063904,-0.129010253047943,-0.0760356954574582
7.336969696969697,-0.22881689157486,0.0506162117958069,0.0197650857925418
7.337575757575758,0.0849306670188904,-0.196070799922943,-0.00179008998870819
7.338181818181818,0.0897207060813904,-0.119430174922943,-0.0449004415512082
7.338787878787879,0.20947168264389002,-0.17212060461044298,-0.18381157436370799
7.339393939393939,0.19510156545639,-0.08829492101669309,-0.21494682826995798
7.34,-0.20486669626235998,0.12725683679580702,0.450868601417542
7.340606060606061,0.12564599905014,0.057801270389556896,0.259267038917542
7.341212121212121,-0.00847509469985961,0.0146909188270569,-0.00658012905120819
7.341818181818182,-0.042005368137359604,-0.09068994054794309,0.117960886573792
7.342424242424242,0.0945107451438904,-0.030814452266693097,-0.0904058126449582
7.343030303030303,0.11367090139389001,-0.174515624141693,0.242501902198792
7.343636363636364,0.0202651396751404,-0.145775389766693,-0.140701222801208
7.344242424242424,0.15199121389389,-0.0523696280479431,-0.18381157436370799
7.344848484848485,0.041820315456390394,-0.117035155391693,-0.0329253438949582
7.345454545454545,0.10648584280014001,-0.0260244132041931,-0.16944145717620798
7.346060606060606,0.13043603811264,-0.155355467891693,0.173046335792542
7.346666666666667,-0.11385595407485999,0.0458261727333069,-0.047295461082458204
7.347272727272727,0.25737207326889,0.18234228601455701,-0.190996632957458
7.347878787878788,-0.0635605439186096,-0.196070799922943,0.108380808448792
7.348484848484849,-0.24558202829361,-0.234391112422943,0.038925242042541795
7.349090909090909,-0.12104101266860999,-0.061949706172943104,-0.171836476707458
7.34969696969697,-0.0683505829811096,-0.08829492101669309,0.038925242042541795
7.35030303030303,-0.0372153290748596,0.055406250858306895,0.15388617954254202
7.350909090909091,0.11367090139389001,0.08175146570205691,-0.049690480613708204
7.351515151515152,-0.0563754853248596,-0.0260244132041931,-0.00179008998870819
7.352121212121212,0.0130800810813904,-0.169725585079193,0.158676218605042
7.3527272727272734,0.0585854521751404,-0.208045897579193,-0.0856157735824582
7.353333333333333,-0.0204501923561096,-0.112245116329193,-0.0760356954574582
7.3539393939393936,0.0897207060813904,-0.16733056554794298,0.0293451639175418
7.354545454545455,0.15199121389389,-0.107455077266693,0.19460151157379202
7.355151515151515,0.041820315456390394,0.148812012577057,0.161071238136292
7.355757575757576,-0.21205175485611,0.08893652429580691,-0.222131886863708
7.3563636363636355,-0.14259618844986,-0.0427895499229431,0.0844306131362918
7.356969696969697,-0.07553564157485959,-0.033209471797943105,0.022160105323791802
7.357575757575758,-0.00608007516860961,-0.061949706172943104,0.0197650857925418
7.358181818181818,0.0705605498313904,-0.133800292110443,-0.147886281394958
7.358787878787879,-0.0611655243873596,0.0194809578895569,-0.06885063686370821
7.359393939393939,-0.00608007516860961,0.122466797733307,-0.0425054220199582
7.36,0.18312646780014,0.0625913094520569,0.0772455545425418
7.360606060606061,0.19031152639389,-0.0571596671104431,0.00539496860504181
7.361212121212121,-0.00847509469985961,0.09133154382705691,0.0868256326675418
7.361818181818182,-0.044400387668609605,0.13683691492080702,0.0652704568862918
7.362424242424242,0.18552148733139,-0.22241601476669298,0.192206492042542
7.363030303030303,0.0753505888938904,-0.145775389766693,0.163466257667542
7.363636363636364,-0.05398046579360961,-0.08589990148544309,-0.0784307149887082
7.364242424242424,-0.22881689157486,-0.0811098624229431,0.108380808448792
7.364848484848485,0.0154751006126404,-0.0140493155479431,-0.0401104024887082
7.365454545454545,0.21426172170639002,-0.0499746085166931,0.0724555154800418
7.366060606060606,-0.18331152048111,-0.0260244132041931,-0.207761769676208
7.366666666666667,-0.0611655243873596,0.206292481327057,0.00539496860504181
7.367272727272727,0.22144678030014,0.060196289920806896,0.24489692173004202
7.367878787878788,-0.00608007516860961,-0.112245116329193,0.105985788917542
7.368484848484848,-0.12583105173111,-0.0523696280479431,-0.30595757045745803
7.369090909090909,-0.0659555634498596,-0.00207421789169311,0.266452097511292
7.36969696969697,-0.0252402314186096,-0.0260244132041931,0.0556903787612918
7.37030303030303,-0.16654638376236,0.0146909188270569,0.436498484230042
7.370909090909091,-0.07074560251235959,-0.011654296016693102,0.41494330844879196
7.371515151515152,0.0226601592063904,-0.0284194327354431,-0.181416554832458
7.372121212121212,0.039425295925140394,-0.030814452266693097,0.18023139438629202
7.372727272727273,0.0729555693626404,-0.17691064367294299,-0.131121144676208
7.373333333333333,0.049005374050140396,-0.121825194454193,-0.0449004415512082
7.373939393939394,-0.11625097360610999,-0.0236293936729431,-0.317932668113708
7.374545454545455,-0.0276352509498596,-0.181700682735443,-0.06406059780120821
7.375151515151515,-0.042005368137359604,-0.09547997961044309,-0.11196098842620801
7.375757575757576,-0.0324252900123596,0.230242676639557,0.0676654764175418
7.376363636363636,0.00829004201889039,0.155997071170807,0.137121042823792
7.376969696969697,-0.25995214548111,0.0482211922645569,0.0556903787612918
7.377575757575758,-0.00847509469985961,-0.0260244132041931,0.0197650857925418
7.378181818181818,-0.0970908173561096,-0.0667397452354431,-0.10238091030120801
7.378787878787879,0.0657705107688904,-0.0260244132041931,0.00299994907379181
7.379393939393939,-0.08032568063735959,0.005110840702056889,0.0317401834487918
7.38,-0.049190426731109606,0.165577149295807,0.101195749855042
7.380606060606061,0.27174219045639003,0.134441895389557,0.13472602329254202
7.381212121212121,0.0753505888938904,0.13204687585830702,-0.14549126186370798
7.381818181818182,0.0729555693626404,0.0434311532020569,-0.226921925926208
7.382424242424242,-0.16654638376236,-0.157750487422943,-0.0353203634262082
7.383030303030303,-0.0611655243873596,-0.09068994054794309,-0.0880107931137082
7.383636363636364,0.0945107451438904,-0.100270018672943,-0.052085500144958205
7.384242424242424,0.12564599905014,-0.0475795889854431,0.127540964698792
7.384848484848485,0.18552148733139,0.0625913094520569,0.386203074073792
7.385454545454545,-0.0611655243873596,0.155997071170807,0.0988007303237918
7.386060606060606,-0.17852148141861,0.0242709969520569,-0.0305303243637082
7.386666666666667,0.11606592092514001,0.0458261727333069,0.0916156717300418
7.387272727272727,0.11127588186264001,-0.0475795889854431,-0.15986137905120798
7.387878787878788,-0.0899057587623596,-0.186490721797943,0.0101850076675418
7.388484848484848,0.00110498342514039,-0.160145506954193,0.0509003396987918
7.389090909090909,0.00829004201889039,-0.0643447257041931,0.034135202980041794
7.38969696969697,-0.00847509469985961,0.0170859383583069,0.18023139438629202
7.39030303030303,0.17354638967514,-0.0499746085166931,0.146701120948792
7.390909090909091,0.13043603811264,0.108096680545807,0.20418158969879202
7.391515151515152,-0.23839696969986,0.09133154382705691,0.0988007303237918
7.392121212121212,-0.0899057587623596,-0.212835936641693,0.0916156717300418
7.392727272727273,-0.15696630563736,-0.00446923742294311,-0.00658012905120819
7.393333333333333,0.0921157256126404,0.0697763680458069,-0.0305303243637082
7.393939393939394,0.0130800810813904,-0.0499746085166931,0.00778998813629181
7.3945454545454545,-0.15936132516860999,0.0985166024208069,0.038925242042541795
7.395151515151515,0.0274501982688904,0.0410361336708069,0.177836374855042
7.395757575757576,0.0130800810813904,-0.033209471797943105,-0.21973686733245798
7.396363636363636,-0.0563754853248596,0.0170859383583069,-0.152676320457458
7.3969696969696965,-0.19049657907486,-0.00446923742294311,0.103590769386292
7.397575757575758,0.21905176076889002,0.000320801639556893,0.0868256326675418
7.398181818181818,0.14480615530014002,-0.016444335079193097,0.177836374855042
7.398787878787879,0.10409082326889,-0.220020995235443,-0.052085500144958205
7.399393939393939,0.10888086233139001,-0.09068994054794309,-0.31314262905120804
7.4,0.0825356474876404,-0.0667397452354431,0.642470163917542
7.400606060606061,-0.11385595407485999,-0.0475795889854431,0.781381296730042
7.401212121212121,-0.0611655243873596,-0.105060057735443,-0.157466359519958
7.401818181818182,0.0825356474876404,-0.035604491329193105,-0.049690480613708204
7.402424242424242,-0.0276352509498596,0.134441895389557,-0.0449004415512082
7.403030303030303,0.0825356474876404,-0.26313134679794303,-0.0041851095199581904
7.403636363636364,-0.16175634469986,-0.08350488195419309,-0.054480519676208206
7.404242424242424,0.0274501982688904,0.00990087976455689,0.0269501443862918
7.404848484848485,0.046610354518890396,-0.157750487422943,-0.0975908712387082
7.405454545454545,-0.14978124704360998,0.0242709969520569,0.043715281105041796
7.406060606060606,0.0537954131126404,0.026666016483306902,0.220946726417542
7.406666666666667,-0.0611655243873596,0.12725683679580702,0.268847117042542
7.407272727272727,0.10648584280014001,-0.011654296016693102,0.034135202980041794
7.407878787878788,0.0609804717063904,-0.246366210079193,-0.054480519676208206
7.408484848484849,-0.11385595407485999,-0.0643447257041931,0.06048041782379179
7.409090909090909,-0.17612646188736,0.141626953983307,-0.00658012905120819
7.40969696969697,-0.07553564157485959,0.172762207889557,0.13951606235504202
7.41030303030303,-0.00608007516860961,0.108096680545807,0.041320261573791796
7.410909090909091,-0.21444677438735998,0.10570166101455701,-0.0041851095199581904
7.411515151515152,-0.15457128610610998,0.0170859383583069,0.0269501443862918
7.412121212121212,0.10409082326889,0.122466797733307,0.0748505350112918
7.412727272727273,-0.0156601532936096,0.026666016483306902,0.0197650857925418
7.413333333333333,-0.0970908173561096,0.012295899295806899,-0.157466359519958
7.413939393939394,-0.13301611032486,0.0673813485145569,0.00778998813629181
7.414545454545455,-0.20965673532485998,-0.105060057735443,0.0293451639175418
7.415151515151515,-0.0324252900123596,0.124861817264557,-0.133516164207458
7.415757575757576,-0.34617284860611,0.0458261727333069,0.101195749855042
7.416363636363636,-0.20247167673111,-0.296661620235443,0.101195749855042
7.416969696969697,-0.0276352509498596,-0.17691064367294299,-0.123936086082458
7.417575757575758,-0.24797704782486,0.0697763680458069,-0.162256398582458
7.418181818181818,-0.051585446262359606,0.0506162117958069,-0.135911183738708
7.418787878787879,0.0202651396751404,0.053011231327056894,-0.00897514858245819
7.419393939393939,-0.039610348606109604,-0.09547997961044309,0.17544135532379201
7.42,-0.10188085641861,-0.0499746085166931,-0.21973686733245798
7.420606060606061,-0.0132651337623596,-0.037999510860443106,-0.0975908712387082
7.421212121212121,0.0298452178001404,-0.0140493155479431,0.0676654764175418
7.421818181818182,0.044215334987640395,0.129651856327057,-0.22452690639495798
7.422424242424242,0.0346352568626404,-0.102665038204193,0.120355906105042
7.423030303030303,-0.0851157196998596,-0.136195311641693,0.041320261573791796
7.423636363636364,0.00829004201889039,0.0338510750770569,-0.0856157735824582
7.424242424242424,0.11606592092514001,-0.0260244132041931,-0.0425054220199582
7.424848484848485,0.14480615530014002,0.0362460946083069,-0.116751027488708
7.425454545454545,0.0346352568626404,0.060196289920806896,0.0580853982925418
7.426060606060606,0.0537954131126404,0.10091162195205701,0.0868256326675418
7.426666666666667,-0.0276352509498596,-0.117035155391693,-0.0904058126449582
7.427272727272727,-0.15457128610610998,-0.17212060461044298,0.0173700662612918
7.427878787878788,-0.08032568063735959,0.0338510750770569,0.0772455545425418
7.428484848484848,-0.10906591501235999,-0.0715297842979431,-0.0760356954574582
7.429090909090909,0.0585854521751404,-0.100270018672943,-0.128726125144958
7.42969696969697,0.03703027639389039,0.211082520389557,0.268847117042542
7.43030303030303,0.0274501982688904,0.167972168827057,0.48439887485504196
7.430909090909091,0.10409082326889,0.165577149295807,0.0652704568862918
7.431515151515152,-0.16175634469986,0.122466797733307,0.0796405740737918
7.432121212121212,-0.14259618844986,0.026666016483306902,0.00299994907379181
7.432727272727273,0.00350000295639039,-0.0571596671104431,0.0652704568862918
7.433333333333333,0.0873256865501404,-0.193675780391693,0.168256296730042
7.433939393939394,-0.24318700876236,0.251797852420807,-0.250872121238708
7.4345454545454555,-0.27192724313736,0.09612158288955691,-0.00897514858245819
7.435151515151515,0.0897207060813904,0.08893652429580691,0.132331003761292
7.435757575757576,-0.23360693063736,0.163182129764557,-0.0329253438949582
7.436363636363636,-0.0156601532936096,0.0338510750770569,-0.11435600795745801
7.4369696969696975,0.23342187795639,0.0985166024208069,-0.171836476707458
7.437575757575758,0.14480615530014002,0.053011231327056894,-0.0401104024887082
7.438181818181818,0.15917627248764002,-0.17691064367294299,-0.128726125144958
7.438787878787879,0.12564599905014,-0.0763198233604431,-0.250872121238708
7.4393939393939394,0.046610354518890396,-0.121825194454193,-0.279612355613708
7.44,0.19270654592514,-0.0691347647666931,-0.06645561733245821
7.440606060606061,0.0250551787376404,-0.114640135860443,0.0580853982925418
7.441212121212121,0.14001611623764001,0.144021973514557,0.0988007303237918
7.441818181818182,0.16396631155014,0.0362460946083069,0.0580853982925418
7.442424242424242,-0.26234716501236,-0.105060057735443,-0.0616655782699582
7.443030303030303,0.0514003935813904,0.08175146570205691,-0.16944145717620798
7.443636363636364,-0.0372153290748596,-0.102665038204193,0.0820355936050418
7.444242424242424,-0.17133642282486,0.203897461795807,-0.0784307149887082
7.444848484848485,-0.0228452118873596,0.053011231327056894,-0.116751027488708
7.445454545454545,-0.13541112985611,-0.150565428829193,0.0006049295425418089
7.446060606060606,0.0322402373313904,-0.0475795889854431,-0.190996632957458
7.446666666666667,0.09930078420639041,0.0170859383583069,0.141911081886292
7.447272727272727,-0.17612646188736,-0.061949706172943104,-0.049690480613708204
7.447878787878788,0.0801406279563904,-0.109850096797943,-0.0999858907699582
7.448484848484848,-0.0132651337623596,-0.0763198233604431,0.101195749855042
7.449090909090909,0.0849306670188904,-0.0403945303916931,0.0652704568862918
7.44969696969697,0.09930078420639041,0.00271582117080689,-0.11196098842620801
7.45030303030303,-0.14978124704360998,-0.09547997961044309,0.14430610141754202
7.450909090909091,-0.17612646188736,0.129651856327057,0.163466257667542
7.451515151515152,-0.12343603219985999,0.213477539920807,-0.131121144676208
7.452121212121212,0.03703027639389039,-0.00207421789169311,0.0125800271987918
7.452727272727273,-0.11625097360610999,0.0673813485145569,-0.052085500144958205
7.453333333333333,-0.17373144235611,-0.174515624141693,-0.31314262905120804
7.453939393939394,-0.19289159860611,0.0673813485145569,-0.226921925926208
7.454545454545455,-0.00847509469985961,0.153602051639557,-0.0041851095199581904
7.455151515151515,0.0945107451438904,0.0386411141395569,-0.0999858907699582
7.455757575757576,0.10409082326889,0.129651856327057,0.0796405740737918
7.456363636363636,0.0514003935813904,-0.035604491329193105,-0.06406059780120821
7.456969696969697,-0.13062109079361,0.0649863289833069,0.113170847511292
7.457575757575758,0.049005374050140396,0.0769614266395569,0.24010688266754202
7.458181818181818,0.11127588186264001,-0.00925927648544311,-0.0161602071762082
7.458787878787879,0.18312646780014,-0.121825194454193,0.47481879673004196
7.459393939393939,0.044215334987640395,-0.169725585079193,-0.0281353048324582
7.46,0.16157129201889,0.0218759774208069,0.043715281105041796
7.460606060606061,0.0346352568626404,0.0170859383583069,0.580199656105042
7.461212121212121,-0.0851157196998596,0.223057618045807,-0.056875539207458206
7.461818181818182,0.0537954131126404,-0.0212343741416931,-0.00658012905120819
7.462424242424242,-0.13062109079361,-0.00207421789169311,0.0269501443862918
7.463030303030303,0.0178701201438904,-0.0260244132041931,0.0628754373550418
7.463636363636364,0.0873256865501404,-0.28229150304794304,0.06048041782379179
7.464242424242424,-0.15457128610610998,-0.143380370235443,-0.10956596889495801
7.464848484848485,-0.08032568063735959,-0.033209471797943105,-0.116751027488708
7.465454545454545,0.09930078420639041,0.0985166024208069,0.115565867042542
7.466060606060606,-0.14978124704360998,0.179947266483307,0.115565867042542
7.466666666666667,0.14480615530014002,0.124861817264557,-0.143096242332458
7.467272727272727,-0.15936132516860999,-0.018839354610443098,-0.0353203634262082
7.467878787878788,-0.11146093454360999,0.24700781335830702,0.115565867042542
7.468484848484849,-0.0276352509498596,-0.059554686641693104,0.034135202980041794
7.469090909090909,-0.0851157196998596,-0.143380370235443,-0.047295461082458204
7.46969696969697,0.15678125295639,0.151207032108307,-0.0137651876449582
7.47030303030303,0.0274501982688904,0.165577149295807,0.156281199073792
7.470909090909091,-0.16894140329361,-0.0811098624229431,0.0197650857925418
7.471515151515151,-0.19768163766861,0.0314560555458069,0.043715281105041796
7.472121212121212,-0.0180551728248596,-0.0451845694541931,0.00539496860504181
7.472727272727273,-0.31982763376236,-0.0284194327354431,0.0317401834487918
7.473333333333333,0.0897207060813904,0.0721713875770569,0.170651316261292
7.473939393939394,0.14001611623764001,-0.018839354610443098,-0.10477592983245801
7.474545454545455,0.0154751006126404,0.0769614266395569,0.06048041782379179
7.475151515151515,0.15678125295639,-0.0212343741416931,0.17544135532379201
7.475757575757576,0.0154751006126404,0.00271582117080689,0.0628754373550418
7.476363636363636,0.0681655303001404,-0.0715297842979431,-0.00658012905120819
7.476969696969697,-0.0372153290748596,-0.136195311641693,0.141911081886292
7.477575757575758,-0.10188085641861,-0.102665038204193,0.24489692173004202
7.478181818181818,0.0801406279563904,-0.0451845694541931,0.0724555154800418
7.4787878787878785,-0.0228452118873596,-0.0739248038291931,-0.126331105613708
7.479393939393939,-0.08032568063735959,-0.0451845694541931,-0.193391652488708
7.48,0.0633754912376404,0.0242709969520569,-0.126331105613708
7.480606060606061,0.0921157256126404,-0.033209471797943105,-0.171836476707458
7.4812121212121205,0.14001611623764001,-0.117035155391693,-0.049690480613708204
7.481818181818182,-0.00608007516860961,0.110491700077057,-0.0425054220199582
7.482424242424242,-0.0899057587623596,0.09133154382705691,0.041320261573791796
7.483030303030303,-0.0324252900123596,-0.224811034297943,0.220946726417542
7.483636363636364,0.0537954131126404,-0.179305663204193,-0.00179008998870819
7.484242424242424,0.0753505888938904,0.0625913094520569,-0.255662160301208
7.484848484848485,0.15199121389389,0.08893652429580691,-0.0951958517074582
7.485454545454545,0.0058950224876403905,-0.109850096797943,0.132331003761292
7.486060606060606,0.10648584280014001,-0.0643447257041931,-0.0329253438949582
7.486666666666667,0.0849306670188904,-0.00446923742294311,-0.0329253438949582
7.487272727272727,0.09930078420639041,-0.112245116329193,-0.011370168113708199
7.487878787878788,0.0681655303001404,-0.0523696280479431,-0.0257402853012082
7.488484848484848,-0.0252402314186096,0.0410361336708069,0.0293451639175418
7.489090909090909,0.046610354518890396,-0.0427895499229431,-0.143096242332458
7.48969696969697,-0.046795407199859605,0.0721713875770569,-0.07124565639495821
7.49030303030303,0.30287744436264,0.139231934452057,0.0580853982925418
7.490909090909091,0.0753505888938904,-0.0523696280479431,0.00539496860504181
7.491515151515152,-0.14499120798110998,0.0218759774208069,-0.15986137905120798
7.492121212121212,0.14001611623764001,0.08414648523330691,0.00778998813629181
7.492727272727273,0.12804101858139,-0.037999510860443106,0.27603217563629195
7.493333333333333,-0.20486669626235998,0.10091162195205701,-0.131121144676208
7.493939393939394,-0.0228452118873596,-0.037999510860443106,-0.157466359519958
7.494545454545455,0.21905176076889002,-0.011654296016693102,0.0748505350112918
7.495151515151515,-0.14020116891860998,0.10570166101455701,0.0173700662612918
7.495757575757576,-0.0659555634498596,-0.0403945303916931,-0.00179008998870819
7.496363636363636,0.0657705107688904,0.08175146570205691,0.158676218605042
7.496969696969697,-0.12822607126236,0.0314560555458069,-0.0281353048324582
7.497575757575758,0.11846094045639001,-0.150565428829193,0.0988007303237918
7.498181818181818,0.0298452178001404,-0.150565428829193,0.0916156717300418
7.498787878787879,0.0346352568626404,0.08654150476455691,-0.049690480613708204
7.499393939393939,0.0777456084251404,-0.006864256954193111,0.0796405740737918
7.5,0.0921157256126404,-0.100270018672943,-0.0305303243637082
7.500606060606061,0.10409082326889,-0.0715297842979431,0.13472602329254202
7.501212121212121,0.0058950224876403905,-0.011654296016693102,-0.0904058126449582
7.501818181818182,-0.14259618844986,0.026666016483306902,-0.0856157735824582
7.502424242424242,0.049005374050140396,-0.0547646475791931,0.24010688266754202
7.503030303030303,0.15678125295639,-0.133800292110443,0.0868256326675418
7.503636363636364,-0.10906591501235999,-0.0571596671104431,-0.05927055873870821
7.504242424242424,0.10648584280014001,0.0146909188270569,0.0988007303237918
7.504848484848485,0.25497705373764,-0.205650878047943,0.0940106912612918
7.505454545454545,-0.00608007516860961,0.0458261727333069,0.038925242042541795
7.506060606060606,0.0585854521751404,0.112886719608307,0.0652704568862918
7.506666666666667,0.23102685842514,0.07935644617080691,-0.202971730613708
7.507272727272727,0.0801406279563904,-0.0787148428916931,0.0580853982925418
7.507878787878788,0.10169580373764,-0.117035155391693,0.0293451639175418
7.508484848484849,-0.08272070016860959,0.167972168827057,-0.24368706264495799
7.509090909090909,0.0202651396751404,-0.0260244132041931,0.0868256326675418
7.50969696969697,0.13043603811264,0.0146909188270569,0.132331003761292
7.51030303030303,0.17115137014389,0.167972168827057,0.113170847511292
7.510909090909091,-0.16415136423111,0.26616796960830696,-0.0209502462387082
7.511515151515151,0.09690576467514041,0.08414648523330691,-0.188601613426208
7.512121212121212,0.29569238576889,-0.061949706172943104,0.0844306131362918
7.512727272727273,-0.0683505829811096,0.0506162117958069,0.125145945167542
7.513333333333333,0.0873256865501404,-0.0499746085166931,0.041320261573791796
7.513939393939394,0.0154751006126404,-0.107455077266693,0.00778998813629181
7.514545454545455,0.12085595998764001,0.0242709969520569,0.120355906105042
7.515151515151515,0.20947168264389002,0.342808594608307,0.122750925636292
7.515757575757576,-0.00847509469985961,0.057801270389556896,-0.0951958517074582
7.516363636363636,-0.05398046579360961,-0.0667397452354431,0.043715281105041796
7.516969696969697,0.0777456084251404,0.13204687585830702,0.20897162876129202
7.517575757575758,0.0346352568626404,-0.0451845694541931,0.26405707798004197
7.518181818181818,-0.0252402314186096,-0.164935546016693,0.127540964698792
7.5187878787878795,-0.19049657907486,-0.018839354610443098,0.467633738136292
7.519393939393939,-0.0899057587623596,0.177552246952057,-0.056875539207458206
7.52,0.18312646780014,-0.0787148428916931,0.177836374855042
7.520606060606061,0.19031152639389,0.163182129764557,0.12993598423004202
7.5212121212121215,0.16396631155014,0.00990087976455689,-0.291587453269958
7.5218181818181815,0.0705605498313904,-0.100270018672943,0.108380808448792
7.522424242424242,0.17833642873764,0.146416993045807,0.17544135532379201
7.523030303030303,0.0106850615501404,-0.179305663204193,0.220946726417542
7.523636363636364,-0.0348203095436096,-0.00446923742294311,0.14430610141754202
7.5242424242424235,-0.14020116891860998,-0.011654296016693102,0.0940106912612918
7.524848484848485,0.0130800810813904,-0.0643447257041931,0.127540964698792
7.525454545454546,0.11367090139389001,0.208687500858307,0.173046335792542
7.526060606060606,-0.07074560251235959,0.00271582117080689,0.0173700662612918
7.526666666666667,-0.07074560251235959,-0.174515624141693,0.192206492042542
7.527272727272727,-0.08272070016860959,0.057801270389556896,-0.0161602071762082
7.527878787878788,-0.11864599313735999,-0.124220213985443,-0.123936086082458
7.528484848484848,-0.13780614938736,-0.102665038204193,-0.152676320457458
7.529090909090909,-0.20486669626235998,-0.08350488195419309,0.06048041782379179
7.52969696969697,-0.0228452118873596,-0.105060057735443,-0.07124565639495821
7.53030303030303,0.34359277639389,0.206292481327057,-0.26524223842620803
7.530909090909091,0.17354638967514,0.09372656335830691,-0.202971730613708
7.531515151515151,-0.30306249704361,-0.011654296016693102,-0.06406059780120821
7.532121212121212,-0.25276708688736,-0.030814452266693097,-0.0904058126449582
7.532727272727273,-0.12822607126236,-0.09787499914169309,0.108380808448792
7.533333333333333,0.0274501982688904,-0.152960448360443,0.177836374855042
7.533939393939394,0.37712304983139,-0.059554686641693104,-0.07364067592620821
7.534545454545455,-0.12343603219985999,0.172762207889557,-0.0185552267074582
7.535151515151515,-0.0683505829811096,0.10570166101455701,0.0796405740737918
7.535757575757576,0.12085595998764001,0.00271582117080689,0.19460151157379202
7.536363636363636,0.0274501982688904,0.129651856327057,0.228131785011292
7.536969696969697,-0.12343603219985999,-0.0475795889854431,0.0796405740737918
7.537575757575758,-0.0659555634498596,-0.0403945303916931,0.0580853982925418
7.538181818181818,0.16875635061264,0.146416993045807,0.108380808448792
7.538787878787879,-0.0348203095436096,-0.035604491329193105,-0.162256398582458
7.539393939393939,0.0106850615501404,-0.033209471797943105,0.0461103006362918
7.54,0.0681655303001404,0.110491700077057,-0.176626515769958
7.540606060606061,-0.15217626657486,0.215872559452057,-0.241292043113708
7.541212121212121,-0.18570654001236,0.08893652429580691,0.12993598423004202
7.541818181818182,0.00829004201889039,0.0386411141395569,-0.133516164207458
7.542424242424242,0.00350000295639039,-0.109850096797943,0.0006049295425418089
7.543030303030303,-0.0851157196998596,-0.00925927648544311,0.158676218605042
7.543636363636364,-0.21923681344985999,-0.09068994054794309,0.0628754373550418
7.544242424242424,-0.0348203095436096,-0.28229150304794304,0.0820355936050418
7.544848484848485,0.15917627248764002,0.053011231327056894,0.034135202980041794
7.545454545454545,0.20707666311264,0.029061036014556903,0.043715281105041796
7.546060606060606,-0.05398046579360961,0.055406250858306895,0.127540964698792
7.546666666666667,-0.10427587594986,-0.0763198233604431,-0.06406059780120821
7.547272727272727,0.29569238576889,0.060196289920806896,0.101195749855042
7.547878787878788,-0.0228452118873596,-0.0787148428916931,0.110775827980042
7.548484848484848,-0.0923007782936096,-0.246366210079193,-0.133516164207458
7.549090909090909,-0.0204501923561096,-0.09787499914169309,-0.327512746238708
7.54969696969697,-0.10188085641861,0.0625913094520569,-0.341882863426208
7.55030303030303,-0.14020116891860998,-0.184095702266693,-0.049690480613708204
7.550909090909091,-0.18331152048111,-0.208045897579193,0.225736765480042
7.551515151515152,-0.0252402314186096,0.0697763680458069,0.163466257667542
7.552121212121212,-0.0875107392311096,-0.119430174922943,0.105985788917542
7.552727272727273,0.12564599905014,0.00990087976455689,-0.171836476707458
7.553333333333333,0.0274501982688904,-0.0787148428916931,-0.0185552267074582
7.553939393939394,-0.0899057587623596,-0.0739248038291931,-0.00897514858245819
7.554545454545455,0.20468164358139002,0.0482211922645569,-0.07124565639495821
7.555151515151515,0.0058950224876403905,0.167972168827057,0.36464789829254196
7.555757575757576,-0.15457128610610998,-0.0499746085166931,-0.011370168113708199
7.556363636363636,-0.10188085641861,-0.0691347647666931,-0.128726125144958
7.556969696969697,0.0801406279563904,0.146416993045807,0.0652704568862918
7.557575757575758,-0.0683505829811096,-0.00207421789169311,0.127540964698792
7.558181818181818,0.13522607717514,-0.0475795889854431,0.17544135532379201
7.558787878787879,-0.0372153290748596,0.0410361336708069,0.288007273292542
7.559393939393939,0.0202651396751404,-0.0523696280479431,-0.128726125144958
7.5600000000000005,0.10888086233139001,-0.22720605382919298,-0.26284721889495805
7.5606060606060606,-0.15696630563736,-0.0739248038291931,0.168256296730042
7.561212121212121,-0.0683505829811096,0.09372656335830691,0.0006049295425418089
7.561818181818182,-0.049190426731109606,-0.0763198233604431,0.0006049295425418089
7.5624242424242425,0.0514003935813904,-0.131405272579193,0.0101850076675418
7.5630303030303025,-0.07314062204360959,-0.0715297842979431,-0.222131886863708
7.563636363636364,-0.07793066110610959,-0.112245116329193,0.117960886573792
7.564242424242424,0.0178701201438904,-0.0739248038291931,0.0772455545425418
7.564848484848485,0.13283105764389,0.10330664148330701,0.0149750467300418
7.5654545454545445,-0.08272070016860959,0.19671240320205702,0.216156687355042
7.566060606060606,-0.0156601532936096,0.122466797733307,0.113170847511292
7.566666666666667,-0.0276352509498596,-0.143380370235443,-0.14549126186370798
7.567272727272727,-0.15457128610610998,0.0386411141395569,-0.047295461082458204
7.567878787878788,0.18312646780014,-0.0403945303916931,-0.0233452657699582
7.568484848484848,0.0322402373313904,-0.157750487422943,-0.186206593894958
7.569090909090909,0.00829004201889039,0.00271582117080689,-0.06406059780120821
7.56969696969697,-0.13541112985611,0.0434311532020569,0.0556903787612918
7.57030303030303,-0.10667089548111,0.151207032108307,-0.0041851095199581904
7.570909090909091,-0.11385595407485999,-0.129010253047943,0.06048041782379179
7.571515151515152,-0.0851157196998596,-0.006864256954193111,-0.0161602071762082
7.572121212121212,0.0681655303001404,-0.0212343741416931,0.034135202980041794
7.572727272727273,-0.08272070016860959,-0.033209471797943105,-0.056875539207458206
7.573333333333333,-0.0611655243873596,0.053011231327056894,0.25208198032379203
7.573939393939394,-0.05398046579360961,0.0146909188270569,0.15388617954254202
7.574545454545455,-0.0923007782936096,0.0194809578895569,-0.15028130092620798
7.575151515151515,-0.0994858368873596,0.0170859383583069,0.034135202980041794
7.575757575757576,0.0633754912376404,-0.037999510860443106,0.0461103006362918
7.576363636363636,-0.12583105173111,-0.114640135860443,-0.0616655782699582
7.576969696969697,-0.0659555634498596,-0.140985350704193,-0.16944145717620798
7.577575757575758,-0.11864599313735999,0.0242709969520569,-0.0305303243637082
7.578181818181818,-0.049190426731109606,-0.08829492101669309,0.0652704568862918
7.578787878787879,-0.0276352509498596,-0.0787148428916931,-0.056875539207458206
7.579393939393939,-0.051585446262359606,-0.186490721797943,-0.16465141811370798
7.58,0.0681655303001404,-0.09068994054794309,-0.337092824363708
7.580606060606061,-0.0611655243873596,-0.109850096797943,0.0269501443862918
7.581212121212121,0.16396631155014,0.0625913094520569,0.18502143344879202
7.581818181818182,0.0921157256126404,-0.0451845694541931,-0.0904058126449582
7.582424242424242,0.00350000295639039,-0.121825194454193,0.12993598423004202
7.583030303030303,-0.0970908173561096,-0.0236293936729431,0.00299994907379181
7.583636363636364,-0.0276352509498596,-0.133800292110443,0.0101850076675418
7.584242424242424,0.039425295925140394,0.0985166024208069,0.0173700662612918
7.584848484848485,-0.00608007516860961,0.0434311532020569,0.0580853982925418
7.585454545454545,0.14959619436264002,0.08175146570205691,0.038925242042541795
7.586060606060606,-0.11625097360610999,0.0218759774208069,0.230526804542542
7.586666666666667,-0.0156601532936096,0.09612158288955691,0.113170847511292
7.587272727272727,0.0873256865501404,0.110491700077057,0.0700604959487918
7.587878787878788,0.0753505888938904,0.112886719608307,-0.0257402853012082
7.588484848484848,0.0154751006126404,0.0458261727333069,0.0628754373550418
7.589090909090909,-0.0132651337623596,-0.033209471797943105,0.218551706886292
7.58969696969697,0.0753505888938904,-0.0140493155479431,-0.0904058126449582
7.59030303030303,0.16396631155014,0.0745664071083069,-0.0616655782699582
7.590909090909091,0.0921157256126404,0.0146909188270569,0.0197650857925418
7.591515151515152,-0.07553564157485959,-0.0811098624229431,0.0532953592300418
7.592121212121212,0.0154751006126404,0.029061036014556903,0.14430610141754202
7.592727272727273,-0.14978124704360998,0.0218759774208069,0.151491160011292
7.593333333333333,-0.15217626657486,-0.210440917110443,0.0796405740737918
7.593939393939394,-0.0012900361061096099,-0.0643447257041931,-0.176626515769958
7.594545454545455,-0.08032568063735959,-0.0739248038291931,-0.0377153829574582
7.595151515151515,0.0178701201438904,-0.102665038204193,0.0269501443862918
7.595757575757576,-0.0252402314186096,-0.0260244132041931,0.0509003396987918
7.596363636363636,-0.0300302704811096,-0.0787148428916931,0.225736765480042
7.596969696969697,-0.0851157196998596,0.0386411141395569,0.163466257667542
7.597575757575758,0.09930078420639041,-0.0499746085166931,0.14909614048004202
7.598181818181818,0.0753505888938904,-0.184095702266693,0.31435248813629196
7.598787878787879,0.00350000295639039,-0.00207421789169311,0.034135202980041794
7.599393939393939,0.0873256865501404,-0.0691347647666931,0.0556903787612918
7.6,0.00350000295639039,0.0673813485145569,0.165861277198792
7.6006060606060615,0.039425295925140394,0.167972168827057,0.0820355936050418
7.601212121212121,-0.039610348606109604,-0.08350488195419309,0.0916156717300418
7.601818181818182,-0.07793066110610959,0.08654150476455691,-0.143096242332458
7.602424242424242,-0.051585446262359606,-0.140985350704193,0.108380808448792
7.6030303030303035,-0.0012900361061096099,-0.0763198233604431,-0.07124565639495821
7.6036363636363635,-0.049190426731109606,-0.0284194327354431,-0.0856157735824582
7.604242424242424,0.0753505888938904,-0.220020995235443,-0.0209502462387082
7.604848484848485,0.0250551787376404,0.000320801639556893,-0.06406059780120821
7.6054545454545455,-0.11146093454360999,-0.0811098624229431,-0.10238091030120801
7.6060606060606055,-0.039610348606109604,-0.140985350704193,-0.14549126186370798
7.606666666666667,-0.0899057587623596,0.158392090702057,-0.341882863426208
7.607272727272727,-0.0228452118873596,0.18234228601455701,-0.17423149623870798
7.607878787878788,0.0130800810813904,-0.09308496007919309,0.0964057107925418
7.608484848484849,-0.044400387668609605,-0.018839354610443098,0.19460151157379202
7.609090909090909,-0.0994858368873596,0.0314560555458069,-0.131121144676208
7.60969696969697,0.0873256865501404,0.0410361336708069,0.46284369907379197
7.61030303030303,0.23342187795639,0.08175146570205691,0.544274363136292
7.610909090909091,0.0322402373313904,0.0314560555458069,0.228131785011292
7.611515151515152,0.0777456084251404,-0.037999510860443106,0.127540964698792
7.612121212121212,0.00110498342514039,-0.184095702266693,-0.10717094936370801
7.612727272727273,-0.07074560251235959,-0.150565428829193,-0.10717094936370801
7.613333333333333,0.0801406279563904,-0.208045897579193,-0.34427788295745804
7.613939393939394,-0.046795407199859605,-0.16733056554794298,0.110775827980042
7.614545454545455,0.0178701201438904,-0.035604491329193105,0.0485053201675418
7.615151515151515,0.0537954131126404,-0.059554686641693104,0.103590769386292
7.615757575757576,0.27892724905014,-0.0427895499229431,0.146701120948792
7.616363636363636,0.16157129201889,-0.018839354610443098,0.0820355936050418
7.616969696969697,-0.16894140329361,-0.0140493155479431,0.0006049295425418089
7.617575757575758,0.13522607717514,-0.018839354610443098,0.168256296730042
7.618181818181818,-0.11625097360610999,0.08893652429580691,0.043715281105041796
7.618787878787879,-0.0611655243873596,-0.277501463985443,0.00299994907379181
7.619393939393939,0.10648584280014001,-0.210440917110443,0.132331003761292
7.62,0.0849306670188904,0.08414648523330691,0.0101850076675418
7.620606060606061,0.12085595998764001,0.189527344608307,0.0485053201675418
7.621212121212121,-0.051585446262359606,0.09372656335830691,-0.11196098842620801
7.621818181818182,0.13522607717514,-0.124220213985443,-0.0808257345199582
7.622424242424242,0.24779199514389,0.012295899295806899,-0.157466359519958
7.623030303030303,-0.15936132516860999,-0.0691347647666931,-0.10717094936370801
7.623636363636364,-0.25755712594986,-0.0475795889854431,0.230526804542542
7.624242424242424,-0.0324252900123596,0.00750586023330689,0.29519233188629196
7.624848484848485,0.0753505888938904,0.09372656335830691,-0.0425054220199582
7.625454545454545,0.17354638967514,-0.157750487422943,-0.289192433738708
7.626060606060606,0.0609804717063904,-0.212835936641693,-0.06406059780120821
7.626666666666667,-0.11385595407485999,0.129651856327057,-0.126331105613708
7.627272727272727,-0.0635605439186096,-0.0691347647666931,0.12993598423004202
7.627878787878788,0.0729555693626404,-0.114640135860443,0.170651316261292
7.628484848484849,-0.23600195016861,0.08654150476455691,0.0868256326675418
7.629090909090909,-0.08272070016860959,-0.09787499914169309,0.0317401834487918
7.62969696969697,0.0058950224876403905,-0.107455077266693,-0.00897514858245819
7.63030303030303,-0.13301611032486,-0.0547646475791931,-0.140701222801208
7.630909090909091,-0.11864599313735999,-0.203255858516693,0.127540964698792
7.631515151515151,-0.0372153290748596,-0.114640135860443,0.0485053201675418
7.632121212121212,0.15917627248764002,0.0170859383583069,-0.17902153530120798
7.632727272727273,0.0825356474876404,0.0410361336708069,0.201786570167542
7.633333333333333,0.0106850615501404,-0.00925927648544311,-0.06645561733245821
7.633939393939394,-0.16654638376236,0.0362460946083069,-0.0425054220199582
7.634545454545455,-0.0252402314186096,0.0170859383583069,0.17544135532379201
7.635151515151515,0.0154751006126404,-0.0475795889854431,0.0724555154800418
7.635757575757576,-0.0587705048561096,-0.174515624141693,-0.07124565639495821
7.636363636363636,-0.0324252900123596,-0.26073632726669305,0.06048041782379179
7.636969696969697,-0.0611655243873596,-0.0667397452354431,-0.10717094936370801
7.637575757575758,-0.0970908173561096,-0.107455077266693,0.0173700662612918
7.638181818181818,0.0298452178001404,-0.136195311641693,0.0461103006362918
7.638787878787879,-0.13780614938736,-0.0691347647666931,0.34309272251129197
7.639393939393939,-0.046795407199859605,0.155997071170807,-0.0616655782699582
7.64,-0.051585446262359606,0.13683691492080702,-0.317932668113708
7.640606060606061,0.0202651396751404,-0.0403945303916931,0.45326362094879197
7.641212121212121,0.0753505888938904,0.160787110233307,0.132331003761292
7.641818181818182,-0.22402685251236,0.170367188358307,0.034135202980041794
7.642424242424242,0.0346352568626404,-0.152960448360443,0.0772455545425418
7.643030303030303,0.11127588186264001,-0.0787148428916931,0.00299994907379181
7.6436363636363645,-0.0300302704811096,0.0170859383583069,0.268847117042542
7.644242424242424,0.0753505888938904,-0.09547997961044309,0.146701120948792
7.644848484848485,-0.0324252900123596,-0.08589990148544309,0.161071238136292
7.645454545454546,-0.00368505563735961,0.055406250858306895,0.182626413917542
7.6460606060606064,-0.0228452118873596,0.005110840702056889,0.110775827980042
7.6466666666666665,-0.044400387668609605,-0.255946288204193,0.161071238136292
7.6472727272727266,-0.0180551728248596,0.13683691492080702,0.26405707798004197
7.647878787878788,0.10169580373764,0.120071778202057,0.103590769386292
7.648484848484848,0.14720117483139,-0.00446923742294311,-0.00179008998870819
7.649090909090909,-0.0324252900123596,-0.00207421789169311,-0.14549126186370798
7.64969696969697,0.0537954131126404,0.055406250858306895,-0.0257402853012082
7.65030303030303,0.0849306670188904,-0.107455077266693,0.33351264438629197
7.650909090909091,0.09930078420639041,-0.033209471797943105,0.23531684360504201
7.651515151515151,0.12325097951889001,0.213477539920807,0.165861277198792
7.652121212121212,0.0609804717063904,-0.112245116329193,0.0556903787612918
7.652727272727273,-0.14499120798110998,-0.037999510860443106,0.0197650857925418
7.653333333333333,-0.0276352509498596,0.0362460946083069,0.201786570167542
7.653939393939394,-0.0180551728248596,-0.09547997961044309,0.168256296730042
7.654545454545455,-0.12822607126236,0.0721713875770569,0.201786570167542
7.655151515151515,-0.0300302704811096,0.060196289920806896,-0.00179008998870819
7.655757575757576,-0.00608007516860961,-0.191280760860443,-0.121541066551208
7.656363636363636,-0.0324252900123596,0.0362460946083069,-0.0161602071762082
7.656969696969697,-0.049190426731109606,0.029061036014556903,-0.123936086082458
7.657575757575758,-0.27671728219985997,0.179947266483307,-0.0401104024887082
7.658181818181818,-0.12104101266860999,0.146416993045807,-0.16465141811370798
7.658787878787879,-0.0132651337623596,-0.145775389766693,0.156281199073792
7.659393939393939,0.0633754912376404,0.129651856327057,-0.18381157436370799
7.66,0.0346352568626404,0.189527344608307,-0.0999858907699582
7.660606060606061,-0.11625097360610999,-0.0427895499229431,0.113170847511292
7.661212121212121,-0.00368505563735961,0.0146909188270569,-0.0425054220199582
7.661818181818182,-0.0132651337623596,-0.0475795889854431,-0.10717094936370801
7.662424242424242,-0.00608007516860961,-0.164935546016693,-0.119146047019958
7.663030303030303,-0.0899057587623596,0.0410361336708069,-0.188601613426208
7.663636363636364,-0.07793066110610959,-0.0212343741416931,-0.0616655782699582
7.664242424242424,0.11846094045639001,0.167972168827057,0.0556903787612918
7.664848484848485,0.32682763967514,0.177552246952057,-0.0808257345199582
7.665454545454545,-0.0659555634498596,0.0362460946083069,-0.0904058126449582
7.666060606060606,-0.26713720407485997,-0.0260244132041931,-0.0975908712387082
7.666666666666667,-0.10667089548111,0.00271582117080689,0.043715281105041796
7.667272727272727,0.0705605498313904,-0.061949706172943104,0.220946726417542
7.667878787878788,0.0633754912376404,-0.107455077266693,0.0532953592300418
7.668484848484848,-0.15936132516860999,-0.0667397452354431,-0.250872121238708
7.669090909090909,0.0250551787376404,-0.117035155391693,0.034135202980041794
7.66969696969697,0.11606592092514001,0.0314560555458069,0.156281199073792
7.67030303030303,-0.049190426731109606,-0.035604491329193105,0.491583933448792
7.670909090909091,0.12085595998764001,0.055406250858306895,0.376622995948792
7.671515151515152,-0.0156601532936096,-0.109850096797943,0.00539496860504181
7.672121212121212,-0.20726171579361,-0.16733056554794298,0.0892206521987918
7.672727272727273,-0.13301611032486,-0.287081542110443,-0.0257402853012082
7.673333333333333,0.041820315456390394,-0.217625975704193,-0.049690480613708204
7.673939393939394,0.20468164358139002,-0.0260244132041931,-0.135911183738708
7.674545454545455,-0.07553564157485959,-0.133800292110443,-0.291587453269958
7.675151515151515,-0.14499120798110998,-0.152960448360443,-0.207761769676208
7.675757575757576,-0.039610348606109604,-0.00207421789169311,-0.140701222801208
7.676363636363636,0.10648584280014001,0.0218759774208069,0.00539496860504181
7.676969696969697,-0.0611655243873596,0.151207032108307,0.132331003761292
7.677575757575758,-0.00608007516860961,0.00750586023330689,0.24968696079254202
7.678181818181818,0.16157129201889,-0.030814452266693097,0.156281199073792
7.678787878787879,-0.0204501923561096,-0.0403945303916931,-0.07364067592620821
7.679393939393939,-0.21684179391861,0.09133154382705691,-0.06406059780120821
7.68,-0.0372153290748596,0.206292481327057,-0.0808257345199582
7.680606060606061,0.0801406279563904,-0.234391112422943,0.125145945167542
7.681212121212121,0.12325097951889001,-0.059554686641693104,0.132331003761292
7.681818181818182,-0.00847509469985961,0.0721713875770569,-0.133516164207458
7.682424242424242,0.0250551787376404,0.184737305545807,-0.0904058126449582
7.683030303030303,0.0585854521751404,0.151207032108307,-0.17423149623870798
7.683636363636364,0.049005374050140396,0.0625913094520569,-0.07124565639495821
7.684242424242424,-0.0132651337623596,-0.215230956172943,0.036530222511291795
7.6848484848484855,-0.0300302704811096,0.00750586023330689,-0.0257402853012082
7.685454545454545,0.0609804717063904,0.230242676639557,-0.0041851095199581904
7.686060606060606,-0.27432226266861,0.08893652429580691,-0.0975908712387082
7.686666666666667,0.26216211233139003,0.0721713875770569,-0.0137651876449582
7.6872727272727275,-0.07793066110610959,0.060196289920806896,0.18981147251129202
7.6878787878787875,-0.36054296579361,-0.0667397452354431,0.120355906105042
7.688484848484848,-0.044400387668609605,-0.308636717891693,-0.0233452657699582
7.689090909090909,-0.20247167673111,0.012295899295806899,-0.0281353048324582
7.68969696969697,-0.10667089548111,0.08893652429580691,0.0317401834487918
7.6903030303030295,0.0106850615501404,-0.131405272579193,0.0245551248550418
7.690909090909091,0.0801406279563904,0.108096680545807,-0.049690480613708204
7.691515151515152,-0.12583105173111,0.170367188358307,-0.0449004415512082
7.692121212121212,0.11606592092514001,0.0721713875770569,-0.047295461082458204
7.692727272727273,0.041820315456390394,-0.0427895499229431,0.170651316261292
7.693333333333333,-0.00847509469985961,-0.00925927648544311,0.0101850076675418
7.693939393939394,0.20947168264389002,-0.109850096797943,0.0940106912612918
7.694545454545455,0.13043603811264,-0.121825194454193,0.422128367042542
7.695151515151515,-0.0348203095436096,0.203897461795807,-0.171836476707458
7.695757575757576,0.12325097951889001,0.120071778202057,-0.00658012905120819
7.696363636363636,0.11846094045639001,0.0410361336708069,0.0485053201675418
7.696969696969697,-0.0611655243873596,0.0482211922645569,-0.056875539207458206
7.697575757575758,-0.0180551728248596,0.0314560555458069,-0.0975908712387082
7.698181818181818,-0.12822607126236,-0.0140493155479431,0.0556903787612918
7.698787878787879,-0.0635605439186096,-0.0499746085166931,0.539484324073792
7.699393939393939,-0.00608007516860961,-0.0140493155479431,-0.140701222801208
7.7,0.12564599905014,0.0625913094520569,-0.310747609519958
7.700606060606061,0.0274501982688904,0.055406250858306895,0.268847117042542
7.701212121212121,-0.17852148141861,0.175157227420807,-0.0808257345199582
7.701818181818182,-0.13301611032486,0.0146909188270569,0.0988007303237918
7.702424242424242,-0.0276352509498596,-0.035604491329193105,0.0006049295425418089
7.703030303030303,0.039425295925140394,0.0985166024208069,0.103590769386292
7.703636363636364,0.0729555693626404,-0.196070799922943,0.280822214698792
7.704242424242424,0.11846094045639001,-0.00446923742294311,-0.06645561733245821
7.704848484848485,0.0298452178001404,0.0458261727333069,0.21376166782379202
7.705454545454545,0.18312646780014,0.124861817264557,0.034135202980041794
7.706060606060606,0.0226601592063904,-0.234391112422943,0.0772455545425418
7.706666666666667,-0.18810155954361,-0.39964746007919305,-0.131121144676208
7.707272727272727,-0.0228452118873596,-0.174515624141693,-0.16944145717620798
7.707878787878788,-0.0324252900123596,-0.133800292110443,-0.06406059780120821
7.708484848484848,0.12325097951889001,-0.09308496007919309,-0.202971730613708
7.709090909090909,-0.07314062204360959,-0.0523696280479431,0.0820355936050418
7.70969696969697,-0.13541112985611,0.0673813485145569,0.170651316261292
7.71030303030303,-0.15217626657486,-0.0475795889854431,0.0772455545425418
7.710909090909091,-0.08272070016860959,-0.00446923742294311,0.25208198032379203
7.711515151515152,0.31485254201889,0.0673813485145569,0.0892206521987918
7.712121212121212,0.0202651396751404,0.0745664071083069,-0.317932668113708
7.712727272727273,-0.07553564157485959,-0.08829492101669309,0.00299994907379181
7.713333333333333,-0.0994858368873596,-0.0212343741416931,0.0772455545425418
7.713939393939394,-0.14978124704360998,0.0673813485145569,-0.052085500144958205
7.714545454545455,0.0897207060813904,-0.140985350704193,0.137121042823792
7.715151515151515,0.0753505888938904,-0.100270018672943,-0.0353203634262082
7.715757575757576,0.33401269826889,0.0194809578895569,0.173046335792542
7.716363636363636,0.0897207060813904,0.09612158288955691,0.108380808448792
7.716969696969697,0.23342187795639,-0.136195311641693,0.173046335792542
7.717575757575758,0.36275293264389,-0.26073632726669305,0.12993598423004202
7.718181818181818,-0.13541112985611,-0.155355467891693,-0.392178273582458
7.718787878787879,-0.07074560251235959,-0.0667397452354431,-0.171836476707458
7.719393939393939,-0.0132651337623596,0.144021973514557,0.0269501443862918
7.72,0.0514003935813904,-0.0451845694541931,-0.0760356954574582
7.720606060606061,0.00829004201889039,-0.08589990148544309,0.0293451639175418
7.721212121212121,-0.22402685251236,-0.138590331172943,0.18502143344879202
7.721818181818182,-0.14499120798110998,-0.0571596671104431,0.022160105323791802
7.722424242424242,-0.0970908173561096,0.160787110233307,0.0532953592300418
7.723030303030303,-0.0946957978248596,0.057801270389556896,0.177836374855042
7.723636363636364,0.039425295925140394,-0.133800292110443,-0.06406059780120821
7.724242424242424,0.0609804717063904,-0.160145506954193,-0.21494682826995798
7.724848484848485,0.0226601592063904,0.153602051639557,0.0556903787612918
7.725454545454545,-0.07553564157485959,0.33562353601455697,0.0964057107925418
7.726060606060606,0.16157129201889,-0.0284194327354431,-0.0999858907699582
7.726666666666667,0.15917627248764002,-0.0427895499229431,-0.0209502462387082
7.727272727272727,0.00110498342514039,0.00271582117080689,0.038925242042541795
7.7278787878787885,0.13283105764389,-0.152960448360443,0.177836374855042
7.7284848484848485,0.0226601592063904,-0.105060057735443,-0.0305303243637082
7.729090909090909,0.10648584280014001,0.0673813485145569,-0.06885063686370821
7.72969696969697,0.24300195608139,-0.00207421789169311,-0.133516164207458
7.7303030303030305,0.00350000295639039,0.0458261727333069,0.429313425636292
7.7309090909090905,0.0058950224876403905,-0.0212343741416931,-0.0784307149887082
7.731515151515152,-0.17852148141861,-0.215230956172943,-0.317932668113708
7.732121212121212,-0.042005368137359604,-0.061949706172943104,-0.0185552267074582
7.732727272727273,0.14959619436264002,-0.0763198233604431,-0.200576711082458
7.7333333333333325,0.00829004201889039,-0.109850096797943,0.115565867042542
7.733939393939394,-0.15696630563736,-0.0403945303916931,-0.291587453269958
7.734545454545455,-0.13541112985611,-0.0212343741416931,-0.0377153829574582
7.735151515151515,0.0657705107688904,0.0434311532020569,0.0485053201675418
7.735757575757576,0.0777456084251404,0.170367188358307,-0.0233452657699582
7.736363636363636,0.17354638967514,-0.107455077266693,0.038925242042541795
7.736969696969697,0.0849306670188904,-0.179305663204193,-0.0137651876449582
7.737575757575758,0.041820315456390394,-0.030814452266693097,-0.339487843894958
7.738181818181818,-0.0300302704811096,-0.107455077266693,-0.0377153829574582
7.738787878787879,-0.14020116891860998,-0.121825194454193,0.0820355936050418
7.739393939393939,0.0801406279563904,-0.145775389766693,-0.21494682826995798
7.74,0.044215334987640395,-0.061949706172943104,0.034135202980041794
7.740606060606061,-0.11146093454360999,0.005110840702056889,-0.06645561733245821
7.741212121212121,0.0178701201438904,0.0386411141395569,-0.17902153530120798
7.741818181818182,0.0657705107688904,0.026666016483306902,0.0101850076675418
7.742424242424242,-0.0132651337623596,0.012295899295806899,0.0844306131362918
7.743030303030303,-0.15457128610610998,0.0338510750770569,0.101195749855042
7.743636363636364,-0.15936132516860999,-0.037999510860443106,-0.0999858907699582
7.744242424242424,-0.07553564157485959,0.0218759774208069,-0.0209502462387082
7.744848484848485,-0.0300302704811096,0.208687500858307,-0.06406059780120821
7.745454545454545,-0.19768163766861,0.0362460946083069,0.0796405740737918
7.746060606060606,-0.13062109079361,0.0721713875770569,0.0940106912612918
7.746666666666667,0.09690576467514041,-0.00925927648544311,-0.176626515769958
7.747272727272727,-0.10188085641861,-0.109850096797943,-0.0137651876449582
7.747878787878788,-0.046795407199859605,0.00271582117080689,0.0556903787612918
7.748484848484849,0.0058950224876403905,0.005110840702056889,0.24489692173004202
7.749090909090909,-0.0180551728248596,0.0170859383583069,0.0485053201675418
7.74969696969697,0.14720117483139,0.0194809578895569,-0.0329253438949582
7.75030303030303,-0.0563754853248596,0.0386411141395569,0.0892206521987918
7.750909090909091,-0.16894140329361,0.060196289920806896,0.108380808448792
7.751515151515151,0.0106850615501404,0.0458261727333069,0.120355906105042
7.752121212121212,0.23102685842514,-0.184095702266693,0.122750925636292
7.752727272727273,0.0801406279563904,0.0625913094520569,0.0748505350112918
7.753333333333333,-0.0228452118873596,0.0673813485145569,0.379018015480042
7.753939393939394,0.11606592092514001,-0.229601073360443,0.115565867042542
7.754545454545455,0.044215334987640395,-0.0403945303916931,-0.0784307149887082
7.755151515151515,0.00110498342514039,0.09133154382705691,0.18981147251129202
7.755757575757576,-0.049190426731109606,-0.0763198233604431,0.0293451639175418
7.756363636363636,0.12085595998764001,0.12725683679580702,-0.0760356954574582
7.756969696969697,-0.0635605439186096,0.057801270389556896,-0.049690480613708204
7.757575757575758,-0.051585446262359606,-0.030814452266693097,0.125145945167542
7.758181818181818,0.20228662405014,-0.0739248038291931,0.0173700662612918
7.758787878787879,0.14241113576889,-0.100270018672943,0.417338327980042
7.759393939393939,0.0346352568626404,-0.0475795889854431,-0.11435600795745801
7.76,0.18791650686264,-0.186490721797943,-0.23889702358245798
7.760606060606061,0.34838281545639,0.0218759774208069,0.20897162876129202
7.761212121212121,-0.14738622751236,0.117676758670807,-0.140701222801208
7.761818181818182,-0.11864599313735999,0.0745664071083069,0.20897162876129202
7.762424242424242,0.0657705107688904,-0.0547646475791931,0.27603217563629195
7.763030303030303,-0.16175634469986,0.0338510750770569,0.0269501443862918
7.763636363636364,-0.00608007516860961,-0.059554686641693104,0.038925242042541795
7.764242424242424,0.0681655303001404,-0.16733056554794298,0.132331003761292
7.764848484848485,0.0058950224876403905,0.0745664071083069,-0.056875539207458206
7.765454545454545,-0.13062109079361,0.115281739139557,-0.06406059780120821
7.766060606060606,-0.049190426731109606,0.0649863289833069,0.022160105323791802
7.7666666666666675,-0.0156601532936096,-0.0260244132041931,0.18023139438629202
7.767272727272727,-0.22163183298111,-0.133800292110443,0.25208198032379203
7.767878787878788,0.15917627248764002,-0.186490721797943,0.0317401834487918
7.768484848484848,0.00350000295639039,-0.0260244132041931,-0.258057179832458
7.7690909090909095,-0.039610348606109604,-0.018839354610443098,-0.049690480613708204
7.7696969696969695,-0.0204501923561096,0.0458261727333069,-0.0209502462387082
7.77030303030303,-0.11385595407485999,0.18234228601455701,-0.10956596889495801
7.770909090909091,0.09690576467514041,-0.00207421789169311,0.218551706886292
7.7715151515151515,-0.0348203095436096,-0.00207421789169311,0.14430610141754202
7.7721212121212115,-0.0372153290748596,0.10091162195205701,-0.0185552267074582
7.772727272727273,-0.08032568063735959,-0.105060057735443,0.0125800271987918
7.773333333333333,0.0178701201438904,0.00990087976455689,0.28561225376129196
7.773939393939394,0.12325097951889001,0.07935644617080691,0.122750925636292
7.774545454545455,0.0849306670188904,-0.0811098624229431,0.165861277198792
7.775151515151515,-0.039610348606109604,0.0170859383583069,0.113170847511292
7.775757575757576,-0.14738622751236,-0.08350488195419309,-0.0760356954574582
7.776363636363636,0.09690576467514041,-0.00446923742294311,0.0988007303237918
7.776969696969697,-0.0923007782936096,0.055406250858306895,0.137121042823792
7.777575757575758,-0.22402685251236,0.0386411141395569,0.211366648292542
7.778181818181818,-0.0659555634498596,0.0721713875770569,0.206576609230042
7.778787878787879,-0.18570654001236,0.175157227420807,0.0868256326675418
7.779393939393939,0.0322402373313904,-0.109850096797943,-0.0808257345199582
7.78,0.15678125295639,-0.09787499914169309,0.043715281105041796
7.780606060606061,0.17354638967514,0.0769614266395569,0.105985788917542
7.781212121212121,0.0729555693626404,0.0146909188270569,0.0988007303237918
7.781818181818182,-0.16654638376236,0.134441895389557,0.115565867042542
7.782424242424242,0.0058950224876403905,0.108096680545807,0.158676218605042
7.783030303030303,-0.07793066110610959,0.08175146570205691,0.254476999855042
7.783636363636364,-0.0300302704811096,-0.0811098624229431,0.23531684360504201
7.784242424242424,-0.0611655243873596,-0.198465819454193,0.122750925636292
7.784848484848485,-0.00608007516860961,-0.140985350704193,0.132331003761292
7.785454545454545,0.0825356474876404,0.0697763680458069,0.0485053201675418
7.786060606060606,0.0777456084251404,0.005110840702056889,0.0580853982925418
7.786666666666667,-0.0899057587623596,-0.0523696280479431,0.288007273292542
7.787272727272727,-0.044400387668609605,-0.035604491329193105,0.122750925636292
7.787878787878788,-0.0659555634498596,0.189527344608307,-0.056875539207458206
7.788484848484848,-0.0970908173561096,0.12725683679580702,-0.162256398582458
7.789090909090909,0.0849306670188904,-0.145775389766693,-0.351462941551208
7.78969696969697,-0.08272070016860959,0.175157227420807,-0.279612355613708
7.79030303030303,0.0657705107688904,0.09133154382705691,0.596964792823792
7.790909090909091,-0.24079198923111,0.07935644617080691,0.125145945167542
7.791515151515152,-0.07793066110610959,0.00990087976455689,-0.152676320457458
7.792121212121212,-0.00608007516860961,-0.033209471797943105,0.28321723423004197
7.792727272727273,-0.00847509469985961,0.13204687585830702,0.0772455545425418
7.793333333333333,0.039425295925140394,-0.0236293936729431,0.0269501443862918
7.793939393939394,0.0609804717063904,0.0242709969520569,0.0844306131362918
7.794545454545455,0.0346352568626404,0.0242709969520569,0.034135202980041794
7.795151515151515,0.0537954131126404,-0.16733056554794298,0.034135202980041794
7.795757575757576,0.0849306670188904,-0.117035155391693,-0.190996632957458
7.796363636363636,-0.0180551728248596,0.0985166024208069,-0.198181691551208
7.796969696969697,0.13283105764389,-0.114640135860443,0.0317401834487918
7.797575757575758,-0.0132651337623596,0.153602051639557,0.125145945167542
7.798181818181818,-0.16415136423111,0.218267578983307,0.232921824073792
7.798787878787879,-0.13062109079361,-0.17691064367294299,-0.0880107931137082
7.799393939393939,-0.00368505563735961,-0.188885741329193,0.00539496860504181
7.8,-0.0683505829811096,-0.0547646475791931,0.0197650857925418
7.800606060606061,0.00829004201889039,-0.0451845694541931,0.0101850076675418
7.801212121212121,0.00350000295639039,-0.006864256954193111,-0.00658012905120819
7.801818181818182,0.0298452178001404,0.012295899295806899,0.00539496860504181
7.802424242424242,-0.15936132516860999,-0.0236293936729431,-0.0233452657699582
7.803030303030303,0.0825356474876404,0.0458261727333069,0.0173700662612918
7.803636363636364,0.0322402373313904,-0.035604491329193105,0.0461103006362918
7.804242424242424,-0.35575292673111,0.0194809578895569,-0.0305303243637082
7.804848484848485,0.0561904326438904,-0.0284194327354431,0.0892206521987918
7.805454545454545,0.0729555693626404,0.0170859383583069,0.14430610141754202
7.806060606060606,-0.0970908173561096,0.201502442264557,0.0269501443862918
7.806666666666667,0.0178701201438904,-0.059554686641693104,-0.0975908712387082
7.807272727272727,0.14480615530014002,-0.0643447257041931,0.043715281105041796
7.807878787878788,0.0250551787376404,0.108096680545807,0.206576609230042
7.808484848484848,-0.05398046579360961,-0.0763198233604431,-0.07364067592620821
7.809090909090909,0.11367090139389001,-0.109850096797943,0.151491160011292
7.8096969696969705,0.0322402373313904,0.10330664148330701,0.0676654764175418
7.81030303030303,-0.00368505563735961,0.09612158288955691,-0.361043019676208
7.810909090909091,0.10169580373764,-0.181700682735443,-0.138306203269958
7.811515151515152,0.0657705107688904,-0.061949706172943104,-0.07364067592620821
7.8121212121212125,0.0106850615501404,-0.0523696280479431,-0.10477592983245801
7.8127272727272725,-0.13541112985611,-0.035604491329193105,0.12993598423004202
7.813333333333333,-0.08032568063735959,0.155997071170807,-0.00897514858245819
7.813939393939394,0.15438623342514002,-0.143380370235443,-0.119146047019958
7.814545454545455,0.23342187795639,-0.0739248038291931,0.0006049295425418089
7.8151515151515145,-0.046795407199859605,-0.0523696280479431,-0.0329253438949582
7.815757575757576,-0.24318700876236,0.012295899295806899,-0.0425054220199582
7.816363636363636,0.0154751006126404,0.0673813485145569,0.0197650857925418
7.816969696969697,-0.0252402314186096,0.0170859383583069,0.146701120948792
7.817575757575758,-0.0994858368873596,0.0649863289833069,-0.00897514858245819
7.818181818181818,0.0873256865501404,-0.033209471797943105,-0.00658012905120819
7.818787878787879,0.10888086233139001,-0.09308496007919309,0.25208198032379203
7.819393939393939,-0.13301611032486,-0.08829492101669309,-0.0137651876449582
7.82,-0.08272070016860959,-0.09068994054794309,-0.28440239467620804
7.820606060606061,0.0633754912376404,-0.033209471797943105,0.216156687355042
7.821212121212121,0.10169580373764,0.053011231327056894,0.201786570167542
7.821818181818182,0.0322402373313904,0.0170859383583069,0.156281199073792
7.822424242424242,0.044215334987640395,0.0194809578895569,0.187416452980042
7.823030303030303,0.0346352568626404,-0.117035155391693,0.177836374855042
7.823636363636364,0.00829004201889039,-0.114640135860443,-0.176626515769958
7.824242424242424,0.0945107451438904,-0.00446923742294311,0.0772455545425418
7.824848484848485,-0.0204501923561096,0.249402832889557,0.242501902198792
7.825454545454545,0.16157129201889,-0.035604491329193105,-0.16465141811370798
7.826060606060606,0.11606592092514001,-0.102665038204193,0.237711863136292
7.826666666666667,-0.0372153290748596,0.112886719608307,-0.056875539207458206
7.827272727272727,-0.0012900361061096099,0.012295899295806899,0.0868256326675418
7.827878787878788,0.041820315456390394,0.057801270389556896,0.0892206521987918
7.828484848484848,0.14001611623764001,-0.0643447257041931,-0.138306203269958
7.829090909090909,0.0753505888938904,-0.037999510860443106,0.0293451639175418
7.82969696969697,-0.051585446262359606,-0.0787148428916931,0.0844306131362918
7.83030303030303,0.0106850615501404,-0.08589990148544309,-0.0999858907699582
7.830909090909091,-0.0563754853248596,-0.035604491329193105,-0.0209502462387082
7.831515151515152,-0.18091650094986,-0.126615233516693,0.228131785011292
7.832121212121212,-0.00368505563735961,-0.0763198233604431,-0.10956596889495801
7.832727272727273,-0.0228452118873596,-0.00925927648544311,-0.18381157436370799
7.833333333333333,0.13762109670639,-0.212835936641693,-0.190996632957458
7.833939393939394,0.0178701201438904,-0.107455077266693,0.0964057107925418
7.834545454545455,-0.07314062204360959,0.00271582117080689,0.216156687355042
7.835151515151515,-0.08032568063735959,-0.0475795889854431,-0.21494682826995798
7.835757575757576,0.039425295925140394,-0.105060057735443,0.043715281105041796
7.836363636363636,0.14241113576889,-0.0236293936729431,0.28561225376129196
7.836969696969697,0.0609804717063904,-0.0212343741416931,-0.126331105613708
7.837575757575758,0.0921157256126404,-0.100270018672943,-0.049690480613708204
7.838181818181818,-0.11146093454360999,-0.059554686641693104,-0.0329253438949582
7.838787878787879,-0.0300302704811096,-0.179305663204193,0.182626413917542
7.839393939393939,0.0178701201438904,0.0506162117958069,-0.0329253438949582
7.84,-0.15217626657486,-0.0715297842979431,-0.056875539207458206
7.840606060606061,-0.24079198923111,-0.0451845694541931,-0.052085500144958205
7.841212121212121,-0.21444677438735998,0.0506162117958069,-0.06645561733245821
7.841818181818182,-0.0180551728248596,-0.0140493155479431,0.417338327980042
7.842424242424242,0.15678125295639,-0.00446923742294311,0.192206492042542
7.843030303030303,-0.0300302704811096,-0.0547646475791931,0.108380808448792
7.843636363636364,-0.039610348606109604,-0.133800292110443,0.00539496860504181
7.844242424242424,-0.0659555634498596,-0.035604491329193105,0.15388617954254202
7.844848484848485,0.0202651396751404,0.0218759774208069,0.311957468605042
7.845454545454545,0.0298452178001404,-0.198465819454193,-0.0425054220199582
7.846060606060606,-0.0923007782936096,-0.08350488195419309,-0.0951958517074582
7.846666666666667,-0.07793066110610959,0.10091162195205701,0.0101850076675418
7.847272727272727,-0.12104101266860999,-0.059554686641693104,0.108380808448792
7.847878787878788,-0.0923007782936096,-0.155355467891693,0.0844306131362918
7.848484848484849,0.0921157256126404,-0.294266600704193,0.0772455545425418
7.849090909090909,0.0130800810813904,0.005110840702056889,-0.119146047019958
7.84969696969697,0.15917627248764002,-0.119430174922943,-0.31314262905120804
7.85030303030303,0.21905176076889002,-0.184095702266693,0.24489692173004202
7.850909090909091,0.17833642873764,0.08654150476455691,0.46523871860504196
7.851515151515152,0.12804101858139,-0.129010253047943,0.0676654764175418
7.852121212121212,-0.00847509469985961,-0.0284194327354431,-0.236502004051208
7.8527272727272734,-0.0300302704811096,0.163182129764557,-0.0185552267074582
7.8533333333333335,0.0178701201438904,-0.0236293936729431,-0.0449004415512082
7.8539393939393936,0.0753505888938904,-0.100270018672943,-0.0377153829574582
7.854545454545454,-0.0324252900123596,0.0314560555458069,-0.06406059780120821
7.855151515151515,0.0657705107688904,0.110491700077057,-0.123936086082458
7.855757575757576,-0.0923007782936096,0.07935644617080691,-0.0377153829574582
7.8563636363636355,0.03703027639389039,0.07935644617080691,0.00539496860504181
7.856969696969697,0.0753505888938904,-0.0787148428916931,0.0988007303237918
7.857575757575758,-0.17852148141861,-0.061949706172943104,-0.0784307149887082
7.858181818181818,0.039425295925140394,0.208687500858307,0.0748505350112918
7.858787878787879,0.0729555693626404,-0.0787148428916931,0.117960886573792
7.859393939393939,0.0729555693626404,-0.08589990148544309,0.23531684360504201
7.86,0.0274501982688904,0.10091162195205701,0.0988007303237918
7.860606060606061,-0.0683505829811096,0.0649863289833069,-0.157466359519958
7.861212121212121,-0.0276352509498596,-0.011654296016693102,0.108380808448792
7.861818181818182,-0.13301611032486,-0.09547997961044309,0.120355906105042
7.862424242424242,-0.0372153290748596,-0.09787499914169309,0.23531684360504201
7.863030303030303,-0.0587705048561096,-0.107455077266693,0.14430610141754202
7.863636363636364,-0.29348241891861,-0.121825194454193,0.127540964698792
7.864242424242424,-0.14499120798110998,-0.160145506954193,0.218551706886292
7.864848484848485,0.10648584280014001,-0.145775389766693,-0.11196098842620801
7.865454545454545,-0.05398046579360961,-0.016444335079193097,-0.056875539207458206
7.866060606060606,-0.07074560251235959,-0.037999510860443106,0.13951606235504202
7.866666666666667,-0.046795407199859605,-0.0811098624229431,0.0197650857925418
7.867272727272727,0.0298452178001404,-0.107455077266693,-0.0329253438949582
7.867878787878788,0.20468164358139002,-0.08829492101669309,-0.135911183738708
7.868484848484849,0.039425295925140394,0.0242709969520569,0.137121042823792
7.869090909090909,-0.042005368137359604,-0.100270018672943,0.14430610141754202
7.86969696969697,-0.00847509469985961,0.0745664071083069,0.0149750467300418
7.87030303030303,-0.00847509469985961,-0.018839354610443098,0.225736765480042
7.870909090909091,0.10409082326889,0.0314560555458069,0.18502143344879202
7.871515151515151,-0.07553564157485959,0.053011231327056894,0.0556903787612918
7.872121212121212,-0.11146093454360999,-0.08350488195419309,0.132331003761292
7.872727272727273,0.10888086233139001,0.19192236413955702,0.158676218605042
7.873333333333333,0.0274501982688904,-0.0212343741416931,0.0509003396987918
7.873939393939394,-0.15696630563736,-0.148170409297943,-0.00179008998870819
7.874545454545455,0.0921157256126404,-0.035604491329193105,-0.0329253438949582
7.875151515151515,-0.0899057587623596,0.0458261727333069,0.0461103006362918
7.875757575757576,-0.15936132516860999,-0.0236293936729431,0.0485053201675418
7.876363636363636,0.046610354518890396,-0.112245116329193,0.216156687355042
7.876969696969697,-0.0372153290748596,-0.006864256954193111,0.168256296730042
7.877575757575758,-0.0228452118873596,-0.0212343741416931,0.0317401834487918
7.878181818181818,0.0825356474876404,-0.284686522579193,0.158676218605042
7.878787878787879,0.0537954131126404,-0.0499746085166931,-0.07364067592620821
7.879393939393939,-0.13301611032486,-0.059554686641693104,-0.152676320457458
7.88,0.0633754912376404,-0.17691064367294299,-0.0975908712387082
7.880606060606061,0.21665674123764,0.08414648523330691,0.39578315219879195
7.881212121212121,-0.0132651337623596,0.053011231327056894,0.36464789829254196
7.881818181818182,-0.14259618844986,-0.09787499914169309,-0.054480519676208206
7.882424242424242,-0.0204501923561096,-0.107455077266693,0.13951606235504202
7.883030303030303,0.0346352568626404,-0.0451845694541931,0.15388617954254202
7.883636363636364,-0.0372153290748596,0.0721713875770569,-0.0257402853012082
7.884242424242424,-0.15936132516860999,-0.133800292110443,-0.0856157735824582
7.884848484848485,-0.0204501923561096,-0.061949706172943104,-0.0329253438949582
7.885454545454545,-0.10427587594986,0.117676758670807,0.113170847511292
7.886060606060606,0.0801406279563904,-0.0140493155479431,0.127540964698792
7.886666666666667,0.0585854521751404,-0.08350488195419309,0.0748505350112918
7.887272727272727,0.0825356474876404,-0.0140493155479431,0.177836374855042
7.887878787878788,0.19031152639389,0.0745664071083069,0.0724555154800418
7.888484848484848,-0.17852148141861,0.057801270389556896,0.043715281105041796
7.889090909090909,0.03703027639389039,0.0242709969520569,0.0844306131362918
7.88969696969697,-0.13062109079361,-0.0523696280479431,0.0892206521987918
7.89030303030303,-0.0851157196998596,-0.0236293936729431,-0.047295461082458204
7.890909090909091,-0.16175634469986,0.012295899295806899,0.18023139438629202
7.891515151515151,-0.29348241891861,-0.011654296016693102,0.271242136573792
7.892121212121212,0.00110498342514039,0.163182129764557,-0.07124565639495821
7.892727272727273,-0.049190426731109606,0.24700781335830702,0.038925242042541795
7.893333333333333,0.00829004201889039,-0.035604491329193105,0.15388617954254202
7.8939393939393945,-0.0659555634498596,-0.00207421789169311,0.0293451639175418
7.8945454545454545,0.041820315456390394,-0.0260244132041931,0.19460151157379202
7.895151515151515,0.17354638967514,0.0482211922645569,0.161071238136292
7.895757575757576,0.0849306670188904,0.0769614266395569,0.161071238136292
7.8963636363636365,-0.14978124704360998,0.0242709969520569,0.173046335792542
7.8969696969696965,-0.25516210641861,-0.08829492101669309,0.0652704568862918
7.897575757575758,-0.07074560251235959,-0.0451845694541931,-0.0209502462387082
7.898181818181818,0.0897207060813904,-0.0403945303916931,0.0245551248550418
7.898787878787879,-0.26953222360611,-0.145775389766693,0.0509003396987918
7.8993939393939385,-0.12822607126236,0.141626953983307,-0.0449004415512082
7.9,-0.0180551728248596,0.057801270389556896,-0.0257402853012082
7.900606060606061,-0.0348203095436096,0.206292481327057,-0.0856157735824582
7.901212121212121,-0.049190426731109606,0.0482211922645569,0.137121042823792
7.901818181818182,-0.11864599313735999,-0.059554686641693104,0.0772455545425418
7.902424242424242,0.0106850615501404,0.060196289920806896,-0.131121144676208
7.903030303030303,0.17115137014389,-0.030814452266693097,0.0916156717300418
7.903636363636364,0.09690576467514041,-0.184095702266693,0.18981147251129202
7.904242424242424,-0.0587705048561096,-0.035604491329193105,-0.049690480613708204
7.904848484848485,0.046610354518890396,0.213477539920807,0.259267038917542
7.905454545454545,0.18073144826889,0.0314560555458069,0.20897162876129202
7.906060606060606,0.21426172170639002,-0.0715297842979431,0.041320261573791796
7.906666666666667,-0.0132651337623596,-0.0667397452354431,0.223341745948792
7.907272727272727,-0.039610348606109604,-0.0811098624229431,0.132331003761292
7.907878787878788,-0.16894140329361,0.0625913094520569,0.034135202980041794
7.908484848484848,0.0657705107688904,-0.035604491329193105,0.0892206521987918
7.909090909090909,-0.0946957978248596,-0.229601073360443,0.14430610141754202
7.90969696969697,-0.042005368137359604,0.0386411141395569,-0.231711964988708
7.91030303030303,0.0346352568626404,0.08175146570205691,0.563434519386292
7.910909090909091,-0.16654638376236,0.120071778202057,0.6089398904800419
7.911515151515152,0.0849306670188904,0.0506162117958069,-0.0760356954574582
7.912121212121212,-0.18810155954361,-0.105060057735443,0.0628754373550418
7.912727272727273,-0.0228452118873596,-0.09068994054794309,-0.0305303243637082
7.913333333333333,0.0945107451438904,-0.0787148428916931,0.146701120948792
7.913939393939394,-0.044400387668609605,-0.0523696280479431,0.25208198032379203
7.914545454545455,0.03703027639389039,-0.193675780391693,-0.135911183738708
7.915151515151515,-0.18810155954361,-0.0739248038291931,-0.200576711082458
7.915757575757576,-0.0899057587623596,0.160787110233307,0.0125800271987918
7.916363636363636,-0.14499120798110998,0.0697763680458069,-0.0856157735824582
7.916969696969697,-0.26953222360611,-0.0715297842979431,-0.0401104024887082
7.917575757575758,-0.0611655243873596,-0.0571596671104431,0.041320261573791796
7.918181818181818,0.0705605498313904,0.0673813485145569,0.0628754373550418
7.918787878787879,0.0058950224876403905,-0.164935546016693,0.00299994907379181
7.919393939393939,-0.0970908173561096,-0.119430174922943,-0.11435600795745801
7.92,-0.11864599313735999,0.122466797733307,-0.0928008321762082
7.920606060606061,-0.0587705048561096,0.0146909188270569,-0.052085500144958205
7.921212121212121,-0.0324252900123596,0.0314560555458069,0.0916156717300418
7.921818181818182,-0.10667089548111,-0.0811098624229431,0.120355906105042
7.922424242424242,-0.07793066110610959,0.0410361336708069,-0.0233452657699582
7.923030303030303,0.0849306670188904,0.10570166101455701,0.0628754373550418
7.923636363636364,-0.00368505563735961,-0.188885741329193,0.0269501443862918
7.924242424242424,0.0801406279563904,-0.160145506954193,-0.207761769676208
7.924848484848485,0.0130800810813904,0.239822754764557,-0.138306203269958
7.925454545454545,0.00110498342514039,0.08414648523330691,-0.10717094936370801
7.926060606060606,0.15678125295639,0.0434311532020569,0.0964057107925418
7.926666666666667,-0.051585446262359606,0.10330664148330701,0.20418158969879202
7.927272727272727,-0.0348203095436096,0.005110840702056889,0.0748505350112918
7.927878787878788,0.0777456084251404,-0.119430174922943,0.163466257667542
7.928484848484848,-0.17133642282486,0.000320801639556893,-0.143096242332458
7.929090909090909,-0.12583105173111,0.0194809578895569,0.0772455545425418
7.92969696969697,0.0825356474876404,-0.198465819454193,0.151491160011292
7.93030303030303,0.0537954131126404,0.0985166024208069,-0.135911183738708
7.930909090909091,-0.00608007516860961,0.055406250858306895,-0.0880107931137082
7.931515151515152,0.0801406279563904,-0.0523696280479431,0.0940106912612918
7.932121212121212,0.0106850615501404,-0.00207421789169311,0.163466257667542
7.932727272727273,-0.27192724313736,-0.105060057735443,-0.0425054220199582
7.933333333333333,-0.11385595407485999,-0.011654296016693102,0.242501902198792
7.933939393939394,-0.10906591501235999,0.0625913094520569,0.036530222511291795
7.9345454545454555,0.00110498342514039,0.0242709969520569,-0.0137651876449582
7.935151515151515,0.21186670217514,-0.018839354610443098,0.122750925636292
7.935757575757576,0.0921157256126404,0.08893652429580691,-0.0832207540512082
7.936363636363636,0.0154751006126404,0.0146909188270569,0.0796405740737918
7.9369696969696975,-0.0587705048561096,-0.059554686641693104,0.27363715610504197
7.9375757575757575,-0.0324252900123596,0.115281739139557,0.0509003396987918
7.938181818181818,0.14480615530014002,-0.0140493155479431,0.022160105323791802
7.938787878787879,-0.23600195016861,-0.107455077266693,0.551459421730042
7.9393939393939394,-0.07074560251235959,-0.23678613195419299,0.101195749855042
7.9399999999999995,0.28371728811264,-0.217625975704193,0.0101850076675418
7.940606060606061,0.17833642873764,0.029061036014556903,0.6688153787612919
7.941212121212121,0.11367090139389001,0.167972168827057,0.470028757667542
7.941818181818182,-0.14978124704360998,0.0386411141395569,0.0748505350112918
7.942424242424242,-0.0156601532936096,-0.006864256954193111,-0.00658012905120819
7.943030303030303,0.00829004201889039,0.0697763680458069,0.038925242042541795
7.943636363636364,0.0154751006126404,-0.0739248038291931,0.00778998813629181
7.944242424242424,-0.0587705048561096,-0.212835936641693,-0.0281353048324582
7.944848484848485,0.12804101858139,0.120071778202057,0.0197650857925418
7.945454545454545,0.0705605498313904,0.211082520389557,0.280822214698792
7.946060606060606,-0.20965673532485998,-0.0571596671104431,0.125145945167542
7.946666666666667,0.0705605498313904,-0.0571596671104431,0.0844306131362918
7.947272727272727,0.15199121389389,-0.033209471797943105,0.216156687355042
7.947878787878788,-0.19768163766861,-0.16254052648544298,0.0580853982925418
7.948484848484848,-0.27671728219985997,-0.220020995235443,0.0748505350112918
7.949090909090909,-0.20247167673111,-0.09068994054794309,0.0964057107925418
7.94969696969697,-0.14978124704360998,0.115281739139557,0.137121042823792
7.95030303030303,0.0873256865501404,0.00990087976455689,0.165861277198792
