Time (s),Accel X (m/s^2),Accel Y (m/s^2),Accel Z (m/s^2),CI Value
6.767875,-0.115763175487518,-0.00745281429290772,-0.0966282792091365,0.7175531784029628
6.76848069351908,-0.168453605175018,-0.0936735174179077,-0.230749372959137,0.7175531784029628
6.769086387038159,0.0590732502937317,-0.03619304866790771,0.276994767665863,0.7175531784029628
6.769692080557238,-0.31215477705001804,0.07158283023834229,0.0782081465721135,0.7175531784029628
6.770297774076317,-0.161268546581268,0.112298162269592,0.06623304891586351,0.7175531784029628
6.770903467595397,0.044703133106231696,0.0643977716445923,0.20993422079086302,0.7175531784029628
6.771509161114476,0.0303330159187317,0.07397784976959229,0.111738420009613,0.7175531784029628
6.772114854633555,-0.257069327831268,-0.148758966636658,0.257834611415863,0.7175531784029628
6.772720548152635,-0.051097648143768305,-0.134388849449158,-0.30259995889663704,0.7175531784029628
6.773326241671715,0.0135678791999817,-0.0194279119491577,-0.00322251749038653,0.7175531784029628
6.773931935190793,-0.0989980387687683,-0.00745281429290772,0.15484877157211302,0.7175531784029628
6.774537628709873,0.0566782307624817,-0.230189630699158,0.308130021572113,0.7175531784029628
6.775143322228952,-0.0606777262687683,-0.179894220542908,0.114133439540863,0.7175531784029628
6.775749015748032,-0.0031972575187683102,0.126668279457092,-0.07028306436538649,0.7175531784029628
6.776354709267111,-0.120553214550018,-0.0146378728866577,0.15484877157211302,0.7175531784029628
6.77696040278619,-0.0630727458000183,0.0476326349258423,0.0135426192283635,0.7175531784029628
6.77756609630527,-0.113368155956268,0.0979280450820923,-0.137343611240387,0.7175531784029628
6.778171789824349,-0.0223574137687683,-0.153549005699158,-0.281044783115387,0.7175531784029628
6.778777483343428,-0.0391225504875183,-0.029007990074157698,-0.12776353311538702,0.7175531784029628
6.779383176862508,-0.10857811689376799,-0.0673283025741577,0.29615492391586296,0.7175531784029628
6.779988870381587,0.042308113574981696,-0.0864884588241577,0.504521623134613,0.7175531784029628
6.780594563900666,-0.230724112987518,0.0859529474258423,0.272204728603363,0.7175531784029628
6.781200257419746,0.126133797168732,-0.189474298667908,0.0806031661033635,0.7175531784029628
6.781805950938825,0.0183579182624817,-0.230189630699158,0.0422828536033635,0.7175531784029628
6.782411644457905,0.03272803544998169,0.14822345523834202,-0.192429060459137,0.7175531784029628
6.783017337976983,-0.0654677653312683,0.0284724786758423,0.12610853719711299,0.7175531784029628
6.783623031496063,0.0830234456062317,0.0188924005508423,0.0925782637596135,0.7175531784029628
6.784228725015143,0.0494931721687317,-0.0649332830429077,0.0925782637596135,0.7175531784029628
6.7848344185342215,0.00398780107498169,-0.0170328924179077,0.372795548915863,0.7175531784029628
6.785440112053301,0.183614265918732,0.15301349430084202,0.250649552822113,0.7175531784029628
6.786045805572381,-0.0199623942375183,0.038052556800842297,0.20993422079086302,0.7175531784029628
6.78665149909146,0.0710483479499817,0.0476326349258423,0.14526869344711302,0.7175531784029628
6.787257192610539,0.0231479573249817,0.0164973810195923,0.14526869344711302,0.7175531784029628
6.787862886129618,0.193194344043732,0.0835579278945923,0.169218888759613,0.7175531784029628
6.788468579648698,-0.0271474528312683,-0.00745281429290772,0.0973683028221135,0.7175531784029628
6.789074273167778,0.0758383870124817,-0.0697233221054077,0.157243791103363,0.7175531784029628
6.789679966686856,-0.0055922770500183095,0.0164973810195923,0.0806031661033635,0.7175531784029628
6.790285660205936,0.09739356279373171,0.10511310367584199,0.133293595790863,0.7175531784029628
6.790891353725015,0.176429207324982,-0.170314142417908,0.279389787197113,0.7175531784029628
6.7914970472440945,-0.08223290205001829,-0.129598810386658,-0.0463328690528865,0.7175531784029628
6.792102740763174,-0.0319374918937683,-0.00745281429290772,0.207539201259613,0.7175531784029628
6.792708434282253,-0.225934073925018,-0.057748224449157705,0.250649552822113,0.7175531784029628
6.793314127801333,0.133318855762482,-0.057748224449157705,0.13089857625961301,0.7175531784029628
6.793919821320412,-0.07744286298751829,-0.124808771324158,0.312920060634613,0.7175531784029628
6.794525514839491,0.0207529377937317,0.179358709144592,0.257834611415863,0.7175531784029628
6.795131208358571,-0.0223574137687683,-0.108043634605408,0.114133439540863,0.7175531784029628
6.79573690187765,-0.0151723551750183,0.009312322425842281,-0.07028306436538649,0.7175531784029628
6.796342595396729,0.138108894824982,0.169778631019592,0.13568861532211302,0.7175531784029628
6.796948288915809,-0.0343325114250183,-0.09846355648040771,0.185984025478363,0.7175531784029628
6.797553982434888,0.312945320606232,0.0236824396133423,-0.0990232987403865,0.7175531784029628
6.7981596759539675,0.0878134846687317,0.07637286930084229,0.401535783290863,0.7175531784029628
6.798765369473046,-0.125343253612518,0.0404475763320923,0.13089857625961301,0.7175531784029628
6.799371062992126,-0.32173485517501804,-0.18228924007415798,0.188379045009613,0.7175531784029628
6.799976756511206,-0.154083487987518,-0.052958185386657704,0.15963881063461302,0.7175531784029628
6.8005824500302845,-0.122948234081268,-0.00505779476165772,-0.0583079667091365,0.7175531784029628
6.801188143549364,0.09499854326248171,-0.230189630699158,-0.0223826737403865,0.7175531784029628
6.801793837068444,-0.178033683300018,-0.0769083806991577,-0.10381333780288701,0.7175531784029628
6.802399530587523,-0.163663566112518,0.14822345523834202,0.176403947353363,0.7175531784029628
6.803005224106602,-0.0582827067375183,-0.105648615074158,0.22430433797836302,0.7175531784029628
6.803610917625681,-0.115763175487518,-0.139178888511658,0.13568861532211302,0.7175531784029628
6.804216611144761,0.44706641435623196,0.0404475763320923,0.0374928145408635,0.7175531784029628
6.8048223046638405,-0.0175673747062683,-0.0816984197616577,-0.142133650302887,0.7175531784029628
6.805427998182919,0.0231479573249817,0.06918781070709229,-0.07746812295913649,0.7175531784029628
6.806033691701999,0.0207529377937317,-0.055353204917907704,0.29615492391586296,0.7175531784029628
6.806639385221078,-0.046307609081268304,-0.0385880681991577,0.15484877157211302,0.7175531784029628
6.8072450787401575,0.102183601856232,0.00691730289459228,0.19556410360336302,0.7175531784029628
6.807850772259237,-0.055887687206268306,-0.115228693199158,-0.0104075760841365,0.7175531784029628
6.808456465778316,-0.130133292675018,0.205703923988342,-0.0990232987403865,0.7175531784029628
6.809062159297396,0.035123054981231694,0.0907429864883423,0.5141017012596131,0.7175531784029628
6.809667852816475,0.0470981526374817,0.033262517738342295,0.35603041219711296,0.7175531784029628
6.810273546335554,-0.199588859081268,0.038052556800842297,-0.122973494052887,0.7175531784029628
6.810879239854634,0.241094734668732,-0.000267755699157722,0.250649552822113,0.7175531784029628
6.811484933373713,-0.0367275309562683,-0.143968927574158,0.176403947353363,0.7175531784029628
6.812090626892792,-0.13252831220626798,-0.0888834783554077,-0.0463328690528865,0.7175531784029628
6.812696320411872,-0.146898429393768,-0.0481681463241577,0.0590479903221135,0.7175531784029628
6.813302013930951,-0.000802237987518311,-0.0194279119491577,-0.0463328690528865,0.7175531784029628
6.8139077074500305,0.0470981526374817,0.0188924005508423,0.0374928145408635,0.7175531784029628
6.814513400969109,-0.11097313642501799,-0.00745281429290772,0.0710230879783635,0.7175531784029628
6.815119094488189,0.0207529377937317,-0.0457731267929077,0.19556410360336302,0.7175531784029628
6.815724788007269,0.0111728596687317,0.0476326349258423,0.123713517665863,0.7175531784029628
6.8163304815263475,0.142898933887482,0.141038396644592,-0.0439378495216365,0.7175531784029628
6.816936175045427,-0.0702578043937683,-0.0146378728866577,0.20514418172836302,0.7175531784029628
6.817541868564507,0.118948738574982,0.251209295082092,0.27459974813461296,0.7175531784029628
6.818147562083586,-0.10378807783126799,-0.0864884588241577,0.20514418172836302,0.7175531784029628
6.818753255602665,-0.07744286298751829,-0.105648615074158,0.0494679121971135,0.7175531784029628
6.819358949121744,-0.0606777262687683,-0.0816984197616577,0.22430433797836302,0.7175531784029628
6.819964642640824,-0.161268546581268,-0.0649332830429077,0.0829981856346135,0.7175531784029628
6.8205703361599035,-0.0247524333000183,0.0955330255508423,-0.00322251749038653,0.7175531784029628
6.821176029678982,-0.118158195018768,-0.17270916194915797,0.19077406454086301,0.7175531784029628
6.821781723198062,0.00398780107498169,0.109903142738342,0.138083634853363,0.7175531784029628
6.822387416717141,-0.10378807783126799,-0.0266129705429077,0.207539201259613,0.7175531784029628
6.8229931102362205,0.09499854326248171,-0.158339044761658,0.339265275478363,0.7175531784029628
6.8235988037553,-0.151688468456268,-0.14636394710540798,0.0255177168846135,0.7175531784029628
6.824204497274379,-0.08702294111251829,-0.0194279119491577,-0.122973494052887,0.7175531784029628
6.824810190793459,0.0159628987312317,-0.13199382991790798,0.123713517665863,0.7175531784029628
6.825415884312538,-0.29299462080001804,-0.258929865074158,0.20514418172836302,0.7175531784029628
6.826021577831617,-0.0031972575187683102,0.0212874200820923,0.138083634853363,0.7175531784029628
6.826627271350697,0.0494931721687317,0.18175372867584202,0.0159376387596135,0.7175531784029628
6.827232964869776,0.0015927815437316898,0.0164973810195923,0.133293595790863,0.7175531784029628
6.827838658388855,-0.134923331737518,-0.199054376792908,0.188379045009613,0.7175531784029628
6.828444351907935,0.09499854326248171,-0.110438654136658,0.00396254110336347,0.7175531784029628
6.829050045427014,0.0159628987312317,-0.0912784978866577,0.128503556728363,0.7175531784029628
6.8296557389460935,-0.28341454267501803,0.054817693519592293,0.212329240322113,0.7175531784029628
6.830261432465172,-0.055887687206268306,-0.167919122886658,-0.125368513584137,0.7175531784029628
6.830867125984252,-0.0031972575187683102,-0.0960685369491577,-0.16847886514663699,0.7175531784029628
6.831472819503332,-0.0175673747062683,0.10511310367584199,0.0638380293846135,0.7175531784029628
6.83207851302241,-0.00798729658126831,-0.223004572105408,0.166823869228363,0.7175531784029628
6.83268420654149,0.157269051074982,-0.103253595542908,-0.0966282792091365,0.7175531784029628
6.83328990006057,-0.0582827067375183,0.0404475763320923,0.00396254110336347,0.7175531784029628
6.833895593579649,-0.048702628612518305,-0.0697233221054077,0.0734181075096135,0.7175531784029628
6.834501287098728,-0.0103823161125183,0.038052556800842297,0.250649552822113,0.7175531784029628
6.835106980617807,-0.0151723551750183,0.0212874200820923,0.106948380947113,0.7175531784029628
6.835712674136887,-0.055887687206268306,-0.0457731267929077,0.0350977950096135,0.7175531784029628
6.8363183676559665,-0.0630727458000183,-0.100858576011658,0.0829981856346135,0.7175531784029628
6.836924061175045,0.044703133106231696,-0.0745133611679077,0.13089857625961301,0.7175531784029628
6.837529754694125,-0.163663566112518,-0.103253595542908,0.15484877157211302,0.7175531784029628
6.838135448213205,0.0231479573249817,-0.0721183416366577,0.0590479903221135,0.7175531784029628
6.838741141732283,0.00877784013748169,0.0643977716445923,0.238674455165863,0.7175531784029628
6.839346835251363,-0.07265282392501829,-0.0960685369491577,0.511706681728363,0.7175531784029628
6.839952528770442,-0.07265282392501829,-0.292460138511658,0.291364884853363,0.7175531784029628
6.840558222289522,-0.10618309736251799,-0.0457731267929077,0.114133439540863,0.7175531784029628
6.841163915808601,0.109368660449982,0.0141023614883423,0.109343400478363,0.7175531784029628
6.84176960932768,0.0758383870124817,-0.105648615074158,0.0997633223533635,0.7175531784029628
6.84237530284676,0.00877784013748169,-0.0936735174179077,0.322500138759613,0.7175531784029628
6.842980996365839,0.042308113574981696,-0.19186931819915798,0.229094377040863,0.7175531784029628
6.843586689884918,0.0638632893562317,0.124273259925842,0.0997633223533635,0.7175531784029628
6.844192383403998,0.0159628987312317,-0.0697233221054077,-0.13973863077163698,0.7175531784029628
6.844798076923077,-0.122948234081268,-0.0266129705429077,0.114133439540863,0.7175531784029628
6.845403770442156,-0.187613761425018,-0.167919122886658,0.176403947353363,0.7175531784029628
6.846009463961236,-0.00798729658126831,0.00452228336334228,-0.07028306436538649,0.7175531784029628
6.846615157480315,-0.0391225504875183,0.272764470863342,-0.0583079667091365,0.7175531784029628
6.847220850999395,0.0183579182624817,0.0117073419570923,-0.0535179276466365,0.7175531784029628
6.847826544518473,-0.043912589550018304,-0.060143243980407705,0.0327027754783635,0.7175531784029628
6.848432238037553,-0.173243644237518,-0.00984783382415772,0.0973683028221135,0.7175531784029628
6.849037931556633,0.0518881916999817,0.0452376153945923,0.109343400478363,0.7175531784029628
6.849643625075712,-0.122948234081268,-0.108043634605408,0.29375990438461297,0.7175531784029628
6.850249318594791,-0.0031972575187683102,0.0524226739883423,0.133293595790863,0.7175531784029628
6.85085501211387,-0.051097648143768305,0.0452376153945923,0.308130021572113,0.7175531784029628
6.85146070563295,-0.144503409862518,0.0859529474258423,0.157243791103363,0.7175531784029628
6.852066399152029,-0.0247524333000183,-0.0194279119491577,0.0135426192283635,0.7175531784029628
6.852672092671108,-0.0031972575187683102,0.188938787269592,0.212329240322113,0.7175531784029628
6.853277786190188,-0.0055922770500183095,-0.0673283025741577,-0.0798631424903865,0.7175531784029628
6.853883479709268,-0.08462792158126829,-0.029007990074157698,0.21951429891586302,0.7175531784029628
6.854489173228346,0.0830234456062317,0.13864337711334201,0.262624650478363,0.7175531784029628
6.855094866747426,-0.0199623942375183,-0.213424493980408,0.0758131270408635,0.7175531784029628
6.855700560266505,0.174034187793732,-0.0218229314804077,0.13568861532211302,0.7175531784029628
6.856306253785585,-0.0942079997062683,-0.153549005699158,0.174008927822113,0.7175531784029628
6.856911947304664,-0.0127773356437683,0.0164973810195923,-0.110998396396637,0.7175531784029628
6.857517640823743,-0.0103823161125183,-0.052958185386657704,0.217119279384613,0.7175531784029628
6.858123334342823,-0.000802237987518311,-0.208634454917908,0.33447523641586296,0.7175531784029628
6.858729027861902,0.0279379963874817,-0.16073406429290799,-0.13973863077163698,0.7175531784029628
6.859334721380981,-0.221144034862518,-0.127203790855408,0.0015675215721134702,0.7175531784029628
6.859940414900061,0.128528816699982,-0.0242179510116577,0.221909318447113,0.7175531784029628
6.86054610841914,-0.142108390331268,0.224864080238342,0.217119279384613,0.7175531784029628
6.861151801938219,0.293785164356232,-0.057748224449157705,0.14047865438461302,0.7175531784029628
6.861757495457299,0.133318855762482,-0.16073406429290799,0.202749162197113,0.7175531784029628
6.862363188976378,-0.0319374918937683,0.112298162269592,0.00396254110336347,0.7175531784029628
6.862968882495458,-0.0319374918937683,-0.105648615074158,0.0279127364158635,0.7175531784029628
6.863574576014536,0.0255429768562317,-0.00266277523040772,0.0782081465721135,0.7175531784029628
6.864180269533616,0.0758383870124817,-0.09846355648040771,0.14526869344711302,0.7175531784029628
6.864785963052696,-0.139713370800018,0.06918781070709229,-0.00322251749038653,0.7175531784029628
6.8653916565717745,0.0638632893562317,0.06918781070709229,0.0973683028221135,0.7175531784029628
6.865997350090854,0.130923836231232,-0.052958185386657704,0.42548597860336296,0.7175531784029628
6.866603043609934,0.16684912919998202,-0.0266129705429077,0.169218888759613,0.7175531784029628
6.867208737129013,-0.247489249706268,-0.033798029136657706,0.231489396572113,0.7175531784029628
6.867814430648092,0.0902085041999817,-0.0409830877304077,0.32489515829086296,0.7175531784029628
6.868420124167171,-0.0151723551750183,-0.0457731267929077,0.114133439540863,0.7175531784029628
6.869025817686251,-0.182823722362518,-0.110438654136658,0.0758131270408635,0.7175531784029628
6.86963151120533,-0.113368155956268,0.07876788883209229,0.518891740322113,0.7175531784029628
6.870237204724409,-0.0343325114250183,0.0524226739883423,0.26501967000961296,0.7175531784029628
6.870842898243489,-0.053492667675018306,0.263184392738342,0.0207276778221135,0.7175531784029628
6.871448591762568,0.130923836231232,0.0164973810195923,0.229094377040863,0.7175531784029628
6.8720542852816475,0.28899512529373195,-0.31401531429290797,0.0758131270408635,0.7175531784029628
6.872659978800727,-0.240304191112518,-0.0194279119491577,-0.192429060459137,0.7175531784029628
6.873265672319806,0.0303330159187317,0.121878240394592,-0.122973494052887,0.7175531784029628
6.873871365838886,-0.0630727458000183,0.08116290836334229,0.157243791103363,0.7175531784029628
6.874477059357965,-0.0127773356437683,0.0164973810195923,-0.0535179276466365,0.7175531784029628
6.875082752877044,-0.115763175487518,0.0164973810195923,0.0782081465721135,0.7175531784029628
6.875688446396124,0.126133797168732,0.0164973810195923,0.22430433797836302,0.7175531784029628
6.876294139915203,0.212354500293732,-0.120018732261658,0.21472425985336302,0.7175531784029628
6.876899833434282,-0.187613761425018,0.00452228336334228,0.006357560634613469,0.7175531784029628
6.877505526953362,-0.0654677653312683,-0.000267755699157722,0.0015675215721134702,0.7175531784029628
6.878111220472441,-0.149293448925018,-0.325990411949158,0.0949732832908635,0.7175531784029628
6.8787169139915205,0.044703133106231696,0.21288898258209202,-0.10381333780288701,0.7175531784029628
6.8793226075106,-0.199588859081268,-0.029007990074157698,0.0973683028221135,0.7175531784029628
6.879928301029679,-0.11097313642501799,-0.158339044761658,0.118923478603363,0.7175531784029628
6.880533994548758,-0.0678627848625183,0.191333806800842,0.0159376387596135,0.7175531784029628
6.881139688067838,-0.166058585643768,-0.194264337730408,0.245859513759613,0.7175531784029628
6.881745381586917,0.0710483479499817,-0.112833673667908,0.133293595790863,0.7175531784029628
6.882351075105996,-0.101393058300018,-0.0314030096054077,0.0279127364158635,0.7175531784029628
6.882956768625076,0.140503914356232,0.035657537269592296,0.0782081465721135,0.7175531784029628
6.883562462144155,-0.127738273143768,0.10271808414459199,0.212329240322113,0.7175531784029628
6.884168155663234,-0.115763175487518,-0.110438654136658,-0.07267808389663649,0.7175531784029628
6.884773849182314,-0.07744286298751829,0.114693181800842,0.0422828536033635,0.7175531784029628
6.8853795427013935,-0.125343253612518,0.0284724786758423,0.22430433797836302,0.7175531784029628
6.885985236220472,0.0878134846687317,-0.105648615074158,-0.122973494052887,0.7175531784029628
6.886590929739552,-0.0702578043937683,-0.0697233221054077,0.0470728926658635,0.7175531784029628
6.887196623258631,-0.0295424723625183,-0.199054376792908,0.32489515829086296,0.7175531784029628
6.8878023167777105,-0.055887687206268306,0.10511310367584199,0.0806031661033635,0.7175531784029628
6.88840801029679,0.0638632893562317,0.21767902164459202,0.245859513759613,0.7175531784029628
6.889013703815869,-0.10857811689376799,0.0260774591445923,0.300944962978363,0.7175531784029628
6.889619397334949,-0.163663566112518,0.0524226739883423,0.0949732832908635,0.7175531784029628
6.890225090854028,-0.0918129801750183,-0.0793034002304077,0.291364884853363,0.7175531784029628
6.890830784373107,-0.149293448925018,0.0236824396133423,0.0566529707908635,0.7175531784029628
6.891436477892187,-0.134923331737518,-0.0673283025741577,0.0470728926658635,0.7175531784029628
6.8920421714112665,0.0135678791999817,-0.029007990074157698,0.32489515829086296,0.7175531784029628
6.892647864930345,0.006382820606231691,0.00212726383209228,0.29375990438461297,0.7175531784029628
6.893253558449425,-0.0103823161125183,-0.21102947444915798,0.054257951259613496,0.7175531784029628
6.893859251968504,0.171639168262482,-0.14636394710540798,0.00396254110336347,0.7175531784029628
6.8944649454875835,0.0566782307624817,-0.112833673667908,0.241069474697113,0.7175531784029628
6.895070639006663,0.135713875293732,-0.033798029136657706,0.114133439540863,0.7175531784029628
6.895676332525742,-0.213958976268768,0.0835579278945923,0.0997633223533635,0.7175531784029628
6.896282026044821,-0.125343253612518,-0.0864884588241577,0.0279127364158635,0.7175531784029628
6.896887719563901,-0.118158195018768,-0.108043634605408,0.0877882246971135,0.7175531784029628
6.89749341308298,-0.0654677653312683,0.07637286930084229,0.0710230879783635,0.7175531784029628
6.898099106602059,0.0566782307624817,-0.0481681463241577,-0.15410874795913698,0.7175531784029628
6.8987048001211395,-0.163663566112518,-0.0888834783554077,-0.0463328690528865,0.7175531784029628
6.899310493640218,0.0902085041999817,0.119483220863342,0.432671037197113,0.7175531784029628
6.899916187159297,-0.206773917675018,0.215284002113342,0.051862931728363496,0.7175531784029628
6.900521880678377,-0.266649405956268,-0.108043634605408,-0.027172712802886502,0.7175531784029628
6.9011275741974565,-0.07744286298751829,-0.0912784978866577,0.229094377040863,0.7175531784029628
6.901733267716535,0.044703133106231696,0.07876788883209229,0.291364884853363,0.7175531784029628
6.902338961235615,0.0303330159187317,-0.15115398616790798,0.30573500204086296,0.7175531784029628
6.902944654754694,-0.08702294111251829,-0.13199382991790798,-0.0415428299903865,0.7175531784029628
6.9035503482737735,-0.0319374918937683,0.0141023614883423,0.20514418172836302,0.7175531784029628
6.904156041792853,-0.0678627848625183,-0.0170328924179077,0.00396254110336347,0.7175531784029628
6.904761735311932,-0.201983878612518,0.0164973810195923,0.25304457235336303,0.7175531784029628
6.9053674288310125,0.037518074512481694,0.00452228336334228,0.308130021572113,0.7175531784029628
6.905973122350091,-0.125343253612518,-0.055353204917907704,0.31531508016586296,0.7175531784029628
6.90657881586917,-0.206773917675018,0.210493963050842,0.16442884969711302,0.7175531784029628
6.90718450938825,0.0662583088874817,0.0524226739883423,0.279389787197113,0.7175531784029628
6.9077902029073295,-0.247489249706268,-0.110438654136658,0.42548597860336296,0.7175531784029628
6.908395896426408,-0.0678627848625183,-0.057748224449157705,0.0446778731346135,0.7175531784029628
6.909001589945488,0.09499854326248171,-0.16073406429290799,0.114133439540863,0.7175531784029628
6.909607283464567,-0.233119132518768,-0.14636394710540798,-0.00322251749038653,0.7175531784029628
6.9102129769836464,-0.168453605175018,-0.0888834783554077,-0.0822581620216365,0.7175531784029628
6.910818670502726,-0.247489249706268,0.0404475763320923,0.0279127364158635,0.7175531784029628
6.911424364021805,-0.055887687206268306,0.109903142738342,0.169218888759613,0.7175531784029628
6.912030057540884,-0.0367275309562683,-0.175104181480408,0.0734181075096135,0.7175531784029628
6.912635751059964,-0.233119132518768,0.054817693519592293,0.15963881063461302,0.7175531784029628
6.913241444579043,-0.295389640331268,0.160198552894592,0.248254533290863,0.7175531784029628
6.913847138098122,-0.08223290205001829,-0.27329998226165797,0.0877882246971135,0.7175531784029628
6.9144528316172025,0.0806284260749817,-0.184684259605408,-0.00561753702163653,0.7175531784029628
6.915058525136281,-0.13252831220626798,-0.0769083806991577,-0.281044783115387,0.7175531784029628
6.91566421865536,0.0806284260749817,0.121878240394592,-0.07267808389663649,0.7175531784029628
6.91626991217444,0.00398780107498169,0.0117073419570923,0.169218888759613,0.7175531784029628
6.9168756056935194,-0.0678627848625183,-0.17270916194915797,0.138083634853363,0.7175531784029628
6.917481299212598,0.0159628987312317,0.009312322425842281,0.0901832442283635,0.7175531784029628
6.918086992731678,0.0830234456062317,-0.0793034002304077,0.123713517665863,0.7175531784029628
6.918692686250757,-0.225934073925018,0.035657537269592296,0.12610853719711299,0.7175531784029628
6.919298379769836,-0.08462792158126829,0.035657537269592296,0.0470728926658635,0.7175531784029628
6.919904073288916,0.171639168262482,-0.179894220542908,0.06623304891586351,0.7175531784029628
6.920509766807995,-0.0367275309562683,0.0236824396133423,-0.10381333780288701,0.7175531784029628
6.9211154603270755,-0.257069327831268,0.0212874200820923,0.111738420009613,0.7175531784029628
6.921721153846154,-0.175638663768768,-0.103253595542908,0.32489515829086296,0.7175531784029628
6.922326847365233,0.09739356279373171,0.062002752113342295,0.327290177822113,0.7175531784029628
6.922932540884313,0.0614682698249817,-0.0505631658554077,0.269809709072113,0.7175531784029628
6.923538234403392,0.109368660449982,-0.00745281429290772,0.0494679121971135,0.7175531784029628
6.924143927922471,-0.127738273143768,0.07876788883209229,0.0853932051658635,0.7175531784029628
6.924749621441551,-0.0343325114250183,-0.03619304866790771,0.197959123134613,0.7175531784029628
6.92535531496063,-0.13252831220626798,-0.208634454917908,0.0782081465721135,0.7175531784029628
6.925961008479709,-0.134923331737518,-0.29485515804290796,0.0686280684471135,0.7175531784029628
6.926566701998789,0.0255429768562317,0.0236824396133423,0.20993422079086302,0.7175531784029628
6.927172395517868,-0.0966030192375183,-0.18228924007415798,0.06623304891586351,0.7175531784029628
6.927778089036947,-0.0127773356437683,-0.108043634605408,0.243464494228363,0.7175531784029628
6.928383782556027,-0.149293448925018,-0.0122428533554077,-0.146923689365387,0.7175531784029628
6.928989476075106,0.0015927815437316898,-0.103253595542908,0.243464494228363,0.7175531784029628
6.929595169594185,-0.00798729658126831,0.141038396644592,0.765578752040863,0.7175531784029628
6.930200863113265,-0.0606777262687683,0.009312322425842281,0.104553361415863,0.7175531784029628
6.930806556632344,0.00877784013748169,-0.057748224449157705,0.147663712978363,0.7175531784029628
6.931412250151423,0.0878134846687317,0.009312322425842281,0.26501967000961296,0.7175531784029628
6.932017943670503,0.126133797168732,-0.0266129705429077,0.051862931728363496,0.7175531784029628
6.932623637189582,-0.08223290205001829,0.009312322425842281,-0.106208357334137,0.7175531784029628
6.933229330708661,0.195589363574982,-0.0481681463241577,-0.06788804483413649,0.7175531784029628
6.933835024227741,-0.0630727458000183,-0.0864884588241577,0.142873673915863,0.7175531784029628
6.93444071774682,0.0662583088874817,0.00691730289459228,0.226699357509613,0.7175531784029628
6.935046411265899,0.0806284260749817,-0.203844415855408,0.178798966884613,0.7175531784029628
6.935652104784979,-0.13252831220626798,-0.17270916194915797,0.188379045009613,0.7175531784029628
6.936257798304058,-0.101393058300018,-0.057748224449157705,-0.029567732334136503,0.7175531784029628
6.936863491823137,-0.0319374918937683,-0.0936735174179077,-0.106208357334137,0.7175531784029628
6.937469185342217,0.0135678791999817,-0.148758966636658,0.226699357509613,0.7175531784029628
6.938074878861296,-0.13252831220626798,-0.09846355648040771,-0.0104075760841365,0.7175531784029628
6.938680572380376,-0.146898429393768,-0.0409830877304077,0.0255177168846135,0.7175531784029628
6.939286265899455,0.035123054981231694,0.0212874200820923,0.169218888759613,0.7175531784029628
6.939891959418534,0.150083992481232,0.126668279457092,0.0949732832908635,0.7175531784029628
6.940497652937614,-0.223539054393768,-0.00266277523040772,0.0327027754783635,0.7175531784029628
6.941103346456693,0.0854184651374817,0.107508123207092,-0.0822581620216365,0.7175531784029628
6.941709039975772,0.205169441699982,0.057212713050842294,0.0853932051658635,0.7175531784029628
6.942314733494852,0.102183601856232,-0.112833673667908,0.006357560634613469,0.7175531784029628
6.942920427013931,-0.146898429393768,-0.100858576011658,0.14047865438461302,0.7175531784029628
6.94352612053301,-0.0582827067375183,-0.0864884588241577,0.0494679121971135,0.7175531784029628
6.94413181405209,0.0183579182624817,0.119483220863342,-0.036752790927886504,0.7175531784029628
6.944737507571169,-0.07744286298751829,-0.15594402523040798,0.0877882246971135,0.7175531784029628
6.945343201090248,-0.055887687206268306,-0.13678386898040798,0.12610853719711299,0.7175531784029628
6.945948894609328,-0.221144034862518,-0.105648615074158,0.0901832442283635,0.7175531784029628
6.946554588128407,-0.07504784345626829,0.07637286930084229,0.183589005947113,0.7175531784029628
6.947160281647486,-0.32173485517501804,0.0212874200820923,0.255439591884613,0.7175531784029628
6.947765975166566,-0.051097648143768305,-0.14636394710540798,0.217119279384613,0.7175531784029628
6.948371668685645,0.0279379963874817,0.17217365055084202,-0.151713728427887,0.7175531784029628
6.948977362204724,-0.130133292675018,-0.14636394710540798,-0.036752790927886504,0.7175531784029628
6.949583055723804,-0.0127773356437683,-0.110438654136658,0.123713517665863,0.7175531784029628
6.950188749242883,-0.240304191112518,0.08116290836334229,0.0829981856346135,0.7175531784029628
6.950794442761962,0.006382820606231691,0.0188924005508423,0.142873673915863,0.7175531784029628
6.951400136281042,-0.0247524333000183,-0.167919122886658,0.181193986415863,0.7175531784029628
6.952005829800121,-0.0702578043937683,-0.110438654136658,0.121318498134613,0.7175531784029628
6.9526115233192005,-0.233119132518768,-0.100858576011658,0.162033830165863,0.7175531784029628
6.95321721683828,-0.101393058300018,0.0404475763320923,0.054257951259613496,0.7175531784029628
6.953822910357359,0.0015927815437316898,-0.000267755699157722,0.0710230879783635,0.7175531784029628
6.954428603876439,-0.07983788251876829,0.00452228336334228,0.29615492391586296,0.7175531784029628
6.955034297395518,-0.000802237987518311,-0.23737468929290798,0.176403947353363,0.7175531784029628
6.955639990914597,-0.156478507518768,-0.42418621273040796,-0.192429060459137,0.7175531784029628
6.956245684433677,-0.0391225504875183,-0.057748224449157705,-0.269069685459137,0.7175531784029628
6.956851377952756,-0.08462792158126829,-0.0122428533554077,0.188379045009613,0.7175531784029628
6.957457071471835,0.128528816699982,-0.0218229314804077,0.171613908290863,0.7175531784029628
6.958062764990915,-0.245094230175018,-0.0840934392929077,0.193169084072113,0.7175531784029628
6.958668458509994,-0.127738273143768,0.062002752113342295,-0.0559129471778865,0.7175531784029628
6.9592741520290735,-0.0127773356437683,0.07637286930084229,0.31531508016586296,0.7175531784029628
6.959879845548153,-0.046307609081268304,0.054817693519592293,0.806294084072113,0.7175531784029628
6.960485539067232,-0.115763175487518,0.18175372867584202,0.0446778731346135,0.7175531784029628
6.961091232586311,-0.316944816112518,-0.120018732261658,-0.10381333780288701,0.7175531784029628
6.961696926105391,0.231514656543732,0.0164973810195923,0.233884416103363,0.7175531784029628
6.96230261962447,-0.211563956737518,0.062002752113342295,0.106948380947113,0.7175531784029628
6.962908313143549,-0.08223290205001829,-0.139178888511658,0.138083634853363,0.7175531784029628
6.9635140066626295,0.171639168262482,-0.19665935726165798,0.162033830165863,0.7175531784029628
6.964119700181708,0.159664070606232,-0.213424493980408,-0.000827497959136527,0.7175531784029628
6.964725393700787,-0.048702628612518305,0.0476326349258423,-0.106208357334137,0.7175531784029628
6.965331087219867,0.035123054981231694,0.210493963050842,0.169218888759613,0.7175531784029628
6.9659367807389465,0.250674812793732,0.030867498207092302,0.231489396572113,0.7175531784029628
6.966542474258025,-0.201983878612518,0.00452228336334228,0.0638380293846135,0.7175531784029628
6.967148167777105,0.106973640918732,0.06918781070709229,-0.0151976151466365,0.7175531784029628
6.967753861296184,-0.115763175487518,-0.143968927574158,0.0949732832908635,0.7175531784029628
6.9683595548152635,0.104578621387482,0.10271808414459199,0.14526869344711302,0.7175531784029628
6.968965248334343,0.0015927815437316898,-0.00745281429290772,0.166823869228363,0.7175531784029628
6.969570941853422,-0.0103823161125183,-0.057748224449157705,0.0734181075096135,0.7175531784029628
6.970176635372502,0.0183579182624817,-0.0816984197616577,0.128503556728363,0.7175531784029628
6.970782328891581,-0.216353995800018,-0.09846355648040771,0.0901832442283635,0.7175531784029628
6.97138802241066,0.0806284260749817,0.0476326349258423,0.0686280684471135,0.7175531784029628
6.97199371592974,-0.11097313642501799,-0.0840934392929077,0.0710230879783635,0.7175531784029628
6.9725994094488195,0.0782334065437317,-0.0840934392929077,0.15005873250961302,0.7175531784029628
6.973205102967898,-0.221144034862518,-0.110438654136658,0.0853932051658635,0.7175531784029628
6.973810796486978,-0.00798729658126831,-0.00266277523040772,0.104553361415863,0.7175531784029628
6.974416490006057,-0.07265282392501829,-0.0170328924179077,0.272204728603363,0.7175531784029628
6.9750221835251365,0.006382820606231691,-0.0625382635116577,-0.13494859170913698,0.7175531784029628
6.975627877044216,0.111763679981232,-0.055353204917907704,0.0734181075096135,0.7175531784029628
6.976233570563295,-0.120553214550018,-0.0960685369491577,0.0566529707908635,0.7175531784029628
6.976839264082374,0.037518074512481694,-0.033798029136657706,0.28417982625961297,0.7175531784029628
6.977444957601454,0.03272803544998169,0.0260774591445923,0.298549943447113,0.7175531784029628
6.978050651120533,0.09499854326248171,0.14343341617584202,0.0853932051658635,0.7175531784029628
6.978656344639612,-0.0606777262687683,-0.060143243980407705,0.185984025478363,0.7175531784029628
6.9792620381586925,0.03272803544998169,-0.057748224449157705,-0.0511229081153865,0.7175531784029628
6.979867731677771,0.104578621387482,-0.0936735174179077,0.13089857625961301,0.7175531784029628
6.98047342519685,-0.0582827067375183,-0.00984783382415772,-0.00561753702163653,0.7175531784029628
6.98107911871593,-0.151688468456268,-0.0218229314804077,0.0207276778221135,0.7175531784029628
6.9816848122350095,-0.0415175700187683,-0.0960685369491577,0.241069474697113,0.7175531784029628
6.982290505754088,-0.0942079997062683,0.0117073419570923,0.21472425985336302,0.7175531784029628
6.982896199273168,-0.0702578043937683,-0.22060955257415799,0.106948380947113,0.7175531784029628
6.983501892792247,-0.0415175700187683,0.062002752113342295,0.226699357509613,0.7175531784029628
6.984107586311326,-0.288204581737518,-0.0266129705429077,0.0806031661033635,0.7175531784029628
6.984713279830406,0.109368660449982,0.033262517738342295,0.15484877157211302,0.7175531784029628
6.985318973349485,0.0902085041999817,0.0835579278945923,0.0566529707908635,0.7175531784029628
6.9859246668685655,0.0782334065437317,-0.120018732261658,-0.0463328690528865,0.7175531784029628
6.986530360387644,-0.199588859081268,-0.0721183416366577,0.27459974813461296,0.7175531784029628
6.987136053906723,-0.29299462080001804,0.0188924005508423,0.272204728603363,0.7175531784029628
6.987741747425803,-0.115763175487518,-0.0433781072616577,0.0806031661033635,0.7175531784029628
6.9883474409448825,-0.0989980387687683,-0.23737468929290798,-0.19482407999038698,0.7175531784029628
6.988953134463961,-0.0654677653312683,-0.105648615074158,0.6146925215721131,0.7175531784029628
6.989558827983041,-0.0678627848625183,-0.0697233221054077,0.41351088094711297,0.7175531784029628
6.99016452150212,0.27462500810623197,-0.0170328924179077,0.16442884969711302,0.7175531784029628
6.990770215021199,0.0902085041999817,-0.110438654136658,0.118923478603363,0.7175531784029628
6.991375908540279,0.0566782307624817,0.0236824396133423,0.0159376387596135,0.7175531784029628
6.991981602059358,-0.000802237987518311,0.0117073419570923,0.106948380947113,0.7175531784029628
6.992587295578437,-0.0654677653312683,-0.0505631658554077,0.21472425985336302,0.7175531784029628
6.993192989097517,-0.101393058300018,-0.0194279119491577,0.121318498134613,0.7175531784029628
6.993798682616596,-0.144503409862518,-0.163129083824158,-0.14452866983413698,0.7175531784029628
6.994404376135675,0.0542832112312317,-0.100858576011658,0.114133439540863,0.7175531784029628
6.9950100696547555,-0.206773917675018,-0.0864884588241577,-0.0607029862403865,0.7175531784029628
6.995615763173834,-0.0175673747062683,0.0404475763320923,0.0015675215721134702,0.7175531784029628
6.996221456692913,0.0590732502937317,-0.00266277523040772,0.0494679121971135,0.7175531784029628
6.996827150211993,-0.0391225504875183,-0.0194279119491577,0.0973683028221135,0.7175531784029628
6.997432843731072,0.118948738574982,0.129063298988342,0.133293595790863,0.7175531784029628
6.998038537250151,0.138108894824982,-0.0505631658554077,0.051862931728363496,0.7175531784029628
6.998644230769231,0.181219246387482,-0.00745281429290772,0.0853932051658635,0.7175531784029628
6.99924992428831,0.0494931721687317,-0.0242179510116577,0.197959123134613,0.7175531784029628
6.999855617807389,0.0710483479499817,-0.0697233221054077,0.243464494228363,0.7175531784029628
7.000461311326469,0.0902085041999817,-0.23258465023040797,0.0782081465721135,0.7175531784029628
7.001067004845548,0.00877784013748169,-0.165524103355408,-0.0439378495216365,0.7175531784029628
7.001672698364627,-0.0966030192375183,-0.0745133611679077,-0.0990232987403865,0.7175531784029628
7.002278391883707,0.044703133106231696,0.10032306461334199,0.310525041103363,0.7175531784029628
7.002884085402786,-0.10857811689376799,0.059607732582092295,0.360820451259613,0.7175531784029628
7.003489778921866,-0.08223290205001829,-0.16073406429290799,0.06623304891586351,0.7175531784029628
7.004095472440945,0.0710483479499817,-0.0673283025741577,0.267414689540863,0.7175531784029628
7.004701165960024,0.0111728596687317,-0.052958185386657704,0.197959123134613,0.7175531784029628
7.005306859479104,0.0638632893562317,0.00691730289459228,0.15484877157211302,0.7175531784029628
7.005912552998183,-0.0175673747062683,-0.124808771324158,0.116528459072113,0.7175531784029628
7.006518246517262,0.0135678791999817,0.0883479669570923,-0.19482407999038698,0.7175531784029628
7.007123940036342,-0.0415175700187683,-0.225399591636658,-0.0535179276466365,0.7175531784029628
7.007729633555421,0.0758383870124817,-0.203844415855408,-0.00322251749038653,0.7175531784029628
7.0083353270745,-0.139713370800018,-0.0146378728866577,-0.113393415927887,0.7175531784029628
7.00894102059358,0.0638632893562317,-0.0314030096054077,0.152453752040863,0.7175531784029628
7.009546714112659,0.140503914356232,-0.14636394710540798,0.118923478603363,0.7175531784029628
7.010152407631738,-0.0367275309562683,-0.292460138511658,-0.106208357334137,0.7175531784029628
7.010758101150818,0.09499854326248171,-0.0433781072616577,0.0566529707908635,0.7175531784029628
7.011363794669897,-0.233119132518768,0.124273259925842,0.193169084072113,0.7175531784029628
7.011969488188976,-0.043912589550018304,0.033262517738342295,0.111738420009613,0.7175531784029628
7.012575181708056,-0.125343253612518,-0.00505779476165772,0.279389787197113,0.7175531784029628
7.013180875227135,-0.10378807783126799,0.188938787269592,0.14526869344711302,0.7175531784029628
7.013786568746214,-0.118158195018768,-0.0673283025741577,0.157243791103363,0.7175531784029628
7.014392262265294,-0.0966030192375183,-0.0745133611679077,0.248254533290863,0.7175531784029628
7.014997955784373,0.0686533284187317,-0.060143243980407705,0.20035414266586302,0.7175531784029628
7.015603649303452,-0.213958976268768,0.0667927911758423,-0.027172712802886502,0.7175531784029628
7.016209342822532,-0.0918129801750183,-0.0505631658554077,-0.0439378495216365,0.7175531784029628
7.016815036341611,0.133318855762482,-0.163129083824158,0.226699357509613,0.7175531784029628
7.0174207298606905,-0.120553214550018,0.059607732582092295,-0.192429060459137,0.7175531784029628
7.01802642337977,-0.0295424723625183,-0.0816984197616577,-0.15410874795913698,0.7175531784029628
7.018632116898849,0.123738777637482,-0.0649332830429077,-0.13494859170913698,0.7175531784029628
7.019237810417929,-0.163663566112518,-0.100858576011658,0.41351088094711297,0.7175531784029628
7.019843503937008,0.03272803544998169,-0.0194279119491577,0.8517994551658631,0.7175531784029628
7.020449197456087,-0.168453605175018,0.119483220863342,0.0255177168846135,0.7175531784029628
7.021054890975167,-0.134923331737518,0.126668279457092,0.0686280684471135,0.7175531784029628
7.021660584494246,0.0806284260749817,-0.0481681463241577,0.0494679121971135,0.7175531784029628
7.022266278013325,-0.120553214550018,-0.143968927574158,0.118923478603363,0.7175531784029628
7.022871971532405,0.0159628987312317,-0.0122428533554077,0.25304457235336303,0.7175531784029628
7.023477665051484,-0.237909171581268,0.035657537269592296,0.0710230879783635,0.7175531784029628
7.024083358570563,-0.0415175700187683,-0.223004572105408,0.207539201259613,0.7175531784029628
7.024689052089643,-0.0606777262687683,-0.115228693199158,0.0015675215721134702,0.7175531784029628
7.025294745608722,0.044703133106231696,0.126668279457092,0.0279127364158635,0.7175531784029628
7.025900439127801,-0.08462792158126829,0.0188924005508423,0.327290177822113,0.7175531784029628
7.026506132646881,-0.201983878612518,0.126668279457092,0.111738420009613,0.7175531784029628
7.02711182616596,-0.053492667675018306,0.0404475763320923,0.123713517665863,0.7175531784029628
7.027717519685039,-0.07265282392501829,0.054817693519592293,0.0470728926658635,0.7175531784029628
7.028323213204119,0.224329597949982,-0.14636394710540798,-0.115788435459137,0.7175531784029628
7.028928906723198,0.111763679981232,-0.0769083806991577,0.006357560634613469,0.7175531784029628
7.029534600242277,-0.051097648143768305,0.126668279457092,0.0686280684471135,0.7175531784029628
7.030140293761357,-0.13252831220626798,-0.124808771324158,0.0374928145408635,0.7175531784029628
7.0307459872804365,0.140503914356232,-0.127203790855408,0.241069474697113,0.7175531784029628
7.031351680799515,-0.0367275309562683,-0.103253595542908,0.20514418172836302,0.7175531784029628
7.031957374318595,0.0614682698249817,0.00691730289459228,0.0829981856346135,0.7175531784029628
7.032563067837674,-0.163663566112518,-0.0816984197616577,0.15484877157211302,0.7175531784029628
7.0331687613567535,-0.194798820018768,-0.033798029136657706,0.183589005947113,0.7175531784029628
7.033774454875833,0.0782334065437317,0.0141023614883423,0.0734181075096135,0.7175531784029628
7.034380148394912,0.0758383870124817,-0.165524103355408,0.138083634853363,0.7175531784029628
7.034985841913992,0.0878134846687317,-0.0649332830429077,0.104553361415863,0.7175531784029628
7.035591535433071,-0.26185936689376804,-0.0769083806991577,0.0255177168846135,0.7175531784029628
7.03619722895215,0.159664070606232,0.133853338050842,0.0925782637596135,0.7175531784029628
7.03680292247123,-0.127738273143768,0.07158283023834229,0.114133439540863,0.7175531784029628
7.037408615990309,-0.13731835126876799,0.0117073419570923,0.0758131270408635,0.7175531784029628
7.038014309509388,0.039913094043731695,-0.0385880681991577,0.30573500204086296,0.7175531784029628
7.038620003028468,-0.115763175487518,0.00691730289459228,0.420695939540863,0.7175531784029628
7.039225696547547,-0.249884269237518,-0.057748224449157705,0.308130021572113,0.7175531784029628
7.039831390066626,-0.07744286298751829,-0.20623943538665798,0.250649552822113,0.7175531784029628
7.040437083585706,-0.0582827067375183,0.0643977716445923,-0.19482407999038698,0.7175531784029628
7.041042777104785,-0.25467430830001797,0.0260774591445923,0.0159376387596135,0.7175531784029628
7.041648470623864,0.0255429768562317,-0.00505779476165772,0.16442884969711302,0.7175531784029628
7.042254164142944,0.0878134846687317,-0.35473064632415796,0.118923478603363,0.7175531784029628
7.042859857662023,-0.043912589550018304,-0.251744806480408,0.162033830165863,0.7175531784029628
7.043465551181102,-0.185218741893768,0.141038396644592,0.178798966884613,0.7175531784029628
7.0440712447001825,0.0470981526374817,0.155408513832092,0.269809709072113,0.7175531784029628
7.044676938219261,-0.144503409862518,0.033262517738342295,0.106948380947113,0.7175531784029628
7.04528263173834,0.0542832112312317,-0.0864884588241577,-0.07507310342788649,0.7175531784029628
7.04588832525742,0.30815528154373195,-0.22060955257415799,0.0255177168846135,0.7175531784029628
7.0464940187764995,-0.228329093456268,-0.299645197105408,0.250649552822113,0.7175531784029628
7.047099712295578,0.0111728596687317,-0.0649332830429077,0.142873673915863,0.7175531784029628
7.047705405814658,-0.199588859081268,0.0835579278945923,0.351240373134613,0.7175531784029628
7.048311099333737,-0.0894179606437683,0.15301349430084202,0.25304457235336303,0.7175531784029628
7.0489167928528165,0.190799324512482,-0.30443523616790796,0.45422621297836296,0.7175531784029628
7.049522486371896,0.102183601856232,-0.199054376792908,0.5548170332908631,0.7175531784029628
7.050128179890975,0.0590732502937317,0.114693181800842,0.147663712978363,0.7175531784029628
7.050733873410055,-0.0942079997062683,-0.0170328924179077,0.176403947353363,0.7175531784029628
7.051339566929134,-0.0127773356437683,0.141038396644592,0.14526869344711302,0.7175531784029628
7.051945260448213,-0.07983788251876829,-0.03619304866790771,0.188379045009613,0.7175531784029628
7.052550953967293,0.126133797168732,-0.0409830877304077,0.0590479903221135,0.7175531784029628
7.0531566474863725,-0.127738273143768,-0.34275554866790797,0.0470728926658635,0.7175531784029628
7.053762341005451,0.0662583088874817,-0.0697233221054077,-0.0583079667091365,0.7175531784029628
7.054368034524531,0.00398780107498169,0.18654376773834203,-0.110998396396637,0.7175531784029628
7.05497372804361,-0.0343325114250183,0.0476326349258423,0.250649552822113,0.7175531784029628
7.0555794215626895,-0.134923331737518,0.141038396644592,0.308130021572113,0.7175531784029628
7.056185115081769,-0.122948234081268,-0.03619304866790771,-0.034357771396636504,0.7175531784029628
7.056790808600848,0.22193457841873201,-0.0721183416366577,-0.036752790927886504,0.7175531784029628
7.057396502119927,-0.0582827067375183,-0.20623943538665798,-0.20440415811538698,0.7175531784029628
7.058002195639007,-0.10618309736251799,-0.19665935726165798,0.291364884853363,0.7175531784029628
7.058607889158086,-0.07265282392501829,0.0212874200820923,0.327290177822113,0.7175531784029628
7.059213582677165,-0.187613761425018,0.23683917789459202,0.0901832442283635,0.7175531784029628
7.0598192761962455,-0.269044425487518,0.193728826332092,0.104553361415863,0.7175531784029628
7.060424969715324,0.150083992481232,-0.184684259605408,-0.108603376865387,0.7175531784029628
7.061030663234403,0.126133797168732,-0.40263103694915797,-0.15410874795913698,0.7175531784029628
7.061636356753483,-0.0391225504875183,-0.0505631658554077,0.0446778731346135,0.7175531784029628
7.0622420502725625,-0.10618309736251799,0.299109685707092,0.31531508016586296,0.7175531784029628
7.062847743791641,-0.206773917675018,0.311084783363342,0.054257951259613496,0.7175531784029628
7.063453437310721,-0.10618309736251799,-0.230189630699158,-0.254699568271637,0.7175531784029628
7.0640591308298,0.142898933887482,-0.5774674627304079,-0.350500349521637,0.7175531784029628
7.064664824348879,0.178824226856232,-0.28288006038665797,-0.0151976151466365,0.7175531784029628
7.065270517867959,-0.32412987470626803,0.038052556800842297,0.006357560634613469,0.7175531784029628
7.065876211387038,-0.221144034862518,0.193728826332092,0.12610853719711299,0.7175531784029628
7.0664819049061185,-0.187613761425018,0.179358709144592,0.22430433797836302,0.7175531784029628
7.067087598425197,0.09739356279373171,-0.163129083824158,0.0231226973533635,0.7175531784029628
7.067693291944276,0.09739356279373171,-0.24695476741790798,-0.0439378495216365,1.258509188252885
7.068298985463356,-0.166058585643768,-0.302040216636658,-0.30259995889663704,1.258509188252885
7.0689046789824355,0.138108894824982,-0.175104181480408,-0.240329451084137,1.258509188252885
7.069510372501514,0.102183601856232,0.145828435707092,0.0566529707908635,1.258509188252885
7.070116066020594,-0.113368155956268,0.174568670082092,0.36561049032211296,1.258509188252885
7.070721759539673,-0.206773917675018,0.16738361148834202,0.437461076259613,1.258509188252885
7.071327453058752,0.006382820606231691,0.129063298988342,0.19556410360336302,1.258509188252885
7.071933146577832,-0.0127773356437683,-0.491246759605408,-0.0822581620216365,1.258509188252885
7.072538840096911,0.181219246387482,-0.634947931480408,-0.197219099521637,1.258509188252885
7.07314453361599,0.22193457841873201,0.155408513832092,0.25304457235336303,1.258509188252885
7.07375022713507,-0.122948234081268,0.318269841957092,0.420695939540863,1.258509188252885
7.074355920654149,-0.0942079997062683,0.521846502113342,0.250649552822113,1.258509188252885
7.074961614173228,-0.046307609081268304,-0.148758966636658,-0.0175926346778865,1.258509188252885
7.0755673076923085,0.45664649248123196,-0.723563654136658,-0.27385972452163704,1.258509188252885
7.076173001211387,0.262649910449982,-0.366705743980408,-0.369660505771637,1.258509188252885
7.076778694730466,-0.242699210643768,0.196123845863342,0.0327027754783635,1.258509188252885
7.077384388249546,-0.515731437206268,0.593697088050842,0.288969865322113,1.258509188252885
7.077990081768625,-0.285809562206268,0.390120427894592,0.183589005947113,1.258509188252885
7.078595775287704,0.16205909013748201,-0.03619304866790771,0.0758131270408635,1.258509188252885
7.079201468806784,-0.07504784345626829,-0.481666681480408,0.418300920009613,1.258509188252885
7.079807162325863,-0.151688468456268,-0.199054376792908,-0.367265486240387,1.258509188252885
7.080412855844942,-0.348080070018768,0.141038396644592,-0.43193101358413705,1.258509188252885
7.081018549364022,-0.0678627848625183,0.39491046695709203,0.26501967000961296,1.258509188252885
7.081624242883101,-0.053492667675018306,0.267974431800842,0.233884416103363,1.258509188252885
7.08222993640218,0.26743994951248196,-0.347545587730408,0.231489396572113,1.258509188252885
7.08283562992126,0.28899512529373195,-0.30443523616790796,-0.221169294834137,1.258509188252885
7.083441323440339,-0.228329093456268,-0.381075861167908,-0.340920271396637,1.258509188252885
7.084047016959419,-0.0271474528312683,-0.340360529136658,-0.41516587686538703,1.258509188252885
7.084652710478498,0.135713875293732,0.17696368961334202,0.288969865322113,1.258509188252885
7.085258403997577,-0.0654677653312683,0.380540349769592,0.497336564540863,1.258509188252885
7.085864097516657,-0.07744286298751829,0.150618474769592,0.13089857625961301,1.258509188252885
7.086469791035736,0.102183601856232,0.18175372867584202,0.121318498134613,1.258509188252885
7.087075484554815,0.195589363574982,-0.766674005699158,-0.446301130771637,1.258509188252885
7.087681178073895,0.279415047168732,-0.551122247886658,-0.455881208896637,1.258509188252885
7.088286871592974,0.212354500293732,0.24162921695709202,0.226699357509613,1.258509188252885
7.088892565112053,-0.288204581737518,0.653572576332092,0.530866837978363,1.258509188252885
7.089498258631133,-0.29059960126876805,0.782903631019592,0.276994767665863,1.258509188252885
7.090103952150212,-0.130133292675018,-0.256534845542908,-0.20440415811538698,1.258509188252885
7.090709645669291,0.432696297168732,-0.8768449041366579,-0.30499497842788703,1.258509188252885
7.091315339188371,0.36803076982498195,-0.567887384605408,-0.170873884677887,1.258509188252885
7.09192103270745,-0.0678627848625183,0.399700506019592,0.0446778731346135,1.258509188252885
7.092526726226529,-0.522916495800018,0.670337713050842,0.102158341884613,1.258509188252885
7.093132419745609,-0.223539054393768,0.531426580238342,0.162033830165863,1.258509188252885
7.093738113264688,0.233909676074982,-0.290065118980408,0.267414689540863,1.258509188252885
7.094343806783767,0.35605567216873196,-0.692428400230408,-0.187639021396637,1.258509188252885
7.094949500302847,-0.19240380048751798,-0.352335626792908,-0.43193101358413705,1.258509188252885
7.095555193821926,-0.561236808300018,0.184148748207092,0.0279127364158635,1.258509188252885
7.096160887341005,-0.139713370800018,0.512266423988342,0.281784806728363,1.258509188252885
7.096766580860085,0.0542832112312317,0.24641925601959203,0.33447523641586296,1.258509188252885
7.097372274379164,0.629087898731232,-0.175104181480408,0.26501967000961296,1.258509188252885
7.097977967898244,0.0758383870124817,-0.26371990413665797,-0.319365095615387,1.258509188252885
7.098583661417323,-0.142108390331268,-0.179894220542908,-0.419955915927887,1.258509188252885
7.099189354936402,-0.30017967939376805,-0.122413751792908,-0.125368513584137,1.258509188252885
7.099795048455482,0.138108894824982,0.32545490055084203,0.387165666103363,1.258509188252885
7.100400741974561,-0.0582827067375183,0.552981756019592,0.456621232509613,1.258509188252885
7.10100643549364,0.042308113574981696,0.28473956851959203,0.226699357509613,1.258509188252885
7.10161212901272,-0.10378807783126799,0.17217365055084202,0.0327027754783635,1.258509188252885
7.102217822531799,0.154874031543732,-0.781044122886658,-0.556472029209137,1.258509188252885
7.102823516050878,0.0806284260749817,-0.563097345542908,-0.0990232987403865,1.258509188252885
7.103429209569958,-0.0630727458000183,0.205703923988342,0.35603041219711296,1.258509188252885
7.104034903089037,-0.34089501142501805,0.667942693519592,0.46380629110336297,1.258509188252885
7.104640596608116,-0.448670890331268,0.569746892738342,0.20993422079086302,1.258509188252885
7.105246290127196,0.171639168262482,-0.460111505699158,-0.182848982334137,1.258509188252885
7.105851983646275,0.44467139482498197,-1.09718670101166,-0.5804222245216369,1.258509188252885
7.106457677165354,-0.0271474528312683,-0.508011896324158,-0.34331529092788704,1.258509188252885
7.107063370684434,-0.0151723551750183,0.358985173988342,0.241069474697113,1.258509188252885
7.107669064203513,-0.43190575361251804,0.881099431800842,0.30573500204086296,1.258509188252885
7.108274757722592,-0.319339835643768,0.572141912269592,0.0686280684471135,1.258509188252885
7.108880451241672,0.5835825276374821,-0.735538751792908,-0.321760115146637,1.258509188252885
7.109486144760751,0.300970222949982,-0.967855646324158,-0.575632185459137,1.258509188252885
7.11009183827983,-0.156478507518768,-0.175104181480408,0.250649552822113,1.258509188252885
7.11069753179891,-0.36005516767501805,0.282344548988342,0.298549943447113,1.258509188252885
7.1113032253179895,-0.19719383955001799,0.694287908363342,0.231489396572113,1.258509188252885
7.111908918837068,0.27462500810623197,0.289529607582092,0.583557267665863,1.258509188252885
7.112514612356148,0.535682137012482,-0.385865900230408,0.0734181075096135,1.258509188252885
7.113120305875227,-0.10857811689376799,-0.426581232261658,-0.369660505771637,1.258509188252885
7.1137259993943065,-0.0247524333000183,-0.352335626792908,-0.554077009677887,1.258509188252885
7.114331692913386,-0.642667472362518,0.062002752113342295,-0.0463328690528865,1.258509188252885
7.114937386432465,0.140503914356232,0.277554509925842,0.21951429891586302,1.258509188252885
7.115543079951545,0.133318855762482,0.368565252113342,0.545236955165863,1.258509188252885
7.116148773470624,-0.316944816112518,0.193728826332092,0.358425431728363,1.258509188252885
7.116754466989703,-0.146898429393768,-0.0505631658554077,-0.180453962802887,1.258509188252885
7.117360160508783,0.341685554981232,-0.9367203924179079,-0.6043724198341369,1.258509188252885
7.117965854027862,-0.0127773356437683,-0.515196954917908,-0.259489607334137,1.258509188252885
7.118571547546941,0.0111728596687317,0.342220037269592,0.511706681728363,1.258509188252885
7.119177241066021,-0.348080070018768,0.948159978675842,0.382375627040863,1.258509188252885
7.1197829345851,-0.434300773143768,0.682312810707092,0.492546525478363,1.258509188252885
7.1203886281041795,0.250674812793732,-0.280485040855408,-0.190034040927887,1.258509188252885
7.120994321623259,0.5476572346687321,-1.45883465023041,-0.798369001865387,1.258509188252885
7.121600015142338,0.200379402637482,-0.565492365074158,-0.182848982334137,1.258509188252885
7.122205708661417,-0.269044425487518,0.763743474769592,0.255439591884613,1.258509188252885
7.122811402180497,-0.659432609081268,0.933789861488342,0.317710099697113,1.258509188252885
7.123417095699576,-0.166058585643768,0.45478595523834203,0.25304457235336303,1.258509188252885
7.124022789218655,0.6841733479499821,-1.04210125179291,-0.130158552646637,1.258509188252885
7.1246284827377355,0.322525398731232,-1.03252117366791,-0.659457869052887,1.258509188252885
7.125234176256814,-0.216353995800018,0.387725408363342,-0.515756697177887,1.258509188252885
7.125839869775893,-0.36245018720626804,0.655967595863342,0.16442884969711302,1.258509188252885
7.126445563294973,-0.0702578043937683,0.756558416175842,0.300944962978363,1.258509188252885
7.1270512568140525,0.255464851856232,0.21288898258209202,0.377585587978363,1.258509188252885
7.127656950333131,0.30815528154373195,-0.706798517417908,-0.0463328690528865,1.258509188252885
7.128262643852211,0.193194344043732,-0.546332208824158,-0.48222642374038704,1.258509188252885
7.12886833737129,0.0303330159187317,-0.20144939632415798,-0.345710310459137,1.258509188252885
7.1294740308903695,-0.5324965739250179,0.107508123207092,0.29615492391586296,1.258509188252885
7.130079724409449,0.214749519824982,0.358985173988342,0.504521623134613,1.258509188252885
7.130685417928528,0.116553719043732,0.517056463050842,0.442251115322113,1.258509188252885
7.131291111447607,0.037518074512481694,0.251209295082092,0.236279435634613,1.258509188252885
7.131896804966687,-0.113368155956268,-0.450531427574158,-0.446301130771637,1.258509188252885
7.132502498485766,0.39677100419998196,-1.04928631038666,-0.6019774003028869,1.258509188252885
7.133108192004846,0.233909676074982,-0.31401531429290797,-0.15889878702163698,1.258509188252885
7.1337138855239255,0.0830234456062317,0.622437322425842,0.487756486415863,1.258509188252885
7.134319579043004,-0.407955558300018,1.40081867008209,0.7344434981346131,1.258509188252885
7.134925272562084,-0.45106590986251804,0.715843084144592,0.171613908290863,1.258509188252885
7.135530966081163,0.217144539356232,-0.663688165855408,-0.594792341709137,1.258509188252885
7.1361366596002425,0.631482918262482,-1.70791668148041,-1.01152574014664,1.258509188252885
7.136742353119322,0.0542832112312317,-0.385865900230408,-0.367265486240387,1.258509188252885
7.137348046638401,-0.41035057783126805,1.0942561700820899,0.300944962978363,1.258509188252885
7.13795374015748,-0.5516567301750179,1.38884357242584,0.739233537197113,1.258509188252885
7.13855943367656,-0.134923331737518,0.270369451332092,0.329685197353363,1.258509188252885
7.139165127195639,0.629087898731232,-1.03012615413666,-0.161293806552887,1.258509188252885
7.139770820714718,0.303365242481232,-1.10676677913666,0.35363539266586297,1.258509188252885
7.1403765142337985,-0.27143944501876804,0.23683917789459202,-0.07507310342788649,1.258509188252885
7.140982207752877,-0.542076652050018,1.21161212711334,0.193169084072113,1.258509188252885
7.141587901271956,-0.209168937206268,0.854754216957092,0.451831193447113,1.258509188252885
7.142193594791036,0.47580664873123196,-0.148758966636658,0.377585587978363,1.258509188252885
7.1427992883101155,0.7033335041999821,-0.666083185386658,-0.429535994052887,1.258509188252885
7.143404981829194,-0.38400536298751803,-0.527172052574158,-0.41277085733413704,1.258509188252885
7.144010675348274,-0.38400536298751803,-0.361915704917908,-0.288229841709137,1.258509188252885
7.144616368867353,-0.07744286298751829,0.29431964664459204,0.272204728603363,1.258509188252885
7.145222062386432,0.178824226856232,0.529031560707092,0.621877580165863,1.258509188252885
7.145827755905512,0.322525398731232,0.505081365394592,0.530866837978363,1.258509188252885
7.146433449424591,-0.151688468456268,0.145828435707092,0.188379045009613,1.258509188252885
7.1470391429436715,-0.237909171581268,-0.5391471502304079,-0.853454451084137,1.258509188252885
7.14764483646275,0.449461433887482,-1.38458904476166,-0.7217283768653869,1.258509188252885
7.148250529981829,0.039913094043731695,-0.469691583824158,0.13568861532211302,1.258509188252885
7.148856223500909,0.123738777637482,0.797273748207092,0.6362476973533631,1.258509188252885
7.1494619170199885,-0.276229484081268,1.31699298648834,0.387165666103363,1.258509188252885
7.150067610539067,-0.32412987470626803,0.567351873207092,0.0159376387596135,1.258509188252885
7.150673304058147,0.382400887012482,-1.17382732601166,-0.611557478427887,1.258509188252885
7.151278997577226,0.6650131916999821,-1.62888103694916,-0.9205149979591369,1.258509188252885
7.151884691096305,0.118948738574982,-0.09846355648040771,0.0566529707908635,1.258509188252885
7.152490384615385,-0.635482413768768,1.23556232242584,0.6554078536033631,1.258509188252885
7.153096078134464,-0.647457511425018,1.2906477716445899,0.530866837978363,1.258509188252885
7.153701771653543,-0.139713370800018,-0.03619304866790771,0.255439591884613,1.258509188252885
7.154307465172623,1.03145117998123,-1.2839982244491601,-0.470251326084137,1.258509188252885
7.154913158691702,0.39437598466873197,-1.19298748226166,-0.767233747959137,1.258509188252885
7.155518852210781,-0.585187003612518,0.193728826332092,-0.22835435342788699,1.258509188252885
7.1561245457298615,-0.6929628825187679,1.10623126773834,0.624272599697113,1.258509188252885
7.15673023924894,-0.32412987470626803,0.7781135919570921,0.518891740322113,1.258509188252885
7.157335932768019,0.370425789356232,-0.266114923667908,0.171613908290863,1.258509188252885
7.157941626287099,0.559632332324982,-0.642132990074158,-0.6858030838966369,1.258509188252885
7.158547319806178,-0.139713370800018,-0.567887384605408,-0.678618025302887,1.258509188252885
7.159153013325257,-0.7121230387687679,-0.029007990074157698,-0.379240583896637,1.258509188252885
7.159758706844337,-0.0271474528312683,0.557771795082092,0.320105119228363,1.258509188252885
7.160364400363416,-0.048702628612518305,0.507476384925842,0.724863420009613,1.258509188252885
7.160970093882495,0.0470981526374817,0.49550128726959203,0.47338636922836297,1.258509188252885
7.161575787401575,-0.247489249706268,0.164988591957092,0.0350977950096135,1.258509188252885
7.162181480920654,0.0207529377937317,-0.6972184392929079,-0.795973982334137,1.258509188252885
7.162787174439733,0.399166023731232,-1.18580242366791,-0.659457869052887,1.258509188252885
7.163392867958813,0.26743994951248196,-0.0385880681991577,0.21951429891586302,1.258509188252885
7.163998561477892,-0.00798729658126831,0.991270330238342,0.760788712978363,1.258509188252885
7.164604254996972,-0.515731437206268,1.36728839664459,0.605112443447113,1.258509188252885
7.165209948516051,-0.319339835643768,0.545796697425842,0.102158341884613,1.258509188252885
7.16581564203513,0.27702002763748196,-1.62409099788666,-0.829504255771637,1.258509188252885
7.16642133555421,0.554842293262482,-1.59774578304291,-0.556472029209137,1.258509188252885
7.167027029073289,0.0590732502937317,0.10511310367584199,0.171613908290863,1.258509188252885
7.167632722592368,-0.539681632518768,1.30262286930084,0.645827775478363,1.2499504408789515
7.168238416111448,-0.702542960643768,1.41518878726959,0.605112443447113,1.2499504408789515
7.168844109630527,0.0135678791999817,-0.316410333824158,-0.06549302530288649,1.2499504408789515
7.169449803149606,1.0554013752937301,-1.54745037288666,-0.22835435342788699,1.2499504408789515
7.170055496668686,0.34647559404373196,-0.788229181480408,-0.252304548740387,1.2499504408789515
7.170661190187765,-0.563631827831268,0.596092107582092,-0.271464704990387,1.2499504408789515
7.171266883706844,-0.606742179393768,1.12539142398834,0.31531508016586296,1.2499504408789515
7.171872577225924,-0.0295424723625183,0.7996687677383421,0.583557267665863,1.2499504408789515
7.172478270745003,0.614717781543732,-0.46250652523040797,0.33447523641586296,1.2499504408789515
7.173083964264082,0.233909676074982,-0.781044122886658,-0.728913435459137,1.2499504408789515
7.173689657783162,-0.29299462080001804,-0.800204279136658,-0.738493513584137,1.2499504408789515
7.174295351302241,-0.6522475504875179,-0.199054376792908,-0.202009138584137,1.2499504408789515
7.17490104482132,0.253069832324982,0.399700506019592,0.391955705165863,1.2499504408789515
7.1755067383404,0.0590732502937317,0.5601668146133421,0.947600236415863,1.2499504408789515
7.17611243185948,-0.127738273143768,0.32545490055084203,0.5141017012596131,1.2499504408789515
7.176718125378558,-0.34329003095626803,-0.0481681463241577,-0.137343611240387,1.2499504408789515
7.177323818897638,0.111763679981232,-0.802599298667908,-0.733703474521637,1.2499504408789515
7.177929512416717,0.145293953418732,-1.18340740413666,-0.419955915927887,1.2499504408789515
7.1785352059357965,0.35845069169998195,0.129063298988342,0.641037736415863,1.2499504408789515
7.179140899454876,-0.151688468456268,1.20682208805084,0.902094865322113,1.2499504408789515
7.179746592973955,-0.647457511425018,1.40321368961334,0.499731584072113,1.2499504408789515
7.180352286493035,-0.34329003095626803,0.296714666175842,-0.151713728427887,1.2499504408789515
7.180957980012114,0.39677100419998196,-1.66720134944916,-0.9037498612403869,1.2499504408789515
7.181563673531193,0.41593116044998196,-1.38458904476166,-0.618742537021637,1.2499504408789515
7.182169367050273,-0.120553214550018,0.42365070133209204,0.372795548915863,1.2499504408789515
7.182775060569352,-0.6330873942375179,1.80797199039459,0.542841935634613,1.2499504408789515
7.183380754088431,-0.640272452831268,1.45590411930084,0.142873673915863,1.2499504408789515
7.183986447607511,0.241094734668732,-0.500826837730408,0.06623304891586351,1.2499504408789515
7.18459214112659,0.8063193440437321,-1.6815714666366601,-0.669037947177887,1.2499504408789515
7.185197834645669,0.0806284260749817,-0.766674005699158,-0.767233747959137,1.2499504408789515
7.185803528164749,-1.00910546064377,0.861939275550842,0.00875258016586347,1.2499504408789515
7.186409221683828,-0.448670890331268,1.14694659976959,0.6769630293846131,1.2499504408789515
7.187014915202907,0.0806284260749817,0.490711248207092,0.789528947353363,1.2499504408789515
7.187620608721987,0.552447273731232,-0.522382013511658,0.250649552822113,1.2499504408789515
7.188226302241066,0.16205909013748201,-0.840919611167908,-0.467856306552887,1.2499504408789515
7.188831995760145,-0.233119132518768,-0.872054865074158,-0.532521833896637,1.2499504408789515
7.1894376892792256,-0.6139272379875179,-0.00266277523040772,0.00875258016586347,1.2499504408789515
7.190043382798304,0.281810066699982,0.593697088050842,0.509311662197113,1.2499504408789515
7.190649076317383,0.09499854326248171,0.730213201332092,0.880539689540863,1.2499504408789515
7.191254769836463,-0.187613761425018,0.378145330238342,0.447041154384613,1.2499504408789515
7.1918604633555425,-0.120553214550018,-0.139178888511658,-0.21877427530288698,1.2499504408789515
7.192466156874621,0.231514656543732,-1.24807293148041,-0.872614607334137,1.2499504408789515
7.193071850393701,0.310550301074982,-1.19777752132416,-0.190034040927887,1.2499504408789515
7.19367754391278,0.47580664873123196,0.5793269708633421,0.7559986739158631,1.2499504408789515
7.1942832374318595,-0.204378898143768,1.48703937320709,0.664987931728363,1.2499504408789515
7.194888930950939,-0.836664054393768,1.30022784976959,0.468596330165863,1.2499504408789515
7.195494624470018,-0.26185936689376804,-0.122413751792908,-0.6259275956153869,1.2499504408789515
7.196100317989098,0.909305183887482,-2.03124431819916,-1.04266099405289,1.2499504408789515
7.196706011508177,0.741653816699982,-1.35584881038666,-0.513361677646637,1.2499504408789515
7.197311705027256,-0.07983788251876829,0.754163396644592,0.310525041103363,1.2499504408789515
7.197917398546336,-0.922884757518768,1.85587238101959,0.5164967207908631,1.2499504408789515
7.198523092065415,-0.7935537028312679,1.25472247867584,0.207539201259613,1.2499504408789515
7.199128785584494,0.6674082112312321,-0.8169694158554079,-0.369660505771637,1.2499504408789515
7.199734479103574,0.756023933887482,-2.09111980648041,-0.30499497842788703,1.2499504408789515
7.200340172622653,-0.156478507518768,-0.500826837730408,-0.427140974521637,1.2499504408789515
7.2009458661417325,-0.700147941112518,0.931394841957092,0.243464494228363,1.2499504408789515
7.201551559660812,-0.42232567548751804,1.25951251773834,0.643432755947113,1.2499504408789515
7.202157253179891,0.09499854326248171,0.5386116388320921,0.619482560634613,1.2499504408789515
7.20276294669897,0.576397469043732,-0.884029962730408,0.19556410360336302,1.2499504408789515
7.20336864021805,0.044703133106231696,-0.912770197105408,-1.02829087686539,1.2499504408789515
7.203974333737129,-0.175638663768768,-0.541542169761658,-0.8055540604591369,1.2499504408789515
7.204580027256208,-0.48220116376876804,0.270369451332092,0.0806031661033635,1.2499504408789515
7.2051857207752885,0.102183601856232,0.691892888832092,0.550026994228363,1.2499504408789515
7.205791414294367,0.126133797168732,0.632017400550842,0.626667619228363,1.2499504408789515
7.206397107813446,-0.130133292675018,0.19851886539459201,0.418300920009613,1.2499504408789515
7.207002801332526,-0.0918129801750183,-0.445741388511658,-0.659457869052887,1.2499504408789515
7.2076084948516055,0.245884773731232,-1.33429363460541,-0.9420701737403869,1.2499504408789515
7.208214188370684,0.49496680498123197,-0.800204279136658,-0.151713728427887,1.2499504408789515
7.208819881889764,0.518917000293732,0.591302068519592,0.641037736415863,1.2499504408789515
7.209425575408843,-0.558841788768768,1.60439533023834,0.698518205165863,1.2499504408789515
7.2100312689279225,-0.678592765331268,1.23316730289459,0.0494679121971135,1.2499504408789515
7.210636962447002,0.145293953418732,-0.6972184392929079,-0.815134138584137,1.2499504408789515
7.211242655966081,0.928465340137482,-2.26116619319916,-1.0402659745216398,1.2499504408789515
7.21184834948516,0.590767586231232,-1.1426920721054101,-0.178058943271637,1.2499504408789515
7.21245404300424,-0.26185936689376804,1.08467609195709,0.229094377040863,1.2499504408789515
7.213059736523319,-0.9707851481437679,1.96843829898834,0.5164967207908631,1.2499504408789515
7.213665430042399,-0.510941398143768,0.950554998207092,0.332080216884613,1.2499504408789515
7.2142711235614785,0.715308601856232,-1.20735759944916,-0.513361677646637,1.2499504408789515
7.214876817080557,0.597952644824982,-2.25398113460541,-0.872614607334137,1.2499504408789515
7.215482510599637,-0.0391225504875183,-0.570282404136658,-0.460671247959137,1.2499504408789515
7.216088204118716,-0.824688956737518,1.17329181461334,0.566792130947113,1.2499504408789515
7.2166938976377955,-0.36005516767501805,1.24514240055084,0.727258439540863,1.2499504408789515
7.217299591156875,0.451856453418732,0.277554509925842,0.470991349697113,1.2499504408789515
7.217905284675954,0.641062996387482,-0.888820001792908,-0.515756697177887,1.2499504408789515
7.218510978195033,0.09260352373123171,-1.2025675603866601,-1.08577134561539,1.2499504408789515
7.219116671714113,-0.33370995283126803,-0.297250177574158,-0.427140974521637,1.2499504408789515
7.219722365233192,-0.0678627848625183,0.466761052894592,0.243464494228363,1.2499504408789515
7.220328058752271,0.229119637012482,0.842779119300842,0.643432755947113,1.2499504408789515
7.2209337522713515,0.106973640918732,0.643992498207092,0.765578752040863,1.2499504408789515
7.22153944579043,-0.194798820018768,0.054817693519592293,0.34405531454086297,1.2499504408789515
7.222145139309509,-0.48938622236251805,-0.711588556480408,-0.8821946854591369,1.2499504408789515
7.222750832828589,0.142898933887482,-1.65043621273041,-1.1552269120216399,1.2499504408789515
7.2233565263476684,0.736863777637482,-0.5583073064804079,-0.0319627518653865,1.2499504408789515
7.223962219866747,0.0806284260749817,0.814038884925842,0.6146925215721131,1.2499504408789515
7.224567913385827,-0.7719985270500179,1.82713214664459,0.8517994551658631,1.2499504408789515
7.225173606904906,-0.795948722362518,1.17329181461334,0.138083634853363,1.2499504408789515
7.225779300423985,0.0758383870124817,-1.30315838069916,-0.6834080643653869,1.2499504408789515
7.226384993943065,1.05779639482498,-2.31385662288666,-0.870219587802887,1.2499504408789515
7.226990687462144,0.550052254199982,-0.630157892417908,0.157243791103363,1.2499504408789515
7.2275963809812245,-0.30257469892501804,1.68822101383209,0.688938127040863,1.2499504408789515
7.228202074500303,-1.09053612470627,2.26302570133209,0.621877580165863,1.2499504408789515
7.228807768019382,-0.37203026533126804,0.526636541175842,-0.0319627518653865,1.2499504408789515
7.229413461538462,0.6434580159187321,-1.60972088069916,-0.206799177646637,1.2499504408789515
7.2300191550575414,0.7632089924812321,-1.70791668148041,-0.8223191971778869,1.2499504408789515
7.23062484857662,-0.26425438642501803,0.112298162269592,-0.518151716709137,1.2499504408789515
7.2312305420957,-1.01629051923752,1.30741290836334,0.698518205165863,1.2499504408789515
7.231836235614779,0.0303330159187317,1.10623126773834,0.5141017012596131,1.2499504408789515
7.232441929133858,0.482991707324982,-0.115228693199158,0.456621232509613,1.2499504408789515
7.233047622652938,0.255464851856232,-0.948695490074158,-0.451091169834137,1.2499504408789515
7.233653316172017,-0.07983788251876829,-1.13071697444916,-0.793578962802887,1.2499504408789515
7.234259009691096,-0.465436027050018,-0.213424493980408,-0.30259995889663704,1.2499504408789515
7.234864703210176,-0.201983878612518,0.442810857582092,0.662592912197113,1.2499504408789515
7.235470396729255,-0.0055922770500183095,0.617647283363342,0.729653459072113,1.2499504408789515
7.236076090248334,-0.048702628612518305,0.749373357582092,0.358425431728363,1.2499504408789515
7.2366817837674144,-0.304969718456268,-0.0649332830429077,-0.0990232987403865,1.2499504408789515
7.237287477286493,-0.336104972362518,-0.891215021324158,-0.906144880771637,1.2499504408789515
7.237893170805572,0.36803076982498195,-1.4037492010116601,-0.968415388584137,1.2499504408789515
7.238498864324652,0.9045151448249821,-0.503221857261658,0.123713517665863,1.2499504408789515
7.239104557843731,-0.247489249706268,1.0128255060195899,0.847009416103363,1.2499504408789515
7.23971025136281,-0.901329581737518,1.88461261539459,0.818269181728363,1.2499504408789515
7.24031594488189,-0.8103188395500179,0.612857244300842,-0.0870482010841365,1.2499504408789515
7.240921638400969,0.255464851856232,-1.73665691585541,-1.1887571854591399,1.2499504408789515
7.241527331920048,1.1056967854499802,-1.93783855648041,-0.7648387284278869,1.2499504408789515
7.242133025439128,0.0614682698249817,-0.18228924007415798,0.33447523641586296,1.2499504408789515
7.242738718958207,-0.563631827831268,1.80318195133209,0.803899064540863,1.2499504408789515
7.2433444124772866,-1.07377098798752,1.91335284976959,0.667382951259613,1.2499504408789515
7.243950105996366,-0.235514152050018,0.0524226739883423,0.0949732832908635,1.2499504408789515
7.244555799515445,1.0410312581062302,-1.91867840023041,-0.848664412021637,1.2499504408789515
7.245161493034525,0.7632089924812321,-1.49715496273041,-0.9612303299903869,1.2499504408789515
7.245767186553604,-0.40316551923751803,0.548191716957092,-0.12776353311538702,1.2499504408789515
7.246372880072683,-0.623507316112518,1.4319539239883399,0.569187150478363,1.2499504408789515
7.246978573591763,-0.144503409862518,1.20203204898834,0.657802873134613,1.2499504408789515
7.247584267110842,0.329710457324982,-0.29485515804290796,0.233884416103363,1.2499504408789515
7.248189960629921,0.178824226856232,-1.06365642757416,-0.7839988846778869,1.2499504408789515
7.248795654149001,0.142898933887482,-0.982225763511658,-0.8247142167091369,1.2499504408789515
7.24940134766808,-0.30017967939376805,-0.0314030096054077,0.0590479903221135,1.2499504408789515
7.250007041187159,-0.113368155956268,0.6583626153945921,0.710493302822113,1.2499504408789515
7.250612734706239,0.272229988574982,0.564956853675842,0.741628556728363,1.2499504408789515
7.251218428225318,0.0782334065437317,0.694287908363342,0.597927384853363,1.2499504408789515
7.251824121744397,-0.405560538768768,-0.0625382635116577,-0.22835435342788699,1.2499504408789515
7.252429815263477,-0.154083487987518,-1.22172771663666,-0.997155622959137,1.2499504408789515
7.253035508782556,0.5859775471687321,-1.28160320491791,-0.6450877518653869,1.2499504408789515
7.253641202301635,0.6865683674812321,-0.369100763511658,0.42309095907211297,1.2499504408789515
7.254246895820715,-0.168453605175018,1.3505232599258399,1.20865736532211,1.2499504408789515
7.254852589339794,-0.886959464550018,1.64271564273834,0.5739771895408631,1.2499504408789515
7.255458282858873,-0.6714077067375179,0.109903142738342,-0.39361070108413704,1.2499504408789515
7.256063976377953,0.44706641435623196,-2.02884929866791,-1.15762193155289,1.2499504408789515
7.2566696698970325,0.9069101643562321,-2.2491910955429097,-1.02350083780289,1.2499504408789515
7.257275363416111,0.423116219043732,0.311084783363342,0.657802873134613,1.2499504408789515
7.257881056935191,-0.455855948925018,2.19117511539459,1.5343800215721102,1.2499504408789515
7.25848675045427,-1.04263573408127,1.77444171695709,0.667382951259613,1.2499504408789515
7.2590924439733495,-0.211563956737518,-0.261324884605408,-0.549286970615387,1.2499504408789515
7.259698137492429,1.0338461995124801,-2.04800945491791,-0.467856306552887,1.2499504408789515
7.260303831011508,0.6434580159187321,-1.28639324398041,-0.6019774003028869,1.2499504408789515
7.260909524530587,-0.824688956737518,1.0128255060195899,-0.29541490030288703,1.2499504408789515
7.261515218049667,-0.599557120800018,1.62355548648834,0.897304826259613,1.2499504408789515
7.262120911568746,-0.0894179606437683,1.0727009943008399,0.897304826259613,1.2499504408789515
7.262726605087826,0.32492041826248197,-0.579862482261658,0.322500138759613,1.2499504408789515
7.263332298606905,0.269834969043732,-1.51631511898041,-0.989970564365387,1.2499504408789515
7.263937992125984,-0.19240380048751798,-0.991805841636658,-0.7648387284278869,1.2499504408789515
7.264543685645064,-0.503756339550018,0.057212713050842294,0.0422828536033635,1.2499504408789515
7.265149379164143,0.0710483479499817,0.555376775550842,0.621877580165863,1.2499504408789515
7.265755072683222,0.111763679981232,0.701472966957092,0.9715504317283631,1.2499504408789515
7.266360766202302,-0.0606777262687683,0.612857244300842,0.348845353603363,1.2499504408789515
7.266966459721381,-0.44388085126876803,-0.436161310386658,-0.331340193271637,1.2499504408789515
7.26757215324046,-0.0247524333000183,-1.53547527523041,-1.26779282999039,0.379742223302976
7.26817784675954,0.760813972949982,-1.17143230648041,-0.554077009677887,0.379742223302976
7.268783540278619,0.681778328418732,0.258394353675842,0.957180314540863,0.379742223302976
7.269389233797698,-0.336104972362518,1.76486163883209,0.844614396572113,0.379742223302976
7.2699949273167785,-1.03545067548752,1.67864093570709,0.42548597860336296,0.379742223302976
7.270600620835857,-0.628297355175018,-0.129598810386658,-0.5421019120216369,0.379742223302976
7.271206314354936,0.818294441699982,-2.22763591976166,-1.14804185342789,0.379742223302976
7.271812007874016,0.952415535449982,-1.95699871273041,-0.19482407999038698,0.379742223302976
7.2724177013930955,0.09499854326248171,0.8595442560195921,0.8158741621971131,0.379742223302976
7.273023394912174,-0.6091371989250179,2.22710040836334,0.964365373134613,0.379742223302976
7.273629088431254,-1.2342372965812698,1.42237384586334,0.13089857625961301,0.379742223302976
7.274234781950333,-0.0343325114250183,-0.781044122886658,-0.510966658115387,0.379742223302976
7.274840475469413,0.995525887012482,-2.5318034002304097,-0.954045271396637,0.379742223302976
7.275446168988492,0.47820166826248195,-0.967855646324158,-0.597187361240387,0.379742223302976
7.276051862507571,-0.446275870800018,1.22837726383209,0.332080216884613,0.379742223302976
7.27665755602665,-0.41274559736251804,1.61397540836334,0.717678361415863,0.379742223302976
7.27726324954573,-0.139713370800018,0.763743474769592,0.6721729903221131,0.379742223302976
7.277868943064809,0.600347664356232,-0.615787775230408,-0.0990232987403865,0.379742223302976
7.278474636583889,0.300970222949982,-1.45404461116791,-0.918119978427887,0.379742223302976
7.279080330102968,-0.158873527050018,-0.591837579917908,-0.630717634677887,0.379742223302976
7.279686023622047,-0.266649405956268,0.416465642738342,0.221909318447113,0.379742223302976
7.280291717141127,0.332105476856232,0.591302068519592,0.803899064540863,0.379742223302976
7.280897410660206,0.243489754199982,0.8787044122695921,0.746418595790863,0.379742223302976
7.281503104179285,-0.32412987470626803,0.378145330238342,-0.00561753702163653,0.379742223302976
7.282108797698365,-0.357660148143768,-0.673268243980408,-0.7001732010841369,0.379742223302976
7.282714491217444,0.0542832112312317,-1.60972088069916,-1.16480699014664,0.379742223302976
7.283320184736523,0.820689461231232,-0.893610040855408,-0.027172712802886502,0.379742223302976
7.283925878255603,0.471016609668732,0.39491046695709203,1.06256117391586,0.379742223302976
7.284531571774682,-0.522916495800018,2.02112872867584,0.9308350996971131,0.379742223302976
7.285137265293761,-1.1695717692375198,1.58523517398834,0.377585587978363,0.379742223302976
7.2857429588128415,-0.33131493330001804,-0.654108087730408,-0.7241233963966369,0.379742223302976
7.28634865233192,1.05779639482498,-2.3114616033554096,-1.1600169510841398,0.379742223302976
7.286954345850999,0.9236753010749821,-1.68396648616791,-0.175663923740387,0.379742223302976
7.287560039370079,-0.0894179606437683,1.1708967950820899,0.9715504317283631,0.379742223302976
7.2881657328891585,-0.985155265331268,2.38996173648834,0.722468400478363,0.379742223302976
7.288771426408237,-0.8893544840812679,1.27627765445709,-0.06549302530288649,0.379742223302976
7.289377119927317,0.243489754199982,-1.30794841976166,0.109343400478363,0.379742223302976
7.289982813446396,1.07935157060623,-2.32343670101166,-0.889379744052887,0.379742223302976
7.2905885069654754,0.181219246387482,-0.646923029136658,-0.6402977128028869,0.379742223302976
7.291194200484555,-0.827083976268768,1.42955890445709,0.590742326259613,0.379742223302976
7.291799894003634,-0.345685050487518,1.66906085758209,0.679358048915863,0.379742223302976
7.292405587522714,0.0566782307624817,0.318269841957092,0.447041154384613,0.379742223302976
7.293011281041793,0.37521582841873197,-0.970250665855408,-0.43432603311538703,0.379742223302976
7.293616974560872,-0.10378807783126799,-1.6815714666366601,-1.22228745889664,0.379742223302976
7.294222668079951,-0.30257469892501804,-0.325990411949158,-0.527731794834137,0.379742223302976
7.294828361599031,-0.0055922770500183095,0.5984871271133421,0.6146925215721131,0.379742223302976
7.29543405511811,0.33689551591873196,0.761348455238342,0.8326392989158631,0.379742223302976
7.29603974863719,-0.237909171581268,0.8787044122695921,0.468596330165863,0.379742223302976
7.296645442156269,-0.28101952314376805,-0.117623712730408,-0.00561753702163653,0.379742223302976
7.297251135675348,-0.285809562206268,-0.867264826011658,-0.676223005771637,0.379742223302976
7.297856829194428,0.0854184651374817,-1.32950359554291,-1.12409165811539,0.379742223302976
7.298462522713507,1.01708106279373,-1.00378093929291,0.217119279384613,0.379742223302976
7.299068216232586,0.200379402637482,0.775718572425842,1.2134474043846102,0.379742223302976
7.299673909751666,-0.714518058300018,2.06663409976959,1.1463868575096101,0.379742223302976
7.300279603270745,-1.1743618083000198,1.22358722476959,0.0734181075096135,0.379742223302976
7.300885296789824,-0.314549796581268,-0.987015802574158,-1.21749741983414,0.379742223302976
7.3014909903089045,0.8661948323249821,-2.45995281429291,-1.2414476151466398,0.379742223302976
7.302096683827983,1.20149756669998,-0.893610040855408,0.152453752040863,0.379742223302976
7.302702377347062,-0.235514152050018,1.60679034976959,1.29008802938461,0.379742223302976
7.303308070866142,-1.3539882731437698,2.25105060367584,0.878144670009613,0.379742223302976
7.303913764385221,-1.00431542158127,0.770928533363342,-0.285834822177887,0.379742223302976
7.3045194579043,0.502151863574982,-1.67438640804291,-0.736098494052887,0.379742223302976
7.30512515142338,1.01708106279373,-2.11746502132416,-1.1288816971778899,0.379742223302976
7.305730844942459,0.0279379963874817,-0.208634454917908,-0.398400740146637,0.379742223302976
7.306336538461538,-0.599557120800018,1.69780109195709,0.629062638759613,0.379742223302976
7.306942231980618,-0.388795402050018,1.58763019351959,0.6745680098533631,0.379742223302976
7.307547925499697,0.142898933887482,-0.0122428533554077,0.49494154500961296,0.379742223302976
7.308153619018777,0.202774422168732,-1.27920818538666,-0.578027204990387,0.379742223302976
7.308759312537856,0.341685554981232,-1.5402653142929101,-0.795973982334137,0.379742223302976
7.309365006056935,-0.357660148143768,-0.33317547054290797,-0.44390611124038704,0.379742223302976
7.309970699576015,0.118948738574982,0.5002913263320921,0.5572120528221131,0.379742223302976
7.310576393095094,0.514126961231232,0.694287908363342,1.2397926192283601,0.379742223302976
7.311182086614173,-0.29059960126876805,0.8787044122695921,0.528471818447113,0.379742223302976
7.311787780133253,-0.32412987470626803,-0.0960685369491577,-0.20440415811538698,0.379742223302976
7.312393473652332,-0.0966030192375183,-1.24567791194916,-0.810344099521637,0.379742223302976
7.312999167171411,0.27462500810623197,-1.45883465023041,-0.930095076084137,0.379742223302976
7.313604860690491,0.911700203418732,-0.905585138511658,0.255439591884613,0.379742223302976
7.31421055420957,0.31773535966873195,1.16131671695709,1.36912367391586,0.379742223302976
7.314816247728649,-0.898934562206268,2.0857942560195903,0.882934709072113,0.379742223302976
7.315421941247729,-1.22226219892502,0.814038884925842,-0.628322615146637,0.379742223302976
7.316027634766808,0.16205909013748201,-1.35345379085541,-1.2151024003028899,0.379742223302976
7.316633328285887,1.21586768388748,-2.52940838069916,-0.769628767490387,0.379742223302976
7.317239021804967,0.954810554981232,-0.5175919744491579,0.46380629110336297,0.379742223302976
7.317844715324046,-0.37203026533126804,1.95167316226959,1.49845472860336,0.379742223302976
7.318450408843125,-1.35159325361252,2.08339923648834,0.44464613485336296,0.379742223302976
7.319056102362205,-0.858219230175018,0.557771795082092,-0.0583079667091365,0.379742223302976
7.319661795881284,0.5284970784187321,-1.92586345882416,-0.247514509677887,0.379742223302976
7.320267489400363,0.909305183887482,-1.90191326351166,-0.728913435459137,0.379742223302976
7.320873182919443,-0.158873527050018,0.244024236488342,0.0159376387596135,0.379742223302976
7.321478876438523,-0.585187003612518,1.77204669742584,0.909279923915863,0.379742223302976
7.322084569957601,-0.477411124706268,1.54930988101959,0.899699845790863,0.379742223302976
7.322690263476681,0.121343758106232,0.00452228336334228,0.207539201259613,0.379742223302976
7.32329595699576,0.181219246387482,-1.28878826351166,-0.9013548417091369,0.379742223302976
7.3239016505148395,0.243489754199982,-1.3606388494491601,-1.04984605264664,0.379742223302976
7.324507344033919,-0.345685050487518,0.07876788883209229,0.178798966884613,0.379742223302976
7.325113037552998,0.0542832112312317,0.842779119300842,0.890119767665863,0.379742223302976
7.325718731072078,0.238699715137482,0.720633123207092,0.9140699629783631,0.379742223302976
7.326324424591157,-0.398375480175018,0.792483709144592,0.456621232509613,0.379742223302976
7.326930118110236,-0.35287010908126804,-0.321200372886658,-0.417560896396637,0.379742223302976
7.327535811629316,0.00398780107498169,-1.32950359554291,-1.3013231034278898,0.379742223302976
7.328141505148395,0.411141121387482,-1.33429363460541,-0.791183943271637,0.379742223302976
7.328747198667474,0.839849617481232,-0.606207697105408,0.396745744228363,0.379742223302976
7.329352892186554,0.36563575029373196,1.71696124820709,1.06974623250961,0.379742223302976
7.329958585705633,-0.884564445018768,2.0522639825820903,0.509311662197113,0.379742223302976
7.330564279224712,-1.0617958903312699,0.251209295082092,-0.7025682206153869,0.379742223302976
7.331169972743792,0.28899512529373195,-1.78455730648041,-1.3899388260841399,0.379742223302976
7.331775666262871,1.32124854326248,-2.42642254085541,-0.707358259677887,0.379742223302976
7.33238135978195,0.894935066699982,-0.134388849449158,0.779948869228363,0.379742223302976
7.33298705330103,-0.33131493330001804,2.3252962091445903,1.1463868575096101,0.379742223302976
7.333592746820109,-1.27734764814377,1.89658771305084,0.538051896572113,0.379742223302976
7.334198440339188,-0.702542960643768,-0.00745281429290772,-0.515756697177887,0.379742223302976
7.334804133858269,0.6051377034187321,-2.1988956853866597,-0.949255232334137,0.379742223302976
7.335409827377347,0.7871591877937321,-1.84203777523041,-0.676223005771637,0.379742223302976
7.336015520896426,-0.144503409862518,0.713448064613342,0.0279127364158635,0.379742223302976
7.336621214415506,-0.640272452831268,1.94209308414459,1.0386109786033602,0.379742223302976
7.3372269079345855,-0.201983878612518,1.11581134586334,0.758393693447113,0.379742223302976
7.337832601453664,0.138108894824982,-0.349940607261658,0.12610853719711299,0.379742223302976
7.338438294972744,0.111763679981232,-1.82048259944916,-0.9803904862403869,0.379742223302976
7.339043988491823,0.0494931721687317,-1.38458904476166,-1.07619126749039,0.379742223302976
7.3396496820109025,-0.146898429393768,0.164988591957092,0.118923478603363,0.379742223302976
7.340255375529982,0.248279793262482,0.763743474769592,0.705703263759613,0.379742223302976
7.340861069049061,0.140503914356232,0.967320134925842,0.9715504317283631,0.379742223302976
7.34146676256814,-0.319339835643768,0.591302068519592,0.272204728603363,0.379742223302976
7.34207245608722,-0.578001945018768,-0.704403497886658,-0.8654295487403869,0.379742223302976
7.342678149606299,-0.0151723551750183,-1.47559978694916,-1.24384263467789,0.379742223302976
7.343283843125379,0.753628914356232,-1.10916179866791,-0.276254744052887,0.379742223302976
7.343889536644458,0.8230844807624821,0.009312322425842281,0.767973771572113,0.379742223302976
7.344495230163537,-0.27383446455001803,1.95406818180084,1.4577393965721102,0.379742223302976
7.345100923682617,-1.13604149580002,1.71935626773834,0.686543107509613,0.379742223302976
7.345706617201696,-0.925279777050018,-0.0673283025741577,-0.671432966709137,0.379742223302976
7.346312310720775,0.403956062793732,-2.0432194158554102,-1.43065415811539,0.379742223302976
7.346918004239855,1.35956885576248,-2.37373211116791,-0.647482771396637,0.379742223302976
7.347523697758934,0.674593269824982,0.564956853675842,1.08890638875961,0.379742223302976
7.348129391278013,-0.637877433300018,2.87854572086334,1.0386109786033602,0.379742223302976
7.348735084797093,-1.39709862470627,1.65708575992584,-0.110998396396637,0.379742223302976
7.349340778316172,-0.36963524580001805,-0.546332208824158,-0.570842146396637,0.379742223302976
7.349946471835251,0.890145027637482,-2.4886930486679097,-0.496596540927887,0.379742223302976
7.3505521653543315,0.6266928791999821,-1.59774578304291,-0.34331529092788704,0.379742223302976
7.35115785887341,-0.34329003095626803,1.08946613101959,0.308130021572113,0.379742223302976
7.351763552392489,-0.664222648143768,1.94448810367584,0.779948869228363,0.379742223302976
7.352369245911569,-0.41274559736251804,0.845174138832092,0.538051896572113,0.379742223302976
7.3529749394306485,-0.0127773356437683,-0.536752130699158,-0.47264634561538704,0.379742223302976
7.353580632949727,0.102183601856232,-1.81569256038666,-1.36359361124039,0.379742223302976
7.354186326468807,-0.122948234081268,-0.979830743980408,-0.590002302646637,0.379742223302976
7.354792019987886,-0.0031972575187683102,0.5002913263320921,0.39435072469711296,0.379742223302976
7.3553977135069655,0.35845069169998195,0.627227361488342,0.9907105879783631,0.379742223302976
7.356003407026045,0.0111728596687317,1.09665118961334,0.7320484786033631,0.379742223302976
7.356609100545124,-0.39119042158126804,0.493106267738342,-0.0175926346778865,0.379742223302976
7.357214794064203,-0.38161034345626804,-0.907980158042908,-0.872614607334137,0.379742223302976
7.357820487583283,0.09978858232498171,-1.4037492010116601,-1.36359361124039,0.379742223302976
7.358426181102362,0.981155769824982,-1.14748211116791,-0.182848982334137,0.379742223302976
7.359031874621442,0.736863777637482,0.35419513492584204,0.909279923915863,0.379742223302976
7.359637568140521,-0.38400536298751803,2.1289046075820903,0.823059220790863,0.379742223302976
7.3602432616596,-1.21747215986252,1.38405353336334,0.147663712978363,0.379742223302976
7.36084895517868,-0.661827628612518,-0.610997736167908,-1.0737962479591399,0.379742223302976
7.361454648697759,0.7033335041999821,-2.57012371273041,-1.38275376749039,0.379742223302976
7.3620603422168385,1.4266294026374802,-1.8611979314804101,-0.225959333896637,0.379742223302976
7.362666035735918,0.535682137012482,1.12060138492584,1.0984864668846102,0.379742223302976
7.363271729254997,-0.7504433512687679,2.6917341974258404,1.14399183797836,0.379742223302976
7.363877422774076,-1.4593691325187699,1.26190753726959,-0.00322251749038653,0.379742223302976
7.364483116293156,-0.247489249706268,-0.8768449041366579,-0.757653669834137,0.379742223302976
7.365088809812235,1.04821631669998,-2.3881022283554096,-0.853454451084137,0.379742223302976
7.365694503331314,0.521312019824982,-1.33908367366791,-0.16847886514663699,0.379742223302976
7.3663001968503945,-0.477411124706268,1.53493976383209,0.6170875411033631,0.379742223302976
7.366905890369473,-0.7336782145500179,2.0594490411758404,0.839824357509613,0.379742223302976
7.367511583888552,-0.364845206737518,0.672732732582092,0.339265275478363,0.21439988614117927
7.368117277407632,0.114158699512482,-0.8385245916366579,-0.503781599521637,0.21439988614117927
7.3687229709267115,0.300970222949982,-1.85880291194916,-1.1815721268653898,0.21439988614117927
7.36932866444579,-0.417535636425018,-0.781044122886658,-0.609162458896637,0.21439988614117927
7.36993435796487,0.0806284260749817,0.603277166175842,0.7152833418846131,0.21439988614117927
7.370540051483949,0.36803076982498195,0.6583626153945921,1.3260133223533601,0.21439988614117927
7.371145745003028,-0.237909171581268,1.24274738101959,0.538051896572113,0.21439988614117927
7.371751438522108,-0.407955558300018,0.301504705238342,-0.290624861240387,0.21439988614117927
7.372357132041187,-0.199588859081268,-1.35584881038666,-0.989970564365387,0.21439988614117927
7.372962825560267,0.195589363574982,-1.2241227361679101,-1.2486326737403899,0.21439988614117927
7.373568519079346,1.14641211748123,-0.939115411949158,0.267414689540863,0.21439988614117927
7.374174212598425,0.569212410449982,0.823618963050842,1.2350025801658602,0.21439988614117927
7.374779906117504,-0.8725893473625179,2.0786091974258403,1.10806654500961,0.21439988614117927
7.3753855996365845,-1.26058251142502,0.976900213050842,0.00875258016586347,0.21439988614117927
7.375991293155663,-0.599557120800018,-0.922350275230408,-1.25102769327164,0.21439988614117927
7.376596986674743,0.990735847949982,-2.38091716976166,-1.40909898233414,0.21439988614117927
7.377202680193822,1.34759375810623,-1.48996990413666,0.142873673915863,0.21439988614117927
7.377808373712901,-0.206773917675018,1.54930988101959,1.6253907637596101,0.21439988614117927
7.378414067231981,-0.963600089550018,2.70849933414459,1.4745045332908602,0.21439988614117927
7.37901976075106,-1.4042836833000198,0.787693670082092,-0.14931870889663698,0.21439988614117927
7.379625454270139,-0.0223574137687683,-1.42769939632416,-0.5253367753028869,0.21439988614117927
7.380231147789219,1.00750098466873,-2.3186466619491597,-0.549286970615387,0.21439988614117927
7.380836841308298,0.5261020588874821,-0.524777033042908,-0.225959333896637,0.21439988614117927
7.381442534827377,-0.319339835643768,1.78641681461334,0.669777970790863,0.21439988614117927
7.3820482283464575,-0.738468253612518,1.93490802555084,0.770368791103363,0.21439988614117927
7.382653921865536,-0.304969718456268,0.39491046695709203,0.420695939540863,0.21439988614117927
7.383259615384615,0.09739356279373171,-1.18340740413666,-0.7408885331153869,0.21439988614117927
7.383865308903695,0.42790625810623195,-1.89712322444916,-1.23905259561539,0.21439988614117927
7.384471002422774,-0.218749015331268,-0.48406170101165796,-0.48222642374038704,0.21439988614117927
7.385076695941853,0.207564461231232,0.773323552894592,0.729653459072113,0.21439988614117927
7.385682389460933,0.372820808887482,0.893074529457092,0.945205216884613,0.21439988614117927
7.386288082980012,-0.376820304393768,1.02719562320709,0.40393080282211297,0.21439988614117927
7.386893776499091,-0.700147941112518,-0.184684259605408,-0.40319077920913704,0.21439988614117927
7.387499470018171,-0.434300773143768,-1.38698406429291,-1.3564085526466398,0.21439988614117927
7.38810516353725,0.150083992481232,-1.4205143377304101,-0.788788923740387,0.21439988614117927
7.38871085705633,1.2901132893562302,-0.651713068199158,0.506916642665863,0.21439988614117927
7.389316550575409,0.183614265918732,1.22598224430084,1.25176771688461,0.21439988614117927
7.389922244094488,-1.0450307536125198,2.26063068180084,1.22063246297836,0.21439988614117927
7.390527937613568,-1.1432265543937699,0.842779119300842,-0.460671247959137,0.21439988614117927
7.391133631132647,-0.47262108564376804,-1.39656414241791,-1.5528001542091399,0.21439988614117927
7.391739324651726,1.23742285966873,-2.44318767757416,-0.934885115146637,0.21439988614117927
7.392345018170806,1.66852637529373,-1.06365642757416,0.47338636922836297,0.21439988614117927
7.392950711689885,-0.163663566112518,2.1959651544570904,1.18710218954086,0.21439988614117927
7.393556405208964,-1.3108779215812698,2.4354671075820904,0.961970353603363,0.21439988614117927
7.394162098728044,-1.3060878825187698,0.452390935707092,-0.487016462802887,0.21439988614117927
7.394767792247123,0.250674812793732,-1.70552166194916,-0.937280134677887,0.21439988614117927
7.395373485766202,1.12964698076248,-2.02645427913666,-0.6426927323341369,0.21439988614117927
7.395979179285282,0.590767586231232,-0.225399591636658,-0.0175926346778865,0.21439988614117927
7.396584872804361,-0.26185936689376804,1.89898273258209,0.899699845790863,0.21439988614117927
7.39719056632344,-0.47022606611251805,1.67864093570709,0.839824357509613,0.21439988614117927
7.39779625984252,-0.44388085126876803,-0.029007990074157698,-0.0104075760841365,0.21439988614117927
7.398401953361599,-0.051097648143768305,-1.37021892757416,-1.12409165811539,0.21439988614117927
7.399007646880678,0.413536140918732,-1.58816570491791,-1.12409165811539,0.21439988614117927
7.399613340399758,-0.163663566112518,-0.19665935726165798,-0.266674665927887,0.21439988614117927
7.400219033918837,0.38719092607498196,0.689497869300842,0.978735490322113,0.21439988614117927
7.400824727437916,0.480596687793732,1.0727009943008399,1.00029066610336,0.21439988614117927
7.401430420956996,-0.31215477705001804,0.993665349769592,0.183589005947113,0.21439988614117927
7.402036114476076,-0.6498525309562679,-0.412211115074158,-0.570842146396637,0.21439988614117927
7.402641807995154,-0.237909171581268,-1.51631511898041,-1.3779637284278898,0.21439988614117927
7.403247501514234,0.42790625810623195,-1.29597332210541,-0.647482771396637,0.21439988614117927
7.403853195033313,1.3883090901374802,-0.496036798667908,0.629062638759613,0.21439988614117927
7.4044588885523925,0.32492041826248197,1.42716388492584,1.2613477950096101,0.21439988614117927
7.405064582071472,-1.26537255048752,1.99957355289459,0.605112443447113,0.21439988614117927
7.405670275590551,-1.3827285075187699,0.5793269708633421,-0.652272810459137,0.21439988614117927
7.406275969109631,-0.163663566112518,-1.61451091976166,-1.6605760331153898,0.21439988614117927
7.40688166262871,1.0937216877937301,-2.47671795101166,-0.7839988846778869,0.21439988614117927
7.407487356147789,1.40267920732498,-0.541542169761658,1.07932631063461,0.21439988614117927
7.408093049666869,-0.187613761425018,2.40912189273834,1.6541309981346102,0.21439988614117927
7.408698743185948,-1.4090737223625198,2.27979083805084,0.48536146688461296,0.21439988614117927
7.409304436705027,-1.0330556559562698,0.263184392738342,-0.30259995889663704,0.21439988614117927
7.409910130224107,0.411141121387482,-2.0527994939804097,-0.726518415927887,0.21439988614117927
7.410515823743186,1.21826270341873,-2.35696697444916,-0.8414793534278869,0.21439988614117927
7.411121517262265,0.554842293262482,0.428440740394592,0.34405531454086297,0.21439988614117927
7.411727210781345,-0.659432609081268,2.1456697443008403,0.983525529384613,0.21439988614117927
7.412332904300424,-0.47262108564376804,1.18047687320709,0.6146925215721131,0.21439988614117927
7.412938597819503,0.0734433674812317,0.0476326349258423,-0.388820662021637,0.21439988614117927
7.413544291338583,0.260254890918732,-1.6815714666366601,-1.3085081620216399,0.21439988614117927
7.414149984857662,0.33689551591873196,-1.59295574398041,-1.2701878495216399,0.21439988614117927
7.414755678376741,0.0231479573249817,0.133853338050842,0.260229630947113,0.21439988614117927
7.415361371895822,0.339290535449982,0.6583626153945921,0.9356251387596131,0.21439988614117927
7.4159670654149,0.351265633106232,1.10623126773834,0.590742326259613,0.21439988614117927
7.416572758933979,-0.6714077067375179,0.768533513832092,-0.000827497959136527,0.21439988614117927
7.417178452453059,-0.647457511425018,-0.836129572105408,-0.8055540604591369,0.21439988614117927
7.4177841459721385,-0.0271474528312683,-1.25046795101166,-1.3731736893653899,0.21439988614117927
7.418389839491217,0.770394051074982,-1.14987713069916,-0.35529038858413703,0.21439988614117927
7.418995533010297,1.43860450029373,0.0141023614883423,0.926045060634613,0.21439988614117927
7.419601226529376,-0.07504784345626829,1.90377277164459,1.45534437704086,0.21439988614117927
7.4202069200484555,-1.2126821208000198,1.84389728336334,0.439856095790863,0.21439988614117927
7.420812613567535,-1.2246572184562698,0.07397784976959229,-0.9803904862403869,0.21439988614117927
7.421418307086614,-0.0295424723625183,-1.91628338069916,-1.50489976358414,0.21439988614117927
7.422024000605693,1.60865088701248,-2.16776043148041,-0.336130232334137,0.21439988614117927
7.422629694124773,1.24460791826248,-0.0266129705429077,1.37391371297836,0.21439988614117927
7.423235387643852,-0.49178124189376804,2.74921466617584,1.30685316610336,0.21439988614117927
7.423841081162932,-1.40667870283127,1.74570148258209,0.31531508016586296,0.21439988614117927
7.424446774682011,-1.1144863200187698,-0.175104181480408,-1.02110581827164,0.21439988614117927
7.42505246820109,0.430301277637482,-2.35696697444916,-1.44502427530289,0.21439988614117927
7.42565816172017,0.9859458088874821,-2.1294401189804097,-0.6019774003028869,0.21439988614117927
7.426263855239249,0.197984383106232,0.952950017738342,0.518891740322113,0.21439988614117927
7.426869548758328,-0.542076652050018,2.36601154117584,1.11046156454086,0.21439988614117927
7.427475242277408,-0.40316551923751803,1.00803546695709,0.729653459072113,0.21439988614117927
7.428080935796487,-0.168453605175018,-0.457716486167908,-0.5804222245216369,0.21439988614117927
7.428686629315566,0.116553719043732,-1.78934734554291,-1.42586411905289,0.21439988614117927
7.429292322834646,0.332105476856232,-1.32471355648041,-0.736098494052887,0.21439988614117927
7.429898016353725,0.33450049638748197,0.452390935707092,0.36321547079086297,0.21439988614117927
7.430503709872804,0.231514656543732,0.840384099769592,0.887724748134613,0.21439988614117927
7.4311094033918845,-0.120553214550018,1.18766193180084,0.7344434981346131,0.21439988614117927
7.431715096910963,-0.736073234081268,0.430835759925842,-0.07267808389663649,0.21439988614117927
7.432320790430042,-0.556446769237518,-1.12592693538666,-1.00194566202164,0.21439988614117927
7.432926483949122,-0.08462792158126829,-1.20975261898041,-1.1288816971778899,0.21439988614117927
7.4335321774682015,1.05300635576248,-0.905585138511658,0.16442884969711302,0.21439988614117927
7.43413787098728,1.15599219560623,0.188938787269592,0.8541944746971131,0.21439988614117927
7.43474356450636,-0.07744286298751829,2.1384846857070903,1.12962172079086,0.21439988614117927
7.435349258025439,-1.34680321455002,1.58284015445709,0.310525041103363,0.21439988614117927
7.4359549515445185,-1.2126821208000198,-0.472086603355408,-1.45699937295914,0.21439988614117927
7.436560645063598,0.576397469043732,-2.21087078304291,-1.45220933389664,0.21439988614117927
7.437166338582677,1.71882178544998,-2.03603435726166,-0.10141831827163701,0.21439988614117927
7.437772032101756,1.00989600419998,0.821223943519592,1.1368067793846102,0.21439988614117927
7.438377725620836,-0.774393546581268,2.7947200372695904,1.4792945723533601,0.21439988614117927
7.438983419139915,-1.5455898356437698,1.52056964664459,-0.278649763584137,0.21439988614117927
7.439589112658994,-0.635482413768768,-0.601417658042908,-0.707358259677887,0.21439988614117927
7.440194806178074,0.7057285237312321,-2.49587810726166,-0.32415513467788704,0.21439988614117927
7.440800499697153,1.0937216877937301,-1.51392009944916,-0.506176619052887,0.21439988614117927
7.441406193216233,0.260254890918732,1.3936336114883399,0.609902482509613,0.21439988614117927
7.442011886735312,-0.427115714550018,2.15764484195709,1.06974623250961,0.21439988614117927
7.4426175802543915,-0.494176261425018,0.902654607582092,0.40632582235336295,0.21439988614117927
7.443223273773471,-0.230724112987518,-0.498431818199158,-0.609162458896637,0.21439988614117927
7.44382896729255,0.27462500810623197,-1.8995182439804101,-1.34922349405289,0.21439988614117927
7.444434660811629,0.111763679981232,-1.09239666194916,-0.496596540927887,0.21439988614117927
7.445040354330709,0.382400887012482,0.746978338050842,0.8517994551658631,0.21439988614117927
7.445646047849788,0.35845069169998195,1.13736652164459,1.05298109579086,0.21439988614117927
7.446251741368867,-0.139713370800018,1.1325764825820899,0.487756486415863,0.21439988614117927
7.4468574348879475,-0.678592765331268,0.184148748207092,-0.573237165927887,0.21439988614117927
7.447463128407026,-0.25467430830001797,-1.43488445491791,-1.40909898233414,0.21439988614117927
7.448068821926105,0.037518074512481694,-1.29597332210541,-1.0785862870216398,0.21439988614117927
7.448674515445185,1.34280371904373,-0.836129572105408,0.276994767665863,0.21439988614117927
7.4492802089642645,0.935650398731232,0.584117009925842,1.1631519942283601,0.21439988614117927
7.449885902483343,-0.587582023143768,2.17680499820709,1.3595435957908601,0.21439988614117927
7.450491596002423,-1.37554344892502,1.0727009943008399,-0.07267808389663649,0.21439988614117927
7.451097289521502,-1.1144863200187698,-0.802599298667908,-1.67973618936539,0.21439988614117927
7.451702983040581,0.530892097949982,-2.20129070491791,-1.46897447061539,0.21439988614117927
7.452308676559661,1.8194126057624802,-1.82766765804291,0.202749162197113,0.21439988614117927
7.45291437007874,0.736863777637482,1.30262286930084,1.5391700606346101,0.21439988614117927
7.45352006359782,-0.795948722362518,2.77316486148834,1.16075697469711,0.21439988614117927
7.454125757116899,-1.49529442548752,1.20921710758209,-0.43193101358413705,0.21439988614117927
7.454731450635978,-0.654642570018768,-0.998990900230408,-0.997155622959137,0.21439988614117927
7.455337144155058,0.835059578418732,-2.34020183773041,-0.8055540604591369,0.21439988614117927
7.4559428376741375,0.8254795002937321,-0.884029962730408,-0.0319627518653865,0.21439988614117927
7.456548531193216,-0.0343325114250183,1.6115803888320899,0.827849259853363,0.21439988614117927
7.457154224712296,-0.498966300487518,1.91814288883209,1.11285658407211,0.21439988614117927
7.457759918231375,-0.628297355175018,0.725423162269592,0.43506605672836296,0.21439988614117927
7.458365611750454,-0.415140616893768,-0.828944513511658,-1.03308091592789,0.21439988614117927
7.458971305269534,0.272229988574982,-1.97855388851166,-1.38754380655289,0.21439988614117927
7.459576998788613,0.111763679981232,-0.675663263511658,-0.178058943271637,0.21439988614117927
7.460182692307692,0.5644223713874821,0.881099431800842,1.01945082235336,0.21439988614117927
7.460788385826772,0.463831551074982,0.986480291175842,1.0649561934471101,0.21439988614117927
7.461394079345851,-0.266649405956268,0.8595442560195921,0.34405531454086297,0.21439988614117927
7.46199977286493,-0.762418448925018,-0.105648615074158,-0.6426927323341369,0.21439988614117927
7.4626054663840105,-0.221144034862518,-1.60972088069916,-1.2797679276466398,0.21439988614117927
7.463211159903089,0.33450049638748197,-1.24328289241791,-0.613952497959137,0.21439988614117927
7.463816853422168,1.58709571123123,-0.5990226385116579,0.45422621297836296,0.21439988614117927
7.464422546941248,0.940440437793732,1.04396075992584,1.1966822676658602,0.21439988614117927
7.465028240460327,-0.7288881754875179,2.20315021305084,1.01226576375961,0.21439988614117927
7.465633933979406,-1.66773583173752,0.713448064613342,-0.633112654209137,0.21439988614117927
7.466239627498486,-0.664222648143768,-1.12592693538666,-1.82822740030289,0.21439988614117927
7.466845321017565,1.1368320393562301,-2.04800945491791,-1.2198924393653898,0.21439988614117927
7.467451014536644,1.77151221513748,-1.22891277523041,0.597927384853363,1.3720959256555947
7.468056708055724,0.40635108232498196,1.8127620294570899,1.52958998250961,1.3720959256555947
7.468662401574803,-0.9923403239250179,2.58635333805084,0.8517994551658631,1.3720959256555947
7.469268095093883,-1.50008446455002,0.737398259925842,-0.798369001865387,1.3720959256555947
7.469873788612962,-0.6522475504875179,-1.40135418148041,-0.817529158115387,1.3720959256555947
7.470479482132041,1.09611670732498,-2.1893156072616597,-0.678618025302887,1.3720959256555947
7.471085175651121,1.0338461995124801,-0.431371271324158,0.221909318447113,1.3720959256555947
7.4716908691702,0.279415047168732,1.82473712711334,0.882934709072113,1.3720959256555947
7.472296562689279,-0.230724112987518,1.6930110528945899,0.9523902754783631,1.3720959256555947
7.472902256208359,-0.5133364176750179,0.469156072425842,-0.0990232987403865,1.3720959256555947
7.473507949727438,-0.6522475504875179,-1.31034343929291,-1.20073228311539,1.3720959256555947
7.474113643246517,0.229119637012482,-1.97855388851166,-1.3300633378028899,1.3720959256555947
7.474719336765597,0.609927742481232,-0.258929865074158,0.0207276778221135,1.3720959256555947
7.475325030284676,0.260254890918732,0.744583318519592,1.19907728719711,1.3720959256555947
7.475930723803755,0.281810066699982,1.15892169742584,0.9955006270408631,1.3720959256555947
7.476536417322835,-0.475016105175018,1.12778644351959,0.21951429891586302,1.3720959256555947
7.477142110841914,-1.1001162028312699,-0.524777033042908,-1.1815721268653898,1.3720959256555947
7.477747804360993,-0.503756339550018,-1.76539715023041,-1.3779637284278898,1.3720959256555947
7.478353497880073,0.5835825276374821,-1.17143230648041,-0.5444969315528869,1.3720959256555947
7.478959191399152,1.34759375810623,-0.479271661949158,0.657802873134613,1.3720959256555947
7.479564884918231,0.5452622151374821,1.39123859195709,1.3763087325096102,1.3720959256555947
7.480170578437311,-1.17675682783127,1.94209308414459,0.7751588301658631,1.3720959256555947
7.48077627195639,-1.5887001872062698,0.40449054508209203,-1.16480699014664,1.3720959256555947
7.481381965475469,-0.44388085126876803,-1.73186687679291,-1.90965806436539,1.3720959256555947
7.481987658994549,0.930860359668732,-2.2946964666366596,-0.836689314365387,1.3720959256555947
7.482593352513629,1.8888681721687302,-0.553517267417908,1.05058607625961,1.3720959256555947
7.483199046032707,-0.0295424723625183,2.23428546695709,1.4146290450096102,1.3720959256555947
7.483804739551787,-1.5503798747062698,2.1959651544570904,0.492546525478363,1.3720959256555947
7.484410433070866,-1.46176415205002,0.174568670082092,-0.8223191971778869,1.3720959256555947
7.4850161265899455,-0.314549796581268,-1.59774578304291,-1.43065415811539,1.3720959256555947
7.485621820109025,1.0003159260749799,-2.46234783382416,-0.47504136514663703,1.3720959256555947
7.486227513628104,0.9835507893562321,-0.175104181480408,0.6362476973533631,1.3720959256555947
7.486833207147184,-0.199588859081268,2.1959651544570904,1.00747572469711,1.3720959256555947
7.487438900666263,-0.477411124706268,1.23795734195709,0.868564591884613,1.3720959256555947
7.488044594185342,-0.561236808300018,0.179358709144592,-0.479831404209137,1.3720959256555947
7.488650287704422,-0.41274559736251804,-1.4205143377304101,-1.4378392167091398,1.3720959256555947
7.489255981223501,0.420721199512482,-1.77018718929291,-1.11451157999039,1.3720959256555947
7.48986167474258,0.44706641435623196,0.279949529457092,0.133293595790863,1.3720959256555947
7.49046736826166,0.48538672685623196,0.9792952325820921,0.945205216884613,1.3720959256555947
7.491073061780739,0.44706641435623196,1.0343806818008399,0.820664201259613,1.3720959256555947
7.491678755299818,-0.688172843456268,0.816433904457092,0.0925782637596135,1.3720959256555947
7.492284448818898,-0.7935537028312679,-0.891215021324158,-1.08098130655289,1.3720959256555947
7.492890142337977,0.0854184651374817,-1.57379558773041,-1.3779637284278898,1.3720959256555947
7.493495835857056,0.878169929981232,-0.941510431480408,-0.376845564365387,1.3720959256555947
7.494101529376136,1.1607822346687302,-0.227794611167908,0.949995255947113,1.3720959256555947
7.494707222895215,0.150083992481232,1.74330646305084,1.36912367391586,1.3720959256555947
7.495312916414294,-1.5791201090812699,1.60200031070709,0.621877580165863,1.3720959256555947
7.4959186099333746,-1.4306288981437698,-0.23737468929290798,-1.04745103311539,1.3720959256555947
7.496524303452453,-0.209168937206268,-1.75821209163666,-2.0797044510841403,1.3720959256555947
7.497129996971532,1.4218393635749802,-1.83245769710541,-0.5444969315528869,1.3720959256555947
7.497735690490612,1.6230210041999802,0.038052556800842297,1.42660414266586,1.3720959256555947
7.4983413840096915,-0.314549796581268,2.4785774591445904,1.86968275594711,1.3720959256555947
7.49894707752877,-1.40188866376877,1.97562335758209,0.0111475996971135,1.3720959256555947
7.49955277104785,-1.47134423017502,-0.218214533042908,-0.9612303299903869,1.3720959256555947
7.500158464566929,0.0590732502937317,-1.82766765804291,-0.692988142490387,1.3720959256555947
7.5007641580860085,1.00271094560623,-1.78695232601166,-0.35529038858413703,1.3720959256555947
7.501369851605088,0.791949226856232,0.550586736488342,0.789528947353363,1.3720959256555947
7.501975545124167,-0.07983788251876829,2.1528548028945904,1.1751270918846102,1.3720959256555947
7.502581238643246,-0.376820304393768,0.940974920082092,0.641037736415863,1.3720959256555947
7.503186932162326,-0.6306923747062679,-0.21581951351165798,-0.5421019120216369,1.3720959256555947
7.503792625681405,-0.0343325114250183,-1.61690593929291,-1.4977147049903898,1.3720959256555947
7.504398319200485,0.128528816699982,-1.41093425960541,-0.827109236240387,1.3720959256555947
7.505004012719564,0.42551123857498196,0.397305486488342,0.523681779384613,1.3720959256555947
7.505609706238643,0.669803230762482,0.775718572425842,1.22063246297836,1.3720959256555947
7.506215399757723,0.138108894824982,1.10623126773834,0.6338526778221131,1.3720959256555947
7.506821093276802,-1.01629051923752,0.711053045082092,-0.43432603311538703,1.3720959256555947
7.507426786795881,-0.7097280192375179,-1.17143230648041,-1.13127671670914,1.3720959256555947
7.508032480314961,0.0854184651374817,-1.40614422054291,-1.3564085526466398,1.3720959256555947
7.50863817383404,1.23263282060623,-0.828944513511658,0.183589005947113,1.3720959256555947
7.509243867353119,1.4098642659187302,0.145828435707092,1.0769312911033602,1.3720959256555947
7.509849560872199,-0.19240380048751798,1.74809650211334,1.1583619551658602,1.3720959256555947
7.510455254391278,-1.65576073408127,1.41758380680084,0.382375627040863,1.3720959256555947
7.511060947910357,-1.38033348798752,-0.666083185386658,-1.25581773233414,1.3720959256555947
7.5116666414294375,0.154874031543732,-1.98813396663666,-1.56477525186539,1.3720959256555947
7.512272334948516,1.84815284013748,-1.58816570491791,-0.000827497959136527,1.3720959256555947
7.512878028467595,1.3116684651374801,0.517056463050842,1.35235853719711,1.3720959256555947
7.513483721986675,-0.616322257518768,2.3779866388320903,1.28769300985336,1.3720959256555947
7.5140894155057545,-1.3779384684562699,1.47506427555084,-0.125368513584137,1.3720959256555947
7.514695109024833,-1.37314842939377,-0.649318048667908,-1.37556870889664,1.3720959256555947
7.515300802543913,0.332105476856232,-2.20368572444916,-1.0570311112403898,1.3720959256555947
7.515906496062992,1.0889316487312302,-1.45164959163666,0.0710230879783635,1.3720959256555947
7.5165121895820715,0.813504402637482,1.05833087711334,0.748813615322113,1.3720959256555947
7.517117883101151,-0.25467430830001797,2.16961993961334,0.906884904384613,1.3720959256555947
7.51772357662023,-0.6330873942375179,0.917024724769592,0.38477064657211296,1.3720959256555947
7.51832927013931,-0.798343741893768,-0.417001154136658,-0.930095076084137,1.3720959256555947
7.518934963658389,0.111763679981232,-1.75102703304291,-1.34682847452164,1.3720959256555947
7.519540657177468,0.40635108232498196,-1.19298748226166,-0.27385972452163704,1.3720959256555947
7.520146350696547,0.729678719043732,0.555376775550842,0.8709596114158631,1.3720959256555947
7.520752044215627,0.636272957324982,1.06551593570709,1.1631519942283601,1.3720959256555947
7.521357737734706,-0.235514152050018,1.12539142398834,0.5572120528221131,1.3720959256555947
7.521963431253786,-1.08095604658127,0.258394353675842,-0.47504136514663703,1.3720959256555947
7.522569124772865,-0.618717277050018,-1.54984539241791,-1.3085081620216399,1.3720959256555947
7.5231748182919445,0.253069832324982,-1.23849285335541,-0.829504255771637,1.3720959256555947
7.523780511811024,1.29969336748123,-0.7379337713241579,0.8326392989158631,1.3720959256555947
7.524386205330103,1.35238379716873,0.632017400550842,1.45055433797836,1.3720959256555947
7.524991898849182,-0.47262108564376804,2.05465900211334,1.18710218954086,1.3720959256555947
7.525597592368262,-1.7371913981437699,1.00564044742584,-0.5852122635841369,1.3720959256555947
7.526203285887341,-0.9923403239250179,-0.884029962730408,-1.86175767374039,1.3720959256555947
7.52680897940642,0.255464851856232,-1.89712322444916,-1.26539781045914,1.3720959256555947
7.5274146729255005,1.69726660966873,-1.54745037288666,0.597927384853363,1.3720959256555947
7.528020366444579,1.1967075276374801,0.976900213050842,1.58707045125961,1.3720959256555947
7.528626059963658,-0.764813468456268,2.74681964664459,0.8350343184471131,1.3720959256555947
7.529231753482738,-1.83538719892502,1.07988605289459,-0.707358259677887,1.3720959256555947
7.5298374470018175,-1.33722313642502,-0.831339533042908,-1.0354759354591399,1.3720959256555947
7.530443140520896,0.40874610185623195,-2.02166424007416,-0.767233747959137,1.3720959256555947
7.531048834039976,1.18473242998123,-1.32471355648041,0.0446778731346135,1.3720959256555947
7.531654527559055,0.861404793262482,1.4702742364883399,1.00508070516586,1.3720959256555947
7.532260221078134,-0.240304191112518,1.9109578302383399,0.983525529384613,1.3720959256555947
7.532865914597214,-0.800738761425018,0.809248845863342,-0.0870482010841365,1.3720959256555947
7.533471608116293,-0.865404288768768,-0.704403497886658,-1.15283189249039,1.3720959256555947
7.534077301635373,0.363240730762482,-1.92586345882416,-1.02589585733414,1.3720959256555947
7.534682995154452,0.40635108232498196,-0.824154474449158,-0.42474595499038703,1.3720959256555947
7.535288688673531,0.696148445606232,0.756558416175842,0.825454240322113,1.3720959256555947
7.535894382192611,0.636272957324982,1.02719562320709,1.30685316610336,1.3720959256555947
7.5365000757116904,-0.5540517497062679,0.866729314613342,0.461411271572113,1.3720959256555947
7.537105769230769,-1.1695717692375198,-0.0314030096054077,-0.927700056552887,1.3720959256555947
7.537711462749849,-0.364845206737518,-1.78695232601166,-1.3611985917091398,1.3720959256555947
7.538317156268928,0.341685554981232,-1.23849285335541,-0.750468611240387,1.3720959256555947
7.538922849788007,1.45776465654373,-0.512801935386658,0.641037736415863,1.3720959256555947
7.539528543307087,1.0625864338874802,1.03198566226959,1.47689955282211,1.3720959256555947
