Time (s),Accel X (m/s^2),Accel Y (m/s^2),Accel Z (m/s^2),CI Value
5.4405,0.0793669243812561,-0.0765572670936585,-1.5028730718612702,0.7386296870116554
5.44110569351908,0.14163743219375602,-0.0334469155311584,-1.26576613826752,0.7386296870116554
5.441711387038159,-0.037989032649993905,-0.222653458499908,-1.4046772710800202,0.7386296870116554
5.442317080557238,0.18714280328750602,-0.20588832178115798,-1.3783320562362702,0.7386296870116554
5.442922774076317,0.218278057193756,-0.045422013187408405,-1.3400117437362702,0.7386296870116554
5.443528467595397,0.19672288141250602,0.0384036704063416,-1.44539260311127,0.7386296870116554
5.4441341611144765,0.290128643131256,-0.256183731937408,-1.1484101812362701,0.7386296870116554
5.444739854633555,0.203907940006256,-0.136432755374908,-1.47413283748627,0.7386296870116554
5.445345548152635,0.352399150943756,0.0192435141563416,-1.47892287654877,0.7386296870116554
5.445951241671715,0.19672288141250602,-0.0190767983436584,-1.44060256404877,0.7386296870116554
5.446556935190793,0.120082256412506,-0.129247696781158,-1.59148879451752,0.7386296870116554
5.447162628709873,0.0458366509437561,-0.179543106937408,-1.35438186092377,0.7386296870116554
5.447768322228952,0.0626017876625061,0.00247837743759155,-1.3232466070175202,0.7386296870116554
5.448374015748032,0.290128643131256,-0.213073380374908,-1.35677688045502,0.7386296870116554
5.448979709267111,0.0458366509437561,-0.134037735843658,-1.3783320562362702,0.7386296870116554
5.44958540278619,0.0410466118812561,-0.0741622475624085,-1.7591401617050202,0.7386296870116554
5.45019109630527,0.22546311578750602,-0.251393692874908,-1.5795136968612702,0.7386296870116554
5.4507967898243495,0.19193284235000602,-0.0741622475624085,-1.05739943904877,0.7386296870116554
5.451402483343428,0.21588303766250602,0.134204451656342,-0.9615986577987671,0.7386296870116554
5.452008176862508,0.13205735406875602,0.050378768062591596,-1.45497268123627,0.7386296870116554
5.452613870381587,0.0865519829750061,-0.11727259912490799,-1.5028730718612702,0.7386296870116554
5.453219563900666,0.15121751031875602,-0.11727259912490799,-1.33522170467377,0.7386296870116554
5.453825257419746,0.09373704156875609,-0.165172989749908,-1.4262324468612702,0.7386296870116554
5.454430950938825,0.108107158756256,-0.34958949365615805,-1.1268550054550202,0.7386296870116554
5.455036644457905,-0.0715193060874939,-0.0861373452186585,-1.38551711483002,0.7386296870116554
5.455642337976983,0.050626690006256095,-0.0023116616249084497,-1.43581252498627,0.7386296870116554
5.456248031496063,0.23025315485000603,-0.184333145999908,-1.50526809139252,0.7386296870116554
5.456853725015143,0.223068096256256,-0.174753067874908,-1.61543898983002,0.7386296870116554
5.457459418534222,0.0697868462562561,-0.0334469155311584,-1.33761672420502,0.7386296870116554
5.458065112053301,0.0841569634437561,0.11983433446884201,-1.15559523983002,0.7386296870116554
5.458670805572381,-0.0523591498374939,0.0623538657188416,-1.29211135311127,0.7386296870116554
5.45927649909146,-0.0523591498374939,-0.0573971108436584,-1.3112715093612701,0.7386296870116554
5.459882192610539,0.153612529850006,-0.136432755374908,-1.47652785701752,0.7386296870116554
5.460487886129618,0.0266764946937561,-0.105297501468658,-1.4214424077987702,0.7386296870116554
5.461093579648698,0.134452373600006,-0.047817032718658406,-1.23463088436127,0.7386296870116554
5.461699273167778,-0.00924879827499386,-0.0621871499061584,-1.27055617733002,0.7386296870116554
5.462304966686856,0.213488018131256,-0.213073380374908,-1.34719680233002,0.7386296870116554
5.462910660205936,0.417064678287506,-0.29210902490615803,-1.4525776617050201,0.7386296870116554
5.463516353725015,0.18714280328750602,-0.0550020913124084,-1.41425734920502,0.7386296870116554
5.464122047244095,0.18235276422500601,0.155759627437592,-1.28253127498627,0.7386296870116554
5.464727740763174,0.323658916568756,-0.0118917397499084,-1.29211135311127,0.7386296870116554
5.465333434282253,0.0123063775062561,-0.169963028812408,-1.39749221248627,0.7386296870116554
5.465939127801333,0.0865519829750061,-0.153197892093658,-1.33761672420502,0.7386296870116554
5.466544821320412,0.0913420220375061,-0.11727259912490799,-1.36875197811127,0.7386296870116554
5.467150514839491,0.100922100162506,0.15336460790634202,-1.3711469976425201,0.7386296870116554
5.467756208358571,0.108107158756256,0.103069197750092,-1.2681611577987701,0.7386296870116554
5.46836190187765,-0.08109938421249391,-0.25857875146865805,-1.46215773983002,0.7386296870116554
5.468967595396729,0.263783428287506,-0.306479142093658,-1.4980830327987702,0.7386296870116554
5.469573288915809,0.520050518131256,0.100674178218842,-1.5292182867050201,0.7386296870116554
5.470178982434888,0.15121751031875602,-0.05021205224990841,-1.6441792242050202,0.7386296870116554
5.470784675953968,0.28773362360000604,-0.107692520999908,-1.21547072811127,0.7386296870116554
5.471390369473046,0.297313701725006,0.031218611812591602,-1.23702590389252,0.7386296870116554
5.471996062992126,0.0626017876625061,-0.220258438968658,-1.33522170467377,0.7386296870116554
5.472601756511206,0.417064678287506,-0.20588832178115798,-1.31366652889252,0.7386296870116554
5.4732074500302845,0.244623272037506,-0.193913224124908,-1.39749221248627,0.7386296870116554
5.473813143549364,0.0434416314125061,-0.191518204593658,-1.66812941951752,0.7386296870116554
5.474418837068444,0.249413311100006,-0.306479142093658,-1.6058589117050202,0.7386296870116554
5.475024530587523,0.199117900943756,-0.31845423974990805,-1.3998872320175202,0.7386296870116554
5.475630224106602,0.0841569634437561,-0.105297501468658,-1.3615669195175202,0.7386296870116554
5.476235917625681,-0.00924879827499386,-0.045422013187408405,-1.1603852788925202,0.7386296870116554
5.476841611144761,0.134452373600006,-0.0645821694374085,-1.3184565679550202,0.7386296870116554
5.4774473046638406,0.333238994693756,-0.0190767983436584,-1.4477876226425201,0.7386296870116554
5.478052998182919,0.0482316704750061,-0.21067836084365799,-1.2585810796737702,0.7386296870116554
5.478658691701999,0.24222825250625601,-0.0573971108436584,-1.19631057186127,0.7386296870116554
5.479264385221078,0.316473857975006,-0.0023116616249084497,-1.29450637264252,0.7386296870116554
5.4798700787401575,0.120082256412506,-0.0166817788124084,-1.52203322811127,0.7386296870116554
5.480475772259237,0.0147013970375061,-0.0957174233436585,-1.0406343023300202,0.7386296870116554
5.481081465778316,0.359584209537506,-0.131642716312408,-1.1316450445175201,0.7386296870116554
5.481687159297396,0.203907940006256,-0.11727259912490799,-1.23942092342377,0.7386296870116554
5.482292852816475,0.127267315006256,-0.105297501468658,-1.17475539608002,0.7386296870116554
5.482898546335554,0.249413311100006,0.167734725093842,-1.22744582576752,0.7386296870116554
5.483504239854634,0.144032451725006,-0.143617813968658,-1.23942092342377,0.7386296870116554
5.484109933373713,0.21588303766250602,-0.248998673343658,-1.35677688045502,0.7386296870116554
5.484715626892792,0.0865519829750061,-0.153197892093658,-1.35438186092377,0.7386296870116554
5.485321320411872,0.00272629938125614,0.0886990805625915,-1.29929641170502,0.7386296870116554
5.485927013930951,-0.021223895931243898,-0.00949672021865845,-1.23702590389252,0.7386296870116554
5.4865327074500305,0.0745768853187561,-0.148407853031158,-1.3232466070175202,0.7386296870116554
5.487138400969109,0.100922100162506,-0.21067836084365799,-1.29929641170502,0.7386296870116554
5.487744094488189,0.115292217350006,-0.213073380374908,-1.3400117437362702,0.7386296870116554
5.488349788007269,0.175167705631256,-0.0645821694374085,-1.3998872320175202,0.7386296870116554
5.4889554815263475,0.14642747125625602,-0.040631974124908404,-1.3927021734237701,0.7386296870116554
5.489561175045427,0.199117900943756,-0.0214718178749084,-1.2513960210800201,0.7386296870116554
5.490166868564507,0.244623272037506,-0.227443497562408,-1.3927021734237701,0.7386296870116554
5.490772562083586,-0.037989032649993905,-0.191518204593658,-1.4214424077987702,0.7386296870116554
5.491378255602665,0.16558762750625602,-0.112482560062408,-1.39030715389252,0.7386296870116554
5.491983949121744,0.299708721256256,-0.222653458499908,-1.1867304937362702,0.7386296870116554
5.492589642640824,-0.040384052181243905,-0.148407853031158,-1.41425734920502,0.7386296870116554
5.4931953361599035,-0.035594013118743904,0.0384036704063416,-1.21547072811127,0.7386296870116554
5.493801029678982,0.0626017876625061,0.047983748531341595,-1.3495918218612701,0.7386296870116554
5.494406723198062,0.26857346735000603,-0.138827774906158,-1.64178420467377,0.7386296870116554
5.495012416717141,0.0147013970375061,-0.0358419350624084,-1.27534621639252,0.7386296870116554
5.4956181102362205,0.0602067681312561,0.165339705562592,-1.37593703670502,0.7386296870116554
5.4962238037553,0.256598369693756,-0.004706681156158451,-1.66812941951752,0.7386296870116554
5.496829497274379,0.18235276422500601,-0.0262618569374084,-1.2897163335800201,0.7386296870116554
5.497435190793459,0.359584209537506,-0.124457657718658,-1.37593703670502,0.7386296870116554
5.498040884312538,0.261388408756256,0.0791190024375915,-1.2849262945175202,0.7386296870116554
5.498646577831617,0.110502178287506,-0.0142867592811584,-1.23463088436127,0.7386296870116554
5.499252271350697,0.0434416314125061,-0.153197892093658,-1.53879836483002,0.7386296870116554
5.499857964869776,0.122477275943756,-0.0023116616249084497,-1.23223586483002,0.7386296870116554
5.500463658388855,0.31886887750625603,-0.220258438968658,-1.3400117437362702,0.7386296870116554
5.501069351907935,0.09613206110000609,-0.0597921303749084,-1.41186232967377,0.7386296870116554
5.501675045427014,0.13205735406875602,0.012058455562591601,-1.39749221248627,0.7386296870116554
5.5022807389460935,0.108107158756256,-0.172358048343658,-1.35198684139252,0.7386296870116554
5.502886432465172,0.14642747125625602,-0.284923966312408,-1.66333938045502,0.7386296870116554
5.503492125984252,0.244623272037506,-0.220258438968658,-1.5411933843612702,0.7386296870116554
5.504097819503332,0.100922100162506,-0.0597921303749084,-1.4429975835800202,0.7386296870116554
5.5047035130224105,0.0386515923500061,-0.169963028812408,-1.3400117437362702,0.7386296870116554
5.50530920654149,0.115292217350006,-0.265763810062408,-1.2202607671737702,0.7386296870116554
5.50591490006057,0.256598369693756,-0.0741622475624085,-1.3927021734237701,0.7386296870116554
5.506520593579649,0.373954326725006,0.012058455562591601,-1.19631057186127,0.7386296870116554
5.507126287098728,0.213488018131256,0.0216385336875916,-1.08134963436127,0.7386296870116554
5.507731980617807,0.199117900943756,-0.0190767983436584,-1.53161330623627,0.7386296870116554
5.508337674136887,0.26857346735000603,-0.287318985843658,-1.24900100154877,0.7386296870116554
5.5089433676559665,0.129662334537506,-0.162777970218658,-1.40707229061127,0.7386296870116554
5.509549061175045,0.09613206110000609,0.0599588461875916,-1.7519551031112701,0.7386296870116554
5.510154754694125,0.0721818657875061,0.0216385336875916,-1.4477876226425201,0.7386296870116554
5.510760448213205,0.112897197818756,0.00247837743759155,-0.997523950767517,0.7386296870116554
5.5113661417322835,-0.08588942327499391,-0.05021205224990841,-1.15799025936127,0.7386296870116554
5.511971835251363,0.0602067681312561,-0.253788712406158,-1.3879121343612701,0.7386296870116554
5.512577528770442,0.0769719048500061,-0.217863419437408,-1.53640334529877,0.7386296870116554
5.513183222289522,0.0649968071937561,-0.0166817788124084,-1.50526809139252,0.7386296870116554
5.513788915808601,0.0386515923500061,-0.110087540531158,-1.23223586483002,0.7386296870116554
5.51439460932768,0.021886455631256102,-0.136432755374908,-1.40707229061127,0.7386296870116554
5.51500030284676,0.261388408756256,-0.15080287256240799,-1.1987055913925202,0.7386296870116554
5.515605996365839,0.19193284235000602,-0.265763810062408,-1.37354201717377,0.7386296870116554
5.516211689884918,0.158402568912506,-0.129247696781158,-1.54837844295502,0.7386296870116554
5.516817383403998,0.122477275943756,-0.05021205224990841,-1.3280366460800201,0.7386296870116554
5.517423076923077,0.227858135318756,0.0863040610313415,-1.3184565679550202,0.7386296870116554
5.5180287704421564,0.304498760318756,-0.201098282718658,-1.3016914312362702,0.7386296870116554
5.518634463961236,-0.0547541693687439,-0.208283341312408,-1.2130757085800201,0.7386296870116554
5.519240157480315,0.0649968071937561,0.06953892431259151,-1.53400832576752,0.7386296870116554
5.519845850999395,0.208697979068756,-0.131642716312408,-1.17954543514252,0.7386296870116554
5.520451544518473,0.189537822818756,-0.256183731937408,-1.26097609920502,0.7386296870116554
5.521057238037553,0.273363506412506,-0.138827774906158,-1.41904738826752,0.7386296870116554
5.521662931556633,-0.0116438178062439,-0.0142867592811584,-1.23463088436127,0.7386296870116554
5.522268625075712,0.21588303766250602,-0.00710170068740845,-1.42862746639252,0.7386296870116554
5.522874318594791,0.21109299860000602,-0.215468399906158,-1.4525776617050201,0.7386296870116554
5.52348001211387,0.134452373600006,-0.28971400537490805,-1.38072707576752,0.7386296870116554
5.52408570563295,0.390719463443756,-0.160382950687408,-1.4429975835800202,0.7386296870116554
5.5246913991520294,0.261388408756256,-0.043026993656158405,-1.18433547420502,0.7386296870116554
5.525297092671108,-0.0499641303062439,0.0815140219688415,-1.20110061092377,0.7386296870116554
5.525902786190188,0.09373704156875609,0.0863040610313415,-1.52682326717377,0.7386296870116554
5.526508479709268,0.316473857975006,-0.234628556156158,-1.30408645076752,0.7386296870116554
5.527114173228346,0.163192607975006,-0.129247696781158,-1.28732131404877,0.7386296870116554
5.527719866747426,0.00512131891250614,-0.0645821694374085,-1.1987055913925202,0.7386296870116554
5.528325560266505,0.13684739313125602,-0.177148087406158,-1.3280366460800201,0.7386296870116554
5.528931253785585,0.127267315006256,0.00247837743759155,-1.36396193904877,0.7386296870116554
5.529536947304664,-0.061939227962493904,0.00487339696884155,-1.23702590389252,0.7386296870116554
5.530142640823743,0.0673918267250061,-0.0310518959999084,-1.6489692632675201,0.7386296870116554
5.530748334342823,0.19672288141250602,-0.186728165531158,-1.4382075445175202,0.7386296870116554
5.5313540278619024,0.153612529850006,0.031218611812591602,-1.43581252498627,0.7386296870116554
5.531959721380981,0.306893779850006,0.141389510250092,-1.3927021734237701,0.7386296870116554
5.532565414900061,0.294918682193756,0.00966343603134155,-1.32085158748627,0.7386296870116554
5.53317110841914,0.292523662662506,-0.15080287256240799,-1.3927021734237701,0.7386296870116554
5.533776801938219,0.14642747125625602,-0.153197892093658,-1.3663569585800202,0.7386296870116554
5.534382495457299,0.13205735406875602,-0.0813473061561585,-1.33761672420502,0.7386296870116554
5.534988188976378,0.09613206110000609,-0.107692520999908,-1.29929641170502,0.7386296870116554
5.535593882495458,0.0745768853187561,-0.0789522866249085,-1.55316848201752,0.7386296870116554
5.536199576014536,0.055416729068756096,-0.00710170068740845,-1.3711469976425201,0.7386296870116554
5.536805269533616,0.148822490787506,0.0336136313438416,-1.33522170467377,0.7386296870116554
5.537410963052696,0.117687236881256,0.016848494625091602,-1.0885346929550201,0.7386296870116554
5.5380166565717746,-0.00924879827499386,0.00487339696884155,-1.1867304937362702,0.7386296870116554
5.538622350090854,0.124872295475006,0.0910941000938415,-1.42383742733002,0.7386296870116554
5.539228043609934,0.18235276422500601,-0.148407853031158,-1.11727492733002,0.7386296870116554
5.539833737129013,0.314078838443756,-0.201098282718658,-1.62022902889252,0.7386296870116554
5.540439430648092,0.326053936100006,-0.05021205224990841,-1.50526809139252,0.7386296870116554
5.541045124167171,0.25899338922500603,0.0288235922813416,-1.06458449764252,0.7386296870116554
5.541650817686251,0.0889470025062561,0.165339705562592,-1.3064814702987702,0.7386296870116554
5.54225651120533,0.21588303766250602,0.00487339696884155,-1.3112715093612701,0.7386296870116554
5.542862204724409,0.00512131891250614,-0.213073380374908,-1.35198684139252,0.7386296870116554
5.543467898243489,0.0123063775062561,-0.143617813968658,-1.5723286382675201,0.7386296870116554
5.544073591762568,0.120082256412506,-0.0526070717811584,-1.51484816951752,0.7386296870116554
5.5446792852816476,0.20630295953750602,-0.102902481937408,-1.23942092342377,0.7386296870116554
5.545284978800727,0.0123063775062561,-0.172358048343658,-1.21068068904877,0.7386296870116554
5.545890672319806,-0.0499641303062439,-0.11487757959365799,-1.51005813045502,0.7386296870116554
5.546496365838886,0.19672288141250602,-0.0765572670936585,-1.59867385311127,0.7386296870116554
5.547102059357965,0.144032451725006,-0.0573971108436584,-1.2801362554550202,0.7386296870116554
5.547707752877044,0.0649968071937561,-0.136432755374908,-1.26097609920502,0.7386296870116554
5.548313446396124,0.0170964165687561,-0.172358048343658,-1.26097609920502,0.7386296870116554
5.548919139915203,0.208697979068756,-0.0358419350624084,-1.4980830327987702,0.7386296870116554
5.549524833434282,0.134452373600006,0.031218611812591602,-1.51724318904877,0.7386296870116554
5.550130526953362,0.23025315485000603,0.043193709468841594,-1.3927021734237701,0.7386296870116554
5.550736220472441,0.199117900943756,-0.148407853031158,-1.23942092342377,0.7386296870116554
5.5513419139915205,0.129662334537506,-0.177148087406158,-1.25379104061127,0.7386296870116554
5.5519476075106,0.496100322818756,-0.191518204593658,-1.35677688045502,0.7386296870116554
5.552553301029679,0.144032451725006,-0.14601283349990798,-1.48850295467377,0.7386296870116554
5.553158994548758,-0.186480243587494,0.0384036704063416,-1.3783320562362702,0.7386296870116554
5.553764688067838,0.0482316704750061,0.115044295406342,-1.3184565679550202,0.7386296870116554
5.554370381586917,0.27815354547500604,-0.0262618569374084,-1.53879836483002,0.7386296870116554
5.554976075105996,0.189537822818756,-0.0550020913124084,-1.27774123592377,0.7386296870116554
5.555581768625076,0.158402568912506,-0.004706681156158451,-1.37593703670502,0.7386296870116554
5.556187462144155,0.112897197818756,0.052773787593841597,-1.43341750545502,0.7386296870116554
5.556793155663234,0.09613206110000609,-0.0190767983436584,-1.27055617733002,0.7386296870116554
5.557398849182314,0.108107158756256,-0.0262618569374084,-1.35677688045502,0.7386296870116554
5.5580045427013935,0.17037766656875603,-0.203493302249908,-1.2082856695175201,0.7386296870116554
5.558610236220472,0.297313701725006,-0.29929408349990805,-1.46694777889252,0.7386296870116554
5.559215929739552,0.0266764946937561,-0.110087540531158,-1.5292182867050201,0.7386296870116554
5.559821623258631,0.14163743219375602,-0.179543106937408,-1.2729511968612701,0.7386296870116554
5.5604273167777105,0.122477275943756,-0.11966761865615799,-1.44539260311127,0.7386296870116554
5.56103301029679,-0.19366530218124398,-0.15080287256240799,-1.23702590389252,0.7386296870116554
5.561638703815869,0.14642747125625602,-0.129247696781158,-1.1651753179550202,0.7386296870116554
5.562244397334949,0.0865519829750061,-0.0526070717811584,-1.30408645076752,0.7386296870116554
5.562850090854028,0.0458366509437561,0.0192435141563416,-1.42383742733002,0.7386296870116554
5.563455784373107,0.108107158756256,-0.256183731937408,-1.35438186092377,0.7386296870116554
5.564061477892187,0.167982647037506,-0.263368790531158,-1.45736770076752,0.7386296870116554
5.5646671714112665,0.139242412662506,-0.237023575687408,-1.5459834234237702,0.7386296870116554
5.565272864930345,-0.0571491888999939,0.052773787593841597,-1.54358840389252,0.7386296870116554
5.565878558449425,0.0649968071937561,0.0599588461875916,-1.3998872320175202,0.7386296870116554
5.566484251968504,0.0386515923500061,-0.193913224124908,-1.3495918218612701,0.7386296870116554
5.5670899454875835,-0.033198993587493904,-0.169963028812408,-1.46215773983002,0.7386296870116554
5.567695639006663,0.0841569634437561,-0.11727259912490799,-1.19391555233002,0.7386296870116554
5.568301332525742,0.175167705631256,0.15336460790634202,-1.38551711483002,0.7386296870116554
5.568907026044821,-0.14815993108749398,0.0240335532188416,-1.4477876226425201,0.7386296870116554
5.569512719563901,0.00272629938125614,-0.237023575687408,-1.7471650640487701,0.7386296870116554
5.57011841308298,0.175167705631256,-0.215468399906158,-1.89326125545502,0.7386296870116554
5.570724106602059,0.057811748600006096,-0.165172989749908,-0.968783716392517,0.7386296870116554
5.5713298001211395,0.112897197818756,-0.00710170068740845,-1.33761672420502,0.7386296870116554
5.571935493640218,0.0626017876625061,-0.045422013187408405,-1.6178340093612702,0.7386296870116554
5.572541187159297,0.244623272037506,-0.237023575687408,-1.2466059820175202,0.7386296870116554
5.573146880678377,0.280548565006256,-0.162777970218658,-1.4310224859237701,0.7386296870116554
5.5737525741974565,-0.004458759212493861,-0.12206263818740799,-1.40707229061127,0.7386296870116554
5.574358267716535,0.0170964165687561,-0.196308243656158,-1.44539260311127,0.7386296870116554
5.574963961235615,0.00272629938125614,-0.14601283349990798,-1.35198684139252,0.7386296870116554
5.575569654754694,-0.112234638118744,-0.0765572670936585,-1.48371291561127,0.7386296870116554
5.5761753482737735,0.31886887750625603,-0.328034317874908,-1.48371291561127,0.7386296870116554
5.576781041792853,0.208697979068756,-0.134037735843658,-1.41425734920502,0.7386296870116554
5.577386735311932,0.055416729068756096,0.0192435141563416,-1.47173781795502,0.7386296870116554
5.5779924288310125,0.21588303766250602,-0.0621871499061584,-1.2633711187362702,0.7386296870116554
5.578598122350091,0.266178447818756,-0.110087540531158,-1.12445998592377,0.7386296870116554
5.57920381586917,0.129662334537506,-0.0765572670936585,-1.2418159429550202,0.7386296870116554
5.57980950938825,0.144032451725006,-0.0645821694374085,-1.4214424077987702,0.7386296870116554
5.5804152029073295,0.189537822818756,-0.222653458499908,-1.5028730718612702,0.7386296870116554
5.581020896426408,0.124872295475006,-0.0358419350624084,-1.4597627202987702,0.7386296870116554
5.581626589945488,0.112897197818756,0.043193709468841594,-1.20589064998627,0.7386296870116554
5.582232283464567,0.0865519829750061,-0.203493302249908,-1.4693427984237701,0.7386296870116554
5.5828379769836465,0.172772686100006,-0.29929408349990805,-1.5507734624862701,0.7386296870116554
5.583443670502726,-0.150554950618744,-0.155592911624908,-1.4046772710800202,0.7386296870116554
5.584049364021805,0.251808330631256,0.0551688071250916,-1.2897163335800201,0.7386296870116554
5.584655057540884,0.333238994693756,-0.0669771889686585,-1.2082856695175201,0.7386296870116554
5.585260751059964,0.21109299860000602,-0.0621871499061584,-1.62501906795502,0.7386296870116554
5.585866444579043,0.373954326725006,-0.0861373452186585,-1.5675385992050201,0.7386296870116554
5.586472138098122,0.227858135318756,-0.11727259912490799,-1.36875197811127,0.7386296870116554
5.5870778316172025,0.19193284235000602,0.0623538657188416,-1.23463088436127,0.7386296870116554
5.587683525136281,0.249413311100006,0.0551688071250916,-1.29450637264252,0.7386296870116554
5.58828921865536,0.163192607975006,0.00247837743759155,-1.3448017827987702,0.7386296870116554
5.58889491217444,0.153612529850006,0.184499861812592,-1.16278029842377,0.7386296870116554
5.5895006056935195,0.297313701725006,-0.00710170068740845,-1.19391555233002,0.7386296870116554
5.590106299212598,0.0626017876625061,0.0336136313438416,-1.2849262945175202,0.7386296870116554
5.590711992731678,0.108107158756256,-0.028656876468658398,-1.2681611577987701,0.7386296870116554
5.591317686250757,0.282943584537506,-0.201098282718658,-1.34719680233002,0.7386296870116554
5.5919233797698364,0.153612529850006,-0.217863419437408,-1.5196382085800202,0.7386296870116554
5.592529073288916,0.0602067681312561,-0.038236954593658404,-1.4262324468612702,0.7386296870116554
5.593134766807995,0.134452373600006,0.134204451656342,-1.2849262945175202,0.7386296870116554
5.5937404603270755,0.163192607975006,-0.129247696781158,-1.41186232967377,0.7386296870116554
5.594346153846154,0.304498760318756,-0.00710170068740845,-1.5292182867050201,0.7386296870116554
5.594951847365233,0.24222825250625601,-0.0909273842811585,-1.41904738826752,0.7386296870116554
5.595557540884313,-0.0475691107749939,-0.169963028812408,-1.2681611577987701,0.7386296870116554
5.5961632344033925,0.124872295475006,-0.0693722084999085,-1.34719680233002,0.7386296870116554
5.596768927922471,0.055416729068756096,0.0192435141563416,-1.29450637264252,0.7386296870116554
5.597374621441551,0.148822490787506,-0.325639298343658,-1.20589064998627,0.7386296870116554
5.59798031496063,0.290128643131256,-0.328034317874908,-1.6274140874862701,0.7386296870116554
5.598586008479709,-0.0116438178062439,-0.0190767983436584,-1.54358840389252,0.7386296870116554
5.599191701998789,-0.136184833431244,-0.0693722084999085,-1.36396193904877,0.7386296870116554
5.599797395517868,0.00512131891250614,-0.105297501468658,-1.6992646734237702,0.7386296870116554
5.600403089036947,0.21588303766250602,-0.160382950687408,-1.34719680233002,0.7386296870116554
5.601008782556027,0.199117900943756,-0.191518204593658,-1.02386916561127,0.7386296870116554
5.601614476075106,0.256598369693756,-0.11487757959365799,-1.42383742733002,0.7386296870116554
5.602220169594185,0.227858135318756,0.00487339696884155,-1.43341750545502,0.7386296870116554
5.6028258631132655,0.167982647037506,-0.0645821694374085,-1.33761672420502,0.7386296870116554
5.603431556632344,0.290128643131256,-0.0526070717811584,-1.49329299373627,0.7386296870116554
5.604037250151423,0.31886887750625603,-0.0597921303749084,-1.39749221248627,0.7386296870116554
5.604642943670503,0.23025315485000603,-0.0550020913124084,-1.28253127498627,0.7386296870116554
5.605248637189582,0.302103740787506,-0.0023116616249084497,-1.4046772710800202,0.7386296870116554
5.605854330708661,0.09373704156875609,-0.0933224038124085,-1.30887648983002,0.7386296870116554
5.606460024227741,0.0075163384437561395,-0.100507462406158,-1.3184565679550202,0.7386296870116554
5.60706571774682,0.0769719048500061,-0.11966761865615799,-1.34719680233002,0.7386296870116554
5.607671411265899,0.120082256412506,-0.004706681156158451,-1.28253127498627,0.7386296870116554
5.608277104784979,0.0338615532875061,0.06474888525009151,-1.3495918218612701,0.7386296870116554
5.608882798304058,-0.00924879827499386,-0.174753067874908,-1.3711469976425201,0.7386296870116554
5.609488491823137,0.24701829156875602,-0.112482560062408,-1.44539260311127,0.7386296870116554
5.610094185342217,0.0170964165687561,-0.165172989749908,-1.30408645076752,0.7386296870116554
5.610699878861296,0.0721818657875061,-0.277738907718658,-1.36875197811127,0.7386296870116554
5.611305572380376,0.0434416314125061,-0.0310518959999084,-1.6178340093612702,0.7386296870116554
5.611911265899455,0.129662334537506,0.0599588461875916,-1.34719680233002,0.7386296870116554
5.612516959418534,0.36916428766250603,-0.184333145999908,-1.19391555233002,0.7386296870116554
5.613122652937614,0.275758525943756,-0.220258438968658,-1.3998872320175202,0.7386296870116554
5.613728346456693,0.031466533756256104,-0.0693722084999085,-1.6441792242050202,0.7386296870116554
5.614334039975772,-0.0284089545249939,-0.138827774906158,-1.4525776617050201,0.7386296870116554
5.614939733494852,0.148822490787506,-0.11487757959365799,-1.3448017827987702,0.7386296870116554
5.615545427013931,0.34760911188125604,-0.165172989749908,-1.3184565679550202,0.7386296870116554
5.61615112053301,0.280548565006256,-0.0957174233436585,-1.20110061092377,0.7386296870116554
5.61675681405209,0.0865519829750061,-0.335219376468658,-1.47173781795502,0.7386296870116554
5.617362507571169,0.20630295953750602,-0.0813473061561585,-1.43581252498627,0.7386296870116554
5.617968201090248,0.112897197818756,0.0623538657188416,-1.3927021734237701,0.7386296870116554
5.618573894609328,0.14163743219375602,-0.160382950687408,-1.2633711187362702,0.7386296870116554
5.619179588128407,0.361979229068756,0.00247837743759155,-1.23702590389252,0.7386296870116554
5.619785281647486,0.0889470025062561,-0.11966761865615799,-1.21068068904877,0.7386296870116554
5.620390975166566,0.148822490787506,-0.11727259912490799,-1.20589064998627,0.7386296870116554
5.620996668685645,0.22067307672500602,-0.040631974124908404,-1.3328266851425201,0.7386296870116554
5.621602362204724,0.124872295475006,0.0551688071250916,-1.4046772710800202,0.7386296870116554
5.622208055723804,0.237438213443756,-0.0550020913124084,-1.51484816951752,0.7386296870116554
5.622813749242883,0.366769268131256,-0.217863419437408,-1.3495918218612701,0.7386296870116554
5.623419442761962,0.19672288141250602,0.040798689937591594,-1.35917189998627,0.7386296870116554
5.624025136281042,0.0721818657875061,0.103069197750092,-1.2849262945175202,0.7386296870116554
5.624630829800121,0.18235276422500601,-0.0645821694374085,-1.3927021734237701,0.7386296870116554
5.6252365233192005,-0.109839618587494,0.0384036704063416,-1.29690139217377,0.7386296870116554
5.62584221683828,0.20151292047500602,-0.100507462406158,-1.39509719295502,0.7386296870116554
5.626447910357359,0.24222825250625601,-0.11966761865615799,-1.39749221248627,0.7386296870116554
5.627053603876439,-0.014038837337493901,0.165339705562592,-1.35198684139252,0.7386296870116554
5.627659297395518,0.297313701725006,0.11743931493759201,-1.16757033748627,0.7386296870116554
5.628264990914597,0.235043193912506,-0.0885323647499085,-1.20110061092377,0.7386296870116554
5.628870684433677,0.366769268131256,-0.105297501468658,-1.50526809139252,0.7386296870116554
5.629476377952756,0.0602067681312561,0.134204451656342,-1.6274140874862701,0.7386296870116554
5.630082071471835,0.110502178287506,0.050378768062591596,-1.7591401617050202,0.7386296870116554
5.630687764990915,0.33802903375625604,-0.198703263187408,-1.00470900936127,0.7386296870116554
5.631293458509994,-0.033198993587493904,-0.0166817788124084,-1.32564162654877,0.7386296870116554
5.6318991520290735,0.402694561100006,-0.0957174233436585,-1.5244282476425202,0.7386296870116554
5.632504845548153,0.345214092350006,-0.0550020913124084,-0.995128931236267,0.7386296870116554
5.633110539067232,0.110502178287506,0.06714390478134151,-1.28732131404877,0.7386296870116554
5.633716232586311,0.0889470025062561,-0.15080287256240799,-1.4597627202987702,0.7386296870116554
5.634321926105391,0.0817619439125061,-0.196308243656158,-1.52203322811127,0.7386296870116554
5.63492761962447,0.15600754938125602,-0.177148087406158,-1.59148879451752,0.7386296870116554
5.635533313143549,0.172772686100006,-0.0645821694374085,-1.2633711187362702,0.7386296870116554
5.63613900666263,0.0793669243812561,0.11743931493759201,-1.39749221248627,0.7386296870116554
5.636744700181708,-0.061939227962493904,0.127019393062592,-1.3831220952987702,0.7386296870116554
5.637350393700787,0.00033127985000613603,-0.0597921303749084,-1.16757033748627,0.7386296870116554
5.637956087219867,0.208697979068756,-0.239418595218658,-1.30408645076752,0.7386296870116554
5.6385617807389465,0.25899338922500603,-0.0837423256874085,-1.4477876226425201,0.7386296870116554
5.639167474258025,0.249413311100006,-0.028656876468658398,-1.5411933843612702,0.7386296870116554
5.639773167777105,0.34760911188125604,0.0815140219688415,-1.45497268123627,0.7386296870116554
5.640378861296184,0.256598369693756,-0.162777970218658,-1.29929641170502,0.7386296870116554
5.6409845548152635,0.17037766656875603,-0.131642716312408,-1.1699653570175201,0.7386296870116554
5.641590248334343,0.263783428287506,0.050378768062591596,-1.32564162654877,0.7386296870116554
5.642195941853422,0.09852708063125609,-0.198703263187408,-1.3328266851425201,0.7386296870116554
5.642801635372502,0.0290715142250061,-0.0166817788124084,-1.22744582576752,0.7386296870116554
5.643407328891581,0.0194914361000061,-0.174753067874908,-1.2418159429550202,0.7386296870116554
5.64401302241066,0.23025315485000603,-0.215468399906158,-1.50047805233002,0.7386296870116554
5.64461871592974,0.280548565006256,-0.0621871499061584,-1.35677688045502,0.7386296870116554
5.6452244094488195,0.13205735406875602,0.0360086508750916,-1.30887648983002,0.7386296870116554
5.645830102967898,0.402694561100006,-0.0645821694374085,-1.3879121343612701,0.7386296870116554
5.646435796486978,0.28773362360000604,-0.0765572670936585,-1.3448017827987702,0.7386296870116554
5.647041490006057,-0.033198993587493904,-0.148407853031158,-1.22744582576752,0.7386296870116554
5.6476471835251365,0.0602067681312561,-0.189123185062408,-1.33043166561127,0.7386296870116554
5.648252877044216,0.0889470025062561,0.0863040610313415,-1.57711867733002,0.7386296870116554
5.648858570563295,-0.0667292670249939,0.14857456884384201,-1.1388301031112702,0.7386296870116554
5.649464264082374,0.24222825250625601,0.15336460790634202,-1.17715041561127,0.7386296870116554
5.650069957601454,0.167982647037506,-0.189123185062408,-1.27534621639252,0.7386296870116554
5.650675651120533,0.0362565728187561,-0.31845423974990805,-1.47892287654877,0.7386296870116554
5.651281344639612,-0.0571491888999939,-0.0166817788124084,-1.4980830327987702,0.7386296870116554
5.6518870381586925,0.0865519829750061,0.105464217281342,-1.33761672420502,0.7386296870116554
5.652492731677771,0.251808330631256,-0.0334469155311584,-1.4908979742050201,0.7386296870116554
5.65309842519685,-0.0427790717124939,-0.107692520999908,-1.55556350154877,0.7386296870116554
5.65370411871593,0.0889470025062561,-0.0669771889686585,-1.56993361873627,0.7386296870116554
5.6543098122350095,0.18235276422500601,-0.0597921303749084,-1.2801362554550202,0.7386296870116554
5.654915505754088,0.153612529850006,-0.00949672021865845,-1.1819404546737702,0.7386296870116554
5.655521199273168,0.057811748600006096,-0.0789522866249085,-1.53879836483002,0.7386296870116554
5.656126892792247,0.0889470025062561,-0.043026993656158405,-1.46694777889252,0.7386296870116554
5.6567325863113265,0.237438213443756,-0.0573971108436584,-1.38072707576752,0.7386296870116554
5.657338279830406,0.148822490787506,0.00966343603134155,-1.3831220952987702,0.7386296870116554
5.657943973349485,0.18714280328750602,0.06714390478134151,-1.2585810796737702,0.7386296870116554
5.6585496668685655,0.194327861881256,-0.040631974124908404,-1.35438186092377,0.7386296870116554
5.659155360387644,-0.004458759212493861,-0.105297501468658,-1.4477876226425201,0.7386296870116554
5.659761053906723,0.144032451725006,-0.0933224038124085,-1.6322041265487701,0.7386296870116554
5.660366747425803,-0.014038837337493901,-0.00949672021865845,-1.5292182867050201,0.7386296870116554
5.6609724409448825,0.103317119693756,-0.0789522866249085,-1.13643508358002,0.7386296870116554
5.661578134463961,0.354794170475006,0.06953892431259151,-1.1220649663925202,0.7386296870116554
5.662183827983041,0.024281475162506103,-0.12206263818740799,-1.33522170467377,0.7386296870116554
5.66278952150212,-0.014038837337493901,-0.15080287256240799,-1.38072707576752,0.7386296870116554
5.6633952150211995,0.00033127985000613603,-0.107692520999908,-1.23463088436127,0.7386296870116554
5.664000908540279,0.105712139225006,0.0791190024375915,-1.2681611577987701,0.7386296870116554
5.664606602059358,0.100922100162506,0.167734725093842,-1.1005097906112702,0.7386296870116554
5.665212295578437,0.354794170475006,-0.277738907718658,-1.30408645076752,0.7386296870116554
5.665817989097517,0.412274639225006,-0.0669771889686585,-1.52682326717377,0.7386296870116554
5.666423682616596,0.24701829156875602,0.0288235922813416,-1.20589064998627,0.7386296870116554
5.667029376135675,0.16558762750625602,0.06714390478134151,-1.1867304937362702,0.7386296870116554
5.6676350696547555,-0.018828876399993897,0.129414412593842,-1.35917189998627,0.7386296870116554
5.668240763173834,0.0626017876625061,-0.220258438968658,-1.27534621639252,0.7386296870116554
5.668846456692913,0.270968486881256,-0.30887416162490805,-1.44539260311127,0.7386296870116554
5.669452150211993,0.275758525943756,-0.100507462406158,-1.38551711483002,0.7386296870116554
5.6700578437310725,-0.0475691107749939,-0.129247696781158,-1.20110061092377,0.7386296870116554
5.670663537250151,0.0123063775062561,-0.110087540531158,-1.45018264217377,0.7386296870116554
5.671269230769231,0.223068096256256,-0.0885323647499085,-1.48371291561127,0.7386296870116554
5.67187492428831,0.194327861881256,-0.124457657718658,-1.4046772710800202,0.7386296870116554
5.672480617807389,0.213488018131256,-0.0885323647499085,-1.1987055913925202,0.7386296870116554
5.673086311326469,0.256598369693756,0.134204451656342,-1.3280366460800201,0.7386296870116554
5.673692004845548,0.16079758844375602,-0.0861373452186585,-1.54358840389252,0.7386296870116554
5.674297698364627,0.17037766656875603,-0.37832972803115805,-1.4645527593612702,0.7386296870116554
5.674903391883707,0.275758525943756,-0.179543106937408,-1.41665236873627,0.7386296870116554
5.675509085402786,0.24701829156875602,-0.043026993656158405,-1.35917189998627,0.7386296870116554
5.676114778921866,0.0170964165687561,0.0791190024375915,-1.4429975835800202,0.7386296870116554
5.6767204724409455,0.266178447818756,-0.15080287256240799,-1.47652785701752,0.7386296870116554
5.677326165960024,0.16558762750625602,-0.141222794437408,-1.11727492733002,0.7386296870116554
5.677931859479104,0.18714280328750602,-0.181938126468658,-1.2250508062362702,0.7386296870116554
5.678537552998183,0.194327861881256,-0.189123185062408,-1.6010688726425202,0.7386296870116554
5.679143246517262,0.167982647037506,-0.0238668374061584,-1.52682326717377,0.7386296870116554
5.679748940036342,0.345214092350006,-0.148407853031158,-1.17236037654877,0.7386296870116554
5.680354633555421,0.0626017876625061,-0.028656876468658398,-1.3783320562362702,0.7386296870116554
5.6809603270745,0.232648174381256,-0.0741622475624085,-1.54358840389252,0.7386296870116554
5.68156602059358,0.15121751031875602,-0.134037735843658,-0.959203638267517,0.7386296870116554
5.682171714112659,0.139242412662506,0.0863040610313415,-1.25379104061127,0.7386296870116554
5.682777407631738,0.249413311100006,0.0599588461875916,-1.49329299373627,0.7386296870116554
5.6833831011508185,0.153612529850006,-0.215468399906158,-1.2729511968612701,0.7386296870116554
5.683988794669897,-0.0427790717124939,-0.143617813968658,-1.60346389217377,0.7386296870116554
5.684594488188976,-0.105049579524994,8.335790634155139e-05,-1.38072707576752,0.7386296870116554
5.685200181708056,0.14163743219375602,-0.107692520999908,-1.3831220952987702,0.7386296870116554
5.685805875227135,0.25899338922500603,-0.169963028812408,-1.34719680233002,0.7386296870116554
5.686411568746214,0.09852708063125609,-0.0837423256874085,-1.1699653570175201,0.7386296870116554
5.687017262265294,0.139242412662506,0.050378768062591596,-1.4693427984237701,0.7386296870116554
5.687622955784373,0.21588303766250602,-0.174753067874908,-1.2082856695175201,0.7386296870116554
5.688228649303452,0.09613206110000609,8.335790634155139e-05,-1.34240676326752,0.7386296870116554
5.688834342822532,0.0649968071937561,-0.0957174233436585,-1.3879121343612701,0.7386296870116554
5.689440036341611,0.050626690006256095,-0.234628556156158,-1.40228225154877,0.7386296870116554
5.690045729860691,0.19672288141250602,-0.244208634281158,-1.41425734920502,0.7386296870116554
5.69065142337977,-0.0499641303062439,-0.215468399906158,-1.0454243413925202,0.7386296870116554
5.691257116898849,-0.00924879827499386,0.07193394384384151,-0.786762232017517,0.7386296870116554
5.691862810417929,0.179957744693756,-0.14601283349990798,-1.1532002202987701,0.7386296870116554
5.692468503937008,0.0841569634437561,-0.0765572670936585,-1.51484816951752,0.7386296870116554
5.693074197456087,0.0817619439125061,-0.00949672021865845,-1.33761672420502,0.7386296870116554
5.693679890975167,0.16558762750625602,-0.00949672021865845,-1.24421096248627,0.7386296870116554
5.694285584494246,0.108107158756256,-0.045422013187408405,-1.29690139217377,0.7386296870116554
5.694891278013325,0.134452373600006,-0.100507462406158,-1.41904738826752,0.7386296870116554
5.695496971532405,0.139242412662506,-0.256183731937408,-1.51484816951752,0.7386296870116554
5.696102665051484,-0.0571491888999939,-0.239418595218658,-1.3927021734237701,0.7386296870116554
5.696708358570563,0.177562725162506,0.045588729000091595,-1.4861079351425202,0.7386296870116554
5.697314052089643,0.314078838443756,-0.148407853031158,-1.3879121343612701,0.7386296870116554
5.697919745608722,0.108107158756256,0.0839090415000915,-1.3328266851425201,0.7386296870116554
5.698525439127801,0.0889470025062561,0.0288235922813416,-1.3280366460800201,0.7386296870116554
5.699131132646881,0.239833232975006,-0.215468399906158,-1.4429975835800202,0.7386296870116554
5.69973682616596,0.00033127985000613603,-0.107692520999908,-1.4429975835800202,0.7386296870116554
5.700342519685039,-0.018828876399993897,-0.157987931156158,-1.08134963436127,0.7386296870116554
5.700948213204119,-0.040384052181243905,-0.134037735843658,-1.5076631109237701,0.7386296870116554
5.701553906723198,-0.004458759212493861,-0.0597921303749084,-1.21786574764252,0.7386296870116554
5.702159600242277,0.00512131891250614,0.0575638266563416,-1.1987055913925202,0.7386296870116554
5.702765293761357,0.18235276422500601,0.012058455562591601,-1.49568801326752,0.7386296870116554
5.703370987280437,0.43861985406875603,-0.0023116616249084497,-1.37593703670502,0.7386296870116554
5.703976680799515,0.127267315006256,-0.0957174233436585,-1.42383742733002,0.7386296870116554
5.704582374318595,-0.0499641303062439,-0.0765572670936585,-1.19631057186127,0.7386296870116554
5.705188067837674,0.23025315485000603,-0.27055384912490804,-1.3615669195175202,0.7386296870116554
5.7057937613567535,0.21109299860000602,-0.217863419437408,-1.3184565679550202,0.7386296870116554
5.706399454875833,0.0434416314125061,-0.004706681156158451,-1.33761672420502,0.7386296870116554
5.707005148394912,0.304498760318756,-0.11487757959365799,-1.49329299373627,0.7386296870116554
5.707610841913992,0.31886887750625603,-0.0166817788124084,-1.17236037654877,0.7386296870116554
5.708216535433071,0.184747783756256,0.131809432125092,-1.26576613826752,0.7386296870116554
5.70882222895215,0.117687236881256,-0.0957174233436585,-1.22265578670502,0.7386296870116554
5.70942792247123,0.09613206110000609,-0.100507462406158,-1.41186232967377,0.7386296870116554
5.710033615990309,0.16558762750625602,-0.0166817788124084,-1.45497268123627,0.7386296870116554
5.710639309509388,0.23025315485000603,-0.038236954593658404,-1.5028730718612702,0.7386296870116554
5.711245003028468,0.27815354547500604,0.0551688071250916,-1.2897163335800201,0.7386296870116554
5.711850696547547,0.20151292047500602,-0.0981124428749085,-1.11966994686127,0.7386296870116554
5.712456390066626,0.0266764946937561,-0.141222794437408,-1.25618606014252,0.7386296870116554
5.713062083585706,0.0865519829750061,-0.0118917397499084,-1.3663569585800202,0.7386296870116554
5.713667777104785,0.16079758844375602,-0.112482560062408,-1.33522170467377,0.7386296870116554
5.714273470623864,0.15600754938125602,-0.246603653812408,-1.3232466070175202,0.7386296870116554
5.714879164142944,0.237438213443756,-0.0310518959999084,-1.58190871639252,0.7386296870116554
5.715484857662023,0.115292217350006,0.050378768062591596,-1.41665236873627,0.7386296870116554
5.716090551181102,0.199117900943756,0.107859236812592,-1.2130757085800201,0.7386296870116554
5.716696244700183,0.290128643131256,0.043193709468841594,-1.23942092342377,0.7386296870116554
5.717301938219261,0.18235276422500601,-0.0933224038124085,-1.36875197811127,0.7386296870116554
5.71790763173834,0.0602067681312561,0.0240335532188416,-1.46215773983002,0.7386296870116554
5.71851332525742,0.050626690006256095,-0.191518204593658,-1.40707229061127,0.7386296870116554
5.7191190187764995,0.0362565728187561,-0.160382950687408,-1.51005813045502,0.7386296870116554
5.719724712295578,-0.021223895931243898,-0.0550020913124084,-1.59867385311127,0.7386296870116554
5.720330405814658,0.16558762750625602,-0.0789522866249085,-1.62980910701752,0.7386296870116554
5.720936099333737,0.0170964165687561,-0.131642716312408,-0.9232783452987671,0.7386296870116554
5.7215417928528165,-0.0427790717124939,-0.0621871499061584,-0.8849580327987671,0.7386296870116554
5.722147486371896,0.213488018131256,-0.167568009281158,-1.4382075445175202,0.7386296870116554
5.722753179890975,0.244623272037506,-0.141222794437408,-1.19631057186127,0.7386296870116554
5.723358873410055,0.0075163384437561395,-0.0118917397499084,-1.38551711483002,0.7386296870116554
5.723964566929134,0.179957744693756,0.047983748531341595,-1.34719680233002,0.7386296870116554
5.724570260448213,0.302103740787506,0.0192435141563416,-1.23702590389252,0.7386296870116554
5.725175953967293,-0.0308039740562439,-0.0526070717811584,-1.40228225154877,0.7386296870116554
5.7257816474863725,0.172772686100006,-0.107692520999908,-1.35677688045502,0.7386296870116554
5.726387341005451,0.227858135318756,-0.160382950687408,-1.29690139217377,0.7386296870116554
5.726993034524531,0.144032451725006,-0.0885323647499085,-1.28253127498627,0.7386296870116554
5.72759872804361,0.235043193912506,-0.193913224124908,-1.17954543514252,0.7386296870116554
5.7282044215626895,0.15121751031875602,-0.28252894678115803,-1.46215773983002,0.7386296870116554
5.728810115081769,0.129662334537506,-0.244208634281158,-1.4645527593612702,0.7386296870116554
5.729415808600848,0.189537822818756,0.0144534750938416,-1.54358840389252,0.7386296870116554
5.730021502119927,0.0793669243812561,-0.0023116616249084497,-1.47652785701752,0.7386296870116554
5.730627195639007,0.18714280328750602,-0.11487757959365799,-1.10290481014252,0.7386296870116554
5.731232889158086,0.13684739313125602,0.0863040610313415,-1.3016914312362702,0.7386296870116554
5.731838582677165,0.18235276422500601,-0.00710170068740845,-1.4262324468612702,0.7386296870116554
5.7324442761962455,0.129662334537506,-0.284923966312408,-1.2729511968612701,0.7386296870116554
5.733049969715324,0.0865519829750061,-0.153197892093658,-1.5244282476425202,0.7386296870116554
5.733655663234403,0.23025315485000603,-0.0597921303749084,-1.37593703670502,0.7386296870116554
5.734261356753483,-0.0284089545249939,-0.191518204593658,-1.1268550054550202,0.7386296870116554
5.7348670502725625,0.122477275943756,-0.0813473061561585,-1.3998872320175202,0.7386296870116554
5.735472743791641,0.364374248600006,-0.12206263818740799,-1.24900100154877,0.7386296870116554
5.736078437310721,0.15600754938125602,-0.217863419437408,-1.21547072811127,0.7386296870116554
5.7366841308298,0.148822490787506,0.0623538657188416,-1.44060256404877,0.7386296870116554
5.7372898243488795,0.09613206110000609,-0.296899063968658,-1.30887648983002,0.7386296870116554
5.737895517867959,-0.00685377874374386,-0.198703263187408,-1.4094673101425201,0.7386296870116554
5.738501211387038,0.189537822818756,-0.165172989749908,-1.4094673101425201,0.7386296870116554
5.7391069049061185,0.158402568912506,-0.11966761865615799,-1.37593703670502,0.7386296870116554
5.739712598425197,0.0769719048500061,-0.0933224038124085,-1.4094673101425201,0.7386296870116554
5.740318291944276,-0.08349440374374391,-0.110087540531158,-1.29690139217377,0.9568373966393391
5.740923985463356,0.0266764946937561,-0.0765572670936585,-1.23942092342377,0.9568373966393391
5.7415296789824355,0.0434416314125061,-0.167568009281158,-1.36875197811127,0.9568373966393391
5.742135372501514,0.25899338922500603,-0.05021205224990841,-1.31366652889252,0.9568373966393391
5.742741066020594,0.19193284235000602,-0.222653458499908,-1.13643508358002,0.9568373966393391
5.743346759539673,-0.035594013118743904,-0.0262618569374084,-1.52682326717377,0.9568373966393391
5.7439524530587525,0.129662334537506,-0.160382950687408,-1.45497268123627,0.9568373966393391
5.744558146577832,-0.0164338568687439,-0.0789522866249085,-1.22265578670502,0.9568373966393391
5.745163840096911,0.0266764946937561,0.0958841391563415,-1.3112715093612701,0.9568373966393391
5.74576953361599,0.179957744693756,-0.181938126468658,-1.55556350154877,0.9568373966393391
5.74637522713507,0.0194914361000061,0.129414412593842,-1.61543898983002,0.9568373966393391
5.746980920654149,-0.021223895931243898,-0.11727259912490799,-1.37354201717377,0.9568373966393391
5.747586614173228,0.09613206110000609,-0.277738907718658,-1.38072707576752,0.9568373966393391
5.7481923076923085,0.050626690006256095,8.335790634155139e-05,-1.53161330623627,0.9568373966393391
5.748798001211387,0.184747783756256,0.016848494625091602,-1.37354201717377,0.9568373966393391
5.749403694730466,0.28773362360000604,-0.0262618569374084,-1.4813178960800202,0.9568373966393391
5.750009388249546,0.400299541568756,-0.00949672021865845,-1.58669875545502,0.9568373966393391
5.7506150817686255,0.472150127506256,-0.179543106937408,-1.42383742733002,0.9568373966393391
5.751220775287704,0.13684739313125602,-0.167568009281158,-1.8190156499862702,0.9568373966393391
5.751826468806784,0.330843975162506,0.0623538657188416,-1.34719680233002,0.9568373966393391
5.752432162325863,0.22067307672500602,-0.047817032718658406,-1.26097609920502,0.9568373966393391
5.753037855844942,0.21588303766250602,-0.131642716312408,-1.2849262945175202,0.9568373966393391
5.753643549364022,0.311683818912506,-0.0190767983436584,-1.06458449764252,0.9568373966393391
5.754249242883101,0.167982647037506,-0.0621871499061584,-1.58669875545502,0.9568373966393391
5.75485493640218,0.139242412662506,-0.0885323647499085,-1.42383742733002,0.9568373966393391
5.75546062992126,0.158402568912506,-0.105297501468658,-1.24421096248627,0.9568373966393391
5.756066323440339,0.19193284235000602,-0.138827774906158,-1.34240676326752,0.9568373966393391
5.756672016959419,0.0673918267250061,-0.0693722084999085,-1.4429975835800202,0.9568373966393391
5.7572777104784985,0.208697979068756,-0.196308243656158,-1.4310224859237701,0.9568373966393391
5.757883403997577,0.15600754938125602,-0.201098282718658,-1.58669875545502,0.9568373966393391
5.758489097516657,0.21588303766250602,-0.31126918115615804,-1.62980910701752,0.9568373966393391
5.759094791035736,0.359584209537506,-0.0550020913124084,-1.56514357967377,0.9568373966393391
5.759700484554815,0.057811748600006096,0.0192435141563416,-1.5411933843612702,0.9568373966393391
5.760306178073895,0.158402568912506,-0.134037735843658,-1.59148879451752,0.9568373966393391
5.760911871592974,0.110502178287506,-0.0621871499061584,-1.4310224859237701,0.9568373966393391
5.761517565112053,0.0745768853187561,0.0144534750938416,-1.2130757085800201,0.9568373966393391
5.762123258631133,0.340424053287506,-0.11727259912490799,-1.4525776617050201,0.9568373966393391
5.762728952150212,0.20630295953750602,-0.232233536624908,-1.43581252498627,0.9568373966393391
5.763334645669291,0.124872295475006,-0.153197892093658,-1.61543898983002,0.9568373966393391
5.7639403391883715,0.053021709537506095,-0.05021205224990841,-1.4813178960800202,0.9568373966393391
5.76454603270745,0.115292217350006,-0.0166817788124084,-1.1915205327987701,0.9568373966393391
5.765151726226529,0.21109299860000602,0.0623538657188416,-1.28732131404877,0.9568373966393391
5.765757419745609,0.134452373600006,-0.11727259912490799,-1.3448017827987702,0.9568373966393391
5.766363113264688,0.19672288141250602,-0.174753067874908,-1.38551711483002,0.9568373966393391
5.766968806783767,0.14163743219375602,-0.191518204593658,-1.23463088436127,0.9568373966393391
5.767574500302847,0.19193284235000602,-0.112482560062408,-1.51724318904877,0.9568373966393391
5.768180193821926,0.294918682193756,-0.0981124428749085,-1.22265578670502,0.9568373966393391
5.768785887341005,0.15600754938125602,-0.189123185062408,-1.32085158748627,0.9568373966393391
5.769391580860085,0.194327861881256,-0.0957174233436585,-1.6609443609237702,0.9568373966393391
5.769997274379164,0.0410466118812561,-0.112482560062408,-1.45497268123627,0.9568373966393391
5.7706029678982445,0.0434416314125061,-0.0310518959999084,-1.59388381404877,0.9568373966393391
5.771208661417323,0.452989971256256,-0.0190767983436584,-1.51005813045502,0.9568373966393391
5.771814354936402,0.469755107975006,0.0192435141563416,-1.35438186092377,0.9568373966393391
5.772420048455482,0.15121751031875602,0.0839090415000915,-1.38072707576752,0.9568373966393391
5.773025741974561,-0.00924879827499386,0.105464217281342,-1.1915205327987701,0.9568373966393391
5.77363143549364,-0.0930744818687439,-0.0550020913124084,-1.30887648983002,0.9568373966393391
5.77423712901272,0.134452373600006,-0.0573971108436584,-1.30887648983002,0.9568373966393391
5.774842822531799,0.19672288141250602,-0.0909273842811585,-1.3879121343612701,0.9568373966393391
5.775448516050878,0.26857346735000603,-0.0789522866249085,-1.3112715093612701,0.9568373966393391
5.776054209569958,0.0482316704750061,0.0144534750938416,-1.23942092342377,0.9568373966393391
5.776659903089037,0.09613206110000609,-0.0957174233436585,-1.4693427984237701,0.9568373966393391
5.777265596608116,0.302103740787506,-0.14601283349990798,-1.35677688045502,0.9568373966393391
5.777871290127196,0.09373704156875609,-0.00949672021865845,-1.5675385992050201,0.9568373966393391
5.778476983646275,0.134452373600006,0.146179549312592,-1.4477876226425201,0.9568373966393391
5.779082677165354,0.0602067681312561,0.174919783687592,-1.1819404546737702,0.9568373966393391
5.779688370684434,0.26857346735000603,-0.0023116616249084497,-1.36396193904877,0.9568373966393391
5.780294064203513,0.15121751031875602,-0.21067836084365799,-1.61304397029877,0.9568373966393391
5.780899757722592,0.266178447818756,-0.191518204593658,-1.64657424373627,0.9568373966393391
5.781505451241672,0.18714280328750602,-0.134037735843658,-1.09092971248627,0.9568373966393391
5.782111144760751,0.13684739313125602,-0.11727259912490799,-1.17475539608002,0.9568373966393391
5.78271683827983,0.330843975162506,-0.198703263187408,-1.4693427984237701,0.9568373966393391
5.78332253179891,0.256598369693756,-0.25857875146865805,-1.5627485601425202,0.9568373966393391
5.78392822531799,0.21588303766250602,-0.0909273842811585,-1.5675385992050201,0.9568373966393391
5.784533918837068,0.0626017876625061,-0.100507462406158,-1.3711469976425201,0.9568373966393391
5.785139612356148,0.20151292047500602,0.0288235922813416,-1.40228225154877,0.9568373966393391
5.785745305875227,0.175167705631256,-0.0717672280311585,-1.1220649663925202,0.9568373966393391
5.7863509993943065,0.270968486881256,-0.0597921303749084,-1.39030715389252,0.9568373966393391
5.786956692913386,0.0458366509437561,-0.0909273842811585,-1.5459834234237702,0.9568373966393391
5.787562386432465,0.14163743219375602,-0.227443497562408,-1.39509719295502,0.9568373966393391
5.788168079951545,0.0194914361000061,-0.0526070717811584,-1.52203322811127,0.9568373966393391
5.788773773470624,-0.033198993587493904,-0.193913224124908,-1.40228225154877,0.9568373966393391
5.789379466989703,0.311683818912506,-0.36156459131240803,-1.4597627202987702,0.9568373966393391
5.789985160508783,-0.0475691107749939,-0.043026993656158405,-1.46694777889252,0.9568373966393391
5.790590854027862,0.263783428287506,0.0934891196250915,-1.2585810796737702,0.9568373966393391
5.791196547546941,0.16558762750625602,-0.0909273842811585,-1.29690139217377,0.9568373966393391
5.791802241066021,0.108107158756256,-0.0573971108436584,-1.28253127498627,0.9568373966393391
5.7924079345851,0.0338615532875061,-0.148407853031158,-1.51724318904877,0.9568373966393391
5.7930136281041795,-0.0882844428062439,-0.177148087406158,-1.3927021734237701,0.9568373966393391
5.793619321623259,0.314078838443756,-0.110087540531158,-1.2298408452987701,0.9568373966393391
5.794225015142338,0.120082256412506,-0.234628556156158,-1.55316848201752,0.9568373966393391
5.794830708661417,0.103317119693756,-0.004706681156158451,-1.68489455623627,0.9568373966393391
5.795436402180497,0.354794170475006,-0.047817032718658406,-1.29211135311127,0.9568373966393391
5.796042095699576,0.28773362360000604,-0.177148087406158,-1.35438186092377,0.9568373966393391
5.796647789218655,0.127267315006256,-0.0789522866249085,-1.53640334529877,0.9568373966393391
5.7972534827377356,0.177562725162506,-0.304084122562408,-1.3663569585800202,0.9568373966393391
5.797859176256814,0.144032451725006,-0.0262618569374084,-1.41665236873627,0.9568373966393391
5.798464869775893,0.0075163384437561395,-0.100507462406158,-1.26097609920502,0.9568373966393391
5.799070563294973,0.100922100162506,-0.0142867592811584,-1.52203322811127,0.9568373966393391
5.7996762568140525,0.0362565728187561,-0.107692520999908,-1.7256098882675202,0.9568373966393391
5.800281950333131,0.297313701725006,-0.169963028812408,-1.37593703670502,0.9568373966393391
5.800887643852211,0.302103740787506,0.0288235922813416,-1.3232466070175202,0.9568373966393391
5.80149333737129,0.105712139225006,-0.0933224038124085,-1.35917189998627,0.9568373966393391
5.8020990308903695,0.0913420220375061,0.047983748531341595,-1.26576613826752,0.9568373966393391
5.802704724409449,0.0889470025062561,-0.047817032718658406,-1.5292182867050201,0.9568373966393391
5.803310417928528,0.194327861881256,-0.141222794437408,-1.6992646734237702,0.9568373966393391
5.803916111447607,0.270968486881256,-0.045422013187408405,-1.3495918218612701,0.9568373966393391
5.804521804966687,0.412274639225006,0.0144534750938416,-1.23702590389252,0.9568373966393391
5.805127498485766,0.24701829156875602,-0.162777970218658,-1.54837844295502,0.9568373966393391
5.805733192004846,0.177562725162506,-0.134037735843658,-1.46215773983002,0.9568373966393391
5.8063388855239255,0.20151292047500602,-0.0957174233436585,-1.2729511968612701,0.9568373966393391
5.806944579043004,0.0482316704750061,0.00487339696884155,-1.41186232967377,0.9568373966393391
5.807550272562084,0.177562725162506,-0.177148087406158,-1.4310224859237701,0.9568373966393391
5.808155966081163,0.20151292047500602,-0.0789522866249085,-1.41665236873627,0.9568373966393391
5.8087616596002425,0.0147013970375061,-0.14601283349990798,-1.2801362554550202,0.9568373966393391
5.809367353119322,0.26857346735000603,-0.155592911624908,-1.6106489507675201,0.9568373966393391
5.809973046638401,0.18714280328750602,-0.0933224038124085,-1.6441792242050202,0.9568373966393391
5.81057874015748,0.148822490787506,-0.169963028812408,-1.3184565679550202,0.9568373966393391
5.81118443367656,0.254203350162506,-0.129247696781158,-1.23702590389252,0.9568373966393391
5.811790127195639,0.412274639225006,-0.0310518959999084,-1.2681611577987701,0.9568373966393391
5.812395820714718,0.22546311578750602,0.162944686031342,-1.38072707576752,0.9568373966393391
5.8130015142337985,0.15600754938125602,0.0072684165000915495,-1.3280366460800201,0.9568373966393391
5.813607207752877,0.031466533756256104,-0.0669771889686585,-1.43341750545502,0.9568373966393391
5.814212901271956,-0.00685377874374386,-0.141222794437408,-1.3495918218612701,0.9568373966393391
5.814818594791036,0.134452373600006,-0.124457657718658,-1.2681611577987701,0.9568373966393391
5.8154242883101155,0.0266764946937561,-0.0789522866249085,-1.17715041561127,0.9568373966393391
5.816029981829194,0.122477275943756,-0.110087540531158,-1.18433547420502,0.9568373966393391
5.816635675348274,-0.0571491888999939,-0.0669771889686585,-1.5076631109237701,0.9568373966393391
5.817241368867353,-0.0164338568687439,-0.198703263187408,-1.61543898983002,0.9568373966393391
5.8178470623864325,0.00033127985000613603,-0.110087540531158,-1.62022902889252,0.9568373966393391
5.818452755905512,0.127267315006256,8.335790634155139e-05,-1.4908979742050201,0.9568373966393391
5.819058449424591,0.270968486881256,-0.153197892093658,-1.18433547420502,0.9568373966393391
5.8196641429436715,0.103317119693756,-0.15080287256240799,-1.27055617733002,0.9568373966393391
5.82026983646275,0.194327861881256,-0.05021205224990841,-1.4597627202987702,0.9568373966393391
5.820875529981829,0.33802903375625604,0.0623538657188416,-1.29690139217377,0.9568373966393391
5.821481223500909,0.103317119693756,-0.105297501468658,-1.11487990779877,0.9568373966393391
5.8220869170199885,0.0697868462562561,-0.11487757959365799,-1.2729511968612701,0.9568373966393391
5.822692610539067,0.103317119693756,-0.0981124428749085,-1.35677688045502,0.9568373966393391
5.823298304058147,0.194327861881256,-0.143617813968658,-1.3783320562362702,0.9568373966393391
5.823903997577226,0.14642747125625602,-0.169963028812408,-1.28253127498627,0.9568373966393391
5.8245096910963055,-0.0260139349937439,-0.129247696781158,-1.2585810796737702,0.9568373966393391
5.825115384615385,0.112897197818756,-0.0669771889686585,-1.3448017827987702,0.9568373966393391
5.825721078134464,0.199117900943756,-0.05021205224990841,-1.21547072811127,0.9568373966393391
5.826326771653543,-0.018828876399993897,-0.186728165531158,-1.2897163335800201,0.9568373966393391
5.826932465172623,0.175167705631256,-0.0717672280311585,-1.5795136968612702,0.9568373966393391
5.827538158691702,0.0649968071937561,-0.0933224038124085,-1.3615669195175202,0.9568373966393391
5.828143852210781,-0.0308039740562439,-0.251393692874908,-1.4429975835800202,0.9568373966393391
5.8287495457298615,0.342819072818756,-0.153197892093658,-1.53400832576752,0.9568373966393391
5.82935523924894,0.17037766656875603,-0.047817032718658406,-1.49329299373627,0.9568373966393391
5.829960932768019,0.299708721256256,0.0144534750938416,-1.37354201717377,0.9568373966393391
5.830566626287099,0.335634014225006,-0.220258438968658,-1.41186232967377,0.9568373966393391
5.8311723198061785,0.163192607975006,-0.11727259912490799,-1.4214424077987702,0.9568373966393391
5.831778013325257,0.09613206110000609,0.0839090415000915,-1.38072707576752,0.9568373966393391
5.832383706844337,0.153612529850006,-0.107692520999908,-1.42862746639252,0.9568373966393391
5.832989400363416,-0.112234638118744,-0.0669771889686585,-1.3064814702987702,0.9568373966393391
5.833595093882495,-0.023618915462493898,-0.141222794437408,-1.5028730718612702,0.9568373966393391
5.834200787401575,0.144032451725006,-0.148407853031158,-1.1651753179550202,0.9568373966393391
5.834806480920654,0.122477275943756,0.07193394384384151,-1.0789546148300202,0.9568373966393391
5.835412174439733,0.148822490787506,-0.0214718178749084,-1.13643508358002,0.9568373966393391
5.836017867958813,0.27815354547500604,-0.196308243656158,-1.24421096248627,0.9568373966393391
5.836623561477892,0.21109299860000602,0.00247837743759155,-1.51005813045502,0.9568373966393391
5.837229254996972,-0.12899977483749397,0.105464217281342,-1.39749221248627,0.9568373966393391
5.8378349485160514,0.148822490787506,-0.0669771889686585,-1.3400117437362702,0.9568373966393391
5.83844064203513,0.302103740787506,-0.253788712406158,-1.3232466070175202,0.9568373966393391
5.83904633555421,0.0482316704750061,-0.0933224038124085,-1.5579585210800202,0.9568373966393391
5.839652029073289,0.0602067681312561,-0.0789522866249085,-1.4429975835800202,0.9568373966393391
5.840257722592368,0.110502178287506,-0.28252894678115803,-0.959203638267517,0.6983951314681549
5.840863416111448,0.395509502506256,-0.0526070717811584,-0.7819721929550171,0.6983951314681549
5.841469109630527,0.15600754938125602,-0.105297501468658,-1.52203322811127,0.6983951314681549
5.842074803149606,-0.0116438178062439,-0.045422013187408405,-1.4477876226425201,0.6983951314681549
5.842680496668686,0.115292217350006,-0.0526070717811584,-1.12445998592377,0.6983951314681549
5.843286190187765,0.09852708063125609,-0.11487757959365799,-1.4429975835800202,0.6983951314681549
5.843891883706844,0.108107158756256,-0.00710170068740845,-1.24900100154877,0.6983951314681549
5.8444975772259244,-0.0475691107749939,-0.0262618569374084,-1.17715041561127,0.6983951314681549
5.845103270745003,0.0338615532875061,-0.169963028812408,-1.40707229061127,0.6983951314681549
5.845708964264082,0.148822490787506,0.07432896337509151,-1.44539260311127,0.6983951314681549
5.846314657783162,0.22067307672500602,0.304250838375092,-1.3184565679550202,0.6983951314681549
5.846920351302241,0.390719463443756,-0.0550020913124084,-1.2681611577987701,0.6983951314681549
5.84752604482132,0.251808330631256,-0.126852677249908,-1.1220649663925202,0.6983951314681549
5.8481317383404,-0.16732008733749398,0.0575638266563416,-1.38072707576752,0.6983951314681549
5.84873743185948,-0.13378981389999398,-0.045422013187408405,-1.4980830327987702,0.6983951314681549
5.849343125378558,0.09373704156875609,-0.110087540531158,-1.51724318904877,0.6983951314681549
5.849948818897638,0.213488018131256,-0.0669771889686585,-1.3232466070175202,0.6983951314681549
5.850554512416717,0.13205735406875602,-0.153197892093658,-1.45497268123627,0.6983951314681549
5.8511602059357966,0.14163743219375602,-0.184333145999908,-1.3783320562362702,0.6983951314681549
5.851765899454876,0.14642747125625602,-0.28971400537490805,-1.33043166561127,0.6983951314681549
5.852371592973955,0.0745768853187561,-0.148407853031158,-1.41904738826752,0.6983951314681549
5.852977286493035,0.294918682193756,-0.189123185062408,-1.34719680233002,0.6983951314681549
5.853582980012114,0.15600754938125602,-0.184333145999908,-1.51724318904877,0.6983951314681549
5.854188673531193,0.227858135318756,-0.0621871499061584,-1.7639302007675202,0.6983951314681549
5.854794367050273,0.270968486881256,-0.0550020913124084,-1.4980830327987702,0.6983951314681549
5.855400060569352,0.148822490787506,-0.0717672280311585,-1.24900100154877,0.6983951314681549
5.856005754088431,0.333238994693756,-0.141222794437408,-1.2250508062362702,0.6983951314681549
5.856611447607511,0.24222825250625601,-0.0238668374061584,-1.3328266851425201,0.6983951314681549
5.85721714112659,0.179957744693756,0.012058455562591601,-1.4525776617050201,0.6983951314681549
5.857822834645669,-0.0164338568687439,-0.126852677249908,-1.4262324468612702,0.6983951314681549
5.858428528164749,0.0362565728187561,0.012058455562591601,-1.30887648983002,0.6983951314681549
5.859034221683828,0.148822490787506,-0.0262618569374084,-1.1388301031112702,0.6983951314681549
5.859639915202907,0.254203350162506,-0.14601283349990798,-1.09571975154877,0.6983951314681549
5.860245608721987,0.0793669243812561,0.047983748531341595,-1.2034956304550202,0.6983951314681549
5.860851302241066,0.232648174381256,0.016848494625091602,-1.2897163335800201,0.6983951314681549
5.861456995760145,0.22067307672500602,-0.129247696781158,-1.2897163335800201,0.6983951314681549
5.862062689279226,0.172772686100006,-0.143617813968658,-1.4693427984237701,0.6983951314681549
5.862668382798304,0.297313701725006,-0.0909273842811585,-1.22265578670502,0.6983951314681549
5.863274076317383,0.0745768853187561,-0.148407853031158,-1.3663569585800202,0.6983951314681549
5.863879769836463,0.0889470025062561,-0.0621871499061584,-1.59388381404877,0.6983951314681549
5.8644854633555425,0.115292217350006,0.0144534750938416,-1.28253127498627,0.6983951314681549
5.865091156874621,0.0745768853187561,-0.0717672280311585,-1.4382075445175202,0.6983951314681549
5.865696850393701,0.158402568912506,-0.172358048343658,-1.35438186092377,0.6983951314681549
5.86630254391278,0.237438213443756,0.0551688071250916,-1.5028730718612702,0.6983951314681549
5.8669082374318595,0.194327861881256,0.0264285727500916,-1.40228225154877,0.6983951314681549
5.867513930950939,-0.0164338568687439,0.103069197750092,-1.4046772710800202,0.6983951314681549
5.868119624470018,0.239833232975006,0.174919783687592,-1.49329299373627,0.6983951314681549
5.868725317989098,0.373954326725006,8.335790634155139e-05,-1.30887648983002,0.6983951314681549
5.869331011508177,0.32844895563125603,-0.186728165531158,-1.26576613826752,0.6983951314681549
5.869936705027256,0.371559307193756,-0.263368790531158,-1.1484101812362701,0.6983951314681549
5.870542398546336,-0.021223895931243898,-0.0981124428749085,-0.887353052330017,0.6983951314681549
5.871148092065415,0.314078838443756,-0.110087540531158,-0.995128931236267,0.6983951314681549
5.871753785584494,0.0626017876625061,-0.0909273842811585,-1.47413283748627,0.6983951314681549
5.872359479103574,-0.061939227962493904,-0.102902481937408,-1.0933247320175201,0.6983951314681549
5.872965172622653,0.18235276422500601,-0.0166817788124084,-1.19631057186127,0.6983951314681549
5.8735708661417325,0.256598369693756,-0.0861373452186585,-1.41904738826752,0.6983951314681549
5.874176559660812,-0.023618915462493898,0.040798689937591594,-1.47173781795502,0.6983951314681549
5.874782253179891,-0.0499641303062439,8.335790634155139e-05,-1.3112715093612701,0.6983951314681549
5.87538794669897,0.335634014225006,-0.129247696781158,-1.1268550054550202,0.6983951314681549
5.87599364021805,0.0602067681312561,0.047983748531341595,-1.2298408452987701,0.6983951314681549
5.876599333737129,0.0865519829750061,-0.0717672280311585,-1.2729511968612701,0.6983951314681549
5.877205027256208,0.0817619439125061,-0.0693722084999085,-1.27774123592377,0.6983951314681549
5.8778107207752885,0.0745768853187561,-0.0717672280311585,-1.2729511968612701,0.6983951314681549
5.878416414294367,0.0673918267250061,-0.15080287256240799,-1.2418159429550202,0.6983951314681549
5.879022107813446,0.127267315006256,-0.0957174233436585,-1.2849262945175202,0.6983951314681549
5.879627801332526,0.213488018131256,-0.177148087406158,-1.40228225154877,0.6983951314681549
5.8802334948516055,0.177562725162506,-0.0789522866249085,-1.4262324468612702,0.6983951314681549
5.880839188370684,0.120082256412506,-0.12206263818740799,-1.3663569585800202,0.6983951314681549
5.881444881889764,-0.0691242865562439,-0.11487757959365799,-1.26097609920502,0.6983951314681549
5.882050575408843,0.14163743219375602,-0.040631974124908404,-1.48850295467377,0.6983951314681549
5.8826562689279225,0.285338604068756,-0.0693722084999085,-1.5124531499862701,0.6983951314681549
5.883261962447002,0.14163743219375602,-0.0166817788124084,-1.3615669195175202,0.6983951314681549
5.883867655966081,-0.0260139349937439,-0.0621871499061584,-1.47652785701752,0.6983951314681549
5.88447334948516,0.15600754938125602,-0.0765572670936585,-1.39749221248627,0.6983951314681549
5.88507904300424,0.297313701725006,-0.00949672021865845,-1.5507734624862701,0.6983951314681549
5.885684736523319,0.0290715142250061,0.06953892431259151,-1.40228225154877,0.6983951314681549
5.886290430042399,0.0745768853187561,0.00247837743759155,-1.38072707576752,0.6983951314681549
5.8868961235614785,0.0793669243812561,-0.0885323647499085,-1.05500441951752,0.6983951314681549
5.887501817080557,0.13205735406875602,-0.208283341312408,-1.1532002202987701,0.6983951314681549
5.888107510599637,0.15121751031875602,-0.0789522866249085,-1.59627883358002,0.6983951314681549
5.888713204118716,-0.033198993587493904,0.00247837743759155,-1.3064814702987702,0.6983951314681549
5.8893188976377955,0.09373704156875609,0.07193394384384151,-1.39030715389252,0.6983951314681549
5.889924591156875,0.053021709537506095,-0.110087540531158,-1.3328266851425201,0.6983951314681549
5.890530284675954,0.127267315006256,-0.28252894678115803,-1.30408645076752,0.6983951314681549
5.891135978195033,0.292523662662506,-0.040631974124908404,-1.40228225154877,0.6983951314681549
5.891741671714113,0.009911357975006141,-0.11487757959365799,-1.20110061092377,0.6983951314681549
5.892347365233192,-0.037989032649993905,0.07193394384384151,-1.1915205327987701,0.6983951314681549
5.892953058752271,-0.0739143256187439,0.160549666500092,-1.35438186092377,0.6983951314681549
5.8935587522713515,0.134452373600006,-0.0813473061561585,-1.41186232967377,0.6983951314681549
5.89416444579043,0.0482316704750061,-0.30168910303115803,-1.4645527593612702,0.6983951314681549
5.894770139309509,0.024281475162506103,0.0288235922813416,-1.37354201717377,0.6983951314681549
5.895375832828589,0.167982647037506,-0.0717672280311585,-1.3783320562362702,0.6983951314681549
5.8959815263476685,0.09613206110000609,-0.138827774906158,-1.3064814702987702,0.6983951314681549
5.896587219866747,0.383534404850006,-0.138827774906158,-1.47892287654877,0.6983951314681549
5.897192913385827,0.256598369693756,-0.0023116616249084497,-1.4980830327987702,0.6983951314681549
5.897798606904906,0.275758525943756,-0.0262618569374084,-1.20110061092377,0.6983951314681549
5.8984043004239854,0.373954326725006,-0.237023575687408,-1.31366652889252,0.6983951314681549
5.899009993943065,0.203907940006256,0.0767239829063415,-1.3615669195175202,0.6983951314681549
5.899615687462144,0.057811748600006096,-0.0358419350624084,-1.39749221248627,0.6983951314681549
5.9002213809812245,0.235043193912506,-0.0837423256874085,-1.55556350154877,0.6983951314681549
5.900827074500303,0.0123063775062561,0.189289900875092,-1.3448017827987702,0.6983951314681549
5.901432768019382,0.108107158756256,0.129414412593842,-1.3615669195175202,0.6983951314681549
5.902038461538462,0.39790452203750604,-0.284923966312408,-1.59867385311127,0.6983951314681549
5.9026441550575415,0.09852708063125609,-0.244208634281158,-1.2466059820175202,0.6983951314681549
5.90324984857662,0.16558762750625602,-0.0789522866249085,-1.44060256404877,0.6983951314681549
5.9038555420957,0.050626690006256095,-0.191518204593658,-1.4214424077987702,0.6983951314681549
5.904461235614779,0.0697868462562561,-0.136432755374908,-1.60346389217377,0.6983951314681549
5.9050669291338584,0.227858135318756,-0.0597921303749084,-1.41186232967377,0.6983951314681549
5.905672622652938,0.20151292047500602,-0.112482560062408,-1.1484101812362701,0.6983951314681549
5.906278316172017,0.15121751031875602,-0.25857875146865805,-1.29211135311127,0.6983951314681549
5.906884009691096,0.00272629938125614,-0.0909273842811585,-1.53161330623627,0.6983951314681549
5.907489703210176,0.00033127985000613603,-0.124457657718658,-1.58669875545502,0.6983951314681549
5.908095396729255,0.0482316704750061,-0.203493302249908,-1.2681611577987701,0.6983951314681549
5.908701090248334,0.117687236881256,-0.138827774906158,-1.3927021734237701,0.6983951314681549
5.9093067837674145,0.20630295953750602,-0.0573971108436584,-1.21786574764252,0.6983951314681549
5.909912477286493,0.282943584537506,-0.0118917397499084,-1.2466059820175202,0.6983951314681549
5.910518170805572,0.208697979068756,-0.134037735843658,-1.26097609920502,0.6983951314681549
5.911123864324652,0.350004131412506,-0.11727259912490799,-1.39749221248627,0.6983951314681549
5.911729557843731,0.18714280328750602,-0.0262618569374084,-1.4046772710800202,0.6983951314681549
5.91233525136281,0.09373704156875609,0.06953892431259151,-1.32085158748627,0.6983951314681549
5.91294094488189,0.0290715142250061,-0.313664200687408,-1.3783320562362702,0.6983951314681549
5.913546638400969,0.232648174381256,-0.28013392724990804,-1.4861079351425202,0.6983951314681549
5.914152331920048,0.381139385318756,0.0144534750938416,-1.52682326717377,0.6983951314681549
5.914758025439128,-0.0523591498374939,-0.241813614749908,-1.36396193904877,0.6983951314681549
5.915363718958207,0.18714280328750602,-0.169963028812408,-1.40707229061127,0.6983951314681549
5.915969412477287,0.28773362360000604,-0.0142867592811584,-1.23223586483002,0.6983951314681549
5.916575105996366,0.127267315006256,-0.198703263187408,-1.39509719295502,0.6983951314681549
5.917180799515445,0.0410466118812561,-0.0861373452186585,-1.44060256404877,0.6983951314681549
5.917786493034525,0.20151292047500602,-0.131642716312408,-1.3328266851425201,0.6983951314681549
5.918392186553604,0.19672288141250602,-0.0526070717811584,-1.46215773983002,0.6983951314681549
5.918997880072683,0.144032451725006,0.00966343603134155,-1.38551711483002,0.6983951314681549
5.919603573591763,0.270968486881256,0.203660018062592,-1.42862746639252,0.6983951314681549
5.920209267110842,0.19672288141250602,-0.12206263818740799,-1.33043166561127,0.6983951314681549
5.920814960629921,0.235043193912506,-0.193913224124908,-1.56514357967377,0.6983951314681549
5.921420654149001,0.175167705631256,-0.00710170068740845,-1.5411933843612702,0.6983951314681549
5.92202634766808,-0.00206373968124386,0.170129744625092,-1.45497268123627,0.6983951314681549
5.922632041187159,0.0841569634437561,0.172524764156342,-1.35677688045502,0.6983951314681549
5.923237734706239,0.23025315485000603,-0.316059220218658,-1.3448017827987702,0.6983951314681549
5.923843428225318,0.0841569634437561,-0.347194474124908,-1.6226240484237702,0.6983951314681549
5.924449121744397,0.139242412662506,-0.28013392724990804,-1.56993361873627,0.6983951314681549
5.925054815263477,0.18235276422500601,-0.0526070717811584,-1.21068068904877,0.6983951314681549
5.925660508782556,0.0266764946937561,0.11983433446884201,-1.08134963436127,0.6983951314681549
5.926266202301635,0.16558762750625602,-0.0765572670936585,-1.47413283748627,0.6983951314681549
5.926871895820715,0.117687236881256,-0.0885323647499085,-1.47892287654877,0.6983951314681549
5.927477589339794,0.00272629938125614,-0.0238668374061584,-1.20589064998627,0.6983951314681549
5.928083282858873,-0.033198993587493904,0.043193709468841594,-1.27774123592377,0.6983951314681549
5.928688976377953,0.23025315485000603,-0.102902481937408,-1.5890937749862701,0.6983951314681549
5.929294669897033,0.199117900943756,-0.0358419350624084,-1.56993361873627,0.6983951314681549
5.929900363416111,0.105712139225006,0.131809432125092,-1.4908979742050201,0.6983951314681549
5.930506056935191,0.134452373600006,-0.0166817788124084,-1.46694777889252,0.6983951314681549
5.93111175045427,0.127267315006256,0.0288235922813416,-1.05500441951752,0.6983951314681549
5.9317174439733495,0.235043193912506,-0.0142867592811584,-1.1532002202987701,0.6983951314681549
5.932323137492429,0.0362565728187561,-0.232233536624908,-1.4262324468612702,0.6983951314681549
5.932928831011508,0.103317119693756,-0.335219376468658,-1.46694777889252,0.6983951314681549
5.933534524530587,0.273363506412506,-0.0957174233436585,-1.4046772710800202,0.6983951314681549
5.934140218049667,0.0889470025062561,0.0599588461875916,-1.36875197811127,0.6983951314681549
5.934745911568746,0.158402568912506,-0.0023116616249084497,-1.2130757085800201,0.6983951314681549
5.935351605087826,0.452989971256256,-0.0166817788124084,-1.0454243413925202,0.6983951314681549
5.935957298606905,0.20630295953750602,-0.198703263187408,-1.2585810796737702,0.6983951314681549
5.936562992125984,0.0793669243812561,-0.165172989749908,-1.4310224859237701,0.6983951314681549
5.937168685645064,0.16558762750625602,-0.177148087406158,-1.4046772710800202,0.6983951314681549
5.937774379164143,0.321263897037506,-0.0669771889686585,-1.54837844295502,0.6983951314681549
5.938380072683222,0.20630295953750602,-0.0837423256874085,-1.46215773983002,0.6983951314681549
5.938985766202302,0.16079758844375602,0.0288235922813416,-1.21786574764252,0.6983951314681549
5.939591459721381,0.235043193912506,-0.138827774906158,-1.3711469976425201,0.6983951314681549
5.94019715324046,0.239833232975006,-0.363959610843658,-1.2202607671737702,0.7388472739872807
5.94080284675954,0.0913420220375061,-0.028656876468658398,-1.4693427984237701,0.7388472739872807
5.941408540278619,0.0458366509437561,-0.177148087406158,-1.4693427984237701,0.7388472739872807
5.942014233797698,0.144032451725006,-0.167568009281158,-1.52682326717377,0.7388472739872807
5.942619927316779,0.167982647037506,-0.0597921303749084,-1.4645527593612702,0.7388472739872807
5.943225620835857,0.254203350162506,0.0360086508750916,-1.2250508062362702,0.7388472739872807
5.943831314354936,0.172772686100006,0.0264285727500916,-1.3328266851425201,0.7388472739872807
5.944437007874016,-0.0571491888999939,-0.0142867592811584,-1.41904738826752,0.7388472739872807
5.9450427013930955,0.0649968071937561,-0.0214718178749084,-1.42862746639252,0.7388472739872807
5.945648394912174,0.120082256412506,0.052773787593841597,-1.18433547420502,0.7388472739872807
5.946254088431254,0.0362565728187561,-0.0765572670936585,-1.41665236873627,0.7388472739872807
5.946859781950333,0.23025315485000603,-0.0334469155311584,-1.33761672420502,0.7388472739872807
5.947465475469413,0.120082256412506,-0.177148087406158,-1.36875197811127,0.7388472739872807
5.948071168988492,0.20630295953750602,-0.157987931156158,-1.5507734624862701,0.7388472739872807
5.948676862507571,0.18235276422500601,-0.0909273842811585,-1.35917189998627,0.7388472739872807
5.94928255602665,0.139242412662506,-0.0214718178749084,-1.19391555233002,0.7388472739872807
5.94988824954573,0.14642747125625602,0.158154646968842,-1.40707229061127,0.7388472739872807
5.950493943064809,0.108107158756256,8.335790634155139e-05,-1.45736770076752,0.7388472739872807
5.951099636583889,0.292523662662506,-0.11966761865615799,-1.2202607671737702,0.7388472739872807
5.951705330102968,0.122477275943756,-0.0837423256874085,-1.09811477108002,0.7388472739872807
5.952311023622047,0.17037766656875603,-0.0981124428749085,-1.38551711483002,0.7388472739872807
5.952916717141127,0.103317119693756,-0.0765572670936585,-1.27055617733002,0.7388472739872807
5.953522410660206,-0.22719557561874398,-0.045422013187408405,-1.05500441951752,0.7388472739872807
5.954128104179285,0.25899338922500603,-0.0885323647499085,-1.18912551326752,0.7388472739872807
5.954733797698365,0.179957744693756,0.0767239829063415,-1.4813178960800202,0.7388472739872807
5.955339491217444,-0.107444599056244,-0.184333145999908,-1.41665236873627,0.7388472739872807
5.955945184736523,0.100922100162506,-0.028656876468658398,-1.41425734920502,0.7388472739872807
5.956550878255603,0.22067307672500602,-0.0765572670936585,-1.62022902889252,0.7388472739872807
5.957156571774682,0.23025315485000603,-0.0550020913124084,-1.47892287654877,0.7388472739872807
5.957762265293761,-0.107444599056244,0.043193709468841594,-1.29211135311127,0.7388472739872807
5.9583679588128415,0.09852708063125609,-0.203493302249908,-1.3879121343612701,0.7388472739872807
5.95897365233192,0.232648174381256,-0.138827774906158,-1.53879836483002,0.7388472739872807
5.959579345850999,0.050626690006256095,-0.0142867592811584,-1.38072707576752,0.7388472739872807
5.960185039370079,0.290128643131256,-0.0765572670936585,-1.56514357967377,0.7388472739872807
5.9607907328891585,0.16079758844375602,-0.179543106937408,-0.896933130455017,0.7388472739872807
5.961396426408237,0.13205735406875602,0.07193394384384151,-0.990338892173767,0.7388472739872807
5.962002119927317,0.129662334537506,8.335790634155139e-05,-1.3998872320175202,0.7388472739872807
5.962607813446396,0.0290715142250061,-0.0981124428749085,-1.3495918218612701,0.7388472739872807
5.9632135069654755,-0.119419696712494,-0.040631974124908404,-1.73518996639252,0.7388472739872807
5.963819200484555,-0.0739143256187439,-0.11487757959365799,-1.41665236873627,0.7388472739872807
5.964424894003634,0.009911357975006141,-0.0981124428749085,-1.11248488826752,0.7388472739872807
5.965030587522714,-0.0930744818687439,0.0623538657188416,-1.23942092342377,0.7388472739872807
5.965636281041793,0.18235276422500601,-0.0813473061561585,-1.3998872320175202,0.7388472739872807
5.966241974560872,0.22067307672500602,0.0384036704063416,-1.35917189998627,0.7388472739872807
5.966847668079951,0.00033127985000613603,-0.043026993656158405,-1.4094673101425201,0.7388472739872807
5.967453361599031,0.163192607975006,-0.0909273842811585,-1.29690139217377,0.7388472739872807
5.96805905511811,0.256598369693756,0.0791190024375915,-1.1699653570175201,0.7388472739872807
5.96866474863719,0.14642747125625602,0.052773787593841597,-1.1532002202987701,0.7388472739872807
5.969270442156269,0.163192607975006,-0.00949672021865845,-1.10769484920502,0.7388472739872807
5.9698761356753485,0.232648174381256,-0.203493302249908,-1.3879121343612701,0.7388472739872807
5.970481829194428,0.266178447818756,-0.15080287256240799,-1.61543898983002,0.7388472739872807
5.971087522713507,0.09613206110000609,-0.31126918115615804,-1.3016914312362702,0.7388472739872807
5.971693216232586,0.09613206110000609,0.0910941000938415,-1.5507734624862701,0.7388472739872807
5.972298909751666,0.244623272037506,0.170129744625092,-1.3831220952987702,0.7388472739872807
5.972904603270745,-0.037989032649993905,-0.234628556156158,-1.2466059820175202,0.7388472739872807
5.973510296789824,0.0290715142250061,-0.0166817788124084,-1.3615669195175202,0.7388472739872807
5.9741159903089045,0.189537822818756,0.0264285727500916,-1.23942092342377,0.7388472739872807
5.974721683827983,-0.102654559993744,0.0072684165000915495,-1.36875197811127,0.7388472739872807
5.975327377347062,0.16558762750625602,0.0336136313438416,-1.2801362554550202,0.7388472739872807
5.975933070866142,0.18714280328750602,-0.040631974124908404,-1.29450637264252,0.7388472739872807
5.9765387643852215,-0.033198993587493904,-0.045422013187408405,-1.2633711187362702,0.7388472739872807
5.9771444579043,0.129662334537506,0.0384036704063416,-1.3064814702987702,0.7388472739872807
5.97775015142338,-0.004458759212493861,0.050378768062591596,-1.2633711187362702,0.7388472739872807
5.978355844942459,0.21109299860000602,-0.11727259912490799,-1.30408645076752,0.7388472739872807
5.978961538461538,0.314078838443756,-0.107692520999908,-1.3328266851425201,0.7388472739872807
5.979567231980618,0.120082256412506,-0.294504044437408,-1.3615669195175202,0.7388472739872807
5.980172925499697,0.172772686100006,-0.0765572670936585,-1.47652785701752,0.7388472739872807
5.980778619018777,0.112897197818756,0.012058455562591601,-1.1603852788925202,0.7388472739872807
5.981384312537856,0.0745768853187561,-0.229838517093658,-1.27534621639252,0.7388472739872807
5.981990006056935,0.112897197818756,-0.177148087406158,-1.69447463436127,0.7388472739872807
5.982595699576015,0.09613206110000609,-0.177148087406158,-1.52203322811127,0.7388472739872807
5.9832013930950945,0.0170964165687561,0.06953892431259151,-1.6393891851425202,0.7388472739872807
5.983807086614173,0.139242412662506,-0.0885323647499085,-1.51484816951752,0.7388472739872807
5.984412780133253,0.270968486881256,-0.0813473061561585,-1.27055617733002,0.7388472739872807
5.985018473652332,0.30928879938125603,0.0623538657188416,-1.1651753179550202,0.7388472739872807
5.985624167171411,0.00033127985000613603,-0.11727259912490799,-1.26097609920502,0.7388472739872807
5.986229860690491,0.19672288141250602,-0.189123185062408,-1.18433547420502,0.7388472739872807
5.98683555420957,0.0626017876625061,-0.0142867592811584,-1.4046772710800202,0.7388472739872807
5.987441247728649,-0.140974872493744,0.047983748531341595,-1.56993361873627,0.7388472739872807
5.988046941247729,0.110502178287506,0.00487339696884155,-1.3232466070175202,0.7388472739872807
5.988652634766808,0.280548565006256,8.335790634155139e-05,-1.1651753179550202,0.7388472739872807
5.989258328285887,0.144032451725006,-0.21067836084365799,-0.753231958580017,0.7388472739872807
5.9898640218049675,-0.0691242865562439,-0.136432755374908,-1.17954543514252,0.7388472739872807
5.990469715324046,0.0194914361000061,-0.0717672280311585,-1.3184565679550202,0.7388472739872807
5.991075408843125,0.139242412662506,-0.0597921303749084,-1.07655959529877,0.7388472739872807
5.991681102362205,0.203907940006256,0.0216385336875916,-1.37593703670502,0.7388472739872807
5.992286795881284,0.218278057193756,-0.167568009281158,-1.34240676326752,0.7388472739872807
5.992892489400363,0.28773362360000604,-0.0166817788124084,-1.1052998296737702,0.7388472739872807
5.993498182919443,0.112897197818756,-0.05021205224990841,-1.3448017827987702,0.7388472739872807
5.994103876438523,0.18714280328750602,-0.129247696781158,-1.4094673101425201,0.7388472739872807
5.994709569957601,0.103317119693756,-0.110087540531158,-1.19631057186127,0.7388472739872807
5.995315263476681,0.321263897037506,-0.0885323647499085,-1.41904738826752,0.7388472739872807
5.99592095699576,0.239833232975006,-0.0813473061561585,-1.2681611577987701,0.7388472739872807
5.99652665051484,0.158402568912506,-0.0957174233436585,-1.35917189998627,0.7388472739872807
5.997132344033919,0.316473857975006,-0.189123185062408,-1.37593703670502,0.7388472739872807
5.997738037552998,0.299708721256256,-0.160382950687408,-1.36396193904877,0.7388472739872807
5.998343731072078,0.175167705631256,0.0360086508750916,-1.3280366460800201,0.7388472739872807
5.998949424591157,-0.0930744818687439,0.0264285727500916,-1.19631057186127,0.7388472739872807
5.999555118110236,0.0889470025062561,-0.215468399906158,-1.51005813045502,0.7388472739872807
6.000160811629316,-0.0116438178062439,-0.29929408349990805,-1.57711867733002,0.7388472739872807
6.000766505148395,0.218278057193756,-0.15080287256240799,-1.51005813045502,0.7388472739872807
6.001372198667474,0.335634014225006,-0.208283341312408,-1.4094673101425201,0.7388472739872807
6.001977892186554,0.0721818657875061,-0.203493302249908,-1.3998872320175202,0.7388472739872807
6.002583585705633,0.218278057193756,0.0886990805625915,-1.5076631109237701,0.7388472739872807
6.003189279224712,-0.0523591498374939,-0.0765572670936585,-1.43341750545502,0.7388472739872807
6.003794972743792,0.09613206110000609,-0.179543106937408,-1.27055617733002,0.7388472739872807
6.004400666262871,0.177562725162506,-0.0190767983436584,-1.4597627202987702,0.7388472739872807
6.00500635978195,0.0889470025062561,-0.0262618569374084,-1.55556350154877,0.7388472739872807
6.00561205330103,0.218278057193756,0.0360086508750916,-1.27534621639252,0.7388472739872807
6.006217746820109,0.163192607975006,0.00487339696884155,-1.2418159429550202,0.7388472739872807
6.006823440339188,0.00512131891250614,-0.0214718178749084,-1.3783320562362702,0.7388472739872807
6.007429133858269,0.158402568912506,-0.162777970218658,-1.37593703670502,0.7388472739872807
6.008034827377347,0.100922100162506,-0.179543106937408,-1.32085158748627,0.7388472739872807
6.008640520896426,-0.0667292670249939,-0.237023575687408,-1.45736770076752,0.7388472739872807
6.009246214415506,0.23025315485000603,-0.105297501468658,-1.44539260311127,0.7388472739872807
6.009851907934586,0.350004131412506,-0.105297501468658,-1.19391555233002,0.7388472739872807
6.010457601453664,0.311683818912506,-0.244208634281158,-1.3879121343612701,0.7388472739872807
6.011063294972744,0.16558762750625602,-0.0909273842811585,-1.2897163335800201,0.7388472739872807
6.011668988491823,0.311683818912506,-0.0693722084999085,-1.26576613826752,0.7388472739872807
6.0122746820109025,0.177562725162506,-0.107692520999908,-1.3615669195175202,0.7388472739872807
6.012880375529982,0.213488018131256,-0.0909273842811585,-1.3184565679550202,0.7388472739872807
6.013486069049061,0.167982647037506,0.12462437353134201,-1.2681611577987701,0.7388472739872807
6.01409176256814,0.163192607975006,0.06953892431259151,-1.33761672420502,0.7388472739872807
6.01469745608722,0.14163743219375602,-0.36874964990615805,-1.25618606014252,0.7388472739872807
6.015303149606299,0.031466533756256104,-0.29929408349990805,-1.46694777889252,0.7388472739872807
6.015908843125379,0.0626017876625061,-0.131642716312408,-1.43581252498627,0.7388472739872807
6.016514536644458,0.108107158756256,-0.131642716312408,-1.1987055913925202,0.7388472739872807
6.017120230163537,0.213488018131256,-0.131642716312408,-1.02147414608002,0.7388472739872807
6.017725923682617,0.00512131891250614,-0.0190767983436584,-1.14122512264252,0.7388472739872807
6.018331617201696,-0.160135028743744,0.0288235922813416,-1.44539260311127,0.7388472739872807
6.018937310720775,0.0458366509437561,-0.0933224038124085,-1.23942092342377,0.7388472739872807
6.019543004239855,0.33802903375625604,0.182104842281342,-0.813107446861267,0.7388472739872807
6.020148697758934,0.18235276422500601,0.107859236812592,-1.21786574764252,0.7388472739872807
6.020754391278013,0.117687236881256,-0.0214718178749084,-1.6657343999862702,0.7388472739872807
6.021360084797093,0.00272629938125614,0.0192435141563416,-1.17954543514252,0.7388472739872807
6.021965778316172,0.0697868462562561,0.00487339696884155,-1.4645527593612702,0.7388472739872807
6.022571471835251,0.285338604068756,-0.11966761865615799,-1.4046772710800202,0.7388472739872807
6.023177165354332,0.0697868462562561,-0.11727259912490799,-1.3328266851425201,0.7388472739872807
6.02378285887341,0.16079758844375602,-0.00710170068740845,-1.5076631109237701,0.7388472739872807
6.024388552392489,0.0194914361000061,-0.181938126468658,-1.3783320562362702,0.7388472739872807
6.024994245911569,0.0458366509437561,-0.21067836084365799,-1.47652785701752,0.7388472739872807
6.0255999394306485,0.208697979068756,-0.100507462406158,-1.53400832576752,0.7388472739872807
6.026205632949727,0.189537822818756,-0.038236954593658404,-1.3495918218612701,0.7388472739872807
6.026811326468807,0.17037766656875603,0.131809432125092,-1.5076631109237701,0.7388472739872807
6.027417019987886,0.0697868462562561,0.162944686031342,-1.6920796148300201,0.7388472739872807
6.0280227135069655,0.251808330631256,-0.0262618569374084,-1.4214424077987702,0.7388472739872807
6.028628407026045,0.0602067681312561,-0.14601283349990798,-1.31366652889252,0.7388472739872807
6.029234100545124,0.0194914361000061,-0.134037735843658,-1.38551711483002,0.7388472739872807
6.029839794064203,0.115292217350006,-0.153197892093658,-1.3232466070175202,0.7388472739872807
6.030445487583283,0.105712139225006,-0.265763810062408,-1.3879121343612701,0.7388472739872807
6.031051181102362,0.0793669243812561,-0.0190767983436584,-1.6393891851425202,0.7388472739872807
6.031656874621442,0.0626017876625061,-0.105297501468658,-1.4813178960800202,0.7388472739872807
6.032262568140521,0.15121751031875602,-0.0693722084999085,-1.3064814702987702,0.7388472739872807
6.0328682616596,0.0697868462562561,0.052773787593841597,-1.0406343023300202,0.7388472739872807
6.03347395517868,0.0482316704750061,-0.177148087406158,-1.3232466070175202,0.7388472739872807
6.034079648697759,0.120082256412506,-0.112482560062408,-1.58190871639252,0.7388472739872807
6.0346853422168385,-0.00924879827499386,0.206055037593842,-1.3831220952987702,0.7388472739872807
6.035291035735918,0.0434416314125061,-0.0669771889686585,-1.30408645076752,0.7388472739872807
6.035896729254997,0.189537822818756,-0.253788712406158,-1.40228225154877,0.7388472739872807
6.036502422774076,-0.08109938421249391,-0.0262618569374084,-1.69686965389252,0.7388472739872807
6.037108116293156,0.124872295475006,0.0216385336875916,-1.3400117437362702,0.7388472739872807
6.037713809812235,0.167982647037506,-0.29210902490615803,-1.3112715093612701,0.7388472739872807
6.038319503331314,0.057811748600006096,-0.112482560062408,-1.59148879451752,0.7388472739872807
6.0389251968503945,-0.140974872493744,0.0815140219688415,-1.2633711187362702,0.7388472739872807
6.039530890369473,-0.037989032649993905,-0.11966761865615799,-1.49568801326752,0.7388472739872807
6.040136583888552,0.314078838443756,-0.198703263187408,-1.40707229061127,0.83536391602145
6.040742277407632,0.120082256412506,0.0934891196250915,-1.46694777889252,0.83536391602145
6.0413479709267115,0.0697868462562561,0.225215193843842,-1.51724318904877,0.83536391602145
6.04195366444579,0.0482316704750061,-0.306479142093658,-1.01189406795502,0.83536391602145
6.04255935796487,0.144032451725006,-0.11487757959365799,-1.27534621639252,0.83536391602145
6.043165051483949,0.112897197818756,-0.28013392724990804,-1.34240676326752,0.83536391602145
6.0437707450030285,-0.117024677181244,0.00247837743759155,-1.37593703670502,0.83536391602145
6.044376438522108,0.254203350162506,0.165339705562592,-1.35438186092377,0.83536391602145
6.044982132041187,0.0913420220375061,0.0192435141563416,-1.4597627202987702,0.83536391602145
6.045587825560267,0.22546311578750602,-0.153197892093658,-1.50047805233002,0.83536391602145
6.046193519079346,0.21588303766250602,-0.0909273842811585,-1.4046772710800202,0.83536391602145
6.046799212598425,0.050626690006256095,0.047983748531341595,-1.4477876226425201,0.83536391602145
6.047404906117504,0.424249736881256,-0.20588832178115798,-1.44060256404877,0.83536391602145
6.0480105996365845,0.19193284235000602,-0.0933224038124085,-1.5795136968612702,0.83536391602145
6.048616293155663,0.100922100162506,0.045588729000091595,-1.47413283748627,0.83536391602145
6.049221986674743,0.0482316704750061,0.0216385336875916,-1.32085158748627,0.83536391602145
6.049827680193822,0.18714280328750602,-0.337614395999908,-1.56035354061127,0.83536391602145
6.0504333737129015,0.172772686100006,-0.047817032718658406,-1.57711867733002,0.83536391602145
6.051039067231981,0.261388408756256,-0.05021205224990841,-1.38551711483002,0.83536391602145
6.05164476075106,0.235043193912506,-0.241813614749908,-1.03105422420502,0.83536391602145
6.052250454270139,0.208697979068756,0.0910941000938415,-1.6226240484237702,0.83536391602145
6.052856147789219,0.021886455631256102,-0.0573971108436584,-1.4813178960800202,0.83536391602145
6.053461841308298,0.158402568912506,-0.136432755374908,-1.1915205327987701,0.83536391602145
6.054067534827377,0.0769719048500061,0.12222935400009201,-1.36396193904877,0.83536391602145
6.0546732283464575,0.25899338922500603,-0.14601283349990798,-1.23702590389252,0.83536391602145
6.055278921865536,0.32844895563125603,-0.201098282718658,-1.48371291561127,0.83536391602145
6.055884615384615,-0.0260139349937439,0.107859236812592,-1.45018264217377,0.83536391602145
6.056490308903695,0.179957744693756,-0.045422013187408405,-1.2250508062362702,0.83536391602145
6.0570960024227745,0.199117900943756,-0.110087540531158,-1.30887648983002,0.83536391602145
6.057701695941853,0.09613206110000609,0.0240335532188416,-1.30887648983002,0.83536391602145
6.058307389460933,0.09852708063125609,-0.0789522866249085,-1.26576613826752,0.83536391602145
6.058913082980012,0.153612529850006,-0.234628556156158,-1.39509719295502,0.83536391602145
6.059518776499091,0.184747783756256,-0.0717672280311585,-1.3064814702987702,0.83536391602145
6.060124470018171,0.15121751031875602,-0.0573971108436584,-1.43581252498627,0.83536391602145
6.06073016353725,0.0362565728187561,-0.157987931156158,-1.47173781795502,0.83536391602145
6.06133585705633,0.285338604068756,0.045588729000091595,-1.1867304937362702,0.83536391602145
6.061941550575409,0.0123063775062561,0.043193709468841594,-1.05500441951752,0.83536391602145
6.062547244094488,-0.0284089545249939,-0.148407853031158,-1.3711469976425201,0.83536391602145
6.063152937613568,0.251808330631256,-0.232233536624908,-1.21068068904877,0.83536391602145
6.0637586311326475,0.0266764946937561,-0.141222794437408,-1.3400117437362702,0.83536391602145
6.064364324651726,0.280548565006256,-0.0214718178749084,-1.5124531499862701,0.83536391602145
6.064970018170806,0.232648174381256,0.0551688071250916,-1.3184565679550202,0.83536391602145
6.065575711689885,-0.0308039740562439,0.06953892431259151,-1.16757033748627,0.83536391602145
6.066181405208964,0.227858135318756,-0.110087540531158,-1.48371291561127,0.83536391602145
6.066787098728044,0.292523662662506,-0.045422013187408405,-1.2801362554550202,0.83536391602145
6.067392792247123,0.055416729068756096,-0.00949672021865845,-1.30408645076752,0.83536391602145
6.067998485766202,-0.160135028743744,-0.124457657718658,-1.33522170467377,0.83536391602145
6.068604179285282,-0.174505145931244,0.045588729000091595,-1.27055617733002,0.83536391602145
6.069209872804361,0.09852708063125609,-0.0142867592811584,-1.3783320562362702,0.83536391602145
6.06981556632344,0.153612529850006,-0.179543106937408,-1.12445998592377,0.83536391602145
6.0704212598425205,0.0362565728187561,-0.0765572670936585,-1.29690139217377,0.83536391602145
6.071026953361599,0.172772686100006,-0.043026993656158405,-1.2250508062362702,0.83536391602145
6.071632646880678,0.0913420220375061,-0.179543106937408,-1.29929641170502,0.83536391602145
6.072238340399758,0.14642747125625602,-0.189123185062408,-1.55316848201752,0.83536391602145
6.072844033918837,0.0410466118812561,-0.229838517093658,-1.43581252498627,0.83536391602145
6.073449727437916,-0.00206373968124386,-0.225048478031158,-1.4597627202987702,0.83536391602145
6.074055420956996,0.232648174381256,-0.124457657718658,-1.55556350154877,0.83536391602145
6.074661114476076,0.129662334537506,-0.191518204593658,-1.1867304937362702,0.83536391602145
6.075266807995154,-0.0308039740562439,-0.306479142093658,-1.36875197811127,0.83536391602145
6.075872501514234,0.112897197818756,-0.102902481937408,-1.6058589117050202,0.83536391602145
6.076478195033313,0.232648174381256,0.07432896337509151,-1.3328266851425201,0.83536391602145
6.077083888552393,0.184747783756256,-0.0597921303749084,-1.3495918218612701,0.83536391602145
6.077689582071472,-0.00924879827499386,-0.169963028812408,-1.44060256404877,0.83536391602145
6.078295275590551,0.055416729068756096,-0.105297501468658,-1.1867304937362702,0.83536391602145
6.078900969109631,0.273363506412506,-0.126852677249908,-1.27774123592377,0.83536391602145
6.07950666262871,0.294918682193756,-0.0909273842811585,-0.978363794517517,0.83536391602145
6.080112356147789,0.199117900943756,-0.193913224124908,-1.2082856695175201,0.83536391602145
6.080718049666869,-0.13378981389999398,-0.12206263818740799,-1.56993361873627,0.83536391602145
6.081323743185948,0.00272629938125614,0.0791190024375915,-1.5028730718612702,0.83536391602145
6.081929436705027,0.172772686100006,0.031218611812591602,-1.5028730718612702,0.83536391602145
6.082535130224107,0.261388408756256,-0.0957174233436585,-1.27774123592377,0.83536391602145
6.083140823743186,0.22546311578750602,-0.0981124428749085,-1.3998872320175202,0.83536391602145
6.083746517262265,0.237438213443756,-0.028656876468658398,-1.3495918218612701,0.83536391602145
6.084352210781345,0.18235276422500601,-0.14601283349990798,-1.2681611577987701,0.83536391602145
6.084957904300424,0.0482316704750061,-0.112482560062408,-1.09811477108002,0.83536391602145
6.085563597819503,0.23025315485000603,-0.246603653812408,-1.03584426326752,0.83536391602145
6.086169291338583,0.199117900943756,-0.00949672021865845,-1.30408645076752,0.83536391602145
6.086774984857662,0.129662334537506,0.012058455562591601,-1.40228225154877,0.83536391602145
6.087380678376741,0.256598369693756,-0.102902481937408,-1.21068068904877,0.83536391602145
6.087986371895822,-0.035594013118743904,-0.0597921303749084,-1.3064814702987702,0.83536391602145
6.0885920654149,-0.0978645209312439,-0.169963028812408,-1.3783320562362702,0.83536391602145
6.089197758933979,0.172772686100006,-0.038236954593658404,-1.2729511968612701,0.83536391602145
6.089803452453059,0.17037766656875603,-0.160382950687408,-1.27774123592377,0.83536391602145
6.090409145972139,0.13684739313125602,-0.0645821694374085,-1.33043166561127,0.83536391602145
6.091014839491217,0.057811748600006096,-0.0166817788124084,-1.2034956304550202,0.83536391602145
6.091620533010297,0.17037766656875603,-0.0621871499061584,-1.3112715093612701,0.83536391602145
6.092226226529376,-0.033198993587493904,-0.167568009281158,-1.41904738826752,0.83536391602145
6.0928319200484555,-0.0308039740562439,0.050378768062591596,-1.23463088436127,0.83536391602145
6.093437613567535,0.0817619439125061,0.0264285727500916,-1.3711469976425201,0.83536391602145
6.094043307086614,0.117687236881256,-0.294504044437408,-1.27774123592377,0.83536391602145
6.094649000605693,-0.021223895931243898,-0.222653458499908,-1.36396193904877,0.83536391602145
6.095254694124773,0.208697979068756,-0.215468399906158,-1.5076631109237701,0.83536391602145
6.095860387643852,0.20151292047500602,-0.141222794437408,-1.38551711483002,0.83536391602145
6.096466081162932,0.0266764946937561,-0.0669771889686585,-1.1987055913925202,0.83536391602145
6.097071774682011,0.0889470025062561,-0.0933224038124085,-1.39509719295502,0.83536391602145
6.09767746820109,-0.0691242865562439,-0.100507462406158,-1.19391555233002,0.83536391602145
6.09828316172017,0.14163743219375602,0.0384036704063416,-1.16278029842377,0.83536391602145
6.098888855239249,0.0889470025062561,8.335790634155139e-05,-1.54358840389252,0.83536391602145
6.099494548758328,-0.00206373968124386,-0.143617813968658,-1.20589064998627,0.83536391602145
6.100100242277408,0.27815354547500604,-0.0118917397499084,-1.3016914312362702,0.83536391602145
6.100705935796487,0.213488018131256,-0.12206263818740799,-1.09811477108002,0.83536391602145
6.101311629315566,0.16558762750625602,-0.112482560062408,-1.3495918218612701,0.83536391602145
6.101917322834646,0.22067307672500602,-0.131642716312408,-1.41665236873627,0.83536391602145
6.102523016353725,0.057811748600006096,-0.143617813968658,-1.2466059820175202,0.83536391602145
6.103128709872804,0.134452373600006,-0.191518204593658,-1.56514357967377,0.83536391602145
6.1037344033918846,0.00272629938125614,-0.316059220218658,-1.47173781795502,0.83536391602145
6.104340096910963,-0.021223895931243898,-0.0621871499061584,-1.3879121343612701,0.83536391602145
6.104945790430042,0.0626017876625061,0.00247837743759155,-1.2633711187362702,0.83536391602145
6.105551483949122,-0.0284089545249939,-0.028656876468658398,-1.30408645076752,0.83536391602145
6.1061571774682015,-0.023618915462493898,-0.110087540531158,-1.3927021734237701,0.83536391602145
6.10676287098728,0.0194914361000061,-0.0885323647499085,-1.3663569585800202,0.83536391602145
6.10736856450636,0.117687236881256,-0.239418595218658,-1.29450637264252,0.83536391602145
6.107974258025439,0.390719463443756,0.100674178218842,-1.5124531499862701,0.83536391602145
6.1085799515445185,0.32844895563125603,0.232400252437592,-1.3184565679550202,0.83536391602145
6.109185645063598,0.0410466118812561,0.0863040610313415,-1.41665236873627,0.83536391602145
6.109791338582677,0.15600754938125602,0.0264285727500916,-1.3831220952987702,0.83536391602145
6.110397032101756,0.17037766656875603,-0.136432755374908,-0.930463403892517,0.83536391602145
6.111002725620836,0.24222825250625601,0.043193709468841594,-1.4861079351425202,0.83536391602145
6.111608419139915,0.0889470025062561,-0.148407853031158,-0.8825630132675171,0.83536391602145
6.112214112658994,0.103317119693756,-0.234628556156158,-1.13643508358002,0.83536391602145
6.112819806178074,0.09373704156875609,-0.131642716312408,-1.46215773983002,0.83536391602145
6.113425499697153,0.15600754938125602,-0.179543106937408,-1.22744582576752,0.83536391602145
6.114031193216233,0.112897197818756,-0.043026993656158405,-1.62501906795502,0.83536391602145
6.114636886735312,-0.0164338568687439,-0.0789522866249085,-1.2633711187362702,0.83536391602145
6.1152425802543915,0.402694561100006,-0.00710170068740845,-1.24900100154877,0.83536391602145
6.115848273773471,0.426644756412506,0.103069197750092,-1.3400117437362702,0.83536391602145
6.11645396729255,0.124872295475006,-0.189123185062408,-1.4693427984237701,0.83536391602145
6.117059660811629,-0.00206373968124386,-0.0933224038124085,-1.4382075445175202,0.83536391602145
6.117665354330709,0.244623272037506,-0.0573971108436584,-1.21068068904877,0.83536391602145
6.118271047849788,0.122477275943756,-0.229838517093658,-1.30887648983002,0.83536391602145
6.118876741368867,-0.08109938421249391,-0.12206263818740799,-1.5459834234237702,0.83536391602145
6.1194824348879475,0.13684739313125602,-0.0238668374061584,-1.3280366460800201,0.83536391602145
6.120088128407026,0.273363506412506,-0.0573971108436584,-1.39749221248627,0.83536391602145
6.120693821926105,-0.035594013118743904,0.012058455562591601,-1.6322041265487701,0.83536391602145
6.121299515445185,0.232648174381256,-0.0238668374061584,-1.4262324468612702,0.83536391602145
6.1219052089642645,0.129662334537506,-0.0789522866249085,-1.36396193904877,0.83536391602145
6.122510902483343,0.0410466118812561,-0.0861373452186585,-1.3615669195175202,0.83536391602145
6.123116596002423,0.203907940006256,-0.34240443506240803,-1.1484101812362701,0.83536391602145
6.123722289521502,0.0817619439125061,-0.0214718178749084,-1.46215773983002,0.83536391602145
6.1243279830405815,0.254203350162506,-0.0023116616249084497,-1.30408645076752,0.83536391602145
6.124933676559661,0.203907940006256,-0.105297501468658,-1.26576613826752,0.83536391602145
6.12553937007874,0.055416729068756096,-0.045422013187408405,-1.39509719295502,0.83536391602145
6.12614506359782,0.31886887750625603,-0.0981124428749085,-1.35198684139252,0.83536391602145
6.126750757116899,0.390719463443756,0.00487339696884155,-1.4262324468612702,0.83536391602145
6.127356450635978,0.0889470025062561,-0.0669771889686585,-1.38551711483002,0.83536391602145
6.127962144155058,-0.035594013118743904,-0.141222794437408,-1.4597627202987702,0.83536391602145
6.1285678376741375,-0.0308039740562439,-0.0669771889686585,-1.4214424077987702,0.83536391602145
6.129173531193216,-0.033198993587493904,-0.0957174233436585,-1.25379104061127,0.83536391602145
6.129779224712296,0.0602067681312561,-0.167568009281158,-1.2897163335800201,0.83536391602145
6.130384918231375,0.350004131412506,0.0288235922813416,-1.21068068904877,0.83536391602145
6.1309906117504545,-0.0523591498374939,0.100674178218842,-1.21786574764252,0.83536391602145
6.131596305269534,0.177562725162506,-0.141222794437408,-1.35917189998627,0.83536391602145
6.132201998788613,0.270968486881256,-0.239418595218658,-1.33043166561127,0.83536391602145
6.132807692307692,-0.0571491888999939,-0.148407853031158,-1.47413283748627,0.83536391602145
6.133413385826772,0.053021709537506095,0.0264285727500916,-1.4214424077987702,0.83536391602145
6.134019079345851,0.0817619439125061,0.0982791586875915,-1.39030715389252,0.83536391602145
6.13462477286493,0.323658916568756,-0.11966761865615799,-1.3328266851425201,0.83536391602145
6.1352304663840105,0.421854717350006,0.0192435141563416,-1.31366652889252,0.83536391602145
6.135836159903089,0.0123063775062561,-0.040631974124908404,-1.49568801326752,0.83536391602145
6.136441853422168,-0.061939227962493904,-0.0334469155311584,-1.55316848201752,0.83536391602145
6.137047546941248,0.31886887750625603,-0.162777970218658,-1.23223586483002,0.83536391602145
6.1376532404603275,0.115292217350006,0.0144534750938416,-1.30408645076752,0.83536391602145
6.138258933979406,-0.0427790717124939,0.165339705562592,-1.26576613826752,0.83536391602145
6.138864627498486,0.122477275943756,-0.186728165531158,-1.2585810796737702,0.83536391602145
6.139470321017565,-0.023618915462493898,-0.0597921303749084,-1.8070405523300201,0.83536391602145
6.140076014536644,0.0865519829750061,-0.0550020913124084,-1.8190156499862702,0.7791848784342701
6.140681708055724,0.227858135318756,0.00966343603134155,-1.6058589117050202,0.7791848784342701
6.141287401574803,0.24701829156875602,0.134204451656342,-0.937648462486267,0.7791848784342701
6.141893095093883,0.13205735406875602,0.0264285727500916,-1.36875197811127,0.7791848784342701
6.142498788612962,-0.0284089545249939,-0.047817032718658406,-1.66333938045502,0.7791848784342701
6.143104482132041,0.342819072818756,-0.00710170068740845,-1.21547072811127,0.7791848784342701
6.143710175651121,0.213488018131256,-0.0693722084999085,-1.1915205327987701,0.7791848784342701
6.1443158691702005,0.254203350162506,-0.05021205224990841,-1.25379104061127,0.7791848784342701
6.144921562689279,0.0913420220375061,0.040798689937591594,-1.2466059820175202,0.7791848784342701
6.145527256208359,-0.014038837337493901,0.012058455562591601,-1.2513960210800201,0.7791848784342701
6.146132949727438,-0.0116438178062439,0.143784529781342,-1.2466059820175202,0.7791848784342701
6.146738643246517,0.203907940006256,-0.0933224038124085,-1.26097609920502,0.7791848784342701
6.147344336765597,0.285338604068756,0.045588729000091595,-1.3064814702987702,0.7791848784342701
6.147950030284676,0.127267315006256,-0.0023116616249084497,-1.16278029842377,0.7791848784342701
6.148555723803755,0.450594951725006,-0.263368790531158,-1.41904738826752,0.7791848784342701
6.149161417322835,0.393114482975006,-0.0645821694374085,-1.4262324468612702,0.7791848784342701
6.149767110841914,0.203907940006256,-0.12206263818740799,-1.27534621639252,0.7791848784342701
6.150372804360993,0.239833232975006,-0.0597921303749084,-1.30887648983002,0.7791848784342701
6.1509784978800734,0.057811748600006096,-0.0669771889686585,-1.26097609920502,0.7791848784342701
6.151584191399152,0.249413311100006,0.0288235922813416,-1.4980830327987702,0.7791848784342701
6.152189884918231,0.18714280328750602,-0.15080287256240799,-1.44060256404877,0.7791848784342701
6.152795578437311,0.024281475162506103,-0.107692520999908,-1.23223586483002,0.7791848784342701
6.15340127195639,0.304498760318756,8.335790634155139e-05,-1.40707229061127,0.7791848784342701
6.154006965475469,0.115292217350006,-0.153197892093658,-1.3998872320175202,0.7791848784342701
6.154612658994549,0.0266764946937561,0.0623538657188416,-1.2250508062362702,0.7791848784342701
6.155218352513629,-0.0164338568687439,-0.004706681156158451,-1.25379104061127,0.7791848784342701
6.155824046032707,0.172772686100006,-0.0142867592811584,-1.3112715093612701,0.7791848784342701
6.156429739551787,0.0913420220375061,-0.00710170068740845,-1.26097609920502,0.7791848784342701
6.157035433070866,-0.00206373968124386,0.12462437353134201,-1.29450637264252,0.7791848784342701
6.157641126589946,0.232648174381256,0.136599471187592,-1.3615669195175202,0.7791848784342701
6.158246820109025,-0.0284089545249939,-0.177148087406158,-1.31606154842377,0.7791848784342701
6.158852513628104,0.127267315006256,-0.246603653812408,-1.4597627202987702,0.7791848784342701
6.159458207147184,0.213488018131256,-0.0741622475624085,-1.6010688726425202,0.7791848784342701
6.160063900666263,0.0266764946937561,0.158154646968842,-1.32564162654877,0.7791848784342701
6.160669594185342,0.223068096256256,-0.0214718178749084,-1.35438186092377,0.7791848784342701
6.161275287704422,0.194327861881256,-0.11487757959365799,-1.2681611577987701,0.7791848784342701
6.161880981223501,0.0194914361000061,0.129414412593842,-1.2681611577987701,0.7791848784342701
6.16248667474258,0.0362565728187561,0.0192435141563416,-1.1987055913925202,0.7791848784342701
6.16309236826166,0.263783428287506,-0.0861373452186585,-1.3495918218612701,0.7791848784342701
6.163698061780739,0.21109299860000602,-0.11487757959365799,-1.23702590389252,0.7791848784342701
6.164303755299818,0.24701829156875602,-0.268158829593658,-1.1100898687362701,0.7791848784342701
6.164909448818898,0.144032451725006,-0.174753067874908,-1.59148879451752,0.7791848784342701
6.165515142337977,0.0889470025062561,-0.0214718178749084,-1.5459834234237702,0.7791848784342701
6.166120835857056,0.100922100162506,-0.0238668374061584,-1.44060256404877,0.7791848784342701
6.166726529376136,0.263783428287506,-0.0789522866249085,-1.5244282476425202,0.7791848784342701
6.167332222895215,-0.040384052181243905,-0.143617813968658,-1.2418159429550202,0.7791848784342701
6.167937916414294,0.26857346735000603,0.06953892431259151,-1.34240676326752,0.7791848784342701
6.168543609933375,0.345214092350006,-0.0190767983436584,-1.52203322811127,0.7791848784342701
6.169149303452453,0.0194914361000061,-0.11727259912490799,-1.35677688045502,0.7791848784342701
6.169754996971532,0.364374248600006,-0.0262618569374084,-0.985548853111267,0.7791848784342701
6.170360690490612,0.175167705631256,-0.268158829593658,-1.00949904842377,0.7791848784342701
6.1709663840096916,0.134452373600006,-0.0262618569374084,-1.02626418514252,0.7791848784342701
6.17157207752877,0.0147013970375061,-0.043026993656158405,-1.19631057186127,0.7791848784342701
6.17217777104785,0.0602067681312561,-0.12206263818740799,-1.2513960210800201,0.7791848784342701
6.172783464566929,0.16558762750625602,0.0216385336875916,-1.28253127498627,0.7791848784342701
6.1733891580860085,0.108107158756256,-0.0550020913124084,-1.27055617733002,0.7791848784342701
6.173994851605088,0.227858135318756,-0.105297501468658,-1.21068068904877,0.7791848784342701
6.174600545124167,0.316473857975006,0.0192435141563416,-1.47652785701752,0.7791848784342701
6.175206238643246,0.16558762750625602,0.0815140219688415,-1.1268550054550202,0.7791848784342701
6.175811932162326,0.0626017876625061,-0.028656876468658398,-1.4214424077987702,0.7791848784342701
6.176417625681405,0.326053936100006,0.00247837743759155,-1.3783320562362702,0.7791848784342701
6.177023319200485,0.203907940006256,-0.110087540531158,-1.1388301031112702,0.7791848784342701
6.177629012719564,0.19672288141250602,-0.0334469155311584,-1.3016914312362702,0.7791848784342701
6.178234706238643,0.223068096256256,-0.141222794437408,-1.2801362554550202,0.7791848784342701
6.178840399757723,0.249413311100006,-0.0789522866249085,-1.2849262945175202,0.7791848784342701
6.179446093276802,0.299708721256256,-0.0645821694374085,-1.0789546148300202,0.7791848784342701
6.180051786795881,0.117687236881256,-0.21067836084365799,-1.20589064998627,0.7791848784342701
6.180657480314961,0.139242412662506,-0.0526070717811584,-1.3232466070175202,0.7791848784342701
6.18126317383404,0.340424053287506,-0.0597921303749084,-1.33522170467377,0.7791848784342701
6.181868867353119,0.158402568912506,-0.169963028812408,-1.32564162654877,0.7791848784342701
6.182474560872199,0.0769719048500061,0.040798689937591594,-1.3879121343612701,0.7791848784342701
6.183080254391278,-0.140974872493744,-0.0909273842811585,-1.3448017827987702,0.7791848784342701
6.183685947910357,-0.061939227962493904,-0.14601283349990798,-1.4310224859237701,0.7791848784342701
6.1842916414294375,0.304498760318756,-0.107692520999908,-1.5411933843612702,0.7791848784342701
6.184897334948516,0.057811748600006096,-0.248998673343658,-1.2298408452987701,0.7791848784342701
6.185503028467595,0.285338604068756,-0.131642716312408,-1.39509719295502,0.7791848784342701
6.186108721986675,0.256598369693756,-0.0526070717811584,-1.37354201717377,0.7791848784342701
6.1867144155057545,0.057811748600006096,0.0192435141563416,-1.25379104061127,0.7791848784342701
6.187320109024833,0.0434416314125061,-0.107692520999908,-1.41425734920502,0.7791848784342701
6.187925802543913,0.122477275943756,0.045588729000091595,-1.1699653570175201,0.7791848784342701
6.188531496062992,0.103317119693756,0.040798689937591594,-1.35917189998627,0.7791848784342701
6.1891371895820715,0.333238994693756,-0.148407853031158,-1.59148879451752,0.7791848784342701
6.189742883101151,0.16558762750625602,-0.0621871499061584,-1.30887648983002,0.7791848784342701
6.19034857662023,0.00512131891250614,-0.0526070717811584,-1.4429975835800202,0.7791848784342701
6.19095427013931,0.285338604068756,-0.0717672280311585,-1.1603852788925202,0.7791848784342701
6.191559963658389,0.172772686100006,0.00966343603134155,-1.2298408452987701,0.7791848784342701
6.192165657177468,0.17037766656875603,-0.102902481937408,-1.4429975835800202,0.7791848784342701
6.192771350696547,0.251808330631256,-0.208283341312408,-1.3998872320175202,0.7791848784342701
6.193377044215627,0.266178447818756,-0.169963028812408,-1.5196382085800202,0.7791848784342701
6.193982737734706,0.09852708063125609,-0.0262618569374084,-1.06458449764252,0.7791848784342701
6.194588431253786,0.0626017876625061,-0.102902481937408,-1.21547072811127,0.7791848784342701
6.195194124772865,0.280548565006256,-0.0621871499061584,-1.4980830327987702,0.7791848784342701
6.1957998182919445,0.153612529850006,0.0910941000938415,-1.39509719295502,0.7791848784342701
6.196405511811024,0.148822490787506,-0.0238668374061584,-1.51005813045502,0.7791848784342701
6.197011205330103,0.050626690006256095,-0.045422013187408405,-1.43341750545502,0.7791848784342701
6.197616898849182,0.0147013970375061,-0.234628556156158,-1.31606154842377,0.7791848784342701
6.198222592368262,0.13205735406875602,-0.038236954593658404,-1.46215773983002,0.7791848784342701
6.198828285887341,0.053021709537506095,-0.193913224124908,-1.4525776617050201,0.7791848784342701
6.19943397940642,0.23025315485000603,-0.0885323647499085,-1.70644973201752,0.7791848784342701
6.2000396729255005,0.0290715142250061,0.201264998531342,-1.3879121343612701,0.7791848784342701
6.200645366444579,0.0075163384437561395,-0.177148087406158,-1.40228225154877,0.7791848784342701
6.201251059963658,0.100922100162506,-0.213073380374908,-1.23463088436127,0.7791848784342701
6.201856753482738,0.19672288141250602,-0.155592911624908,-1.45018264217377,0.7791848784342701
6.2024624470018175,0.16558762750625602,-0.047817032718658406,-1.60825393123627,0.7791848784342701
6.203068140520896,0.0841569634437561,-0.0981124428749085,-1.32085158748627,0.7791848784342701
6.203673834039976,0.27815354547500604,-0.00710170068740845,-1.22265578670502,0.7791848784342701
6.204279527559055,0.22546311578750602,-0.20588832178115798,-1.14122512264252,0.7791848784342701
6.2048852210781344,0.167982647037506,-0.162777970218658,-1.4908979742050201,0.7791848784342701
6.205490914597214,-0.0427790717124939,0.14857456884384201,-1.27534621639252,0.7791848784342701
6.206096608116293,0.282943584537506,-0.162777970218658,-1.3663569585800202,0.7791848784342701
6.206702301635373,0.254203350162506,-0.153197892093658,-1.41665236873627,0.7791848784342701
6.207307995154452,0.20630295953750602,-0.160382950687408,-1.3016914312362702,0.7791848784342701
6.207913688673531,0.17037766656875603,0.115044295406342,-1.31366652889252,0.7791848784342701
6.208519382192611,0.239833232975006,0.110254256343842,-1.54358840389252,0.7791848784342701
