Time (s),Accel X (m/s^2),Accel Y (m/s^2),Accel Z (m/s^2),CI Value
6.46975,-0.400615665435791,0.902000280761719,0.315620819377899,0.6758581448821807
6.47035569351908,0.114313533782959,-0.0320573364257812,2.2771418154716496,0.6758581448821807
6.470961387038159,-0.532341739654541,0.126013952636719,-0.273553985309601,0.6758581448821807
6.4715670805572385,-0.422170841217041,-0.477530969238281,-2.5679826962471,0.6758581448821807
6.472172774076317,0.8136592369079589,-1.27507247314453,-0.671127227497101,0.6758581448821807
6.472778467595397,0.657982967376709,0.648128210449219,1.61611642484665,0.6758581448821807
6.473384161114477,0.102338436126709,0.267320104980469,0.658108612346649,0.6758581448821807
6.4739898546335555,-0.285654727935791,-0.0296623168945312,-1.47824880952835,0.6758581448821807
6.474595548152635,-0.32876507949829104,0.7606941284179689,-0.319059356403351,0.6758581448821807
6.475201241671715,0.317890193939209,-0.264374230957031,2.1549958193778997,0.6758581448821807
6.475806935190794,-0.817349063873291,0.365515905761719,0.068933807659149,0.6758581448821807
6.476412628709873,-0.831719181060791,-0.5158512817382811,-2.2949504696846,0.6758581448821807
6.477018322228952,0.703488338470459,-1.25351729736328,-1.2746721493721,0.6758581448821807
6.477624015748032,0.799289119720459,0.549932409667969,1.0676569521904,0.6758581448821807
6.4782297092671115,0.6555879478454589,0.195469519042969,1.64006662015915,0.6758581448821807
6.47883540278619,-0.08926312637329101,0.154754187011719,-0.565746368122101,0.6758581448821807
6.47944109630527,-0.608982364654541,0.6792634643554689,-0.726212676715851,0.6758581448821807
6.48004678982435,-0.24493939590454097,-0.154203332519531,1.5490558779716501,0.6758581448821807
6.4806524833434285,-0.949075138092041,0.13080399169921902,1.4604401553154,0.6758581448821807
6.481258176862508,-1.04008588027954,-0.355384973144531,-1.66985037202835,0.6758581448821807
6.481863870381587,0.207719295501709,-1.28225753173828,-2.47457693452835,0.6758581448821807
6.482469563900667,1.42199419784546,-0.199708703613281,1.1730378115654,0.6758581448821807
6.483075257419746,1.1082466392517099,0.24097489013671902,2.2220563662529,0.6758581448821807
6.483680950938825,0.114313533782959,0.23618485107421902,-0.702262481403351,0.6758581448821807
6.484286644457905,-0.611377384185791,0.363120886230469,-1.4998039853096,0.6758581448821807
6.484892337976984,-0.403010684967041,0.5379573120117189,1.0963971865654,0.6758581448821807
6.485498031496063,-0.520366641998291,0.262530065917969,1.80292794828415,0.6758581448821807
6.486103725015143,-0.817349063873291,-0.115883020019531,-1.23874685640335,0.6758581448821807
6.486709418534222,0.011327693939209,-0.9349796997070311,-2.3763811337471004,0.6758581448821807
6.4873151120533015,1.27350298690796,-0.7984635864257811,0.076118866252899,0.6758581448821807
6.487920805572381,1.02921099472046,0.6816584838867189,2.38252267484665,0.6758581448821807
6.48852649909146,0.147843807220459,0.684053503417969,0.217425018596649,0.6758581448821807
6.48913219261054,-0.44851605606079104,0.21702469482421902,-1.8303166806221,0.6758581448821807
6.489737886129618,-0.273679630279541,0.8756550659179689,0.306040741252899,0.6758581448821807
6.490343579648698,0.107128475189209,0.09008865966796879,2.09033029203415,0.6758581448821807
6.490949273167778,-0.788608829498291,0.22660477294921902,-0.048422149372101,0.6758581448821807
6.491554966686857,-0.644907657623291,-0.273954309082031,-2.5440325009346,0.6758581448821807
6.492160660205936,1.01244585800171,-1.23675216064453,-1.1501311337471,0.6758581448821807
6.492766353725015,0.909460018157959,0.662498327636719,1.7286823428154001,0.6758581448821807
6.493372047244095,0.40890093612670897,0.7774592651367189,1.0820270693779,0.6758581448821807
6.4939777407631745,-0.333555118560791,0.020633093261718798,-1.7057756649970999,0.6758581448821807
6.494583434282253,-0.376665470123291,0.7367439331054689,-0.7956682431221009,0.6758581448821807
6.495189127801333,0.337050350189209,0.0469783081054688,1.9466291201591501,0.6758581448821807
6.495794821320413,-0.49881146621704103,0.00626297607421875,0.241375213909149,0.6758581448821807
6.496400514839491,-1.13828168106079,-0.135043176269531,-2.32129568452835,0.6758581448821807
6.497006208358571,0.114313533782959,-1.24872725830078,-1.39202810640335,0.6758581448821807
6.49761190187765,1.29026812362671,0.0302131713867188,1.2592585146904,0.6758581448821807
6.49821759539673,0.720253475189209,0.461316687011719,1.8149030459404,0.6758581448821807
6.498823288915809,-0.350320255279541,-0.0823527465820312,-0.908234161090851,0.6758581448821807
6.499428982434888,-0.625747501373291,0.353540808105469,-1.13336599702835,0.6758581448821807
6.500034675953968,-0.084473087310791,0.183494421386719,1.4891803896904001,0.6758581448821807
6.500640369473047,-0.829324161529541,0.267320104980469,1.2305182803154,0.6758581448821807
6.501246062992126,-0.973025333404541,-0.118278039550781,-1.78481130952835,0.6758581448821807
6.501851756511206,0.14065874862670902,-1.1696916137695301,-2.3069255673408504,0.6758581448821807
6.502457450030285,1.35493365097046,-0.273954309082031,0.888030487346649,0.6758581448821807
6.503063143549364,1.1896773033142098,0.281690222167969,2.5310138857841498,0.6758581448821807
6.503668837068444,-0.031782657623291,0.219419714355469,-0.546586211872101,0.6758581448821807
6.504274530587523,-0.817349063873291,0.149964147949219,-1.7728362118721,0.6758581448821807
6.504880224106603,-0.201829044342041,0.425391394042969,1.24728341703415,0.6758581448821807
6.505485917625681,-0.156323673248291,0.363120886230469,1.93704904203415,0.6758581448821807
6.506091611144761,-1.1239115638732902,-0.127858117675781,-1.0687004696845999,0.6758581448821807
6.506697304663841,-0.25930951309204103,-0.925399621582031,-2.57995779390335,0.6758581448821807
6.50730299818292,1.1034566001892099,-0.970904992675781,-0.14422293062210098,0.6758581448821807
6.507908691701999,1.2375776939392098,0.406231237792969,2.0687751162529,0.6758581448821807
6.508514385221078,-0.120398380279541,0.633758093261719,0.363521210002899,0.6758581448821807
6.509120078740158,-0.7023881263732911,-0.144623254394531,-1.9404875790596,0.6758581448821807
6.509725772259237,-0.122793399810791,0.432576452636719,0.121624237346649,0.6758581448821807
6.510331465778316,0.030487850189209,0.312825476074219,2.93816720609665,0.6758581448821807
6.510937159297396,-0.666462833404541,-0.0703776489257812,0.43776681547164903,0.6758581448821807
6.511542852816476,-0.795793888092041,-0.15180831298828099,-2.5128972470283504,0.6758581448821807
6.512148546335554,0.830424373626709,-1.00204024658203,-1.1405510556221,0.6758581448821807
6.512754239854634,1.21841753768921,0.22181473388671902,1.9921344912529,0.6758581448821807
6.513359933373713,0.303520076751709,0.9163703979492189,1.4987604678154,0.6758581448821807
6.513965626892793,-0.395825626373291,-0.008107141113281249,-1.57404959077835,0.6758581448821807
6.514571320411872,-0.24972943496704098,0.382281042480469,-0.805248321247101,0.6758581448821807
6.515177013930951,0.401715877532959,0.10685379638671899,2.0448249209404,0.6758581448821807
6.515782707450031,-0.350320255279541,-0.111092980957031,0.5814679873466491,0.6758581448821807
6.5163884009691095,-1.13828168106079,0.0589534057617188,-2.4961321103096004,0.6758581448821807
6.516994094488189,0.162213924407959,-0.9972502075195311,-1.7249358212471,0.6758581448821807
6.517599788007269,1.1130366783142098,-0.29071944580078096,1.1251374209404,0.6758581448821807
6.518205481526348,0.978915584564209,0.42778641357421904,1.4891803896904001,0.6758581448821807
6.518811175045427,-0.161113712310791,-0.106302941894531,-1.0255901181220999,0.6758581448821807
6.519416868564507,-0.549106876373291,0.312825476074219,-1.39202810640335,0.6758581448821807
6.520022562083586,-0.22817425918579098,0.255345007324219,1.4748102725029,0.6758581448821807
6.520628255602666,-0.652092716217041,0.0350032104492188,1.6137214053154,0.6758581448821807
6.521233949121744,-0.9011747474670411,-0.0200822387695312,-1.8207366024971,0.6758581448821807
6.521839642640824,-0.125188419342041,-0.887079309082031,-2.37398611421585,0.6758581448821807
6.522445336159904,1.38846392440796,-0.7385880981445311,0.787439667034149,0.6758581448821807
6.5230510296789825,1.33816851425171,0.178704382324219,2.3968927920341496,0.6758581448821807
6.523656723198062,-0.098843204498291,0.370305944824219,-0.40049002046585097,0.6758581448821807
6.524262416717141,-0.910754825592041,0.16193924560546902,-1.7273308407783499,0.6758581448821807
6.524868110236221,-0.381455509185791,0.528377233886719,1.2065680850029001,0.6758581448821807
6.5254738037553,-0.240149356842041,0.209839636230469,2.1573908389091496,0.6758581448821807
6.526079497274379,-1.05445599746704,-0.125463098144531,-0.970504668903351,0.6758581448821807
6.526685190793459,-0.752683536529541,-0.508666223144531,-2.86257009859085,0.6758581448821807
6.527290884312539,1.10585161972046,-0.8607340942382811,-0.46036550874710097,0.6758581448821807
6.527896577831617,1.32379839706421,0.00386795654296875,2.0831452334404,0.6758581448821807
6.528502271350697,-0.156323673248291,0.684053503417969,0.624578338909149,0.6758581448821807
6.529107964869776,-0.630537540435791,0.343960729980469,-1.98120291109085,0.6758581448821807
6.5297136583888555,-0.38864056777954104,0.382281042480469,0.035403534221649,0.6758581448821807
6.530319351907935,0.040067928314209,0.422996374511719,2.9070319521904,0.6758581448821807
6.530925045427014,-0.434145938873291,0.193074499511719,0.15515451078414902,0.6758581448821807
6.531530738946094,-0.968235294342041,-0.14701827392578098,-2.6925237118721004,0.6758581448821807
6.5321364324651725,0.5358369712829589,-1.00443526611328,-1.2076116024971,0.6758581448821807
6.532742125984252,1.3261934165954599,-0.321854699707031,1.8005329287529,0.6758581448821807
6.533347819503332,0.720253475189209,0.822964636230469,1.13232247953415,0.6758581448821807
6.533953513022411,-0.565872013092041,0.21702469482421902,-1.75128103609085,0.6758581448821807
6.53455920654149,-0.525156681060791,0.36791092529296904,-0.932184356403351,0.6758581448821807
6.53516490006057,0.258014705657959,0.320010534667969,2.15260079984665,0.6758581448821807
6.535770593579649,-0.410195743560791,-0.111092980957031,1.27602365140915,0.6758581448821807
6.5363762870987285,-1.2221073646545402,0.102063757324219,-2.20154470796585,0.6758581448821807
6.536981980617807,0.080783260345459,-0.982880090332031,-1.6099748837471,0.6758581448821807
6.537587674136887,1.4627095298767099,-0.606862023925781,1.32871408109665,0.6758581448821807
6.538193367655967,1.0483711509704599,0.7559040893554689,1.6568317568779,0.6758581448821807
6.5387990611750455,-0.072497989654541,0.0781135620117188,-1.1285759579658499,0.6758581448821807
6.539404754694125,-0.632932559967041,0.291270300292969,-1.66027029390335,0.6758581448821807
6.540010448213204,-0.067707950592041,0.41820633544921904,1.28560372953415,0.6758581448821807
6.540616141732284,-0.326370059967041,-0.0536125122070312,1.4604401553154,0.6758581448821807
6.541221835251363,-1.28916791152954,0.042188269042968796,-1.7728362118721,0.6758581448821807
6.541827528770442,-0.486836368560791,-0.8822892700195311,-2.5320574032783503,0.6758581448821807
6.542433222289522,1.3261934165954599,-0.7984635864257811,0.47608712797164904,0.6758581448821807
6.5430389158086015,1.51779497909546,0.00386795654296875,2.5621491396904,0.6758581448821807
6.54364460932768,0.248434627532959,0.40862625732421903,-0.038842071247101005,0.6758581448821807
6.54425030284676,-1.1119364662170401,0.169124304199219,-2.1632243954658503,0.6758581448821807
6.544855996365839,-0.36948041152954103,0.322405554199219,0.6221833193778991,0.6758581448821807
6.5454616898849185,-0.031782657623291,0.284085241699219,2.56454415922165,0.6758581448821807
6.546067383403998,-0.786213809967041,0.0709285034179688,-0.683102325153351,0.6758581448821807
6.546673076923077,-0.8412992591857911,-0.5206413208007811,-2.7859294735908504,0.6758581448821807
6.547278770442157,1.01963091659546,-0.7960685668945311,-0.285529082965851,0.6758581448821807
6.547884463961236,1.6351509361267098,-0.312274621582031,2.0304548037529,0.6758581448821807
6.548490157480315,0.248434627532959,0.6601033081054689,0.478482147502899,0.6758581448821807
6.549095850999395,-0.884409610748291,0.664893347167969,-1.7393059384346,0.6758581448821807
6.549701544518474,-0.422170841217041,0.422996374511719,-0.266368926715851,0.6758581448821807
6.550307238037553,0.334655330657959,0.645733190917969,2.2436115420341496,0.6758581448821807
6.550912931556633,-0.532341739654541,0.10924881591796899,0.468902069377899,0.6758581448821807
6.551518625075712,-1.0808012123107902,0.121223913574219,-2.6446233212471,0.6758581448821807
6.5521243185947915,0.375370662689209,-0.508666223144531,-1.37286795015335,0.6758581448821807
6.552730012113871,1.5369551353454598,-0.453580773925781,1.5418708193779,0.6758581448821807
6.55333570563295,0.576552303314209,0.628968054199219,1.4987604678154,0.6758581448821807
6.55394139915203,-0.343135196685791,0.334380651855469,-1.49740896577835,0.6758581448821807
6.5545470926711085,-0.630537540435791,0.422996374511719,-1.3417326962471,0.6758581448821807
6.555152786190188,0.054438045501709,0.442156530761719,2.2651667178154,0.6758581448821807
6.555758479709268,-0.000647403717040988,-0.170968469238281,1.58258615140915,0.6758581448821807
6.556364173228347,-1.30593304824829,0.00865799560546875,-2.2853703915596,0.6758581448821807
6.556969866747426,-0.465281192779541,-0.535011437988281,-2.0698186337471003,0.6758581448821807
6.557575560266505,1.20883745956421,-0.6403922973632811,1.0101764834404001,0.6758581448821807
6.558181253785585,0.969335506439209,0.336775671386719,2.0208747256279,0.6758581448821807
6.5587869473046645,-0.156323673248291,0.284085241699219,-0.211283477497101,0.6758581448821807
6.559392640823743,-0.654487735748291,0.10685379638671899,-1.5620744931221,0.6758581448821807
6.559998334342823,-0.237754337310791,0.284085241699219,1.23770333890915,0.6758581448821807
6.560604027861903,-0.237754337310791,-0.0176872192382812,1.97536935453415,0.6758581448821807
6.5612097213809815,-1.11433148574829,0.0757185424804688,-1.3896330868721,0.6758581448821807
6.561815414900061,-0.709573184967041,-0.475135949707031,-2.5775627743721,0.6758581448821807
6.56242110841914,1.30703326034546,-1.06431075439453,0.294065643596649,0.6758581448821807
6.56302680193822,1.57767046737671,-0.257189172363281,2.4950885928154,0.6758581448821807
6.563632495457299,0.332260311126709,0.609807897949219,0.09527902250289899,0.6758581448821807
6.564238188976378,-1.02332074356079,0.19067947998046902,-2.6063030087471004,0.6758581448821807
6.564843882495458,-0.510786563873291,-0.0655876098632812,0.076118866252899,0.6758581448821807
6.565449576014537,0.030487850189209,0.28887528076171903,2.6531598818778996,0.6758581448821807
6.566055269533616,-0.680832950592041,-0.0200822387695312,-0.21367849702835098,0.6758581448821807
6.566660963052696,-0.779028751373291,-0.331434777832031,-2.9128655087471,0.6758581448821807
6.567266656571775,0.919040096282959,-0.664342492675781,-1.19084646577835,0.6758581448821807
6.5678723500908545,1.72616167831421,-0.26916427001953097,2.16218087797165,0.6758581448821807
6.568478043609934,0.492726619720459,0.377491003417969,0.909585663127899,0.6758581448821807
6.569083737129013,-0.6640678138732911,0.470896765136719,-2.0746086728096,0.6758581448821807
6.569689430648093,-0.161113712310791,0.317615515136719,-0.453180450153351,0.6758581448821807
6.570295124167171,0.432851131439209,0.30803543701171904,2.32504220609665,0.6758581448821807
6.570900817686251,-0.381455509185791,0.178704382324219,1.1921979678154,0.6758581448821807
6.57150651120533,-0.934705020904541,-0.17336348876953098,-2.4266765439033504,0.6758581448821807
6.57211220472441,-0.036572696685791,-0.364965051269531,-1.6914055478096,0.6758581448821807
6.572717898243489,1.46031451034546,-0.348199914550781,1.84603829984665,0.6758581448821807
6.573323591762568,0.969335506439209,0.355935827636719,1.4269098818779,0.6758581448821807
6.573929285281647,-0.335950138092041,0.669683386230469,-1.2076116024971,0.6758581448821807
6.5745349788007275,-0.486836368560791,0.284085241699219,-1.4135832821846,0.6758581448821807
6.575140672319806,0.095153377532959,0.228999792480469,1.60174630765915,0.6758581448821807
6.575746365838886,-0.13955853652954098,0.08529862060546879,1.67359689359665,0.6758581448821807
6.576352059357966,-0.996975528717041,-0.314669641113281,-2.0075481259346,0.6758581448821807
6.576957752877044,-0.276074649810791,-0.630812219238281,-2.13448416109085,0.6758581448821807
6.577563446396124,1.5585103111267098,-0.6763175903320311,0.818574920940399,0.6758581448821807
6.578169139915203,1.27829302597046,0.296060339355469,2.03763986234665,0.6758581448821807
6.578774833434283,-0.364690372467041,0.5619075073242189,-0.630411895465851,0.6758581448821807
6.579380526953362,-0.946680118560791,0.264925085449219,-1.8877971493721,0.6758581448821807
6.579986220472441,-0.254519474029541,0.343960729980469,1.35745431547165,0.6758581448821807
6.580591913991521,-0.23296429824829099,0.21223465576171902,2.1310456240653997,0.6758581448821807
6.5811976075106005,-0.975420352935791,-0.17336348876953098,-1.34891775484085,0.6758581448821807
6.581803301029679,-0.678437931060791,-0.465555871582031,-2.7284490048408503,0.6758581448821807
6.582408994548758,1.1681221275329599,-0.673922570800781,0.15994454984664902,0.6758581448821807
6.583014688067839,1.8051973228454599,-0.317064660644531,2.4280280459404,0.6758581448821807
6.583620381586917,0.35860552597045897,0.28887528076171903,0.310830780315399,0.6758581448821807
6.584226075105996,-1.04008588027954,0.32959061279296903,-2.34524587984085,0.6758581448821807
6.584831768625076,-0.465281192779541,0.10924881591796899,-0.022076934528351,0.6758581448821807
6.585437462144156,-0.000647403717040988,0.15714920654296902,2.7537507021903997,0.6758581448821807
6.586043155663234,-0.884409610748291,0.11164383544921899,-0.04602712984085101,0.6758581448821807
6.586648849182314,-1.38736371231079,-0.139833215332031,-2.9272356259346,0.6758581448821807
6.587254542701394,0.492726619720459,-0.623627160644531,-0.845963653278351,0.6758581448821807
6.587860236220473,1.62796587753296,-0.544591516113281,2.3202521670341496,0.6758581448821807
6.588465929739552,0.7753389244079589,0.363120886230469,1.09400216703415,0.6758581448821807
6.589071623258631,-0.695203067779541,0.6169929565429689,-1.7632561337471,0.6758581448821807
6.589677316777711,-0.834114200592041,0.286480261230469,-0.812433379840851,0.6758581448821807
6.59028301029679,0.32986529159545896,0.238579870605469,2.6723200381279,0.6758581448821807
6.590888703815869,-0.15392865371704098,0.135594030761719,1.0484967959404001,0.6758581448821807
6.591494397334949,-0.872434513092041,-0.13264815673828098,-2.4626018368721003,0.6758581448821807
6.592100090854029,-0.271284610748291,-0.5038761840820309,-1.61236990327835,0.6758581448821807
6.592705784373107,1.3812788658142099,-0.467950891113281,1.45325509672165,0.6758581448821807
6.593311477892187,1.10106158065796,0.10685379638671899,2.0208747256279,0.6758581448821807
6.593917171411267,-0.599402286529541,0.688843542480469,-1.25311697359085,0.6758581448821807
6.594522864930346,-0.8436942787170411,0.135594030761719,-1.6003948056221,0.6758581448821807
6.595128558449425,0.315495174407959,-0.0416374145507812,1.5131305850029,0.6758581448821807
6.595734251968504,0.016117733001709,0.214629675292969,2.0951203310966497,0.6758581448821807
6.596339945487584,-0.999370548248291,-0.163783410644531,-1.67464041109085,0.6758581448821807
6.596945639006663,-0.7622636146545411,-0.29071944580078096,-2.5200823056221,0.6758581448821807
6.597551332525742,1.1250117759704599,-0.590096887207031,0.852105194377899,0.6758581448821807
6.598157026044821,1.46031451034546,-0.19252364501953098,2.1597858584404,0.6758581448821807
6.598762719563902,-0.098843204498291,0.523587194824219,-0.5561662899971009,0.6758581448821807
6.59936841308298,-0.886804630279541,0.149964147949219,-2.2063347470283503,0.6758581448821807
6.599974106602059,-0.48923138809204103,0.140384069824219,0.665293670940399,0.6758581448821807
6.60057980012114,-0.177878849029541,0.281690222167969,2.72740548734665,0.6758581448821807
6.601185493640219,-0.9011747474670411,-0.0512174926757812,-0.728607696247101,0.6758581448821807
6.601791187159297,-0.853274356842041,-0.120673059082031,-2.9487908017158504,0.6758581448821807
6.602396880678377,1.03879107284546,-0.786488488769531,-0.187333282184601,0.6758581448821807
6.603002574197457,1.9201582603454599,-0.570936730957031,2.42563302640915,0.6758581448821807
6.6036082677165355,0.442431209564209,0.391861120605469,0.694033905315399,0.6758581448821807
6.604213961235615,-1.1885770912170401,0.303245397949219,-2.30213552827835,0.6758581448821807
6.604819654754694,-0.31918500137329103,0.00147293701171875,-0.266368926715851,0.6758581448821807
6.605425348273774,0.071203182220459,0.0493733276367188,2.9764875185966497,0.6758581448821807
6.606031041792853,-0.534736759185791,-0.0967228637695312,0.411421600627899,0.6758581448821807
6.606636735311932,-1.11433148574829,-0.0416374145507812,-2.74281912202835,0.6758581448821807
6.607242428831013,0.26998980331420896,-0.532616418457031,-0.936974395465851,0.6758581448821807
6.607848122350092,1.7117915611267098,-0.436815637207031,1.9083088076591501,0.6758581448821807
6.60845381586917,1.0962715415954598,0.17630936279296902,1.36224435453415,0.6758581448821807
6.60905950938825,-0.7431034584045411,0.506822058105469,-1.5956047665596,0.6758581448821807
6.60966520290733,-0.905964786529541,0.6002278198242189,-1.1645012509346,0.6758581448821807
6.6102708964264085,0.404110897064209,0.20744461669921901,2.17655099515915,0.6758581448821807
6.610876589945488,0.049648006439209,0.315220495605469,1.3502692568779,0.6758581448821807
6.611482283464567,-0.975420352935791,-0.19731368408203098,-2.4099114071846004,0.6758581448821807
6.612087976983647,-0.7239433021545411,-0.314669641113281,-2.0985588681221,0.6758581448821807
6.612693670502726,1.3261934165954599,-0.16857344970703098,1.3215290225029,0.6758581448821807
6.613299364021805,1.22081255722046,-0.175758508300781,2.1454157412529,0.6758581448821807
6.613905057540884,-0.302419864654541,0.633758093261719,-1.2219817196846,0.6758581448821807
6.6145107510599646,-0.805373966217041,0.28887528076171903,-1.9237224423408499,0.6758581448821807
6.615116444579043,-0.029387638092041,0.10445877685546899,1.4173298037529,0.6758581448821807
6.615722138098122,-0.170693790435791,0.228999792480469,1.9442341006279,0.6758581448821807
6.616327831617203,-0.577847110748291,-0.24281905517578098,-1.59320974702835,0.6758581448821807
6.6169335251362815,-0.791003849029541,-0.158993371582031,-2.58474783296585,0.6758581448821807
6.61753921865536,0.880719783782959,-0.441605676269531,0.672478729534149,0.6758581448821807
6.61814491217444,1.67107622909546,-0.398495324707031,2.55496408109665,0.6758581448821807
6.61875060569352,-0.072497989654541,0.7391389526367189,-0.225653594684601,0.6758581448821807
6.6193562992125985,-0.870039493560791,0.17151932373046902,-1.9117473446846,0.6758581448821807
6.619961992731678,-0.15871869277954098,-0.13264815673828098,0.993411346721649,0.6758581448821807
6.620567686250757,-0.118003360748291,0.23139481201171902,2.2795368350029,0.6758581448821807
6.621173379769837,-0.8412992591857911,-0.357779992675781,-0.805248321247101,0.6758581448821807
6.621779073288916,-1.14786175918579,-0.0703776489257812,-3.0086662899971004,0.6758581448821807
6.622384766807995,0.770548885345459,-0.47992598876953096,-0.27115896577835097,0.6758581448821807
6.622990460327076,1.9728486900329598,-0.5421964965820311,2.60765451078415,0.6758581448821807
6.6235961538461545,0.392135799407959,0.406231237792969,0.808994842815399,0.6758581448821807
6.624201847365233,-1.17660199356079,0.530772253417969,-2.1320891415596,0.6758581448821807
6.624807540884313,-0.611377384185791,0.0613484252929688,-0.505870879840851,0.6758581448821807
6.625413234403393,0.281964900970459,-0.103907922363281,2.76572579984665,0.6758581448821807
6.6260189279224715,-0.34792523574829104,0.020633093261718798,0.871265350627899,0.6758581448821807
6.626624621441551,-1.08319623184204,-0.0320573364257812,-2.4769719540596,0.6758581448821807
6.62723031496063,0.14544878768920902,-0.23323897705078098,-1.3513127743721,0.6758581448821807
6.62783600847971,1.69263140487671,-0.549381555175781,2.2148713076591497,0.6758581448821807
6.628441701998789,1.39325396347046,0.0158430541992188,1.69754708890915,0.6758581448821807
6.629047395517868,-0.47725629043579104,0.866074987792969,-2.0793987118721002,0.6758581448821807
6.629653089036947,-0.810164005279541,0.6960286010742189,-1.8039714657783499,0.6758581448821807
6.6302587825560275,0.521466854095459,0.142779089355469,2.64597482328415,0.6758581448821807
6.630864476075106,-0.180273868560791,0.382281042480469,1.73107736234665,0.6758581448821807
6.631470169594185,-0.970630313873291,0.0278181518554688,-2.50810720796585,0.6758581448821807
6.632075863113266,-0.6041923255920411,-0.376940148925781,-1.86145193452835,0.6758581448821807
6.6326815566323445,1.00765581893921,-0.125463098144531,1.1490876162529,0.6758581448821807
6.633287250151423,1.6207808189392099,-0.271559289550781,2.0807502139091496,0.6758581448821807
6.633892943670503,-0.062917911529541,0.8014094604492189,-0.853148711872101,0.6758581448821807
6.634498637189583,-1.17420697402954,0.523587194824219,-1.78002127046585,0.6758581448821807
6.6351043307086615,0.061623104095459,-0.283534387207031,1.24249337797165,0.6758581448821807
6.635710024227741,-0.015017520904540999,0.413416296386719,2.10949044828415,0.6758581448821807
6.63631571774682,-0.728733341217041,-0.355384973144531,-1.3800530087471,0.6758581448821807
6.6369214112659,-0.812559024810791,-0.0128971801757812,-2.8314348446846003,0.6758581448821807
6.637527104784979,0.818449275970459,0.128408972167969,0.535962616252899,0.6758581448821807
6.638132798304058,1.9201582603454599,-0.5589616333007811,2.7010602725029,0.6758581448821807
6.638738491823137,0.143053768157959,0.497241979980469,-0.27115896577835097,0.6758581448821807
6.6393441853422175,-0.939495059967041,0.403836218261719,-2.2997405087471003,0.6758581448821807
6.639949878861296,-0.32876507949829104,-0.245214074707031,0.409026581096649,0.6758581448821807
6.640555572380376,-0.127583438873291,0.341565710449219,2.3370173037528996,0.6758581448821807
6.641161265899456,-0.446121036529541,-0.23802901611328098,-0.338219512653351,0.6758581448821807
6.6417669594185345,-1.04008588027954,-0.18294356689453098,-2.9416057431221003,0.6758581448821807
6.642372652937614,0.559787166595459,-0.154203332519531,-0.766928008747101,0.6758581448821807
6.642978346456693,1.9800337486267099,-0.7170329223632811,2.2340314639091496,0.6758581448821807
6.643584039975773,0.5933174400329589,0.264925085449219,1.07484201078415,0.6758581448821807
6.644189733494852,-0.915544864654541,0.422996374511719,-2.0410783993721,0.6758581448821807
6.644795427013931,-0.6640678138732911,0.11403885498046899,-0.893864043903351,0.6758581448821807
6.64540112053301,0.21490435409545902,0.00626297607421875,2.6244196475029,0.6758581448821807
6.6460068140520905,-0.280864688873291,-0.101512902832031,1.04610177640915,0.6758581448821807
6.646612507571169,-1.17420697402954,-0.0152921997070312,-2.8793352353096,0.6758581448821807
6.647218201090248,-0.292839786529541,-0.221263879394531,-1.6770354306221,0.6758581448821807
6.647823894609329,1.66149615097046,-0.41047042236328096,2.0639850771903996,0.6758581448821807
6.6484295881284075,1.44833941268921,-0.123068078613281,1.59695626859665,0.6758581448821807
6.649035281647486,-0.45809613418579104,0.652918249511719,-1.6842204892158499,0.6758581448821807
6.649640975166566,-1.1334916419982901,0.873260046386719,-1.59799978609085,0.6758581448821807
6.650246668685646,0.167003963470459,-0.0799577270507812,1.81729806547165,0.6758581448821807
6.650852362204724,-0.034177677154541,0.375095983886719,1.82208810453415,0.6758581448821807
6.651458055723804,-0.659277774810791,0.044583288574218796,-1.7919963681221,0.6758581448821807
6.652063749242883,-0.644907657623291,-0.240424035644531,-2.0123381649971,0.6758581448821807
6.652669442761963,0.792104061126709,0.169124304199219,0.957486053752899,0.6758581448821807
6.653275136281042,1.73095171737671,-0.5972819458007811,1.88435861234665,0.6758581448821807
6.653880829800121,-0.046152774810791004,0.490056921386719,-0.560956329059601,0.6758581448821807
6.654486523319201,-0.958655216217041,0.8157795776367189,-2.18238455171585,0.6758581448821807
6.6550922168382805,0.198139217376709,-0.391310266113281,0.746724335002899,0.6758581448821807
6.655697910357359,-0.017412540435791,0.26971512451171903,2.43521310453415,0.6758581448821807
6.656303603876439,-0.577847110748291,-0.35059493408203096,-0.898654082965851,0.6758581448821807
6.656909297395519,-0.9610502357482911,-0.460765832519531,-2.80987966890335,0.6758581448821807
6.657514990914597,0.27956988143920897,0.11403885498046899,-0.04602712984085101,0.6758581448821807
6.658120684433677,1.7381367759704598,-0.772118371582031,2.3082770693779,0.6758581448821807
6.658726377952756,0.44003619003295896,0.317615515136719,0.289275604534149,0.6758581448821807
6.659332071471836,-1.13828168106079,0.7415339721679689,-1.4063982235908499,0.6758581448821807
6.659937764990915,-0.532341739654541,-0.22844893798828098,0.052168670940398995,0.6758581448821807
6.660543458509994,-0.13476849746704098,0.0350032104492188,2.51185372953415,0.6758581448821807
6.661149152029074,-0.644907657623291,-0.156598352050781,0.308435760784149,0.6758581448821807
6.6617548455481534,-0.913149845123291,-0.331434777832031,-2.92005056734085,0.6758581448821807
6.662360539067232,0.19095415878295902,-0.17815352783203098,-0.802853301715851,0.6758581448821807
6.662966232586311,2.0470942955017097,-0.745773156738281,2.24840158109665,0.6758581448821807
6.663571926105392,1.08429644393921,-0.0416374145507812,1.03173165922165,0.6758581448821807
6.66417761962447,-0.745498477935791,0.5547224487304689,-1.86624197359085,0.6758581448821807
6.664783313143549,-0.891594669342041,0.0589534057617188,-1.0351701962471,0.6758581448821807
6.665389006662629,-0.038967716217041,-0.158993371582031,2.0783551943778997,0.6758581448821807
6.665994700181709,-0.242544376373291,0.023028112792968798,1.1011872256279,0.6758581448821807
6.666600393700787,-0.709573184967041,0.0805085815429688,-2.39793630952835,0.6758581448821807
6.667206087219867,-0.5419218177795411,-0.005712121582031249,-1.62194998140335,0.6758581448821807
6.667811780738947,1.37169878768921,-0.20689376220703098,1.56342599515915,0.6758581448821807
6.668417474258026,1.4842647056579599,-0.386520227050781,1.84603829984665,0.6758581448821807
6.669023167777105,-0.323975040435791,0.425391394042969,-1.3249675595283499,0.6758581448821807
6.669628861296184,-1.05445599746704,0.7343489135742189,-1.74170095796585,0.6758581448821807
6.670234554815264,0.365790584564209,-0.0967228637695312,1.68796701078415,0.6758581448821807
6.670840248334343,0.28914995956420897,0.29845535888671904,2.0088996279716502,0.6758581448821807
6.671445941853422,-0.776633731842041,-0.0512174926757812,-1.63632009859085,0.6758581448821807
6.672051635372503,-0.872434513092041,-0.154203332519531,-2.1728044735908503,0.6758581448821807
6.672657328891582,0.528651912689209,0.415811315917969,0.504827362346649,0.6758581448821807
6.67326302241066,1.63754595565796,-0.458370812988281,1.92267892484665,0.6758581448821807
6.67386871592974,0.107128475189209,0.11403885498046899,-0.216073516559601,0.6758581448821807
6.67447440944882,-1.00416058731079,0.9594807495117189,-1.9883879696846,0.6758581448821807
6.6750801029678986,-0.019807559967041,-0.331434777832031,0.468902069377899,0.6758581448821807
6.675685796486978,0.085573299407959,0.16193924560546902,2.0496149600029,0.6758581448821807
6.676291490006057,-0.5227616615295411,-0.09193282470703121,-0.671127227497101,0.6758581448821807
6.676897183525137,-0.632932559967041,-0.645182336425781,-2.8505950009346,0.6758581448821807
6.677502877044216,0.157423885345459,0.116433874511719,-0.388514922809601,0.6758581448821807
6.678108570563295,1.7285566978454598,-0.6379972778320311,2.6196296084403996,0.6758581448821807
6.678714264082374,0.729833553314209,0.188284460449219,0.349151092815399,0.6758581448821807
6.679319957601455,-0.973025333404541,0.667288366699219,-2.19196462984085,0.6758581448821807
6.679925651120533,-0.21380414199829098,-0.415260461425781,-0.113087676715851,0.6758581448821807
6.680531344639612,0.056833065032959,0.18588944091796902,2.0951203310966497,0.6758581448821807
6.681137038158693,-0.915544864654541,0.173914343261719,0.016243377971649,0.6758581448821807
6.6817427316777716,-1.00655560684204,-0.6212321411132811,-2.5991179501533503,0.6758581448821807
6.68234842519685,0.207719295501709,0.0781135620117188,-0.977689727497101,0.6758581448821807
6.68295411871593,2.09259966659546,-0.669132531738281,2.22924142484665,0.6758581448821807
6.68355981223501,1.08429644393921,-0.17336348876953098,1.41493478422165,0.6758581448821807
6.6841655057540885,-1.04487591934204,0.8349397338867189,-1.99078298921585,0.6758581448821807
6.684771199273168,-1.0903812904357901,0.137989050292969,-1.1884514462470999,0.6758581448821807
6.685376892792247,0.286754940032959,-0.16857344970703098,2.01368966703415,0.6758581448821807
6.685982586311327,-0.307209903717041,-0.0512174926757812,1.37182443265915,0.6758581448821807
6.686588279830406,-0.668857852935791,0.118828894042969,-2.0746086728096,0.6758581448821807
6.687193973349485,-0.580242130279541,0.164334265136719,-1.8638469540595999,0.6758581448821807
6.687799666868566,1.0819014244079599,-0.276349328613281,1.53468576078415,0.6758581448821807
6.6884053603876445,1.6950264244079598,-0.544591516113281,1.6520417178154,0.6758581448821807
6.689011053906723,0.080783260345459,0.238579870605469,-1.05672537202835,0.6758581448821807
6.689616747425803,-1.1239115638732902,0.770274206542969,-1.8782170712471,0.6758581448821807
6.690222440944883,0.059228084564209,0.0110530151367188,1.87477853422165,0.6758581448821807
6.6908281344639615,0.382555721282959,0.142779089355469,2.4831134951591496,0.6758581448821807
6.691433827983041,-0.805373966217041,0.102063757324219,-1.91414236421585,0.6758581448821807
6.69203952150212,-0.690413028717041,-0.175758508300781,-2.3907512509346,0.6758581448821807
6.6926452150212,0.392135799407959,0.384676062011719,0.516802460002899,0.6758581448821807
6.693250908540279,1.7070015220642099,-0.199708703613281,2.03763986234665,0.6758581448821807
6.693856602059358,0.44961626815795896,0.17630936279296902,-0.069977325153351,0.6758581448821807
6.694462295578437,-1.06643109512329,1.15347733154297,-2.0770036923408504,0.6758581448821807
6.6950679890975175,-0.012622501373291,-0.25958419189453097,0.294065643596649,0.6758581448821807
6.695673682616596,0.126288631439209,0.09008865966796879,1.9083088076591501,0.6758581448821807
6.696279376135675,-0.652092716217041,0.193074499511719,-0.520240997028351,0.6758581448821807
6.696885069654756,-0.750288516998291,-0.7361930786132811,-2.4913420712471,0.6758581448821807
6.6974907631738345,-0.19464398574829098,0.27929520263671903,-0.364564727497101,0.6758581448821807
6.698096456692913,1.52498003768921,-0.47992598876953096,2.6483698428154,0.6758581448821807
6.698702150211993,0.9932857017517089,-0.190128625488281,0.512012420940399,0.6758581448821807
6.699307843731073,-0.937100040435791,0.902000280761719,-2.3691960751533503,0.6758581448821807
6.6999135372501515,-0.434145938873291,-0.113488000488281,-0.388514922809601,0.6758581448821807
6.700519230769231,0.147843807220459,0.00147293701171875,2.4735334170341496,0.6758581448821807
6.70112492428831,-0.735918399810791,0.264925085449219,0.334780975627899,0.6758581448821807
6.70173061780739,-0.908359806060791,-0.501481164550781,-2.65659841890335,0.6758581448821807
6.702336311326469,0.00414263534545901,-0.0368473754882812,-1.2890422665596,0.6758581448821807
6.702942004845548,1.6040156822204599,-0.525431359863281,2.02326974515915,0.6758581448821807
6.703547698364627,1.21362749862671,-0.5781217895507811,1.3981696475029,0.6758581448821807
6.7041533918837075,-0.640117618560791,0.6361531127929689,-1.93330252046585,0.6758581448821807
6.704759085402786,-1.1358866615295402,0.29845535888671904,-1.37286795015335,0.6758581448821807
6.705364778921866,0.284359920501709,-0.19731368408203098,2.0711701357841497,0.6758581448821807
6.705970472440946,-0.041362735748291,-0.0320573364257812,1.56821603422165,0.6758581448821807
6.7065761659600245,-0.697598087310791,-0.278744348144531,-1.9261174618721,0.6758581448821807
6.707181859479104,-0.9011747474670411,-0.0296623168945312,-2.1560393368721003,0.6758581448821807
6.707787552998183,0.957360408782959,-0.21168380126953099,1.20417306547165,0.6758581448821807
6.708393246517263,1.82435747909546,-0.42963057861328097,2.1693659365654,0.6758581448821807
6.708998940036342,0.073598201751709,0.24097489013671902,-1.1836614071846,0.6758581448821807
6.709604633555421,-1.09517132949829,0.906790319824219,-2.1320891415596,0.6758581448821807
6.7102103270745,0.22448443222045902,0.0134480346679688,1.05089181547165,0.6758581448821807
6.7108160205935805,0.39932085800170897,0.0302131713867188,2.4208429873466497,0.6758581448821807
6.711421714112659,-0.733523380279541,0.36791092529296904,-1.2866472470283499,0.6758581448821807
6.712027407631738,-0.786213809967041,-0.302694543457031,-2.60390798921585,0.6758581448821807
6.712633101150819,0.13586870956420902,0.391861120605469,0.301250702190399,0.6758581448821807
6.7132387946698975,1.6183857994079598,-0.0128971801757812,2.2076862490653997,0.6758581448821807
6.713844488188976,0.7130684165954589,-0.123068078613281,0.43776681547164903,0.6758581448821807
6.714450181708056,-0.9035697669982911,1.1654524291992199,-1.9356975399971,0.6758581448821807
6.715055875227136,-0.316789981842041,-0.0512174926757812,0.037798553752899,0.6758581448821807
6.7156615687462144,0.092758358001709,-0.0847477661132812,1.91309884672165,0.6758581448821807
6.716267262265294,-0.779028751373291,0.28887528076171903,-0.13943289155960098,0.6758581448821807
6.716872955784373,-0.630537540435791,-0.848758996582031,-2.5919328915596003,0.6758581448821807
6.717478649303453,0.26998980331420896,0.195469519042969,-0.893864043903351,0.6758581448821807
6.718084342822532,1.7453218345642099,-0.106302941894531,2.2172663271903996,0.6758581448821807
6.718690036341611,0.801684139251709,-0.432025598144531,0.804204803752899,0.6758581448821807
6.71929572986069,-1.05445599746704,0.9762458862304689,-1.65548025484085,0.6758581448821807
6.7199014233797705,-0.580242130279541,-0.161388391113281,-0.40049002046585097,0.6758581448821807
6.720507116898849,0.020907772064208997,-0.35059493408203096,2.6292096865654,0.6758581448821807
6.721112810417929,-0.764658634185791,0.243369909667969,0.830550018596649,0.6758581448821807
6.721718503937009,-0.9035697669982911,-0.647577355957031,-2.6182781064033502,0.6758581448821807
6.7223241974560874,-0.010227481842041,0.0134480346679688,-1.54051931734085,0.6758581448821807
6.722929890975167,1.6303608970642098,-0.47992598876953096,2.1597858584404,0.6758581448821807
6.723535584494246,1.4842647056579599,-0.527826379394531,1.69754708890915,0.6758581448821807
6.724141278013326,-0.755078556060791,0.523587194824219,-1.88061209077835,0.6758581448821807
6.724746971532405,-1.0688261146545401,0.238579870605469,-1.42076834077835,0.6758581448821807
6.725352665051484,0.15981890487670902,-0.235633996582031,1.73107736234665,0.6758581448821807
6.725958358570564,-0.106028263092041,-0.139833215332031,1.6424616396904,0.6758581448821807
6.7265640520896435,-0.666462833404541,-0.331434777832031,-1.86145193452835,0.6758581448821807
6.727169745608722,-0.877224552154541,0.0805085815429688,-2.0746086728096,0.6758581448821807
6.727775439127801,0.928620174407959,0.10685379638671899,1.04610177640915,0.6758581448821807
6.728381132646882,1.4674995689392099,-0.511061242675781,2.2172663271903996,0.6758581448821807
6.7289868261659604,0.258014705657959,-0.0344523559570312,-0.7549529110908509,0.6758581448821807
6.729592519685039,-1.14307172012329,0.6169929565429689,-2.1632243954658503,0.6758581448821807
6.730198213204119,-0.508391544342041,0.20744461669921901,0.856895233440399,0.6758581448821807
6.730803906723199,0.291544979095459,-0.046427453613281204,2.31546212797165,0.6758581448821807
6.731409600242277,-0.470071231842041,0.15235916748046902,-0.850753692340851,0.6758581448821807
6.732015293761357,-0.886804630279541,-0.14222823486328098,-2.4697868954658504,0.6758581448821807
6.732620987280436,0.023302791595458998,0.0661384643554688,0.468902069377899,0.6758581448821807
6.733226680799516,1.2974531822204598,-0.130253137207031,2.3753376162529,0.6758581448821807
6.733832374318595,0.7729439048767089,-0.26916427001953097,0.042588592815399,0.6758581448821807
6.734438067837674,-0.944285099029541,0.911580358886719,-2.0171282040596,0.6758581448821807
6.735043761356753,-0.484441349029541,0.22181473388671902,0.104859100627899,0.6758581448821807
6.735649454875833,0.15981890487670902,-0.508666223144531,2.0711701357841497,0.6758581448821807
6.736255148394912,-0.688018009185791,0.590647741699219,-0.338219512653351,0.6758581448821807
6.736860841913992,-0.759868595123291,-0.724217980957031,-2.7523992001533504,0.6758581448821807
6.737466535433072,0.13107867050170902,-0.046427453613281204,-1.03277517671585,0.6758581448821807
6.73807222895215,1.4627095298767099,0.20744461669921901,2.17655099515915,0.6758581448821807
6.73867792247123,0.911855037689209,-0.666737512207031,1.36224435453415,0.6758581448821807
6.73928361599031,-0.752683536529541,0.990616003417969,-1.8063664853096,0.6758581448821807
6.739889309509389,-0.977815372467041,0.044583288574218796,-0.714237579059601,0.6758581448821807
6.740495003028468,0.21011431503295902,-0.30987960205078097,2.02805978422165,0.6758581448821807
6.741100696547547,-0.575452091217041,0.272110144042969,0.636553436565399,0.6758581448821807
6.741706390066627,-0.496416446685791,-0.7577482543945311,-2.1512492978096,0.6758581448821807
6.742312083585706,-0.161113712310791,-0.103907922363281,-1.43992849702835,0.6758581448821807
6.742917777104785,1.1393818931579598,-0.0368473754882812,1.9250739443779001,0.6758581448821807
6.743523470623864,1.5321650962829598,-0.535011437988281,1.6233014834404,0.6758581448821807
6.744129164142945,-0.515576602935791,0.446946569824219,-1.32017752046585,0.6758581448821807
6.744734857662023,-0.831719181060791,0.243369909667969,-1.37286795015335,0.6758581448821807
6.745340551181102,0.193349178314209,-0.511061242675781,1.30476388578415,0.6758581448821807
6.745946244700182,0.052043025970459,-0.0200822387695312,1.52510568265915,0.6758581448821807
6.746551938219262,-0.6832279701232911,-0.127858117675781,-1.3896330868721,0.6758581448821807
6.74715763173834,-0.831719181060791,0.044583288574218796,-2.08179373140335,0.6758581448821807
6.74776332525742,0.669958065032959,0.300850378417969,0.837735077190399,0.6758581448821807
6.748369018776499,1.49623980331421,-0.5158512817382811,2.0112946475029,0.6758581448821807
6.7489747122955785,0.557392147064209,-0.30029952392578096,0.064143768596649,0.6758581448821807
6.749580405814658,-0.8221391029357911,0.650523229980469,-1.6578752743721,0.6758581448821807
6.750186099333737,-0.374270450592041,0.219419714355469,1.0916071475029,0.6758581448821807
6.750791792852817,0.152633846282959,-0.0536125122070312,3.1585090029716496,0.6758581448821807
6.751397486371896,-0.443726016998291,0.470896765136719,-0.48192068452835096,0.6758581448821807
6.752003179890975,-0.9035697669982911,-0.281139367675781,-2.3955412899971003,0.6758581448821807
6.752608873410056,0.025697811126709,0.0829036010742188,-0.101112579059601,0.6758581448821807
6.753214566929135,1.1848872642517099,0.300850378417969,2.0975153506278996,0.6758581448821807
6.753820260448213,0.998075740814209,-0.527826379394531,0.624578338909149,0.6758581448821807
6.754425953967293,-0.597007266998291,0.7343489135742189,-1.5333342587471,0.6758581448821807
6.755031647486373,-0.7431034584045411,0.523587194824219,-0.38132986421585097,0.6758581448821807
6.7556373410054515,0.267594783782959,-0.317064660644531,1.8149030459404,0.6758581448821807
6.756243034524531,-0.805373966217041,0.353540808105469,-0.005311797809601,0.6758581448821807
6.75684872804361,-0.40780072402954104,-0.724217980957031,-2.2087297665596,0.6758581448821807
6.75745442156269,-0.053337833404541,-0.0344523559570312,-0.980084747028351,0.6758581448821807
6.758060115081769,1.24715777206421,0.346355749511719,1.7478424990654,0.6758581448821807
6.758665808600848,1.21841753768921,-0.8966593872070311,1.1347174990654,0.6758581448821807
6.759271502119927,-0.757473575592041,0.8540998901367189,-1.45908865327835,0.6758581448821807
6.759877195639008,-0.791003849029541,0.38946610107421903,-0.587301543903351,0.6758581448821807
6.760482889158086,0.176584041595459,-0.336224816894531,1.7071271670341501,0.6758581448821807
6.761088582677165,-0.652092716217041,0.35833084716796904,0.768279510784149,0.6758581448821807
6.761694276196246,-0.49881146621704103,-0.6571574340820311,-1.8782170712471,0.6758581448821807
6.7622999697153245,0.114313533782959,-0.180548547363281,-1.4902239071846,0.6758581448821807
6.762905663234403,0.962150447845459,0.140384069824219,1.4843903506279,0.6758581448821807
6.763511356753483,1.60641070175171,-0.745773156738281,1.7071271670341501,0.6758581448821807
6.764117050272563,-0.5419218177795411,0.365515905761719,-1.0399602353096,0.6758581448821807
6.7647227437916415,-1.1454667396545402,0.413416296386719,-1.7656511532783499,0.6758581448821807
6.765328437310721,-0.187458927154541,-0.6164421020507811,1.1538776553154,0.6758581448821807
6.7659341308298,0.16460894393920902,-0.120673059082031,1.7526325381279,0.6758581448821807
6.76653982434888,-0.5419218177795411,-0.230843957519531,-1.09025564546585,0.6758581448821807
6.767145517867959,-0.654487735748291,0.195469519042969,-2.0458684384345998,0.6758581448821807
6.767751211387038,0.5142817955017089,0.42778641357421904,0.533567596721649,0.6758581448821807
6.768356904906119,1.57767046737671,-0.307484582519531,2.0735651553154,0.6758581448821807
6.7689625984251975,0.629242733001709,-0.317064660644531,-0.304689239215851,0.6758581448821807
6.769568291944276,-0.846089298248291,0.605017858886719,-2.03868337984085,0.48087250809186666
6.770173985463356,-0.28804974746704104,0.430181433105469,0.243770233440399,0.48087250809186666
6.770779678982436,0.322680233001709,-0.0152921997070312,2.16697091703415,0.48087250809186666
6.7713853725015145,-0.19464398574829098,0.310430456542969,-0.39090994234085097,0.48087250809186666
6.771991066020594,-0.764658634185791,-0.09432784423828121,-2.2518401181221,0.48087250809186666
6.772596759539673,-0.14913861465454098,0.145174108886719,-0.366959747028351,0.48087250809186666
6.773202453058753,0.971730525970459,0.35833084716796904,2.1645758975028997,0.48087250809186666
6.773808146577832,1.1561470298767098,-0.532616418457031,0.816179901409149,0.48087250809186666
6.774413840096911,-0.6233524818420411,0.36791092529296904,-1.7297258603096,0.48087250809186666
6.77501953361599,-0.714363224029541,0.751114050292969,-0.429230254840851,0.48087250809186666
6.7756252271350705,0.056833065032959,-0.403285363769531,1.55384591703415,0.48087250809186666
6.776230920654149,-0.707178165435791,0.188284460449219,0.025823456096649,0.48087250809186666
6.776836614173228,-0.486836368560791,-0.511061242675781,-2.0267082821846,0.48087250809186666
6.777442307692309,0.21969439315795902,-0.283534387207031,-0.913024200153351,0.48087250809186666
6.7780480012113875,1.18728228378296,0.446946569824219,1.57779611234665,0.48087250809186666
6.778653694730466,1.2016524009704599,-0.7170329223632811,1.86040841703415,0.48087250809186666
6.779259388249546,-0.620957462310791,0.7415339721679689,-1.2076116024971,0.48087250809186666
6.779865081768626,-1.1957621498107902,0.7798542846679689,-1.3800530087471,0.48087250809186666
6.7804707752877045,0.119103572845459,-0.434420617675781,1.7813727725029,0.48087250809186666
6.781076468806784,-0.5227616615295411,0.18588944091796902,1.1107673037529,0.48087250809186666
6.781682162325863,-0.565872013092041,-0.484716027832031,-1.90935232515335,0.48087250809186666
6.782287855844943,-0.352715274810791,-0.30987960205078097,-1.50219900484085,0.48087250809186666
6.782893549364022,0.744203670501709,0.375095983886719,1.25686349515915,0.48087250809186666
6.783499242883101,1.54653521347046,-0.6811076293945311,1.52510568265915,0.48087250809186666
6.78410493640218,-0.125188419342041,0.140384069824219,-1.1261809384346,0.48087250809186666
6.7847106299212605,-0.9610502357482911,0.693633581542969,-1.6722453915596,0.48087250809186666
6.785316323440339,-0.254519474029541,-0.408075402832031,1.1921979678154,0.48087250809186666
6.785922016959419,0.133473690032959,-0.046427453613281204,1.55863595609665,0.48087250809186666
6.786527710478499,-0.678437931060791,-0.20210372314453098,-0.881888946247101,0.48087250809186666
6.7871334039975775,-0.755078556060791,0.042188269042968796,-2.04347341890335,0.48087250809186666
6.787739097516657,0.083178279876709,0.5211921752929689,0.631763397502899,0.48087250809186666
6.788344791035736,1.26871294784546,-0.24760909423828098,2.1741559756278996,0.48087250809186666
6.788950484554816,0.849584529876709,-0.278744348144531,-0.386119903278351,0.48087250809186666
6.789556178073895,-0.6425126380920411,0.6145979370117189,-1.9740178524971,0.48087250809186666
6.790161871592974,-0.460491153717041,0.5164021362304689,0.20065988187789902,0.48087250809186666
6.790767565112053,0.099943416595459,-0.0847477661132812,1.92746896390915,0.48087250809186666
6.7913732586311335,-0.14434857559204098,0.08769364013671879,-0.21846853609085098,0.48087250809186666
6.791978952150212,-0.549106876373291,-0.0631925903320312,-2.0650285946846,0.48087250809186666
6.792584645669291,-0.161113712310791,0.29845535888671904,-0.30229421968460096,0.48087250809186666
6.793190339188372,0.828029354095459,0.28887528076171903,1.8388532412529,0.48087250809186666
6.7937960327074505,1.0795064048767098,-0.338619836425781,0.507222381877899,0.48087250809186666
6.794401726226529,-0.45809613418579104,0.372700964355469,-1.49740896577835,0.48087250809186666
6.795007419745609,-0.824534122467041,0.6577082885742189,-0.395699981403351,0.48087250809186666
6.795613113264689,0.085573299407959,-0.453580773925781,1.49636544828415,0.48087250809186666
6.796218806783767,-0.704783145904541,0.209839636230469,0.279695526409149,0.48087250809186666
6.796824500302847,-0.532341739654541,-0.15180831298828099,-1.7153557431221,0.48087250809186666
6.797430193821926,0.056833065032959,-0.436815637207031,-1.0591203915596,0.48087250809186666
6.798035887341006,1.02442095565796,0.267320104980469,1.3598493350029,0.48087250809186666
6.798641580860085,0.983705623626709,-0.630812219238281,1.3981696475029,0.48087250809186666
6.799247274379164,-0.403010684967041,0.0134480346679688,-1.26748709077835,0.48087250809186666
6.799852967898245,-0.932310001373291,0.6409431518554689,-0.843568633747101,0.48087250809186666
6.8004586614173235,-0.000647403717040988,-0.487111047363281,1.45325509672165,0.48087250809186666
6.801064354936402,-0.42935589981079103,-0.09432784423828121,0.837735077190399,0.48087250809186666
6.801670048455482,-0.343135196685791,-0.135043176269531,-1.5429143368721,0.48087250809186666
6.802275741974562,-0.13955853652954098,-0.513456262207031,-1.6842204892158499,0.48087250809186666
6.80288143549364,0.7130684165954589,0.514007116699219,1.0628669131279,0.48087250809186666
6.80348712901272,1.53456011581421,-0.604467004394531,1.5873761904716501,0.48087250809186666
6.804092822531799,0.167003963470459,-0.103907922363281,-1.0471452939033499,0.48087250809186666
6.804698516050879,-0.690413028717041,0.8564949096679689,-1.22916677827835,0.48087250809186666
6.805304209569958,-0.175483829498291,-0.352989953613281,1.10358224515915,0.48087250809186666
6.805909903089037,0.064018123626709,-0.0607975708007812,1.3790094912529,0.48087250809186666
6.806515596608117,-0.647302677154541,0.0469783081054688,-0.781298125934601,0.48087250809186666
6.8071212901271965,-0.6640678138732911,-0.0607975708007812,-1.7824162899971,0.48087250809186666
6.807726983646275,0.317890193939209,0.566697546386719,0.375496307659149,0.48087250809186666
6.808332677165354,1.5656953697204599,-0.18773360595703098,1.8196930850029,0.48087250809186666
6.808938370684435,0.705883358001709,-0.5805168090820311,0.567097870159149,0.48087250809186666
6.809544064203513,-0.680832950592041,0.377491003417969,-1.5141741024971,0.48087250809186666
6.810149757722592,-0.491626407623291,0.27929520263671903,0.363521210002899,0.48087250809186666
6.810755451241672,0.152633846282959,-0.118278039550781,2.36815255765915,0.48087250809186666
6.811361144760752,-0.15871869277954098,0.018238073730468797,0.10246408109664899,0.48087250809186666
6.81196683827983,-0.5826371498107911,-0.0631925903320312,-1.61715994234085,0.48087250809186666
6.81257253179891,0.035277889251709,0.228999792480469,-0.314269317340851,0.48087250809186666
6.813178225317989,0.868744686126709,0.44934158935546903,1.6759919131279,0.48087250809186666
6.813783918837069,0.940595272064209,-0.436815637207031,0.404236542034149,0.48087250809186666
6.814389612356148,-0.180273868560791,0.0972737182617188,-1.42555837984085,0.48087250809186666
6.814995305875227,-0.740708438873291,0.708003698730469,-0.510660918903351,0.48087250809186666
6.815600999394307,0.21969439315795902,-0.362570031738281,1.31434396390915,0.48087250809186666
6.816206692913386,-0.6041923255920411,-0.0105021606445312,0.131204315471649,0.48087250809186666
6.816812386432465,-0.510786563873291,-0.22844893798828098,-1.6482951962471,0.48087250809186666
6.817418079951545,-0.048547794342041,-0.49908614501953097,-1.03756521577835,0.48087250809186666
6.818023773470625,0.617267635345459,0.296060339355469,1.1203473818779,0.48087250809186666
6.818629466989703,1.1896773033142098,-0.288324426269531,1.1538776553154,0.48087250809186666
6.819235160508783,0.00414263534545901,-0.106302941894531,-0.910629180622101,0.48087250809186666
6.819840854027863,-0.831719181060791,0.810989538574219,-0.793273223590851,0.48087250809186666
6.820446547546942,-0.276074649810791,-0.331434777832031,1.02215158109665,0.48087250809186666
6.821052241066021,-0.460491153717041,0.039793249511718795,0.768279510784149,0.48087250809186666
6.8216579345851,-0.697598087310791,-0.235633996582031,-1.2028215634346,0.48087250809186666
6.82226362810418,-0.17308880996704099,-0.592491906738281,-1.32975759859085,0.48087250809186666
6.822869321623259,0.552602108001709,0.33917069091796903,0.753909393596649,0.48087250809186666
6.823475015142338,1.40522906112671,-0.669132531738281,1.48199533109665,0.48087250809186666
6.824080708661417,0.152633846282959,-0.19731368408203098,-0.659152129840851,0.48087250809186666
6.824686402180498,-0.999370548248291,0.7966194213867189,-1.4614836728096,0.48087250809186666
6.825292095699576,-0.113213321685791,-0.209288781738281,0.7419342959403991,0.48087250809186666
6.825897789218655,-0.237754337310791,-0.240424035644531,1.34308419828415,0.48087250809186666
6.826503482737735,-0.620957462310791,0.042188269042968796,-0.802853301715851,0.48087250809186666
6.827109176256815,-0.395825626373291,-0.261979211425781,-1.4854338681221,0.48087250809186666
6.827714869775893,0.056833065032959,0.566697546386719,0.478482147502899,0.48087250809186666
6.828320563294973,1.28547808456421,-0.166178430175781,1.89393869047165,0.48087250809186666
6.828926256814053,0.916645076751709,-0.664342492675781,-0.014891875934601,0.48087250809186666
6.8295319503331315,-0.585032169342041,0.47808182373046904,-1.6842204892158499,0.48087250809186666
6.830137643852211,-0.501206485748291,0.324800573730469,-0.019681914997101,0.48087250809186666
6.83074333737129,0.308310115814209,-0.204498742675781,1.7143122256279,0.48087250809186666
6.83134903089037,0.032882869720459,-0.00331710205078125,-0.005311797809601,0.48087250809186666
6.831954724409449,-0.659277774810791,-0.106302941894531,-1.78002127046585,0.48087250809186666
6.832560417928528,-0.24493939590454097,0.382281042480469,-0.505870879840851,0.48087250809186666
6.833166111447607,0.7944990806579589,0.5379573120117189,1.5035505068779,0.48087250809186666
6.833771804966688,0.909460018157959,-0.26916427001953097,0.8808454287528991,0.48087250809186666
6.834377498485766,-0.20422406387329098,0.08529862060546879,-1.4375334774971,0.48087250809186666
6.834983192004846,-0.666462833404541,0.784644323730469,-0.445995391559601,0.48087250809186666
6.835588885523926,-0.031782657623291,-0.0320573364257812,1.3837995303154,0.48087250809186666
6.8361945790430045,-0.556291934967041,0.0493733276367188,0.344361053752899,0.48087250809186666
6.836800272562084,-0.532341739654541,0.0972737182617188,-1.30580740327835,0.48087250809186666
6.837405966081163,-0.14913861465454098,-0.400890344238281,-0.953739532184601,0.48087250809186666
6.838011659600243,0.5358369712829589,0.264925085449219,1.05089181547165,0.48087250809186666
6.838617353119322,1.1298018150329598,-0.221263879394531,1.22333322172165,0.48087250809186666
6.839223046638401,0.16939898300170902,-0.048822473144531205,-0.946554473590851,0.48087250809186666
6.83982874015748,-1.09277630996704,0.8540998901367189,-0.984874786090851,0.48087250809186666
6.840434433676561,-0.486836368560791,-0.26916427001953097,1.59216622953415,0.48087250809186666
6.841040127195639,-0.47725629043579104,-0.221263879394531,0.811389862346649,0.48087250809186666
6.841645820714718,-0.834114200592041,-0.027267297363281203,-1.60278982515335,0.48087250809186666
6.842251514233799,-0.019807559967041,-0.43921065673828097,-1.1932414853096,0.48087250809186666
6.8428572077528775,0.667563045501709,0.372700964355469,0.739539276409149,0.48087250809186666
6.843462901271956,1.26871294784546,-0.295509484863281,1.3454792178154,0.48087250809186666
6.844068594791036,0.222089412689209,-0.463160852050781,-0.644782012653351,0.48087250809186666
6.844674288310116,-0.968235294342041,0.5571174682617189,-1.2459319149971,0.48087250809186666
6.8452799818291945,-0.283259708404541,-0.18294356689453098,0.717984100627899,0.48087250809186666
6.845885675348274,0.035277889251709,-0.427235559082031,1.0101764834404001,0.48087250809186666
6.846491368867353,-0.48923138809204103,-0.113488000488281,-0.891469024372101,0.48087250809186666
6.847097062386433,-0.553896915435791,-0.123068078613281,-1.4375334774971,0.48087250809186666
6.847702755905512,0.114313533782959,0.528377233886719,0.37789132719039903,0.48087250809186666
6.848308449424591,0.959755428314209,-0.106302941894531,1.4652301943779,0.48087250809186666
6.848914142943672,0.741808650970459,-0.693082727050781,-0.151407989215851,0.48087250809186666
6.8495198364627505,-0.39822064590454104,0.272110144042969,-1.52135916109085,0.48087250809186666
6.850125529981829,-0.261704532623291,0.5571174682617189,0.083303924846649,0.48087250809186666
6.850731223500909,0.035277889251709,-0.16857344970703098,1.6089313662529001,0.48087250809186666
6.851336917019989,-0.350320255279541,-0.15180831298828099,-0.036447051715851005,0.48087250809186666
6.8519426105390675,-0.47725629043579104,-0.0631925903320312,-1.51177908296585,0.48087250809186666
6.852548304058147,-0.16350873184204098,0.286480261230469,-0.19451834077835098,0.48087250809186666
6.853153997577226,0.432851131439209,0.401441198730469,1.3358991396904,0.48087250809186666
6.853759691096306,0.8352144126892089,-0.0871427856445312,0.713194061565399,0.48087250809186666
6.854365384615385,0.17418902206420903,-0.0152921997070312,-0.905839141559601,0.48087250809186666
6.854971078134464,-0.376665470123291,0.490056921386719,-0.345404571247101,0.48087250809186666
6.855576771653543,-0.16350873184204098,0.0326081909179688,1.1586676943779,0.48087250809186666
6.8561824651726235,-0.719153263092041,-0.14222823486328098,0.09048898344039899,0.48087250809186666
6.856788158691702,-0.635327579498291,0.0565583862304688,-1.5524944149971,0.48087250809186666
6.857393852210781,-0.055732852935791,-0.441605676269531,-0.8747038876533509,0.48087250809186666
6.857999545729862,0.610082576751709,0.272110144042969,1.15627267484665,0.48087250809186666
6.8586052392489405,0.911855037689209,-0.403285363769531,1.0484967959404001,0.48087250809186666
6.859210932768019,0.09036333847045899,-0.352989953613281,-0.716632598590851,0.48087250809186666
6.859816626287099,-1.0975663490295402,0.8205696166992189,-0.757347930622101,0.48087250809186666
6.860422319806179,-0.494021427154541,-0.35059493408203096,1.0532868350029,0.48087250809186666
6.8610280133252575,-0.424565860748291,-0.30987960205078097,0.849710174846649,0.48087250809186666
6.861633706844337,-0.836509220123291,-0.17815352783203098,-1.4471135556221,0.48087250809186666
6.862239400363416,0.083178279876709,-0.5182463012695311,-1.23874685640335,0.48087250809186666
6.862845093882496,0.495121639251709,0.300850378417969,0.638948456096649,0.48087250809186666
6.863450787401575,1.30703326034546,-0.324249719238281,1.3023688662529,0.48087250809186666
6.864056480920654,0.423271053314209,-0.49908614501953097,-0.606461700153351,0.48087250809186666
6.864662174439733,-1.09517132949829,0.672078405761719,-1.4087932431221,0.48087250809186666
6.8652678679588135,-0.505996524810791,-0.08953780517578121,0.660503631877899,0.48087250809186666
6.865873561477892,-0.19943402481079098,-0.374545129394531,1.0484967959404001,0.48087250809186666
6.866479254996972,-0.352715274810791,-0.113488000488281,-0.6352019345283509,0.48087250809186666
6.867084948516052,-0.40780072402954104,-0.427235559082031,-1.4878288876533499,0.48087250809186666
6.8676906420351305,0.315495174407959,0.612202917480469,0.104859100627899,0.48087250809186666
6.86829633555421,0.768153865814209,0.291270300292969,1.64006662015915,0.48087250809186666
6.868902029073289,0.8352144126892089,-0.396100305175781,-0.18972830171585098,0.48087250809186666
6.869507722592369,-0.201829044342041,0.353540808105469,-0.977689727497101,0.6030355157068061
6.870113416111448,-0.362295352935791,0.47808182373046904,0.131204315471649,0.6030355157068061
6.870719109630527,0.111918514251709,-0.127858117675781,0.878450409221649,0.6030355157068061
6.871324803149606,-0.26888959121704104,-0.214078820800781,0.009058319377899,0.6030355157068061
6.8719304966686865,-0.374270450592041,-0.166178430175781,-1.4183733212471,0.6030355157068061
6.872536190187765,-0.029387638092041,0.0948786987304688,-0.424440215778351,0.6030355157068061
6.873141883706844,0.39932085800170897,0.379886022949219,1.56342599515915,0.6030355157068061
6.873747577225925,0.816054256439209,-0.120673059082031,0.696428924846649,0.6030355157068061
6.8743532707450035,0.23406451034545903,-0.264374230957031,-1.0064299618721,0.6030355157068061
6.874958964264082,-0.41977582168579103,0.434971472167969,-0.378934844684601,0.6030355157068061
6.875564657783162,-0.292839786529541,0.353540808105469,0.9215607607841491,0.6030355157068061
6.876170351302242,-0.573057071685791,-0.180548547363281,0.049773651409148995,0.6030355157068061
6.87677604482132,-0.577847110748291,-0.190128625488281,-1.7057756649970999,0.6030355157068061
6.8773817383404,-0.082078067779541,-0.535011437988281,-1.0088249814033499,0.6030355157068061
6.877987431859479,0.8926948814392089,0.039793249511718795,1.3263190615654001,0.6030355157068061
6.878593125378559,0.8543745689392089,-0.0799577270507812,1.25207345609665,0.6030355157068061
6.879198818897638,0.092758358001709,-0.0655876098632812,-0.841173614215851,0.6030355157068061
6.879804512416717,-0.836509220123291,0.830149694824219,-0.537006133747101,0.6030355157068061
6.880410205935796,-0.182668888092041,-0.0967228637695312,0.950300995159149,0.6030355157068061
6.8810158994548765,-0.055732852935791,-0.506271203613281,0.605418182659149,0.6030355157068061
6.881621592973955,-0.757473575592041,0.044583288574218796,-1.2052165829658499,0.6030355157068061
6.882227286493035,-0.041362735748291,-0.321854699707031,-1.27227712984085,0.6030355157068061
6.882832980012115,0.545417049407959,0.164334265136719,0.523987518596649,0.6030355157068061
6.883438673531193,1.2758980064392098,0.164334265136719,1.35745431547165,0.6030355157068061
6.884044367050273,0.8136592369079589,-0.808043664550781,-0.350194610309601,0.6030355157068061
6.884650060569353,-0.891594669342041,0.48766190185546904,-1.59320974702835,0.6030355157068061
6.885255754088432,-0.484441349029541,0.365515905761719,0.358731170940399,0.6030355157068061
6.885861447607511,-0.077288028717041,-0.525431359863281,1.44846505765915,0.6030355157068061
6.88646714112659,-0.594612247467041,-0.0344523559570312,-0.465155547809601,0.6030355157068061
6.88707283464567,-0.5036015052795411,-0.23323897705078098,-1.51177908296585,0.6030355157068061
6.8876785281647495,0.049648006439209,0.38946610107421903,0.25814035062789903,0.6030355157068061
6.888284221683828,0.662773006439209,0.317615515136719,1.87477853422165,0.6030355157068061
6.888889915202907,0.871139705657959,-0.484716027832031,-0.069977325153351,0.6030355157068061
6.889495608721988,-0.019807559967041,0.00626297607421875,-1.5572844540596,0.6030355157068061
6.890101302241066,-0.462886173248291,0.274505163574219,0.14078439359664902,0.6030355157068061
6.890706995760145,-0.106028263092041,0.15714920654296902,1.29997384672165,0.6030355157068061
6.891312689279225,-0.062917911529541,0.09008865966796879,0.09527902250289899,0.6030355157068061
6.891918382798305,-0.38864056777954104,0.0110530151367188,-1.16210623140335,0.6030355157068061
6.892524076317383,0.025697811126709,0.121223913574219,-0.419650176715851,0.6030355157068061
6.893129769836463,0.519071834564209,0.5211921752929689,1.20896310453415,0.6030355157068061
6.893735463355542,0.617267635345459,0.0924836791992188,0.756304413127899,0.6030355157068061
6.894341156874622,-0.017412540435791,-0.170968469238281,-1.0016399228096,0.6030355157068061
6.894946850393701,-0.19943402481079098,0.6169929565429689,-0.608856719684601,0.6030355157068061
6.89555254391278,-0.192248966217041,0.10445877685546899,0.962276092815399,0.6030355157068061
6.89615823743186,-0.6425126380920411,-0.35059493408203096,0.167129608440399,0.6030355157068061
6.896763930950939,-0.699993106842041,-0.278744348144531,-1.4806438290596,0.6030355157068061
6.897369624470018,-0.113213321685791,-0.487111047363281,-0.936974395465851,0.6030355157068061
6.897975317989099,0.7753389244079589,0.142779089355469,0.962276092815399,0.6030355157068061
6.898581011508178,0.899879940032959,0.09008865966796879,0.991016327190399,0.6030355157068061
6.899186705027256,0.152633846282959,-0.271559289550781,-0.924999297809601,0.6030355157068061
6.899792398546336,-0.740708438873291,0.5379573120117189,-1.2698821103096,0.6030355157068061
6.900398092065416,-0.34792523574829104,0.260135046386719,1.33350412015915,0.6030355157068061
6.901003785584495,-0.534736759185791,-0.434420617675781,1.48199533109665,0.6030355157068061
6.901609479103574,-0.740708438873291,-0.0536125122070312,-1.03277517671585,0.6030355157068061
6.902215172622653,-0.211409122467041,-0.774513391113281,-1.29622732515335,0.6030355157068061
6.902820866141733,0.605292537689209,-0.08953780517578121,0.382681366252899,0.6030355157068061
6.903426559660812,1.13219683456421,0.023028112792968798,1.2832087100029,0.6030355157068061
6.904032253179891,0.646007869720459,-0.451185754394531,-0.42204519624710096,0.6030355157068061
6.90463794669897,-0.678437931060791,0.7199787963867189,-1.3513127743721,0.6030355157068061
6.905243640218051,-0.494021427154541,0.0709285034179688,0.485667206096649,0.6030355157068061
6.905849333737129,0.167003963470459,-0.372150109863281,1.1347174990654,0.6030355157068061
6.906455027256208,-0.225779239654541,-0.0584025512695312,-0.534611114215851,0.6030355157068061
6.907060720775288,-0.470071231842041,-0.305089562988281,-1.3177825009346,0.6030355157068061
6.907666414294368,0.128683650970459,0.42778641357421904,-0.019681914997101,0.6030355157068061
6.908272107813446,0.643612850189209,0.6984236206054689,1.7047321475029,0.6030355157068061
6.908877801332526,0.7154634361267089,-0.482321008300781,0.23898019437789902,0.6030355157068061
6.909483494851606,-0.22338422012329098,0.173914343261719,-1.6866155087471,0.6030355157068061
6.9100891883706845,-0.187458927154541,0.475686804199219,0.116834198284149,0.6030355157068061
6.910694881889764,0.073598201751709,-0.0344523559570312,1.3167389834404,0.6030355157068061
6.911300575408843,-0.206619083404541,-0.00331710205078125,-0.254393829059601,0.6030355157068061
6.911906268927923,-0.345530216217041,-0.22844893798828098,-1.17168630952835,0.6030355157068061
6.912511962447002,-0.38864056777954104,0.149964147949219,-0.436415313434601,0.6030355157068061
6.913117655966081,0.095153377532959,0.6960286010742189,0.969461151409149,0.6030355157068061
6.91372334948516,0.586132381439209,0.121223913574219,0.567097870159149,0.6030355157068061
6.914329043004241,0.162213924407959,-0.180548547363281,-0.862728789997101,0.6030355157068061
6.914934736523319,-0.187458927154541,0.30803543701171904,-0.407675079059601,0.6030355157068061
6.915540430042399,-0.108423282623291,0.14756912841796901,0.986226288127899,0.6030355157068061
6.916146123561479,-0.788608829498291,0.10685379638671899,0.116834198284149,0.6030355157068061
6.9167518170805575,-0.920334903717041,0.0110530151367188,-1.3225725399971,0.6030355157068061
6.917357510599637,-0.067707950592041,-0.352989953613281,-0.7956682431221009,0.6030355157068061
6.917963204118716,0.765758846282959,0.142779089355469,0.967066131877899,0.6030355157068061
6.918568897637796,1.06753130722046,0.26971512451171903,0.943115936565399,0.6030355157068061
6.919174591156875,0.36100054550170896,-0.21168380126953099,-0.778903106403351,0.6030355157068061
6.919780284675954,-0.5634769935607911,0.5786726440429689,-0.7357927548408509,0.6030355157068061
6.920385978195033,-0.45809613418579104,0.370305944824219,1.01736154203415,0.6030355157068061
6.920991671714114,-0.745498477935791,-0.302694543457031,0.468902069377899,0.6030355157068061
6.921597365233192,-0.527551700592041,-0.209288781738281,-1.3034123837471,0.6030355157068061
6.922203058752271,0.032882869720459,-0.6571574340820311,-1.0926506649971,0.6030355157068061
6.922808752271352,0.643612850189209,0.0661384643554688,0.535962616252899,0.6030355157068061
6.9234144457904305,0.866349666595459,0.164334265136719,1.2017780459404,0.6030355157068061
6.924020139309509,0.452011287689209,-0.467950891113281,-0.366959747028351,0.6030355157068061
6.924625832828589,-0.759868595123291,0.23139481201171902,-1.3321526181221,0.6030355157068061
6.925231526347669,-0.597007266998291,0.343960729980469,0.14557443265914902,0.6030355157068061
6.9258372198667475,-0.082078067779541,-0.38891524658203097,1.3071589053154,0.6030355157068061
6.926442913385827,-0.513181583404541,-0.22844893798828098,-0.541796172809601,0.6030355157068061
6.927048606904906,-0.482046329498291,-0.293114465332031,-1.48303884859085,0.6030355157068061
6.927654300423986,0.181374080657959,0.406231237792969,0.171919647502899,0.6030355157068061
6.928259993943065,0.629242733001709,0.6002278198242189,1.8101130068779,0.6030355157068061
6.928865687462144,0.646007869720459,-0.494296105957031,0.030613495159149,0.6030355157068061
6.929471380981225,-0.197039005279541,0.159544226074219,-1.7273308407783499,0.6030355157068061
6.9300770745003035,-0.321580020904541,0.473291784667969,0.43776681547164903,0.6030355157068061
6.930682768019382,-0.065312931060791,0.0781135620117188,1.89872872953415,0.6030355157068061
6.931288461538462,-0.055732852935791,-0.0392423950195312,-0.15380300874710098,0.6030355157068061
6.931894155057542,-0.177878849029541,-0.331434777832031,-1.13815603609085,0.6030355157068061
6.9324998485766205,-0.115608341217041,0.137989050292969,-0.266368926715851,0.6030355157068061
6.9331055420957,0.38016070175170896,0.7343489135742189,0.9814362490653991,0.6030355157068061
6.933711235614779,0.679538143157959,0.173914343261719,0.595838104534149,0.6030355157068061
6.934316929133859,-0.036572696685791,0.0254231323242188,-0.924999297809601,0.6030355157068061
6.934922622652938,-0.323975040435791,0.202654577636719,-0.08434744234085101,0.6030355157068061
6.935528316172017,-0.026992618560791,0.17151932373046902,1.2832087100029,0.6030355157068061
6.936134009691096,-0.776633731842041,0.0469783081054688,-0.005311797809601,0.6030355157068061
6.9367397032101765,-0.824534122467041,-0.434420617675781,-1.6339250790596,0.6030355157068061
6.937345396729255,0.085573299407959,-0.139833215332031,-1.0016399228096,0.6030355157068061
6.937951090248334,0.617267635345459,0.0781135620117188,0.8808454287528991,0.6030355157068061
6.938556783767415,0.983705623626709,0.26971512451171903,1.04610177640915,0.6030355157068061
6.9391624772864935,0.109523494720459,0.140384069824219,-0.869913848590851,0.6030355157068061
6.939768170805572,-0.709573184967041,0.250554968261719,-0.719027618122101,0.6030355157068061
6.940373864324652,-0.220989200592041,0.17630936279296902,0.914375702190399,0.6030355157068061
6.940979557843732,-0.290444766998291,-0.554171594238281,0.605418182659149,0.6030355157068061
6.9415852513628105,-0.666462833404541,-0.252399133300781,-1.23874685640335,0.6030355157068061
6.94219094488189,-0.285654727935791,-0.288324426269531,-1.1692912899971,0.6030355157068061
6.942796638400969,0.995680721282959,-0.17336348876953098,0.770674530315399,0.6030355157068061
6.943402331920049,0.9334102134704589,-0.0128971801757812,1.25686349515915,0.6030355157068061
6.944008025439128,0.531046932220459,-0.463160852050781,-0.417255157184601,0.6030355157068061
6.944613718958207,-0.814954044342041,0.11403885498046899,-1.2866472470283499,0.6030355157068061
6.945219412477286,-0.570662052154541,0.5379573120117189,0.274905487346649,0.6030355157068061
6.9458251059963665,0.049648006439209,-0.484716027832031,1.19938302640915,0.6030355157068061
6.946430799515445,-0.192248966217041,-0.467950891113281,-0.443600372028351,0.6030355157068061
6.947036493034525,-0.494021427154541,-0.218868859863281,-1.3369426571846,0.6030355157068061
6.947642186553605,0.066413143157959,0.312825476074219,0.083303924846649,0.6030355157068061
6.9482478800726835,0.619662654876709,0.731953894042969,1.56821603422165,0.6030355157068061
6.948853573591763,0.607687557220459,-0.302694543457031,0.274905487346649,0.6030355157068061
6.949459267110842,-0.101238224029541,-0.23323897705078098,-1.6770354306221,0.6030355157068061
6.950064960629922,-0.484441349029541,0.434971472167969,-0.283134063434601,0.6030355157068061
6.950670654149001,-0.010227481842041,-0.0296623168945312,1.2496784365654001,0.6030355157068061
6.95127634766808,-0.28804974746704104,0.16193924560546902,-0.196913360309601,0.6030355157068061
6.95188204118716,-0.496416446685791,0.0326081909179688,-1.42555837984085,0.6030355157068061
6.9524877347062395,0.032882869720459,-0.0176872192382812,-0.33103445405960097,0.6030355157068061
6.953093428225318,0.356210506439209,0.784644323730469,1.0245466006279,0.6030355157068061
6.953699121744397,0.454406307220459,0.173914343261719,0.21502999906539902,0.6030355157068061
6.954304815263478,0.20532427597045902,-0.0560075317382812,-0.872308868122101,0.6030355157068061
6.9549105087825565,-0.058127872467041,0.324800573730469,-0.07716238374710101,0.6030355157068061
6.955516202301635,0.14544878768920902,0.044583288574218796,1.2113581240654,0.6030355157068061
6.956121895820715,-0.505996524810791,0.19067947998046902,0.236585174846649,0.6030355157068061
6.956727589339795,-0.908359806060791,-0.0105021606445312,-1.40160818452835,0.6030355157068061
6.957333282858873,-0.225779239654541,-0.305089562988281,-0.889074004840851,0.6030355157068061
6.957938976377953,0.519071834564209,0.142779089355469,0.849710174846649,0.6030355157068061
6.958544669897032,0.677143123626709,0.214629675292969,0.9215607607841491,0.6030355157068061
6.959150363416112,0.193349178314209,-0.048822473144531205,-0.661547149372101,0.6030355157068061
6.959756056935191,-0.35750531387329104,0.16193924560546902,-0.680707305622101,0.6030355157068061
6.96036175045427,-0.678437931060791,0.27929520263671903,0.900005585002899,0.6030355157068061
6.960967443973349,-0.654487735748291,-0.0152921997070312,0.638948456096649,0.6030355157068061
6.9615731374924295,-0.441330997467041,-0.5038761840820309,-1.4758537899971,0.6030355157068061
6.962178831011508,-0.527551700592041,-0.149413293457031,-1.29143728609085,0.6030355157068061
6.962784524530587,0.691513240814209,0.16193924560546902,0.5024323428153991,0.6030355157068061
6.963390218049668,0.966940486907959,-0.0607975708007812,1.2353083193779,0.6030355157068061
6.963995911568746,0.26998980331420896,-0.338619836425781,-0.546586211872101,0.6030355157068061
6.964601605087826,-0.5443168373107911,-0.0128971801757812,-1.2650920712470999,0.6030355157068061
6.965207298606906,-0.515576602935791,0.219419714355469,0.528777557659149,0.6030355157068061
6.965812992125985,-0.192248966217041,-0.381730187988281,1.0245466006279,0.6030355157068061
6.966418685645064,-0.400615665435791,-0.223658898925781,-0.642386993122101,0.6030355157068061
6.967024379164143,-0.25930951309204103,-0.0584025512695312,-1.57404959077835,0.6030355157068061
6.967630072683223,0.226879451751709,0.291270300292969,0.310830780315399,0.6030355157068061
6.9682357662023025,0.705883358001709,0.44934158935546903,1.7717926943779,0.6030355157068061
6.968841459721381,0.423271053314209,-0.199708703613281,0.114439178752899,0.6030355157068061
6.96944715324046,-0.261704532623291,-0.245214074707031,-1.63632009859085,0.364038865819593
6.970052846759541,-0.206619083404541,0.17151932373046902,-0.098717559528351,0.364038865819593
6.970658540278619,-0.050942813873291,0.0805085815429688,1.37182443265915,0.364038865819593
6.971264233797698,-0.16829877090454098,-0.130253137207031,-0.290319122028351,0.364038865819593
6.971869927316778,-0.441330997467041,-0.123068078613281,-1.4519035946846,0.364038865819593
6.972475620835858,-0.220989200592041,0.200259558105469,-0.405280059528351,0.364038865819593
6.973081314354936,0.198139217376709,0.909185339355469,1.1299274600029001,0.364038865819593
6.973687007874016,0.45919634628295897,0.360725866699219,0.43776681547164903,0.364038865819593
6.974292701393095,0.26998980331420896,-0.13743819580078098,-1.0208000790596,0.364038865819593
6.974898394912175,0.035277889251709,0.16672928466796902,-0.08674246187210101,0.364038865819593
6.975504088431254,0.035277889251709,-0.154203332519531,1.2305182803154,0.364038865819593
6.976109781950333,-0.649697696685791,0.415811315917969,-0.14901296968460098,0.364038865819593
6.976715475469414,-0.867644474029541,0.018238073730468797,-1.75128103609085,0.364038865819593
6.977321168988492,-0.070102970123291,-0.209288781738281,-0.9345793759346009,0.364038865819593
6.977926862507571,0.562182186126709,0.193074499511719,0.734749237346649,0.364038865819593
6.97853255602665,0.7130684165954589,0.0661384643554688,0.8209699404716491,0.364038865819593
6.979138249545731,0.236459529876709,0.0517683471679688,-0.637596954059601,0.364038865819593
6.979743943064809,-0.486836368560791,0.38946610107421903,-0.551376250934601,0.364038865819593
6.980349636583889,-0.280864688873291,0.327195593261719,0.957486053752899,0.364038865819593
6.980955330102969,-0.340740177154541,-0.17336348876953098,0.540752655315399,0.364038865819593
6.981561023622048,-0.836509220123291,-0.398495324707031,-1.42076834077835,0.364038865819593
6.982166717141127,-0.39822064590454104,-0.357779992675781,-1.3944231259346,0.364038865819593
6.982772410660206,0.696303279876709,-0.0584025512695312,0.811389862346649,0.364038865819593
6.983378104179286,1.01005083847046,0.0326081909179688,1.2975788271904,0.364038865819593
6.983983797698365,0.396925838470459,-0.37933516845703097,-0.467550567340851,0.364038865819593
6.984589491217444,-0.644907657623291,-0.21168380126953099,-1.1645012509346,0.364038865819593
6.985195184736523,-0.585032169342041,0.375095983886719,0.25814035062789903,0.364038865819593
6.985800878255604,-0.304814884185791,-0.170968469238281,0.938325897502899,0.364038865819593
6.986406571774682,-0.24493939590454097,-0.376940148925781,-0.853148711872101,0.364038865819593
6.987012265293761,-0.307209903717041,-0.08953780517578121,-1.2052165829658499,0.364038865819593
6.987617958812841,0.16939898300170902,0.291270300292969,0.655713592815399,0.364038865819593
6.9882236523319206,0.492726619720459,0.506822058105469,1.58258615140915,0.364038865819593
6.988829345850999,0.475961483001709,-0.295509484863281,-0.20888845796585098,0.364038865819593
6.989435039370079,-0.015017520904540999,-0.463160852050781,-1.4279533993720999,0.364038865819593
6.990040732889158,-0.31918500137329103,0.286480261230469,0.10006906156539899,0.364038865819593
6.9906464264082375,0.262804744720459,-0.0991178833007812,1.93704904203415,0.364038865819593
6.991252119927317,-0.18985394668579098,-0.29071944580078096,0.011453338909149,0.364038865819593
6.991857813446396,-0.35990033340454103,-0.331434777832031,-1.57883962984085,0.364038865819593
6.992463506965476,-0.038967716217041,-0.0991178833007812,0.009058319377899,0.364038865819593
6.993069200484555,-0.086868106842041,0.9546907104492189,1.2664435732841501,0.364038865819593
6.993674894003634,0.028092830657959,0.463711706542969,0.662898651409149,0.364038865819593
6.994280587522715,0.08796831893920899,-0.30987960205078097,-0.833988555622101,0.364038865819593
6.9948862810417936,0.351420467376709,0.023028112792968798,-0.18972830171585098,0.364038865819593
6.995491974560872,0.253224666595459,-0.23802901611328098,1.09879220609665,0.364038865819593
6.996097668079951,-0.750288516998291,0.27929520263671903,0.109649139690399,0.364038865819593
6.996703361599032,-0.8436942787170411,-0.0152921997070312,-1.62194998140335,0.364038865819593
6.9973090551181105,0.212509334564209,-0.393705285644531,-1.0088249814033499,0.364038865819593
6.99791474863719,0.8950899009704589,0.044583288574218796,0.876055389690399,0.364038865819593
6.998520442156269,0.931015193939209,0.08769364013671879,0.868870331096649,0.364038865819593
6.999126135675349,0.097548397064209,0.195469519042969,-0.625621856403351,0.364038865819593
6.999731829194428,-0.33834515762329104,0.382281042480469,-0.750162872028351,0.364038865819593
7.000337522713507,-0.22338422012329098,0.10924881591796899,0.957486053752899,0.364038865819593
7.000943216232586,-0.517971622467041,-0.214078820800781,0.859290252971649,0.364038865819593
7.0015489097516665,-0.556291934967041,-0.293114465332031,-1.4087932431221,0.364038865819593
7.002154603270745,-0.211409122467041,-0.103907922363281,-1.13336599702835,0.364038865819593
7.002760296789824,0.602897518157959,0.0302131713867188,1.18501290922165,0.364038865819593
7.003365990308905,1.1417769126892099,-0.00331710205078125,1.3598493350029,0.364038865819593
7.0039716838279835,0.5933174400329589,-0.161388391113281,-0.462760528278351,0.364038865819593
7.004577377347062,-0.261704532623291,-0.405680383300781,-1.1309709774971,0.364038865819593
7.005183070866142,-0.216199161529541,0.19067947998046902,0.495247284221649,0.364038865819593
7.005788764385222,-0.271284610748291,0.102063757324219,1.2975788271904,0.364038865819593
7.0063944579043005,-0.177878849029541,-0.44879073486328097,-0.769323028278351,0.364038865819593
7.00700015142338,-0.585032169342041,-0.391310266113281,-1.58841970796585,0.364038865819593
7.007605844942459,0.123893611907959,0.14756912841796901,0.44734689359664903,0.364038865819593
7.008211538461539,0.497516658782959,0.257740026855469,1.65922677640915,0.364038865819593
7.008817231980618,0.243644588470459,0.0661384643554688,0.088093963909149,0.364038865819593
7.009422925499697,-0.141953556060791,-0.21168380126953099,-1.1692912899971,0.364038865819593
7.010028619018776,-0.197039005279541,-0.0105021606445312,-0.007706817340851,0.364038865819593
7.0106343125378565,0.193349178314209,-0.0799577270507812,1.3358991396904,0.364038865819593
7.011240006056935,-0.151533634185791,-0.0105021606445312,-0.017286895465851,0.364038865819593
7.011845699576015,-0.644907657623291,-0.113488000488281,-1.53572927827835,0.364038865819593
7.012451393095095,-0.14913861465454098,-0.0655876098632812,-0.369354766559601,0.364038865819593
7.0130570866141735,0.274779842376709,0.626573034667969,1.53468576078415,0.364038865819593
7.013662780133253,0.202929256439209,0.370305944824219,0.646133514690399,0.364038865819593
7.014268473652332,0.013722713470459,-0.0200822387695312,-1.01840505952835,0.364038865819593
7.014874167171412,-0.120398380279541,0.08769364013671879,0.13599435453414901,0.364038865819593
7.015479860690491,0.23406451034545903,0.0709285034179688,1.47241525297165,0.364038865819593
7.01608555420957,-0.635327579498291,0.343960729980469,0.248560272502899,0.364038865819593
7.01669124772865,-0.819744083404541,-0.170968469238281,-1.69380056734085,0.364038865819593
7.0172969412477295,-0.292839786529541,-0.321854699707031,-1.1980315243721,0.364038865819593
7.017902634766808,0.866349666595459,0.233789831542969,1.00299142484665,0.364038865819593
7.018508328285887,1.06753130722046,-0.108697961425781,1.0437067568779,0.364038865819593
7.019114021804968,-0.026992618560791,0.09008865966796879,-0.833988555622101,0.364038865819593
7.0197197153240465,-0.343135196685791,0.193074499511719,-0.924999297809601,0.364038865819593
7.020325408843125,-0.197039005279541,0.11164383544921899,1.1778278506279,0.364038865819593
7.020931102362205,-0.376665470123291,-0.194918664550781,1.45325509672165,0.364038865819593
7.021536795881285,-0.6425126380920411,-0.496691125488281,-1.2603020321846,0.364038865819593
7.0221424894003635,-0.632932559967041,-0.223658898925781,-1.4806438290596,0.364038865819593
7.022748182919443,0.545417049407959,0.15714920654296902,0.722774139690399,0.364038865819593
7.023353876438522,1.19207232284546,0.0565583862304688,1.2879987490654001,0.364038865819593
7.023959569957602,0.22927447128295902,-0.417655480957031,-0.572931426715851,0.364038865819593
7.024565263476681,-0.426960880279541,-0.19731368408203098,-1.3608928524971,0.364038865819593
7.02517095699576,-0.446121036529541,0.0948786987304688,0.526382538127899,0.364038865819593
7.025776650514839,-0.410195743560791,0.0996687377929688,1.37661447172165,0.364038865819593
7.0263823440339195,-0.197039005279541,-0.5374064575195311,-0.532216094684601,0.364038865819593
7.026988037552998,-0.273679630279541,-0.376940148925781,-1.7728362118721,0.364038865819593
7.027593731072078,-0.00543744277954099,0.32959061279296903,0.322805877971649,0.364038865819593
7.028199424591158,0.44003619003295896,0.506822058105469,1.6520417178154,0.364038865819593
7.0288051181102364,0.729833553314209,0.11403885498046899,0.15036447172164902,0.364038865819593
7.029410811629316,0.099943416595459,-0.434420617675781,-1.26748709077835,0.364038865819593
7.030016505148396,-0.074893009185791,0.17630936279296902,-0.055607207965851,0.364038865819593
7.030622198667475,0.157423885345459,0.09008865966796879,1.43409494047165,0.364038865819593
7.031227892186554,-0.070102970123291,-0.101512902832031,0.083303924846649,0.364038865819593
7.031833585705633,-0.484441349029541,-0.108697961425781,-1.6051848446846,0.364038865819593
7.032439279224713,0.138263729095459,-0.216473840332031,-0.546586211872101,0.364038865819593
7.0330449727437925,0.341840389251709,0.628968054199219,1.2975788271904,0.364038865819593
7.033650666262871,0.236459529876709,0.439761511230469,0.43776681547164903,0.364038865819593
7.03425635978195,0.102338436126709,-0.226053918457031,-1.02319509859085,0.364038865819593
7.034862053301031,0.035277889251709,0.26971512451171903,-0.357379668903351,0.364038865819593
7.0354677468201094,0.09036333847045899,-0.190128625488281,1.1778278506279,0.364038865819593
7.036073440339188,-0.494021427154541,0.0781135620117188,0.303645721721649,0.364038865819593
7.036679133858268,-0.814954044342041,0.0637434448242188,-1.4950139462471,0.364038865819593
7.037284827377348,-0.561081974029541,-0.357779992675781,-1.05193533296585,0.364038865819593
7.037890520896426,0.737018611907959,0.19067947998046902,0.926350799846649,0.364038865819593
7.038496214415506,1.02921099472046,-0.19252364501953098,1.24249337797165,0.364038865819593
7.039101907934585,0.238854549407959,-0.14701827392578098,-0.891469024372101,0.364038865819593
7.039707601453665,-0.364690372467041,0.466106726074219,-1.0112200009346,0.364038865819593
7.040313294972744,-0.376665470123291,0.0829036010742188,1.05568185453415,0.364038865819593
7.040918988491823,-0.652092716217041,0.0517683471679688,0.7012189639091491,0.364038865819593
7.041524682010902,-0.580242130279541,-0.288324426269531,-1.0878606259346,0.364038865819593
7.0421303755299824,-0.345530216217041,-0.364965051269531,-1.1118108212471,0.364038865819593
7.042736069049061,0.41848101425170897,0.23139481201171902,0.552727752971649,0.364038865819593
7.04334176256814,1.1082466392517099,-0.00331710205078125,1.1682477725029001,0.364038865819593
7.043947456087221,0.29873003768920897,-0.115883020019531,-0.6160417782783509,0.364038865819593
7.044553149606299,-0.505996524810791,-0.0631925903320312,-1.06151541109085,0.364038865819593
7.045158843125379,-0.335950138092041,0.0805085815429688,0.662898651409149,0.364038865819593
7.045764536644459,-0.101238224029541,-0.09432784423828121,1.47720529203415,0.364038865819593
7.046370230163538,-0.180273868560791,-0.405680383300781,-0.316664336872101,0.364038865819593
7.046975923682617,-0.47725629043579104,-0.264374230957031,-1.5908147274971,0.364038865819593
7.047581617201696,0.212509334564209,0.0805085815429688,0.052168670940398995,0.364038865819593
7.048187310720776,0.5741572837829589,0.571487585449219,1.81250802640915,0.364038865819593
7.048793004239855,0.511886775970459,0.0134480346679688,0.808994842815399,0.364038865819593
7.049398697758934,0.042462947845458995,-0.491901086425781,-1.2746721493721,0.364038865819593
7.050004391278013,-0.242544376373291,0.23618485107421902,-0.333429473590851,0.364038865819593
7.050610084797094,0.133473690032959,-0.111092980957031,1.9490241396904,0.364038865819593
7.051215778316172,-0.280864688873291,-0.0679826293945312,0.432976776409149,0.364038865819593
7.051821471835251,-0.764658634185791,-0.0727726684570312,-1.5045940243720999,0.364038865819593
7.052427165354331,-0.00304242324829099,0.0110530151367188,-0.098717559528351,0.364038865819593
7.053032858873411,0.30112505722045896,0.530772253417969,1.4412799990654,0.364038865819593
7.053638552392489,0.38974077987670896,0.300850378417969,0.8018097842216491,0.364038865819593
7.054244245911569,0.102338436126709,-0.18773360595703098,-1.1118108212471,0.364038865819593
7.054849939430648,-0.08926312637329101,-0.216473840332031,-0.680707305622101,0.364038865819593
7.0554556329497276,-0.015017520904540999,-0.0512174926757812,1.18022287015915,0.364038865819593
7.056061326468807,-0.692808048248291,0.20744461669921901,0.265325409221649,0.364038865819593
7.056667019987886,-0.505996524810791,-0.13743819580078098,-1.59320974702835,0.364038865819593
7.057272713506966,-0.27846966934204104,-0.17336348876953098,-1.0399602353096,0.364038865819593
7.057878407026045,0.47835650253295897,0.178704382324219,0.749119354534149,0.364038865819593
7.058484100545124,0.782523983001709,-0.127858117675781,0.9215607607841491,0.364038865819593
7.059089794064203,0.222089412689209,-0.0200822387695312,-0.649572051715851,0.364038865819593
7.059695487583284,-0.31918500137329103,0.27929520263671903,-0.721422637653351,0.364038865819593
7.060301181102362,-0.14434857559204098,-0.0607975708007812,0.983831268596649,0.364038865819593
7.060906874621442,-0.355110294342041,0.0469783081054688,1.0868171084404001,0.364038865819593
7.061512568140522,-0.838904239654541,-0.19731368408203098,-0.843568633747101,0.364038865819593
7.0621182616596005,-0.656882755279541,-0.405680383300781,-1.51656912202835,0.364038865819593
7.06272395517868,0.34902544784545897,0.0757185424804688,0.421001678752899,0.364038865819593
7.063329648697759,1.14417193222046,-0.0799577270507812,1.4173298037529,0.364038865819593
7.063935342216839,0.569367244720459,-0.357779992675781,-0.16338308687210099,0.364038865819593
7.064541035735918,-0.40780072402954104,-0.16857344970703098,-1.4806438290596,0.364038865819593
7.065146729254997,-0.35990033340454103,0.188284460449219,0.011453338909149,0.364038865819593
7.065752422774076,-0.311999942779541,-0.0416374145507812,1.21854318265915,0.364038865819593
7.066358116293157,-0.30960492324829103,-0.417655480957031,-0.335824493122101,0.364038865819593
7.066963809812235,-0.482046329498291,-0.23323897705078098,-1.35370779390335,0.364038865819593
7.067569503331314,-0.046152774810791004,0.23139481201171902,-0.029261993122101,0.364038865819593
7.068175196850394,0.6939082603454589,0.312825476074219,1.56342599515915,0.364038865819593
7.0687808903694735,0.475961483001709,0.200259558105469,0.076118866252899,0.364038865819593
7.069386583888552,0.123893611907959,-0.278744348144531,-1.4063982235908499,1.232405485797206
7.069992277407632,-0.012622501373291,0.126013952636719,-0.309479278278351,1.232405485797206
7.070597970926712,0.126288631439209,0.00865799560546875,1.4364899600029,1.232405485797206
7.0712036644457905,-0.12997845840454098,-0.170968469238281,0.363521210002899,1.232405485797206
7.07180935796487,-0.434145938873291,-0.00331710205078125,-1.77044119234085,1.232405485797206
7.072415051483949,-0.247334415435791,-0.0392423950195312,-0.570536407184601,1.232405485797206
7.073020745003029,0.32028521347045896,0.588252722167969,1.21854318265915,1.232405485797206
7.073626438522108,0.262804744720459,0.511612097167969,1.00778146390915,1.232405485797206
7.074232132041187,-0.050942813873291,-0.0392423950195312,-0.608856719684601,1.232405485797206
7.074837825560268,-0.14434857559204098,0.121223913574219,-0.649572051715851,1.232405485797206
7.0754435190793465,0.102338436126709,0.149964147949219,1.2400983584404,1.232405485797206
7.076049212598425,-0.314394962310791,0.0278181518554688,0.655713592815399,1.232405485797206
7.076654906117504,-1.00176556777954,-0.139833215332031,-1.37286795015335,1.232405485797206
7.077260599636585,-0.501206485748291,-0.240424035644531,-1.13336599702835,1.232405485797206
7.0778662931556635,0.45919634628295897,-0.0679826293945312,0.689243866252899,1.232405485797206
7.078471986674743,1.0819014244079599,-0.15180831298828099,1.17543283109665,1.232405485797206
7.079077680193822,0.49991167831420896,0.08529862060546879,0.191079803752899,1.232405485797206
7.079683373712902,-0.302419864654541,0.320010534667969,-0.604066680622101,1.232405485797206
7.080289067231981,-0.5227616615295411,-0.0775627075195312,0.883240448284149,1.232405485797206
7.08089476075106,-0.7838187904357911,0.0469783081054688,1.0341266787529,1.232405485797206
7.081500454270139,-0.594612247467041,-0.376940148925781,-0.996849883747101,1.232405485797206
7.0821061477892195,-0.242544376373291,-0.487111047363281,-1.2411418759346,1.232405485797206
7.082711841308298,0.669958065032959,0.17630936279296902,0.547937713909149,1.232405485797206
7.083317534827377,1.0866914634704599,-0.024872277832031203,1.2832087100029,1.232405485797206
7.083923228346458,0.325075252532959,-0.125463098144531,-0.230443633747101,1.232405485797206
7.0845289218655365,-0.443726016998291,-0.103907922363281,-1.2315617978096,1.232405485797206
7.085134615384615,-0.367085391998291,0.142779089355469,0.080908905315399,1.232405485797206
7.085740308903695,-0.137163516998291,-0.09193282470703121,1.3981696475029,1.232405485797206
7.086346002422775,-0.395825626373291,-0.5565666137695311,-0.42204519624710096,1.232405485797206
7.0869516959418535,-0.6640678138732911,-0.25000411376953097,-1.5764446103096,1.232405485797206
7.087557389460933,-0.161113712310791,0.118828894042969,-0.206493438434601,1.232405485797206
7.088163082980012,0.487936580657959,0.320010534667969,1.6041413271904,1.232405485797206
7.088768776499092,0.49033160018920896,-0.0320573364257812,0.454531952190399,1.232405485797206
7.089374470018171,0.238854549407959,-0.415260461425781,-1.19084646577835,1.232405485797206
7.08998016353725,-0.046152774810791004,0.219419714355469,-0.534611114215851,1.232405485797206
7.090585857056329,0.011327693939209,0.24097489013671902,1.17543283109665,1.232405485797206
7.0911915505754095,-0.015017520904540999,-0.09193282470703121,0.665293670940399,1.232405485797206
7.091797244094488,-0.33834515762329104,-0.103907922363281,-1.24353689546585,1.232405485797206
7.092402937613568,-0.041362735748291,-0.161388391113281,-0.465155547809601,1.232405485797206
7.093008631132648,0.34902544784545897,0.6577082885742189,1.26165353422165,1.232405485797206
7.0936143246517265,0.28914995956420897,0.473291784667969,0.866475311565399,1.232405485797206
7.094220018170806,0.16939898300170902,-0.18294356689453098,-0.771718047809601,1.232405485797206
7.094825711689885,0.00174761581420901,0.173914343261719,-0.764532989215851,1.232405485797206
7.095431405208965,0.025697811126709,0.126013952636719,0.935930877971649,1.232405485797206
7.096037098728044,-0.197039005279541,0.248159948730469,0.988621307659149,1.232405485797206
7.096642792247123,-0.7622636146545411,-0.14222823486328098,-1.19084646577835,1.232405485797206
7.097248485766203,-0.5036015052795411,-0.295509484863281,-1.2219817196846,1.232405485797206
7.0978541792852825,0.425666072845459,-0.044032434082031204,0.749119354534149,1.232405485797206
7.098459872804361,0.8543745689392089,0.0469783081054688,1.33829415922165,1.232405485797206
7.09906556632344,0.447221248626709,-0.218868859863281,-0.28073904390335097,1.232405485797206
7.099671259842521,-0.187458927154541,0.36791092529296904,-1.0088249814033499,1.232405485797206
7.1002769533615995,-0.086868106842041,0.310430456542969,0.976646210002899,1.232405485797206
7.100882646880678,-0.565872013092041,0.135594030761719,1.1059772646904,1.232405485797206
7.101488340399758,-0.810164005279541,-0.324249719238281,-1.0687004696845999,1.232405485797206
7.102094033918838,-0.36948041152954103,-0.623627160644531,-1.4854338681221,1.232405485797206
7.102699727437916,0.255619686126709,0.370305944824219,0.365916229534149,1.232405485797206
7.103305420956996,1.08429644393921,-0.022477258300781202,1.4316999209404,1.232405485797206
7.103911114476075,0.531046932220459,-0.115883020019531,-0.18493826265335098,1.232405485797206
7.104516807995155,-0.30002484512329103,-0.0751676879882812,-1.4566936337471,1.232405485797206
7.105122501514234,-0.565872013092041,0.22660477294921902,0.128809295940399,1.232405485797206
7.105728195033313,-0.39822064590454104,0.14756912841796901,1.6233014834404,1.232405485797206
7.106333888552392,-0.285654727935791,-0.355384973144531,-0.034052032184601004,1.232405485797206
7.1069395820714725,-0.41977582168579103,-0.38891524658203097,-1.3561028134346,1.232405485797206
7.107545275590551,0.104733455657959,-0.0368473754882812,-0.187333282184601,1.232405485797206
7.108150969109631,0.626847713470459,0.336775671386719,1.59216622953415,1.232405485797206
7.108756662628711,0.5358369712829589,0.195469519042969,0.516802460002899,1.232405485797206
7.109362356147789,-0.120398380279541,-0.118278039550781,-1.5956047665596,1.232405485797206
7.109968049666869,-0.132373477935791,0.164334265136719,-0.395699981403351,1.232405485797206
7.110573743185949,0.126288631439209,0.188284460449219,1.1921979678154,1.232405485797206
7.111179436705028,-0.048547794342041,-0.0775627075195312,0.923955780315399,1.232405485797206
7.111785130224107,-0.350320255279541,-0.293114465332031,-1.01361502046585,1.232405485797206
7.112390823743186,-0.053337833404541,0.0350032104492188,-0.879493926715851,1.232405485797206
7.112996517262266,0.176584041595459,0.434971472167969,1.2736286318779,1.232405485797206
7.1136022107813455,0.475961483001709,0.264925085449219,0.993411346721649,1.232405485797206
7.114207904300424,0.111918514251709,-0.0631925903320312,-0.891469024372101,1.232405485797206
7.114813597819503,-0.141953556060791,0.202654577636719,-0.793273223590851,1.232405485797206
7.115419291338584,0.21490435409545902,-0.125463098144531,1.20417306547165,1.232405485797206
7.116024984857662,-0.36948041152954103,0.11164383544921899,0.792229706096649,1.232405485797206
7.116630678376741,-0.759868595123291,0.200259558105469,-1.32017752046585,1.232405485797206
7.117236371895821,-0.35750531387329104,-0.403285363769531,-1.58841970796585,1.232405485797206
7.117842065414901,0.588527400970459,0.0757185424804688,0.603023163127899,1.232405485797206
7.118447758933979,1.1513569908142098,-0.022477258300781202,1.3837995303154,1.232405485797206
7.119053452453059,0.495121639251709,-0.0584025512695312,-0.568141387653351,1.232405485797206
7.119659145972138,-0.551501895904541,0.281690222167969,-0.879493926715851,1.232405485797206
7.120264839491218,-0.31918500137329103,0.140384069824219,0.662898651409149,1.232405485797206
7.120870533010297,-0.441330997467041,-0.13743819580078098,1.1059772646904,1.232405485797206
7.121476226529376,-0.7215482826232911,-0.412865441894531,-0.707052520465851,1.232405485797206
7.122081920048455,-0.7239433021545411,-0.587701867675781,-1.3944231259346,1.232405485797206
7.122687613567535,0.416085994720459,-0.115883020019531,0.246165252971649,1.232405485797206
7.123293307086614,1.18009722518921,-0.0416374145507812,1.25207345609665,1.232405485797206
7.123899000605693,0.341840389251709,-0.103907922363281,0.116834198284149,1.232405485797206
7.124504694124774,-0.570662052154541,-0.0703776489257812,-1.4375334774971,1.232405485797206
7.125110387643852,-0.383850528717041,0.10924881591796899,-0.065187286090851,1.232405485797206
7.125716081162932,-0.08926312637329101,0.154754187011719,1.4748102725029,1.232405485797206
7.126321774682012,-0.050942813873291,-0.463160852050781,0.147969452190399,1.232405485797206
7.126927468201091,-0.261704532623291,-0.336224816894531,-1.34412771577835,1.232405485797206
7.12753316172017,-0.151533634185791,-0.0152921997070312,-0.115482696247101,1.232405485797206
7.128138855239249,0.710673397064209,0.197864538574219,1.6568317568779,1.232405485797206
7.128744548758329,0.727438533782959,0.154754187011719,0.734749237346649,1.232405485797206
7.129350242277408,0.14544878768920902,-0.305089562988281,-1.2459319149971,1.232405485797206
7.129955935796487,-0.072497989654541,0.145174108886719,-0.7357927548408509,1.232405485797206
7.130561629315566,0.133473690032959,0.19067947998046902,1.39098458890915,1.232405485797206
7.131167322834647,-0.16829877090454098,-0.08953780517578121,0.758699432659149,1.232405485797206
7.131773016353725,-0.395825626373291,-0.240424035644531,-1.3848430478095999,1.232405485797206
7.132378709872804,0.032882869720459,-0.17336348876953098,-0.6759172665596009,1.232405485797206
7.132984403391884,0.265199764251709,0.6984236206054689,1.2448883975029,1.232405485797206
7.133590096910964,0.471171443939209,0.784644323730469,1.0245466006279,1.232405485797206
7.134195790430042,0.171794002532959,0.0805085815429688,-0.924999297809601,1.232405485797206
7.134801483949122,-0.058127872467041,-0.005712121582031249,-0.841173614215851,1.232405485797206
7.135407177468201,0.23406451034545903,-0.185338586425781,1.0101764834404001,1.232405485797206
7.1360128709872805,-0.395825626373291,0.243369909667969,0.847315155315399,1.232405485797206
7.13661856450636,-0.925124942779541,0.19067947998046902,-1.25311697359085,1.232405485797206
7.137224258025439,-0.508391544342041,-0.374545129394531,-1.5189641415596,1.232405485797206
7.137829951544519,0.428061092376709,0.00865799560546875,0.567097870159149,1.232405485797206
7.138435645063598,0.7944990806579589,-0.024872277832031203,1.3837995303154,1.232405485797206
7.139041338582677,0.363395565032959,0.15714920654296902,0.21982003812789902,1.232405485797206
7.139647032101756,-0.43893597793579103,0.545142370605469,-0.939369414997101,1.232405485797206
7.140252725620837,-0.122793399810791,0.0781135620117188,0.7610944521903991,1.232405485797206
7.140858419139915,-0.26888959121704104,0.154754187011719,1.1395075381279,1.232405485797206
7.141464112658994,-0.8412992591857911,-0.341014855957031,-0.810038360309601,1.232405485797206
7.142069806178075,-0.735918399810791,-0.546986535644531,-1.7201457821846,1.232405485797206
7.1426754996971535,0.377765682220459,0.499636999511719,-0.132247832965851,1.232405485797206
7.143281193216233,0.976520565032959,-0.0416374145507812,1.67838693265915,1.232405485797206
7.143886886735312,0.49991167831420896,-0.19252364501953098,0.018638397502899,1.232405485797206
7.144492580254392,-0.465281192779541,-0.14701827392578098,-1.5045940243720999,1.232405485797206
7.145098273773471,-0.391035587310791,-0.223658898925781,-0.232838653278351,1.232405485797206
7.14570396729255,-0.211409122467041,0.145174108886719,1.29518380765915,1.232405485797206
7.146309660811629,-0.21859418106079098,-0.297904504394531,0.133599335002899,1.232405485797206
7.14691535433071,-0.177878849029541,-0.427235559082031,-1.7297258603096,1.232405485797206
7.147521047849788,-0.103633243560791,0.0110530151367188,-0.563351348590851,1.232405485797206
7.148126741368867,0.780128963470459,0.406231237792969,1.7454474795341501,1.232405485797206
7.148732434887947,0.327470272064209,0.305640417480469,0.694033905315399,1.232405485797206
7.1493381284070265,-0.28804974746704104,-0.204498742675781,-1.47824880952835,1.232405485797206
7.149943821926105,-0.074893009185791,0.042188269042968796,-0.723817657184601,1.232405485797206
7.150549515445185,0.33944536972045897,-0.0128971801757812,1.4029596865654,1.232405485797206
7.151155208964265,-0.113213321685791,-0.0991178833007812,0.646133514690399,1.232405485797206
7.1517609024833435,-0.374270450592041,-0.005712121582031249,-1.21958670015335,1.232405485797206
7.152366596002423,0.121498592376709,-0.0128971801757812,-0.932184356403351,1.232405485797206
7.152972289521502,0.32986529159545896,0.6361531127929689,1.0724469912529,1.232405485797206
7.153577983040582,0.44003619003295896,0.612202917480469,0.962276092815399,1.232405485797206
7.154183676559661,0.023302791595458998,-0.0727726684570312,-0.936974395465851,1.232405485797206
7.15478937007874,-0.13955853652954098,0.121223913574219,-0.707052520465851,1.232405485797206
7.155395063597821,0.37058062362670896,0.0350032104492188,1.12274240140915,1.232405485797206
7.1560007571168995,-0.486836368560791,0.0948786987304688,0.974251190471649,1.232405485797206
7.156606450635978,-0.9634452552795411,0.200259558105469,-1.2842522274971,1.232405485797206
7.157212144155058,-0.709573184967041,-0.5398014770507811,-1.3082024228095999,1.232405485797206
7.157817837674138,0.540627010345459,-0.0368473754882812,0.535962616252899,1.232405485797206
7.1584235311932165,0.957360408782959,0.154754187011719,1.4173298037529,1.232405485797206
7.159029224712296,0.492726619720459,0.0589534057617188,-0.366959747028351,1.232405485797206
7.159634918231375,-0.321580020904541,0.248159948730469,-1.2555119931221,1.232405485797206
7.160240611750455,-0.26888959121704104,-0.0967228637695312,0.749119354534149,1.232405485797206
7.160846305269534,-0.21380414199829098,0.0469783081054688,1.17064279203415,1.232405485797206
7.161451998788613,-0.8436942787170411,-0.367360070800781,-0.740582793903351,1.232405485797206
7.162057692307692,-0.630537540435791,-0.424840539550781,-1.5620744931221,1.232405485797206
7.1626633858267725,0.49991167831420896,-0.0344523559570312,-0.170568145465851,1.232405485797206
7.163269079345851,1.0747163658142098,-0.221263879394531,1.21854318265915,1.232405485797206
7.16387477286493,0.423271053314209,-0.0823527465820312,0.107254120159149,1.232405485797206
7.164480466384011,-0.237754337310791,-0.0296623168945312,-1.38244802827835,1.232405485797206
7.1650861599030895,-0.371875431060791,0.296060339355469,-0.22325857515335099,1.232405485797206
7.165691853422168,0.128683650970459,-0.0368473754882812,1.5490558779716501,1.232405485797206
7.166297546941248,-0.19943402481079098,-0.5565666137695311,0.310830780315399,1.232405485797206
7.166903240460328,-0.534736759185791,-0.317064660644531,-1.6674553524970999,1.232405485797206
7.1675089339794065,-0.216199161529541,-0.0512174926757812,-0.548981231403351,1.232405485797206
7.168114627498486,0.650797908782959,0.38946610107421903,1.6137214053154,1.232405485797206
7.168720321017565,0.368185604095459,0.22660477294921902,0.6413434756278991,1.232405485797206
7.169326014536645,0.114313533782959,-0.331434777832031,-1.2363518368721,0.3228206358993359
7.169931708055724,-0.00783246231079099,0.0829036010742188,-0.560956329059601,0.3228206358993359
7.170537401574803,0.16939898300170902,0.10685379638671899,1.72149728422165,0.3228206358993359
7.171143095093882,-0.098843204498291,-0.022477258300781202,0.859290252971649,0.3228206358993359
7.1717487886129625,-0.5227616615295411,0.11164383544921899,-1.37765798921585,0.3228206358993359
7.172354482132041,0.061623104095459,-0.0128971801757812,-0.805248321247101,0.3228206358993359
7.172960175651121,0.452011287689209,0.456526647949219,0.995806366252899,0.3228206358993359
7.173565869170201,0.550207088470459,0.40862625732421903,1.1586676943779,0.3228206358993359
7.1741715626892795,0.107128475189209,-0.022477258300781202,-0.711842559528351,0.3228206358993359
7.174777256208359,0.111918514251709,0.21223465576171902,-0.862728789997101,0.3228206358993359
7.175382949727438,0.394530818939209,0.0302131713867188,0.739539276409149,0.3228206358993359
7.175988643246518,-0.29762982559204104,-0.00331710205078125,0.916770721721649,0.3228206358993359
7.176594336765597,-0.944285099029541,-0.0584025512695312,-0.984874786090851,0.3228206358993359
7.177200030284676,-0.654487735748291,-0.156598352050781,-1.5764446103096,0.3228206358993359
7.177805723803756,0.092758358001709,0.0996687377929688,0.212634979534149,0.3228206358993359
7.1784114173228355,0.940595272064209,-0.0751676879882812,1.60174630765915,0.3228206358993359
7.179017110841914,0.799289119720459,-0.216473840332031,-0.175358184528351,0.3228206358993359
7.179622804360993,-0.015017520904540999,0.276900183105469,-1.22437673921585,0.3228206358993359
7.180228497880074,-0.010227481842041,0.15714920654296902,0.636553436565399,0.3228206358993359
7.1808341913991525,-0.22817425918579098,0.250554968261719,1.32392404203415,0.3228206358993359
7.181439884918231,-0.8436942787170411,-0.14222823486328098,-0.551376250934601,0.3228206358993359
7.182045578437311,-0.6425126380920411,-0.633207238769531,-1.4662737118720999,0.3228206358993359
7.182651271956391,0.452011287689209,0.0948786987304688,-0.314269317340851,0.3228206358993359
7.183256965475469,0.8926948814392089,-0.0152921997070312,1.3837995303154,0.3228206358993359
7.183862658994549,0.787314022064209,-0.14222823486328098,0.46650704984664904,0.3228206358993359
7.184468352513628,-0.16829877090454098,-0.317064660644531,-1.4135832821846,0.3228206358993359
7.185074046032708,-0.49881146621704103,-0.118278039550781,-0.587301543903351,0.3228206358993359
7.185679739551787,-0.352715274810791,0.0637434448242188,1.1299274600029001,0.3228206358993359
7.186285433070866,-0.156323673248291,-0.391310266113281,0.35633615140914904,0.3228206358993359
7.186891126589945,-0.608982364654541,-0.25000411376953097,-1.61236990327835,0.3228206358993359
7.1874968201090255,-0.062917911529541,-0.027267297363281203,-0.781298125934601,0.3228206358993359
7.188102513628104,0.784919002532959,0.250554968261719,1.3167389834404,0.3228206358993359
7.188708207147184,0.17418902206420903,0.22181473388671902,0.715589081096649,0.3228206358993359
7.189313900666264,0.14544878768920902,-0.245214074707031,-1.04235525484085,0.3228206358993359
7.189919594185342,-0.23296429824829099,0.149964147949219,-0.704657500934601,0.3228206358993359
7.190525287704422,-0.019807559967041,0.36791092529296904,1.2448883975029,0.3228206358993359
7.191130981223502,0.049648006439209,-0.108697961425781,0.914375702190399,0.3228206358993359
7.191736674742581,-0.47725629043579104,-0.0679826293945312,-1.3225725399971,0.3228206358993359
7.19234236826166,-0.254519474029541,0.0637434448242188,-0.886678985309601,0.3228206358993359
7.192948061780739,0.322680233001709,0.528377233886719,0.904795624065399,0.3228206358993359
7.193553755299819,0.396925838470459,0.583462683105469,1.1442975771904,0.3228206358993359
7.1941594488188985,0.27956988143920897,0.00386795654296875,-0.678312286090851,0.3228206358993359
7.194765142337977,0.109523494720459,0.228999792480469,-0.8148283993721009,0.3228206358993359
7.195370835857056,0.178979061126709,-0.005712121582031249,0.959881073284149,0.3228206358993359
7.195976529376137,-0.12997845840454098,0.018238073730468797,1.0149665225029,0.3228206358993359
7.196582222895215,-0.934705020904541,-0.008107141113281249,-0.905839141559601,0.3228206358993359
7.197187916414294,-0.549106876373291,-0.475135949707031,-1.6195549618721,0.3228206358993359
7.197793609933374,0.5334419517517089,0.102063757324219,0.22940011625289902,0.3228206358993359
7.198399303452454,0.9741255455017089,0.219419714355469,1.35266427640915,0.3228206358993359
7.199004996971532,0.629242733001709,-0.0871427856445312,0.500037323284149,0.3228206358993359
7.199610690490612,-0.424565860748291,0.44934158935546903,-0.960924590778351,0.3228206358993359
7.200216384009691,-0.381455509185791,0.13080399169921902,0.10006906156539899,0.3228206358993359
7.200822077528771,-0.285654727935791,0.0972737182617188,1.4652301943779,0.3228206358993359
7.20142777104785,-0.644907657623291,-0.130253137207031,-0.659152129840851,0.3228206358993359
7.202033464566929,-0.618562442779541,-0.587701867675781,-1.8446867978096,0.3228206358993359
7.202639158086008,0.284359920501709,0.0517683471679688,-0.24960378999710098,0.3228206358993359
7.203244851605088,1.1417769126892099,0.0373982299804688,1.6688068545341501,0.3228206358993359
7.203850545124167,0.902274959564209,-0.008107141113281249,0.545542694377899,0.3228206358993359
7.204456238643246,-0.256914493560791,-0.204498742675781,-1.2866472470283499,0.3228206358993359
7.205061932162327,-0.266494571685791,0.018238073730468797,-0.211283477497101,0.3228206358993359
7.205667625681405,-0.077288028717041,0.195469519042969,1.1682477725029001,0.3228206358993359
7.206273319200485,-0.19464398574829098,-0.446395715332031,0.468902069377899,0.3228206358993359
7.206879012719565,-0.343135196685791,-0.302694543457031,-1.5716545712471,0.3228206358993359
7.207484706238644,-0.323975040435791,0.020633093261718798,-0.996849883747101,0.3228206358993359
7.208090399757723,0.346630428314209,0.310430456542969,1.3885895693779,0.3228206358993359
7.208696093276802,0.679538143157959,0.178704382324219,0.998201385784149,0.3228206358993359
7.209301786795882,0.281964900970459,-0.47992598876953096,-0.9154192196846009,0.3228206358993359
7.209907480314961,-0.201829044342041,0.0134480346679688,-0.936974395465851,0.3228206358993359
7.21051317383404,-0.180273868560791,0.188284460449219,1.0532868350029,0.3228206358993359
7.211118867353119,-0.079683048248291,-0.0320573364257812,0.806599823284149,0.3228206358993359
7.2117245608722,-0.295234806060791,-0.30029952392578096,-1.0591203915596,0.3228206358993359
7.212330254391278,-0.13955853652954098,-0.355384973144531,-0.996849883747101,0.3228206358993359
7.212935947910357,0.437641170501709,0.482871862792969,0.698823944377899,0.3228206358993359
7.213541641429437,0.353815486907959,0.5810676635742189,0.955091034221649,0.3228206358993359
7.214147334948517,0.15981890487670902,-0.027267297363281203,-0.606461700153351,0.3228206358993359
7.214753028467595,-0.403010684967041,0.126013952636719,-0.786088164997101,0.3228206358993359
7.215358721986675,-0.019807559967041,0.202654577636719,0.634158417034149,0.3228206358993359
7.215964415505754,-0.108423282623291,0.0924836791992188,1.0916071475029,0.3228206358993359
7.2165701090248335,-0.779028751373291,0.0326081909179688,-0.992059844684601,0.3228206358993359
7.217175802543913,-0.6640678138732911,-0.312274621582031,-1.5381242978096,0.3228206358993359
7.217781496062992,0.353815486907959,-0.123068078613281,0.028218475627899,0.3228206358993359
7.218387189582072,0.856769588470459,-0.022477258300781202,1.25207345609665,0.3228206358993359
7.218992883101151,0.38974077987670896,-0.125463098144531,0.083303924846649,0.3228206358993359
7.21959857662023,-0.443726016998291,0.202654577636719,-1.5141741024971,0.3228206358993359
7.220204270139311,-0.44851605606079104,0.149964147949219,0.41621163969039904,0.3228206358993359
7.22080996365839,-0.137163516998291,0.22181473388671902,1.52031564359665,0.3228206358993359
7.221415657177468,-0.520366641998291,-0.190128625488281,-0.6950774228096009,0.3228206358993359
7.222021350696547,-0.659277774810791,-0.5230363403320311,-1.87582205171585,0.3228206358993359
7.222627044215628,0.21011431503295902,-0.0368473754882812,-0.192123321247101,0.3228206358993359
7.2232327377347065,0.988495662689209,-0.106302941894531,1.59695626859665,0.3228206358993359
7.223838431253786,0.6531929283142089,-0.216473840332031,0.368311249065399,0.3228206358993359
7.224444124772865,-0.350320255279541,-0.245214074707031,-1.4040032040596,0.3228206358993359
7.225049818291945,-0.49881146621704103,-0.044032434082031204,-0.5154509579658509,0.3228206358993359
7.225655511811024,-0.113213321685791,-0.0105021606445312,1.52031564359665,0.3228206358993359
7.226261205330103,-0.216199161529541,-0.25958419189453097,0.409026581096649,0.3228206358993359
7.226866898849182,-0.534736759185791,-0.14701827392578098,-1.71296072359085,0.3228206358993359
7.227472592368263,-0.41977582168579103,0.10445877685546899,-0.9154192196846009,0.3228206358993359
7.228078285887341,0.7346235923767089,0.365515905761719,1.31913400297165,0.3228206358993359
7.22868397940642,0.540627010345459,0.118828894042969,1.09879220609665,0.3228206358993359
7.2292896729255,0.284359920501709,-0.0751676879882812,-0.781298125934601,0.3228206358993359
7.2298953664445795,-0.235359317779541,0.293665319824219,-0.137037872028351,0.3228206358993359
7.230501059963658,-0.077288028717041,0.0541633666992188,1.95141915922165,0.3228206358993359
7.231106753482738,-0.036572696685791,-0.223658898925781,0.780254608440399,0.3228206358993359
7.231712447001818,-0.587427188873291,-0.149413293457031,-1.7536760556221,0.3228206358993359
7.2323181405208965,-0.16829877090454098,-0.345804895019531,-1.21479666109085,0.3228206358993359
7.232923834039976,0.423271053314209,0.446946569824219,0.890425506877899,0.3228206358993359
7.233529527559055,0.5358369712829589,0.731953894042969,1.4221198428154,0.3228206358993359
7.234135221078135,0.334655330657959,-0.199708703613281,-0.529821075153351,0.3228206358993359
7.234740914597214,0.31070513534545896,-0.0416374145507812,-1.10941580171585,0.3228206358993359
7.235346608116293,-0.038967716217041,-0.000922082519531245,0.806599823284149,0.3228206358993359
7.235952301635374,-0.314394962310791,0.264925085449219,1.1730378115654,0.3228206358993359
7.2365579951544525,-1.00416058731079,-0.0847477661132812,-0.970504668903351,0.3228206358993359
7.237163688673531,-0.752683536529541,-0.37933516845703097,-1.4758537899971,0.3228206358993359
7.237769382192611,0.5933174400329589,0.0469783081054688,0.37789132719039903,0.3228206358993359
7.238375075711691,1.1034566001892099,-0.0823527465820312,1.31913400297165,0.3228206358993359
7.2389807692307695,0.619662654876709,0.00626297607421875,-0.120272735309601,0.3228206358993359
7.239586462749849,-0.668857852935791,0.260135046386719,-1.0926506649971,0.3228206358993359
7.240192156268928,-0.443726016998291,0.10924881591796899,0.15515451078414902,0.3228206358993359
7.240797849788008,-0.44851605606079104,-0.09193282470703121,1.48199533109665,0.3228206358993359
7.241403543307087,-0.649697696685791,-0.25000411376953097,-0.266368926715851,0.3228206358993359
7.242009236826166,-0.558686954498291,-0.6403922973632811,-1.9548576962471,0.3228206358993359
7.242614930345245,0.15502886581420902,-0.180548547363281,-0.333429473590851,0.3228206358993359
7.2432206238643255,0.990890682220459,-0.0392423950195312,1.6568317568779,0.3228206358993359
7.243826317383404,0.571762264251709,-0.307484582519531,0.586258026409149,0.3228206358993359
7.244432010902483,0.047252986907958996,-0.158993371582031,-1.67464041109085,0.3228206358993359
7.245037704421564,-0.529946720123291,0.0805085815429688,-0.376539825153351,0.3228206358993359
7.2456433979406425,-0.364690372467041,0.0972737182617188,1.73107736234665,0.3228206358993359
7.246249091459721,0.00174761581420901,-0.501481164550781,0.243770233440399,0.3228206358993359
7.246854784978801,-0.41738080215454104,-0.5805168090820311,-1.4423235165596,0.3228206358993359
7.247460478497881,-0.156323673248291,0.0829036010742188,-0.826803497028351,0.3228206358993359
7.2480661720169595,0.792104061126709,0.320010534667969,1.3167389834404,0.3228206358993359
7.248671865536039,0.602897518157959,0.420601354980469,1.1442975771904,0.3228206358993359
7.249277559055118,0.126288631439209,-0.324249719238281,-1.14294607515335,0.3228206358993359
