Time (s),Accel X (m/s^2),Accel Y (m/s^2),Accel Z (m/s^2),CI Value
0.589375,-0.075526847,-0.054961862,0.160859803,0.9883676683015455
0.589980694,-0.104267082,-0.184292917,0.139304627,0.9883676683015455
0.590586387,-0.142587394,-0.186687937,0.098589295,0.9883676683015455
0.591192081,0.053804207,0.107899466,-0.179232971,0.9883676683015455
0.591797774,0.046619149,-0.01424653,-0.069062072,0.9883676683015455
0.592403468,-0.16414257,-0.021431589,-0.1337276,0.9883676683015455
0.593009161,-0.044391593,0.119874563,-0.090617248,0.9883676683015455
0.593614855,0.065779305,-0.033406687,0.002788514,0.9883676683015455
0.594220548,-0.065946769,-0.110047312,0.0746391,0.9883676683015455
0.594826242,-0.044391593,0.057604056,0.163254822,0.9883676683015455
0.595431935,-0.070736808,0.067184134,0.112959412,0.9883676683015455
0.596037629,0.221455575,-0.064541941,0.033923768,0.9883676683015455
0.596643322,0.226245614,0.172564993,0.168044861,0.9883676683015455
0.597249016,-0.039601554,0.000123587,-0.013976623,0.9883676683015455
0.5978547089999999,0.075359383,-0.088492136,-0.037926818,0.9883676683015455
0.598460403,0.087334481,-0.050171823,-0.054691955,0.9883676683015455
0.5990660959999999,-0.101872062,-0.028616648,-0.212763244,0.9883676683015455
0.5996717899999999,-0.085106925,0.1366397,-0.138517639,0.9883676683015455
0.600277483,0.063384285,0.03365386,-0.243898498,0.9883676683015455
0.6008831769999999,-0.085106925,0.048023977,-0.330119201,0.9883676683015455
0.60148887,0.082544442,-0.052566843,-0.047506896,0.9883676683015455
0.6020945639999999,0.015483895,-0.11962739,0.132119568,0.9883676683015455
0.602700257,-0.018046379,-0.11962739,-0.07864215,0.9883676683015455
0.603305951,-0.041996574,-0.107652292,-0.037926818,0.9883676683015455
0.603911644,-0.01325634,-0.093282175,0.12493451,0.9883676683015455
0.604517338,-0.020441398,0.100714407,0.1728349,0.9883676683015455
0.605123031,-0.097082023,-0.009456491,0.005183533,0.9883676683015455
0.605728725,0.034644051,0.031258841,0.050688904,0.9883676683015455
0.606334419,0.013088875,0.028863821,0.144094666,0.9883676683015455
0.606940112,0.120864754,0.028863821,0.215945252,0.9883676683015455
0.607545806,0.013088875,0.08634429,0.134514588,0.9883676683015455
0.608151499,0.175950203,0.059999075,0.314141053,0.9883676683015455
0.608757193,-0.070736808,-0.004666452,0.089009217,0.9883676683015455
0.609362886,-0.233598136,-0.131602487,-0.107382385,0.9883676683015455
0.60996858,-0.065946769,-0.009456491,0.014763611,0.9883676683015455
0.610574273,0.082544442,-0.093282175,0.079429139,0.9883676683015455
0.611179967,0.027458992,-0.011851511,0.261450623,0.9883676683015455
0.61178566,-0.073131828,0.194120169,0.093799256,0.9883676683015455
0.612391354,-0.109057121,-0.004666452,0.151279725,0.9883676683015455
0.612997047,-0.015651359,0.095924368,-0.025951721,0.9883676683015455
0.613602741,0.013088875,0.052814016,0.139304627,0.9883676683015455
0.614208434,-0.027626457,0.059999075,0.254265565,0.9883676683015455
0.614814128,-0.01086132,-0.01424653,0.17522992,0.9883676683015455
0.615419821,0.056199227,-0.045381784,0.194390076,0.9883676683015455
0.616025515,0.147209969,0.110294485,-0.066667053,0.9883676683015455
0.6166312079999999,-0.097082023,-0.107652292,-0.035531799,0.9883676683015455
0.617236902,0.001113778,0.040838919,0.249475525,0.9883676683015455
0.6178425949999999,-0.133007316,-0.026221628,0.033923768,0.9883676683015455
0.6184482889999999,-0.123427238,0.079159231,-0.033136779,0.9883676683015455
0.619053982,0.029854012,-0.047776804,0.168044861,0.9883676683015455
0.6196596759999999,-0.109057121,-0.133997507,-0.172047912,0.9883676683015455
0.620265369,0.14241993,0.03604888,-0.109777404,0.9883676683015455
0.620871063,-0.118637199,0.170169973,-0.016371642,0.9883676683015455
0.6214767569999999,-0.21443798,0.03604888,-0.023556701,0.9883676683015455
0.62208245,-0.11384716,-0.088492136,0.014763611,0.9883676683015455
0.6226881439999999,-0.135402336,0.074369192,0.100984315,0.9883676683015455
0.623293837,0.015483895,-0.035801706,0.223130311,0.9883676683015455
0.623899531,-0.006071281,-0.086097116,0.050688904,0.9883676683015455
0.624505224,0.0897295,-0.095677194,0.043503846,0.9883676683015455
0.625110918,0.025063973,-0.076517038,0.060268983,0.9883676683015455
0.625716611,-0.11384716,0.000123587,0.105774354,0.9883676683015455
0.626322305,0.116074715,0.093529348,-0.004396545,0.9883676683015455
0.626927998,-0.293473625,0.074369192,0.139304627,0.9883676683015455
0.627533692,-0.176117668,0.076764212,0.141699647,0.9883676683015455
0.628139385,0.111284676,0.18933013,0.002788514,0.9883676683015455
0.628745079,-0.015651359,-0.021431589,0.141699647,0.9883676683015455
0.629350772,0.09212452,0.007308645,0.02434369,0.9883676683015455
0.629956466,0.032249032,0.112689505,-0.267848693,0.9883676683015455
0.630562159,-0.006071281,0.019283743,0.505742615,0.9883676683015455
0.631167853,-0.140192375,-0.021431589,0.702134217,0.9883676683015455
0.631773546,0.065779305,0.040838919,0.153674744,0.9883676683015455
0.63237924,-0.085106925,0.012098684,0.27821576,0.9883676683015455
0.632984933,0.015483895,-0.059751902,0.000393494,0.9883676683015455
0.633590627,0.037039071,-0.205848093,0.335696229,0.9883676683015455
0.63419632,-0.056366691,-0.01424653,-0.049901916,0.9883676683015455
0.634802014,0.178345223,0.081554251,-0.114567443,0.9883676683015455
0.6354077069999999,-0.039601554,0.081554251,-0.013976623,0.9883676683015455
0.636013401,0.03943409,-0.040591745,-0.004396545,0.9883676683015455
0.6366190939999999,0.077754403,-0.023826609,0.271030701,0.9883676683015455
0.6372247879999999,-0.039601554,0.371351614,0.017158631,0.9883676683015455
0.637830482,-0.003676261,0.03365386,0.043503846,0.9883676683015455
0.6384361749999999,0.04182911,0.014493704,-0.009186584,0.9883676683015455
0.6390418689999999,0.087334481,-0.028616648,-0.03074176,0.9883676683015455
0.639647562,0.204690438,-0.06693696,0.007578553,0.9883676683015455
0.6402532559999999,0.034644051,0.162984915,0.263845643,0.9883676683015455
0.640858949,0.137629891,-0.038196726,0.146489686,0.9883676683015455
0.641464643,0.101704598,-0.138787546,0.067454041,0.9883676683015455
0.642070336,-0.147377433,-0.196268015,0.055478943,0.9883676683015455
0.64267603,-0.180907707,-0.136392527,-0.095407287,0.9883676683015455
0.643281723,-0.156957511,-0.086097116,-0.229528381,0.9883676683015455
0.643887417,-0.152167472,-0.074122019,-0.102592346,0.9883676683015455
0.64449311,-0.144982414,0.009703665,0.036318787,0.9883676683015455
0.645098804,0.080149422,0.019283743,0.053083924,0.9883676683015455
0.645704497,-0.152167472,0.206095266,0.187205018,0.9883676683015455
0.646310191,-0.041996574,0.03365386,0.199180115,0.9883676683015455
0.646915884,0.04182911,-0.052566843,0.055478943,0.9883676683015455
0.647521578,0.178345223,0.208490286,0.029133729,0.9883676683015455
0.648127271,0.075359383,0.110294485,0.091404236,0.9883676683015455
0.648732965,-0.001281242,-0.038196726,0.239895447,0.9883676683015455
0.649338658,0.197505379,0.074369192,0.230315369,0.9883676683015455
0.649944352,-0.188092765,0.079159231,0.112959412,0.9883676683015455
0.650550045,-0.039601554,0.028863821,0.045898865,0.9883676683015455
0.651155739,-0.027626457,0.028863821,-0.167257873,0.9883676683015455
0.651761432,-0.01325634,0.064789114,0.203970154,0.9883676683015455
0.652367126,0.137629891,-0.162737741,0.266240662,0.9883676683015455
0.65297282,-0.156957511,-0.155552683,-0.08103717,0.9883676683015455
0.653578513,-0.037206535,-0.172317819,-0.025951721,0.9883676683015455
0.654184207,0.223850594,-0.160342722,0.060268983,0.9883676683015455
0.6547898999999999,0.080149422,0.103109427,0.182414979,0.9883676683015455
0.655395594,-0.075526847,-0.088492136,0.146489686,0.9883676683015455
0.656001287,0.214270516,-0.071726999,0.215945252,0.9883676683015455
0.6566069809999999,0.14241993,0.019283743,0.055478943,0.9883676683015455
0.6572126739999999,-0.06115673,-0.042986765,0.086614197,0.9883676683015455
0.657818368,0.226245614,-0.033406687,0.007578553,0.9883676683015455
0.658424061,0.04182911,0.059999075,0.048293885,0.9883676683015455
0.6590297549999999,-0.003676261,-0.107652292,-0.114567443,0.9883676683015455
0.659635448,-0.006071281,-0.083702097,0.448262147,0.9883676683015455
0.660241142,-0.106662101,0.151009817,0.359646424,0.9883676683015455
0.660846835,-0.06115673,0.093529348,0.419521912,0.9883676683015455
0.661452529,-0.183302726,-0.071726999,0.220735291,0.9883676683015455
0.662058222,0.013088875,0.143824759,-0.265453674,0.9883676683015455
0.662663916,-0.051576652,0.076764212,0.199180115,0.9883676683015455
0.663269609,0.084939461,0.122269583,0.065059022,0.9883676683015455
0.663875303,-0.168932609,0.045628958,0.338091248,0.9883676683015455
0.664480996,0.060989266,-0.038196726,0.062664002,0.9883676683015455
0.66508669,0.120864754,0.143824759,0.033923768,0.9883676683015455
0.665692383,-0.180907707,0.201305227,0.089009217,0.9883676683015455
0.666298077,-0.032416496,0.002518606,-0.040321838,0.9883676683015455
0.66690377,0.025063973,-0.042986765,0.036318787,0.9883676683015455
0.667509464,0.077754403,0.067184134,-0.037926818,0.9883676683015455
0.668115157,0.020273934,-0.031011667,-0.033136779,0.9883676683015455
0.668720851,0.037039071,0.091134329,0.12253949,0.9883676683015455
0.669326545,-0.271918449,0.019283743,0.129724549,0.9883676683015455
0.669932238,-0.097082023,0.012098684,-0.011581603,0.9883676683015455
0.670537932,0.068174325,-0.095677194,0.096194275,0.9883676683015455
0.671143625,-0.192882804,-0.045381784,0.112959412,0.9883676683015455
0.671749319,-0.027626457,0.000123587,-0.18162799,0.9883676683015455
0.672355012,-0.049181633,-0.019036569,0.12253949,0.9883676683015455
0.672960706,-0.180907707,-0.01664155,0.17522992,0.9883676683015455
0.673566399,-0.044391593,-0.007061472,0.081824158,0.9883676683015455
0.674172093,-0.058761711,0.064789114,0.359646424,0.9883676683015455
0.6747777859999999,-0.003676261,0.127059622,0.182414979,0.9883676683015455
0.67538348,0.087334481,0.016888723,0.043503846,0.9883676683015455
0.6759891729999999,0.013088875,-0.042986765,0.285400818,0.9883676683015455
0.6765948669999999,0.096914559,0.021678763,-0.004396545,0.9883676683015455
0.67720056,0.24540577,-0.148367624,-0.054691955,0.9883676683015455
0.6778062539999999,-0.188092765,-0.078912058,-0.200788146,0.9883676683015455
0.678411947,-0.099477043,-0.054961862,-0.08103717,0.9883676683015455
0.679017641,0.080149422,-0.150762644,0.235105408,0.9883676683015455
0.679623334,-0.087501945,-0.042986765,0.146489686,0.9883676683015455
0.680229028,-0.085106925,-0.150762644,-0.109777404,0.9883676683015455
0.680834721,-0.051576652,-0.143577585,-0.162467834,0.9883676683015455
0.681440415,0.312466317,0.000123587,0.108169373,0.9883676683015455
0.682046108,0.166370125,0.002518606,0.160859803,0.9883676683015455
0.682651802,-0.065946769,-0.009456491,0.045898865,0.9883676683015455
0.683257495,-0.099477043,-0.136392527,0.067454041,0.9883676683015455
0.683863189,-0.224018058,-0.074122019,-0.059481994,0.9883676683015455
0.684468882,-0.243178215,0.052814016,-0.119357482,0.9883676683015455
0.685074576,-0.049181633,-0.054961862,0.203970154,0.9883676683015455
0.68568027,-0.022836418,-0.093282175,-0.073852111,0.9883676683015455
0.686285963,-0.109057121,0.009703665,-0.1337276,0.9883676683015455
0.686891657,-0.070736808,0.028863821,0.089009217,0.9883676683015455
0.68749735,0.03943409,0.040838919,0.050688904,0.9883676683015455
0.688103044,0.053804207,0.043233938,-0.002001525,0.9883676683015455
0.688708737,-0.137797355,0.016888723,-0.07864215,0.9883676683015455
0.689314431,-0.075526847,0.103109427,0.299770936,0.9883676683015455
0.689920124,-0.058761711,0.069579153,-0.002001525,0.9883676683015455
0.690525818,0.180740242,-0.009456491,0.180019959,0.9883676683015455
0.691131511,0.017878914,0.079159231,0.134514588,0.9883676683015455
0.691737205,-0.178512687,0.019283743,-0.160072814,0.9883676683015455
0.6923428979999999,0.056199227,-0.088492136,0.153674744,0.9883676683015455
0.692948592,-0.01325634,-0.165132761,-0.083432189,0.9883676683015455
0.6935542849999999,-0.135402336,0.079159231,-0.138517639,0.9883676683015455
0.6941599789999999,-0.16414257,0.050418997,0.103379334,0.9883676683015455
0.694765672,0.149604989,-0.110047312,0.302165955,0.9883676683015455
0.6953713659999999,0.082544442,0.091134329,0.189600037,0.9883676683015455
0.695977059,-0.020441398,0.112689505,0.196785096,0.9883676683015455
0.6965827529999999,0.096914559,0.074369192,0.045898865,0.9883676683015455
0.697188446,0.029854012,0.009703665,0.079429139,0.9883676683015455
0.69779414,0.199900399,-0.105257273,0.112959412,0.9883676683015455
0.698399833,-0.075526847,-0.186687937,0.206365174,0.9883676683015455
0.699005527,0.077754403,-0.086097116,-0.037926818,0.9883676683015455
0.69961122,-0.039601554,-0.11962739,0.057873963,0.9883676683015455
0.700216914,-0.049181633,0.095924368,0.148884705,0.9883676683015455
0.700822608,0.149604989,-0.107652292,0.065059022,0.9883676683015455
0.701428301,0.116074715,-0.059751902,0.180019959,0.9883676683015455
0.702033995,-0.041996574,0.213280325,0.249475525,0.9883676683015455
0.702639688,-0.195277824,-0.22261323,0.247080506,0.9883676683015455
0.703245382,-0.01325634,0.028863821,0.02194867,0.9883676683015455
0.703851075,-0.01086132,0.074369192,0.220735291,0.9883676683015455
0.704456769,0.0897295,-0.126812448,-0.104987365,0.9883676683015455
0.705062462,-0.01325634,-0.057356882,-0.143307678,0.9883676683015455
0.705668156,-0.271918449,0.055209036,0.244685486,0.9883676683015455
0.706273849,-0.142587394,0.103109427,-0.085827209,0.9883676683015455
0.706879543,-0.025231437,0.000123587,-0.121752502,0.9883676683015455
0.707485236,0.010693856,0.105504446,0.239895447,0.9883676683015455
0.70809093,0.168765145,0.000123587,0.07224408,0.9883676683015455
0.708696623,-0.089896965,-0.064541941,0.242290467,0.9883676683015455
0.709302317,-0.006071281,0.105504446,0.395571717,0.9883676683015455
0.7099080099999999,0.063384285,-0.1699228,0.02194867,0.9883676683015455
0.710513704,0.130444832,-0.004666452,-0.104987365,0.9883676683015455
0.711119397,0.120864754,0.155799856,-0.076247131,0.9883676683015455
0.7117250909999999,0.231035653,-0.112442331,0.026738709,0.9883676683015455
0.7123307839999999,-0.006071281,0.069579153,0.22792035,0.9883676683015455
0.712936478,0.051409188,-0.124417429,-0.07864215,0.9883676683015455
0.713542171,0.025063973,0.031258841,-0.186418029,0.9883676683015455
0.7141478649999999,0.032249032,-0.004666452,0.055478943,0.9883676683015455
0.714753558,0.027458992,0.08634429,0.048293885,0.9883676683015455
0.715359252,-0.130612297,0.227650442,0.055478943,0.9883676683015455
0.715964945,-0.147377433,-0.01424653,-0.095407287,0.9883676683015455
0.716570639,-0.250363273,-0.064541941,0.120144471,0.9883676683015455
0.7171763329999999,0.149604989,0.012098684,0.17522992,0.9883676683015455
0.717782026,-0.053971672,0.050418997,0.057873963,0.9883676683015455
0.71838772,0.027458992,0.024073782,0.026738709,0.9883676683015455
0.718993413,-0.027626457,-0.093282175,-0.076247131,0.9883676683015455
0.719599107,-0.252758293,-0.035801706,0.084219178,0.9883676683015455
0.7202048,0.106494637,0.129454641,0.144094666,0.9883676683015455
0.720810494,0.135234871,-0.107652292,0.249475525,0.9883676683015455
0.721416187,0.149604989,-0.059751902,0.153674744,0.9883676683015455
0.722021881,0.14002491,0.124664602,0.084219178,0.9883676683015455
0.722627574,-0.171327629,0.18933013,0.110564393,0.9883676683015455
0.723233268,-0.142587394,0.031258841,0.194390076,0.9883676683015455
0.723838961,0.020273934,-0.256143503,0.112959412,0.9883676683015455
0.724444655,0.09212452,-0.004666452,-0.203183166,0.9883676683015455
0.725050348,-0.037206535,0.155799856,0.012368592,0.9883676683015455
0.725656042,0.096914559,0.103109427,0.170439881,0.9883676683015455
0.726261735,-0.051576652,-0.078912058,0.132119568,0.9883676683015455
0.726867429,-0.099477043,-0.215428171,0.304560975,0.9883676683015455
0.7274731219999999,0.094519539,0.115084524,-0.049901916,0.9883676683015455
0.728078816,-0.082711906,0.081554251,-0.011581603,0.9883676683015455
0.728684509,-0.123427238,-0.098072214,-0.037926818,0.9883676683015455
0.7292902029999999,0.063384285,-0.16752778,-0.042716857,0.9883676683015455
0.7298958959999999,0.14241993,0.08394927,0.084219178,0.9883676683015455
0.73050159,-0.049181633,0.117479544,0.089009217,0.9883676683015455
0.7311072829999999,0.128049813,0.081554251,0.141699647,0.9883676683015455
0.7317129769999999,-0.01325634,0.196515188,0.014763611,0.9883676683015455
0.732318671,0.001113778,-0.086097116,0.045898865,0.9883676683015455
0.732924364,0.082544442,-0.052566843,0.251870545,0.9883676683015455
0.7335300579999999,0.027458992,-0.095677194,0.031528748,0.9883676683015455
0.734135751,0.075359383,-0.16752778,0.055478943,0.9883676683015455
0.734741445,0.123259774,0.117479544,-0.073852111,0.9883676683015455
0.735347138,0.168765145,0.115084524,-0.155282775,0.9883676683015455
0.735952832,-0.101872062,0.071974173,0.160859803,0.9883676683015455
0.736558525,-0.293473625,-0.023826609,0.002788514,0.9883676683015455
0.737164219,-0.26473339,0.031258841,0.009973572,0.9883676683015455
0.737769912,-0.044391593,-0.107652292,-0.085827209,0.9883676683015455
0.738375606,0.065779305,-0.047776804,0.02194867,0.9883676683015455
0.738981299,0.015483895,-0.076517038,0.026738709,0.9883676683015455
0.739586993,-0.087501945,-0.011851511,0.069849061,0.9883676683015455
0.740192686,-0.051576652,0.012098684,0.132119568,0.9883676683015455
0.74079838,0.017878914,-0.01424653,-0.011581603,0.9883676683015455
0.741404073,-0.0084663,0.23962554,-0.049901916,0.9883676683015455
0.742009767,0.087334481,0.055209036,-0.160072814,0.9883676683015455
0.74261546,0.09212452,-0.021431589,-0.049901916,0.9883676683015455
0.743221154,-0.082711906,0.107899466,0.033923768,0.9883676683015455
0.743826847,-0.156957511,0.088739309,0.065059022,0.9883676683015455
0.744432541,-0.176117668,-0.021431589,0.223130311,0.9883676683015455
0.745038234,0.14481495,0.074369192,0.206365174,0.9883676683015455
0.745643928,-0.015651359,-0.196268015,0.005183533,0.9883676683015455
0.746249621,-0.144982414,-0.045381784,-0.126542541,0.9883676683015455
0.746855315,0.022668953,0.179750052,-0.02834674,0.9883676683015455
0.7474610079999999,-0.183302726,-0.143577585,0.151279725,0.9883676683015455
0.748066702,-0.01086132,0.055209036,0.077034119,0.9883676683015455
0.748672396,-0.082711906,0.091134329,0.1728349,0.9883676683015455
0.7492780889999999,0.094519539,-0.059751902,0.117749451,0.9883676683015455
0.749883783,0.111284676,-0.035801706,-0.114567443,0.9883676683015455
0.750489476,-0.209647941,-0.01664155,0.371621522,0.9883676683015455
0.7510951699999999,-0.094687004,-0.031011667,0.874575623,0.9883676683015455
0.7517008629999999,-0.001281242,-0.042986765,0.148884705,0.9883676683015455
0.752306557,-0.06355175,-0.045381784,-0.045111877,0.9883676683015455
0.75291225,-0.101872062,-0.112442331,0.108169373,0.9883676683015455
0.7535179439999999,-0.041996574,-0.033406687,0.139304627,0.9883676683015455
0.754123637,0.202295418,0.127059622,0.07224408,0.9883676683015455
0.754729331,0.185530282,0.095924368,-0.176837951,0.9883676683015455
0.755335024,-0.212042961,-0.007061472,0.163254822,0.9883676683015455
0.755940718,-0.092291984,0.052814016,-0.011581603,0.9883676683015455
0.756546411,0.14481495,-0.042986765,-0.195998107,0.9883676683015455
0.757152105,-0.118637199,-0.193872995,-0.059481994,0.9883676683015455
0.757757798,0.173555184,-0.057356882,-0.073852111,0.9883676683015455
0.758363492,0.099309578,-0.114837351,-0.107382385,0.9883676683015455
0.758969185,-0.053971672,0.03604888,-0.016371642,0.9883676683015455
0.759574879,0.063384285,0.170169973,0.009973572,0.9883676683015455
0.760180572,-0.006071281,-0.06693696,0.115354432,0.9883676683015455
0.760786266,0.14481495,-0.052566843,0.146489686,0.9883676683015455
0.761391959,-0.118637199,-0.01664155,0.091404236,0.9883676683015455
0.761997653,-0.077921867,0.127059622,0.206365174,0.9883676683015455
0.762603346,0.180740242,0.198910208,-0.052296935,0.9883676683015455
0.76320904,0.005903817,-0.007061472,-0.045111877,0.9883676683015455
0.763814733,0.0897295,-0.093282175,0.062664002,0.9883676683015455
0.764420427,0.010693856,-0.057356882,0.002788514,0.9883676683015455
0.765026121,-0.037206535,-0.083702097,0.134514588,0.9883676683015455
0.765631814,0.175950203,-0.1699228,-0.102592346,0.9883676683015455
0.766237508,-0.128217277,-0.028616648,-0.088222228,0.9883676683015455
0.7668432009999999,-0.183302726,0.057604056,-0.143307678,0.9883676683015455
0.767448895,0.013088875,-0.184292917,-0.049901916,0.9883676683015455
0.768054588,-0.233598136,-0.098072214,0.100984315,0.9883676683015455
0.7686602819999999,0.013088875,-0.031011667,0.357251404,0.9883676683015455
0.7692659749999999,0.03943409,-0.054961862,0.261450623,0.9883676683015455
0.769871669,-0.070736808,-0.004666452,0.012368592,0.9883676683015455
0.7704773619999999,0.118469735,0.107899466,0.012368592,0.9883676683015455
0.7710830559999999,-0.202462883,0.019283743,0.340486268,0.9883676683015455
0.771688749,-0.156957511,-0.122022409,0.242290467,0.9883676683015455
0.7722944429999999,0.120864754,0.043233938,0.184809998,0.9883676683015455
0.772900136,-0.123427238,0.076764212,-0.193603088,0.9883676683015455
0.77350583,-0.176117668,-0.174712839,-0.12893756,0.9883676683015455
0.774111523,0.017878914,-0.081307077,-0.004396545,0.9883676683015455
0.774717217,-0.135402336,0.03604888,-0.023556701,0.9883676683015455
0.77532291,0.049014168,-0.112442331,-0.033136779,0.9883676683015455
0.775928604,-0.406039543,0.1366397,-0.160072814,0.9883676683015455
0.776534297,-0.16414257,0.215675345,0.017158631,0.9883676683015455
0.777139991,0.262170907,0.08394927,-0.08103717,0.9883676683015455
0.777745684,-0.142587394,0.208490286,0.120144471,0.9883676683015455
0.778351378,-0.243178215,0.045628958,0.333301209,0.9883676683015455
0.778957071,-0.094687004,-0.196268015,0.17762494,0.9883676683015455
0.779562765,0.044224129,0.03365386,-0.042716857,0.9883676683015455
0.780168459,0.03943409,-0.155552683,0.050688904,0.9883676683015455
0.780774152,0.178345223,-0.01424653,0.493767518,0.9883676683015455
0.781379846,0.084939461,0.081554251,0.496162537,0.9883676683015455
0.781985539,0.14002491,-0.040591745,0.168044861,0.9883676683015455
0.782591233,0.068174325,0.088739309,0.144094666,0.9883676683015455
0.783196926,-0.044391593,-0.102862253,0.22792035,0.9883676683015455
0.78380262,0.113679696,-0.052566843,0.115354432,0.9883676683015455
0.784408313,0.120864754,-0.01664155,-0.112172424,0.9883676683015455
0.785014007,-0.01086132,0.059999075,0.165649842,0.9883676683015455
0.7856197,-0.01086132,-0.062146921,0.055478943,0.9883676683015455
0.786225394,0.068174325,-0.011851511,0.096194275,0.9883676683015455
0.7868310869999999,0.070569344,0.215675345,0.22552533,0.9883676683015455
0.787436781,0.025063973,0.048023977,0.014763611,0.9883676683015455
0.788042474,-0.046786613,-0.031011667,-0.066667053,0.9883676683015455
0.7886481679999999,-0.168932609,0.002518606,0.079429139,0.9883676683015455
0.789253861,0.072964364,-0.088492136,-0.009186584,0.9883676683015455
0.789859555,-0.082711906,-0.253748484,0.129724549,0.9883676683015455
0.790465248,-0.305448722,-0.275303659,-0.303773986,0.9883676683015455
0.7910709419999999,-0.094687004,-0.136392527,-0.179232971,0.9883676683015455
0.791676635,0.080149422,-0.107652292,0.0746391,0.9883676683015455
0.792282329,-0.030021476,-0.150762644,0.263845643,0.9883676683015455
0.792888022,-0.171327629,-0.11962739,0.237500428,0.9883676683015455
0.793493716,0.005903817,-0.071726999,-0.241503478,0.9883676683015455
0.794099409,-0.104267082,0.007308645,-0.143307678,0.9883676683015455
0.794705103,0.027458992,0.079159231,0.038713807,0.9883676683015455
0.795310796,-0.073131828,0.031258841,0.041108826,0.9883676683015455
0.79591649,-0.322213859,-0.095677194,-0.095407287,0.9883676683015455
0.796522184,-0.140192375,0.069579153,-0.116962463,0.9883676683015455
0.797127877,0.044224129,0.103109427,-0.169652892,0.9883676683015455
0.797733571,0.008298836,0.045628958,0.000393494,0.9883676683015455
0.798339264,-0.049181633,0.165379934,0.053083924,0.9883676683015455
0.798944958,-0.133007316,0.004913626,0.053083924,0.9883676683015455
0.799550651,-0.006071281,0.091134329,0.0746391,0.9883676683015455
0.800156345,-0.037206535,-0.059751902,0.048293885,0.9883676683015455
0.800762038,-0.006071281,0.021678763,0.347671326,0.9883676683015455
0.801367732,-0.118637199,0.23723052,0.156069764,0.9883676683015455
0.801973425,-0.075526847,-0.114837351,0.050688904,0.9883676683015455
0.802579119,-0.06115673,0.203700247,0.247080506,0.9883676683015455
0.803184812,-0.025231437,0.112689505,0.057873963,0.9883676683015455
0.803790506,-0.070736808,-0.062146921,0.163254822,0.9883676683015455
0.8043961989999999,-0.097082023,0.203700247,0.067454041,0.9883676683015455
0.805001893,0.046619149,0.079159231,0.17762494,0.9883676683015455
0.805607586,-0.118637199,-0.064541941,0.182414979,0.9883676683015455
0.8062132799999999,0.084939461,-0.078912058,0.168044861,0.9883676683015455
0.8068189729999999,-0.178512687,0.045628958,0.223130311,0.9883676683015455
0.807424667,0.104099617,0.016888723,0.117749451,0.9883676683015455
0.80803036,0.137629891,-0.157947702,0.065059022,0.9883676683015455
0.8086360539999999,-0.089896965,-0.026221628,-0.090617248,0.9883676683015455
0.809241747,-0.025231437,-0.126812448,-0.085827209,0.9883676683015455
0.809847441,-0.137797355,-0.105257273,0.215945252,0.9883676683015455
0.810453134,0.075359383,0.220465384,0.472212342,0.9883676683015455
0.811058828,0.008298836,-0.191477976,0.069849061,0.9883676683015455
0.8116645219999999,-0.209647941,-0.035801706,-0.006791564,0.9883676683015455
0.812270215,-0.140192375,0.151009817,0.02434369,0.9883676683015455
0.812875909,-0.015651359,-0.157947702,0.060268983,0.9883676683015455
0.813481602,0.058594246,-0.050171823,0.069849061,0.9883676683015455
0.814087296,-0.06115673,0.127059622,0.029133729,0.9883676683015455
0.814692989,0.101704598,-0.083702097,0.091404236,0.9883676683015455
0.815298683,0.161580086,0.105504446,0.1728349,0.9883676683015455
0.815904376,0.087334481,-0.088492136,0.151279725,0.9883676683015455
0.81651007,0.070569344,-0.217823191,0.180019959,0.9883676683015455
0.817115763,-0.362929191,0.059999075,0.170439881,0.9883676683015455
0.817721457,-0.034811515,0.031258841,0.151279725,0.9883676683015455
0.81832715,0.118469735,-0.004666452,0.153674744,0.9883676683015455
0.818932844,-0.041996574,-0.093282175,0.165649842,0.9883676683015455
0.819538537,-0.116242179,-0.054961862,0.100984315,0.9883676683015455
0.820144231,-0.168932609,0.110294485,0.12253949,0.9883676683015455
0.820749924,-0.121032218,0.222860403,0.321326111,0.9883676683015455
0.821355618,0.017878914,-0.035801706,0.17522992,0.9883676683015455
0.8219613109999999,0.082544442,0.026468802,0.026738709,0.9883676683015455
0.822567005,-0.11145214,0.098319388,0.160859803,0.9883676683015455
0.823172698,0.04182911,-0.028616648,0.112959412,0.9883676683015455
0.8237783919999999,-0.06115673,0.012098684,-0.057086975,0.9883676683015455
0.8243840849999999,0.0897295,0.153404837,0.048293885,0.9883676683015455
0.824989779,-0.125822258,0.045628958,0.304560975,0.9883676683015455
0.8255954719999999,-0.001281242,-0.074122019,0.117749451,0.9883676683015455
0.8262011659999999,0.015483895,0.052814016,0.098589295,0.9883676683015455
0.826806859,-0.11145214,-0.042986765,0.191995057,0.9883676683015455
0.827412553,-0.046786613,0.045628958,0.127329529,0.9883676683015455
0.8280182469999999,0.080149422,-0.050171823,-0.009186584,0.9883676683015455
0.82862394,0.106494637,-0.131602487,0.163254822,0.9883676683015455
0.829229634,-0.025231437,-0.007061472,0.22552533,0.9883676683015455
0.829835327,-0.037206535,-0.035801706,0.081824158,0.9883676683015455
0.830441021,-0.16653759,-0.11962739,0.12253949,0.9883676683015455
0.831046714,-0.11384716,-0.253748484,-0.222343322,0.9883676683015455
0.831652408,0.101704598,-0.01424653,0.057873963,0.9883676683015455
0.832258101,0.09212452,-0.225008249,-0.107382385,0.9883676683015455
0.832863795,-0.094687004,-0.241773386,-0.13133258,0.9883676683015455
0.833469488,0.010693856,0.110294485,-0.172047912,0.9883676683015455
0.834075182,0.029854012,-0.105257273,-0.03074176,0.9883676683015455
0.834680875,0.084939461,-0.059751902,-0.025951721,0.9883676683015455
0.835286569,-0.11145214,0.000123587,0.129724549,0.9883676683015455
0.835892262,0.032249032,-0.007061472,0.407546815,0.9883676683015455
0.836497956,0.013088875,-0.026221628,0.07224408,0.9883676683015455
0.837103649,-0.144982414,0.055209036,0.141699647,0.9883676683015455
0.837709343,0.168765145,0.249205618,0.163254822,0.9883676683015455
0.838315036,0.104099617,0.03604888,-0.088222228,0.9883676683015455
0.83892073,-0.068341789,0.012098684,0.069849061,0.9883676683015455
0.8395264229999999,-0.053971672,-0.01664155,0.223130311,0.9883676683015455
0.840132117,-0.075526847,-0.052566843,-0.119357482,0.9883676683015455
0.84073781,0.053804207,-0.040591745,0.563223084,0.9883676683015455
0.8413435039999999,-0.068341789,0.064789114,0.642258729,0.9883676683015455
0.8419491969999999,-0.018046379,-0.050171823,-0.097802307,0.9883676683015455
0.842554891,0.051409188,-0.177107859,0.043503846,0.9883676683015455
0.843160584,0.219060555,0.112689505,-0.03074176,0.9883676683015455
0.8437662779999999,0.034644051,0.08634429,0.041108826,0.9883676683015455
0.844371972,-0.044391593,0.059999075,0.069849061,0.9883676683015455
0.844977665,-0.092291984,0.098319388,0.196785096,0.9883676683015455
0.8455833589999999,-0.149772453,0.002518606,0.134514588,0.9883676683015455
0.8461890519999999,-0.11145214,0.115084524,0.077034119,0.9883676683015455
0.846794746,-0.080316886,0.016888723,0.069849061,0.9883676683015455
0.8474004390000001,0.058594246,-0.019036569,-0.061877014,0.9883676683015455
0.8480061329999999,-0.219228019,-0.153157663,-0.004396545,0.9883676683015455
0.848611826,-0.018046379,0.062394095,-0.076247131,0.9883676683015455
0.8492175200000001,0.051409188,0.007308645,0.050688904,0.9883676683015455
0.849823213,0.049014168,0.000123587,0.031528748,0.9883676683015455
0.850428907,0.051409188,0.026468802,0.247080506,0.9883676683015455
0.8510346,0.060989266,-0.002271433,0.02194867,0.9883676683015455
0.851640294,0.108889657,0.038443899,0.0746391,0.9883676683015455
0.852245987,-0.001281242,0.055209036,0.184809998,0.9883676683015455
0.852851681,0.017878914,-0.126812448,-0.093012267,0.9883676683015455
0.853457374,0.049014168,-0.241773386,-0.006791564,0.9883676683015455
0.854063068,-0.041996574,-0.01424653,0.060268983,0.9883676683015455
0.854668761,-0.173722648,-0.203453073,0.07224408,0.9883676683015455
0.855274455,0.120864754,0.002518606,-0.195998107,0.9883676683015455
0.855880148,0.034644051,-0.112442331,0.041108826,0.9883676683015455
0.856485842,-0.101872062,-0.021431589,0.139304627,0.9883676683015455
0.8570915349999999,-0.041996574,-0.004666452,-0.107382385,0.9883676683015455
0.857697229,0.056199227,0.040838919,-0.052296935,0.9883676683015455
0.858302922,-0.022836418,0.043233938,0.283005799,0.9883676683015455
0.8589086159999999,0.04182911,-0.174712839,0.12253949,0.9883676683015455
0.85951431,0.087334481,0.098319388,-0.061877014,0.9883676683015455
0.860120003,-0.125822258,-0.062146921,-0.004396545,0.9883676683015455
0.8607256969999999,-0.049181633,-0.021431589,-0.143307678,0.9883676683015455
0.8613313899999999,-0.056366691,-0.004666452,0.096194275,0.9883676683015455
0.861937084,-0.073131828,-0.11723237,-0.07864215,0.9883676683015455
0.862542777,0.123259774,0.172564993,-0.016371642,0.9883676683015455
0.8631484709999999,0.058594246,0.064789114,0.041108826,0.9883676683015455
0.8637541639999999,0.044224129,0.048023977,0.026738709,0.9883676683015455
0.864359858,0.108889657,0.016888723,0.208760193,0.9883676683015455
0.864965551,-0.16414257,-0.064541941,0.029133729,0.9883676683015455
0.8655712449999999,-0.01086132,-0.078912058,0.081824158,0.9883676683015455
0.866176938,-0.183302726,0.282735891,0.191995057,0.9883676683015455
0.866782632,-0.190487785,0.208490286,0.005183533,0.9883676683015455
0.867388325,-0.06115673,-0.011851511,-0.104987365,0.9883676683015455
0.867994019,0.14481495,0.112689505,-0.009186584,0.9883676683015455
0.868599712,0.072964364,0.050418997,0.038713807,0.9883676683015455
0.869205406,-0.058761711,0.093529348,0.536877869,0.9883676683015455
0.869811099,0.111284676,-0.174712839,0.220735291,0.9883676683015455
0.870416793,-0.015651359,0.064789114,0.27582074,0.9883676683015455
0.871022486,-0.065946769,0.117479544,0.498557557,0.9883676683015455
0.87162818,0.013088875,0.03604888,-0.148097717,0.9883676683015455
0.872233873,0.084939461,0.002518606,0.268635682,0.9883676683015455
0.872839567,0.046619149,-0.064541941,0.199180115,0.9883676683015455
0.87344526,-0.039601554,0.206095266,0.053083924,0.9883676683015455
0.874050954,0.053804207,0.155799856,0.132119568,0.9883676683015455
0.874656647,-0.11384716,0.064789114,-0.136122619,0.9883676683015455
0.875262341,-0.089896965,-0.155552683,0.033923768,0.9883676683015455
0.875868035,-0.207252922,-0.083702097,0.156069764,0.9883676683015455
0.876473728,0.0897295,0.08394927,-0.073852111,0.9883676683015455
0.877079422,0.161580086,-0.086097116,-0.054691955,0.9883676683015455
0.877685115,-0.104267082,-0.038196726,0.079429139,0.9883676683015455
0.878290809,0.029854012,-0.071726999,0.057873963,0.9883676683015455
0.8788965019999999,-0.027626457,0.007308645,0.093799256,0.9883676683015455
0.879502196,-0.001281242,-0.148367624,-0.03074176,0.9883676683015455
0.880107889,-0.144982414,-0.064541941,-0.047506896,0.9883676683015455
0.8807135829999999,-0.159352531,0.093529348,-0.004396545,0.9883676683015455
0.8813192759999999,0.077754403,0.210885306,-0.023556701,0.9883676683015455
0.88192497,0.029854012,-0.028616648,0.079429139,0.9883676683015455
0.882530663,-0.087501945,-0.011851511,-0.157677795,0.9883676683015455
0.8831363569999999,-0.06355175,0.045628958,0.184809998,0.9883676683015455
0.88374205,-0.101872062,-0.129207468,0.292585877,0.9883676683015455
0.884347744,0.003508797,0.057604056,-0.119357482,0.9883676683015455
0.8849534370000001,0.046619149,-0.059751902,0.02434369,0.9883676683015455
0.8855591309999999,-0.245573234,0.031258841,0.017158631,0.9883676683015455
0.886164824,-0.183302726,0.004913626,-0.035531799,0.9883676683015455
0.8867705180000001,0.14002491,0.091134329,0.158464783,0.9883676683015455
0.887376211,-0.058761711,0.155799856,0.060268983,0.9883676683015455
0.887981905,0.247800789,0.000123587,-0.03074176,0.9883676683015455
0.888587598,0.005903817,-0.019036569,0.110564393,0.9883676683015455
0.889193292,-0.137797355,0.095924368,0.02434369,0.713470072571407
0.889798985,0.075359383,-0.083702097,-0.040321838,0.713470072571407
0.890404679,-0.001281242,0.014493704,0.026738709,0.713470072571407
0.891010373,0.187925301,0.014493704,-0.009186584,0.713470072571407
0.891616066,0.082544442,-0.040591745,0.139304627,0.713470072571407
0.89222176,-0.075526847,-0.105257273,0.084219178,0.713470072571407
0.892827453,-0.152167472,-0.028616648,0.077034119,0.713470072571407
0.893433147,0.128049813,-0.126812448,0.148884705,0.713470072571407
0.89403884,-0.140192375,-0.162737741,-0.08103717,0.713470072571407
0.894644534,-0.152167472,0.067184134,-0.263058654,0.713470072571407
0.895250227,0.094519539,-0.007061472,-0.037926818,0.713470072571407
0.895855921,-0.015651359,-0.105257273,0.091404236,0.713470072571407
0.8964616139999999,-0.089896965,0.107899466,0.148884705,0.713470072571407
0.897067308,-0.06115673,-0.002271433,0.0746391,0.713470072571407
0.897673001,-0.01325634,0.038443899,-0.121752502,0.713470072571407
0.8982786949999999,-0.216833,0.191725149,0.079429139,0.713470072571407
0.8988843879999999,0.046619149,0.043233938,-0.057086975,0.713470072571407
0.899490082,-0.06355175,0.064789114,0.160859803,0.713470072571407
0.900095775,-0.159352531,0.050418997,-0.188813049,0.713470072571407
0.9007014689999999,0.008298836,0.014493704,0.309351014,0.713470072571407
0.9013071619999999,0.020273934,0.026468802,0.397966736,0.713470072571407
0.901912856,-0.022836418,-0.026221628,-0.126542541,0.713470072571407
0.9025185490000001,0.096914559,-0.102862253,0.184809998,0.713470072571407
0.9031242429999999,-0.06355175,-0.028616648,0.007578553,0.713470072571407
0.903729936,0.080149422,-0.06933198,0.005183533,0.713470072571407
0.9043356300000001,-0.030021476,0.004913626,0.062664002,0.713470072571407
0.904941323,-0.104267082,0.100714407,0.012368592,0.713470072571407
0.905547017,0.163975106,-0.088492136,-0.100197326,0.713470072571407
0.90615271,-0.039601554,0.040838919,0.055478943,0.713470072571407
0.906758404,-0.015651359,0.213280325,0.187205018,0.713470072571407
0.907364098,-0.147377433,0.064789114,0.098589295,0.713470072571407
0.907969791,-0.034811515,-0.107652292,0.100984315,0.713470072571407
0.908575485,0.173555184,0.031258841,0.156069764,0.713470072571407
0.909181178,-0.058761711,0.165379934,-0.150492736,0.713470072571407
0.909786872,0.087334481,0.174960013,-0.023556701,0.713470072571407
0.910392565,0.010693856,0.122269583,0.002788514,0.713470072571407
0.910998259,-0.049181633,-0.011851511,0.144094666,0.713470072571407
0.911603952,-0.0084663,0.091134329,0.340486268,0.713470072571407
0.912209646,0.032249032,-0.126812448,-0.222343322,0.713470072571407
0.912815339,-0.188092765,-0.023826609,0.057873963,0.713470072571407
0.913421033,-0.018046379,0.213280325,0.218340272,0.713470072571407
0.9140267259999999,0.161580086,0.253995657,-0.037926818,0.713470072571407
0.91463242,-0.06115673,-0.057356882,0.055478943,0.713470072571407
0.915238113,-0.125822258,-0.002271433,0.129724549,0.713470072571407
0.915843807,0.04182911,0.141429739,0.048293885,0.713470072571407
0.9164494999999999,0.087334481,-0.035801706,0.012368592,0.713470072571407
0.917055194,-0.080316886,-0.01664155,0.079429139,0.713470072571407
0.917660887,-0.068341789,0.093529348,0.067454041,0.713470072571407
0.9182665809999999,0.003508797,-0.071726999,0.120144471,0.713470072571407
0.9188722739999999,0.010693856,-0.126812448,0.07224408,0.713470072571407
0.919477968,-0.085106925,0.012098684,-0.052296935,0.713470072571407
0.920083661,0.152000008,-0.196268015,0.077034119,0.713470072571407
0.9206893549999999,-0.041996574,-0.021431589,-0.021161682,0.713470072571407
0.921295048,-0.046786613,0.162984915,0.012368592,0.713470072571407
0.921900742,0.013088875,-0.019036569,0.170439881,0.713470072571407
0.922506435,-0.118637199,-0.107652292,0.17762494,0.713470072571407
0.923112129,-0.041996574,-0.093282175,0.048293885,0.713470072571407
0.923717823,0.04182911,0.019283743,0.22552533,0.713470072571407
0.924323516,-0.049181633,-0.088492136,0.151279725,0.713470072571407
0.92492921,0.013088875,-0.126812448,0.031528748,0.713470072571407
0.925534903,0.063384285,0.091134329,0.000393494,0.713470072571407
0.9261405970000001,-0.106662101,-0.093282175,-0.205578185,0.713470072571407
0.92674629,-0.106662101,-0.217823191,0.261450623,0.713470072571407
0.927351984,-0.015651359,-0.133997507,0.057873963,0.713470072571407
0.927957677,-0.044391593,0.014493704,-0.018766662,0.713470072571407
0.928563371,0.111284676,0.095924368,-0.169652892,0.713470072571407
0.929169064,0.075359383,0.095924368,0.711714295,0.713470072571407
0.929774758,-0.106662101,-0.028616648,0.553643006,0.713470072571407
0.930380451,0.14241993,-0.06693696,-0.140912658,0.713470072571407
0.930986145,0.04182911,-0.007061472,0.647048768,0.713470072571407
0.931591838,-0.070736808,0.167774954,0.338091248,0.713470072571407
0.932197532,-0.085106925,-0.031011667,0.141699647,0.713470072571407
0.932803225,-0.121032218,-0.157947702,0.048293885,0.713470072571407
0.933408919,-0.188092765,0.031258841,-0.157677795,0.713470072571407
0.9340146119999999,-0.327003898,-0.277698679,0.005183533,0.713470072571407
0.934620306,-0.051576652,-0.078912058,-0.186418029,0.713470072571407
0.935225999,0.070569344,0.024073782,0.055478943,0.713470072571407
0.9358316929999999,-0.034811515,0.146219778,0.062664002,0.713470072571407
0.9364373859999999,-0.11145214,0.265970755,0.012368592,0.713470072571407
0.93704308,-0.058761711,0.069579153,0.045898865,0.713470072571407
0.937648773,0.044224129,0.079159231,0.136909608,0.713470072571407
0.9382544669999999,-0.128217277,0.062394095,0.220735291,0.713470072571407
0.938860161,-0.080316886,0.040838919,-0.016371642,0.713470072571407
0.939465854,0.113679696,-0.011851511,0.180019959,0.713470072571407
0.9400715479999999,0.03943409,0.045628958,0.22792035,0.713470072571407
0.9406772409999999,-0.001281242,-0.01664155,0.22792035,0.713470072571407
0.941282935,0.003508797,-0.031011667,0.045898865,0.713470072571407
0.9418886280000001,0.070569344,0.160589895,-0.042716857,0.713470072571407
0.9424943219999999,0.046619149,0.076764212,0.17522992,0.713470072571407
0.943100015,-0.039601554,-0.081307077,0.194390076,0.713470072571407
0.9437057090000001,0.120864754,0.13903472,0.012368592,0.713470072571407
0.944311402,0.125654793,-0.023826609,0.045898865,0.713470072571407
0.944917096,-0.173722648,-0.050171823,-0.011581603,0.713470072571407
0.945522789,-0.173722648,0.105504446,0.129724549,0.713470072571407
0.946128483,0.053804207,-0.045381784,0.089009217,0.713470072571407
0.946734176,-0.125822258,0.170169973,-0.040321838,0.713470072571407
0.94733987,-0.070736808,0.03604888,0.038713807,0.713470072571407
0.947945563,0.075359383,-0.009456491,0.050688904,0.713470072571407
0.948551257,-0.140192375,0.100714407,0.108169373,0.713470072571407
0.94915695,-0.039601554,-0.098072214,0.002788514,0.713470072571407
0.949762644,-0.015651359,-0.031011667,-0.002001525,0.713470072571407
0.950368337,-0.087501945,-0.009456491,0.148884705,0.713470072571407
0.950974031,-0.118637199,-0.045381784,0.067454041,0.713470072571407
0.9515797239999999,0.003508797,-0.145972605,-0.023556701,0.713470072571407
0.952185418,-0.135402336,-0.078912058,-0.02834674,0.713470072571407
0.952791111,0.060989266,-0.181897898,-0.037926818,0.713470072571407
0.9533968049999999,0.14241993,-0.124417429,-0.212763244,0.713470072571407
0.9540024979999999,-0.185697746,-0.047776804,-0.016371642,0.713470072571407
0.954608192,-0.006071281,-0.100467234,-0.025951721,0.713470072571407
0.9552138859999999,-0.058761711,-0.019036569,-0.152887756,0.713470072571407
0.9558195789999999,-0.001281242,-0.095677194,0.079429139,0.713470072571407
0.956425273,-0.121032218,0.045628958,0.136909608,0.713470072571407
0.957030966,-0.06115673,-0.107652292,0.029133729,0.713470072571407
0.9576366599999999,0.137629891,-0.081307077,-0.057086975,0.713470072571407
0.9582423529999999,0.070569344,-0.177107859,-0.03074176,0.713470072571407
0.958848047,0.013088875,-0.327994089,-0.071457092,0.713470072571407
0.95945374,-0.233598136,-0.157947702,0.182414979,0.713470072571407
0.9600594339999999,-0.190487785,0.076764212,0.031528748,0.713470072571407
0.960665127,-0.027626457,-0.071726999,0.630283631,0.713470072571407
0.961270821,-0.001281242,0.028863821,0.946426209,0.713470072571407
0.961876514,0.082544442,-0.052566843,0.17762494,0.713470072571407
0.962482208,-0.075526847,-0.256143503,0.02434369,0.713470072571407
0.963087901,0.010693856,0.007308645,-0.040321838,0.713470072571407
0.963693595,0.099309578,-0.150762644,-0.042716857,0.713470072571407
0.964299288,-0.06355175,0.069579153,-0.040321838,0.713470072571407
0.964904982,0.034644051,0.203700247,-0.064272033,0.713470072571407
0.965510675,-0.123427238,-0.100467234,-0.138517639,0.713470072571407
0.966116369,-0.185697746,-0.086097116,0.036318787,0.713470072571407
0.966722062,-0.142587394,-0.052566843,0.223130311,0.713470072571407
0.967327756,-0.274313468,-0.062146921,0.105774354,0.713470072571407
0.967933449,-0.073131828,0.024073782,0.105774354,0.713470072571407
0.968539143,0.108889657,0.258785696,0.005183533,0.713470072571407
0.969144836,-0.001281242,0.131849661,0.0746391,0.713470072571407
0.96975053,-0.053971672,-0.131602487,0.239895447,0.713470072571407
0.970356224,-0.006071281,0.093529348,0.105774354,0.713470072571407
0.970961917,0.029854012,0.122269583,0.096194275,0.713470072571407
0.971567611,-0.018046379,0.112689505,0.02434369,0.713470072571407
0.972173304,0.082544442,0.119874563,0.060268983,0.713470072571407
0.972778998,0.116074715,-0.042986765,0.036318787,0.713470072571407
0.9733846909999999,-0.154562492,-0.06933198,0.144094666,0.713470072571407
0.973990385,0.029854012,0.074369192,0.026738709,0.713470072571407
0.974596078,-0.006071281,0.112689505,0.026738709,0.713470072571407
0.9752017719999999,-0.085106925,0.117479544,0.057873963,0.713470072571407
0.9758074649999999,0.003508797,0.012098684,-0.03074176,0.713470072571407
0.976413159,-0.101872062,0.052814016,-0.002001525,0.713470072571407
0.977018852,0.003508797,0.059999075,0.02434369,0.713470072571407
0.9776245459999999,0.080149422,0.021678763,0.029133729,0.713470072571407
0.978230239,0.051409188,-0.021431589,-0.054691955,0.713470072571407
0.978835933,-0.020441398,-0.11723237,0.067454041,0.713470072571407
0.9794416260000001,-0.06355175,-0.095677194,0.199180115,0.713470072571407
0.9800473199999999,-0.034811515,-0.236983347,0.134514588,0.713470072571407
0.980653013,-0.075526847,-0.186687937,-0.08103717,0.713470072571407
0.9812587070000001,-0.195277824,-0.062146921,-0.071457092,0.713470072571407
0.9818644,-0.046786613,-0.160342722,0.057873963,0.713470072571407
0.982470094,-0.089896965,-0.06933198,0.117749451,0.713470072571407
0.983075787,0.008298836,-0.004666452,-0.059481994,0.713470072571407
0.983681481,-0.037206535,0.074369192,0.27582074,0.713470072571407
0.984287174,-0.06355175,0.009703665,0.081824158,0.713470072571407
0.984892868,0.137629891,-0.239378366,-0.227133361,0.713470072571407
0.985498561,0.080149422,-0.06933198,-0.006791564,0.713470072571407
0.986104255,-0.06355175,0.131849661,-0.143307678,0.713470072571407
0.986709949,-0.089896965,-0.086097116,0.005183533,0.713470072571407
0.987315642,-0.094687004,-0.131602487,0.184809998,0.713470072571407
0.987921336,-0.228808097,0.160589895,-0.138517639,0.713470072571407
0.988527029,-0.001281242,0.076764212,0.151279725,0.713470072571407
0.989132723,0.003508797,-0.002271433,0.237500428,0.9568217671885846
0.989738416,-0.032416496,-0.01664155,0.548852967,0.9568217671885846
0.99034411,-0.190487785,-0.122022409,0.211155213,0.9568217671885846
0.9909498029999999,0.075359383,-0.107652292,0.091404236,0.9568217671885846
0.991555497,-0.116242179,-0.217823191,0.704529236,0.9568217671885846
0.99216119,0.060989266,-0.028616648,-0.107382385,0.9568217671885846
0.9927668839999999,0.053804207,0.069579153,-0.121752502,0.9568217671885846
0.9933725769999999,-0.044391593,0.002518606,0.045898865,0.9568217671885846
0.993978271,0.307676278,0.057604056,0.148884705,0.9568217671885846
0.994583964,-0.080316886,-0.01424653,0.067454041,0.9568217671885846
0.9951896579999999,0.025063973,-0.157947702,-0.059481994,0.9568217671885846
0.9957953509999999,-0.034811515,-0.06933198,-0.107382385,0.9568217671885846
0.996401045,0.118469735,0.08634429,0.117749451,0.9568217671885846
0.9970067380000001,0.001113778,0.206095266,0.041108826,0.9568217671885846
0.9976124319999999,-0.099477043,0.225255423,-0.021161682,0.9568217671885846
0.998218125,0.072964364,0.08634429,0.191995057,0.9568217671885846
0.9988238190000001,-0.022836418,0.158194876,-0.052296935,0.9568217671885846
0.999429512,-0.039601554,0.088739309,0.033923768,0.9568217671885846
1.000035206,0.087334481,0.148614798,-0.047506896,0.9568217671885846
1.000640899,0.070569344,0.129454641,0.01955365,0.9568217671885846
1.0012465929999999,-0.089896965,-0.071726999,0.165649842,0.9568217671885846
1.001852286,-0.073131828,-0.026221628,-0.045111877,0.9568217671885846
1.00245798,-0.152167472,0.03365386,0.132119568,0.9568217671885846
1.0030636739999998,-0.178512687,-0.042986765,0.292585877,0.9568217671885846
1.003669367,-0.049181633,0.043233938,0.127329529,0.9568217671885846
1.004275061,0.080149422,0.055209036,0.060268983,0.9568217671885846
1.004880754,-0.233598136,-0.009456491,0.127329529,0.9568217671885846
1.005486448,-0.202462883,0.1366397,0.115354432,0.9568217671885846
1.0060921409999999,0.207085457,-0.031011667,0.168044861,0.9568217671885846
1.006697835,-0.26473339,0.093529348,0.031528748,0.9568217671885846
1.007303528,-0.147377433,0.009703665,-0.033136779,0.9568217671885846
1.0079092219999999,-0.044391593,-0.047776804,0.213550233,0.9568217671885846
1.008514915,-0.080316886,-0.042986765,-0.033136779,0.9568217671885846
1.009120609,-0.250363273,-0.227403269,0.180019959,0.9568217671885846
1.009726302,-0.123427238,-0.1699228,-0.033136779,0.9568217671885846
1.0103319960000001,0.04182911,-0.287278757,-0.193603088,0.9568217671885846
1.010937689,-0.070736808,-0.050171823,-0.004396545,0.9568217671885846
1.011543383,0.130444832,0.048023977,0.045898865,0.9568217671885846
1.012149076,-0.154562492,-0.165132761,0.180019959,0.9568217671885846
1.01275477,-0.018046379,-0.076517038,-0.066667053,0.9568217671885846
1.013360463,-0.041996574,0.021678763,0.091404236,0.9568217671885846
1.013966157,-0.128217277,-0.057356882,0.096194275,0.9568217671885846
1.01457185,-0.034811515,-0.11723237,-0.009186584,0.9568217671885846
1.015177544,-0.133007316,-0.11962739,0.084219178,0.9568217671885846
1.015783237,-0.123427238,0.119874563,-0.205578185,0.9568217671885846
1.016388931,0.075359383,-0.021431589,0.060268983,0.9568217671885846
1.016994624,0.029854012,0.131849661,0.218340272,0.9568217671885846
1.017600318,-0.293473625,0.220465384,-0.18402301,0.9568217671885846
1.018206012,0.123259774,0.012098684,-0.033136779,0.9568217671885846
1.018811705,0.19511036,-0.01664155,0.146489686,0.9568217671885846
1.019417399,0.04182911,0.002518606,0.644653748,0.9568217671885846
1.020023092,0.0897295,0.012098684,0.292585877,0.9568217671885846
1.020628786,0.159185067,-0.050171823,-0.1337276,0.9568217671885846
1.0212344789999999,0.065779305,-0.019036569,0.441077088,0.9568217671885846
1.021840173,0.152000008,0.028863821,0.127329529,0.9568217671885846
1.022445866,0.161580086,-0.150762644,-0.033136779,0.9568217671885846
1.0230515599999999,-0.027626457,-0.052566843,-0.011581603,0.9568217671885846
1.023657253,0.044224129,0.062394095,-0.318144103,0.9568217671885846
1.024262947,0.123259774,-0.071726999,-0.157677795,0.9568217671885846
1.02486864,-0.032416496,-0.071726999,0.115354432,0.9568217671885846
1.025474334,-0.178512687,-0.01424653,0.077034119,0.9568217671885846
1.026080027,-0.11384716,0.024073782,-0.03074176,0.9568217671885846
1.026685721,0.19511036,-0.01424653,0.031528748,0.9568217671885846
1.027291414,0.123259774,0.024073782,0.100984315,0.9568217671885846
1.027897108,-0.101872062,-0.078912058,0.223130311,0.9568217671885846
1.028502801,0.060989266,-0.133997507,0.129724549,0.9568217671885846
1.029108495,0.04182911,-0.064541941,-0.191208068,0.9568217671885846
1.029714188,0.053804207,-0.054961862,0.196785096,0.9568217671885846
1.030319882,-0.056366691,0.004913626,0.146489686,0.9568217671885846
1.030925575,-0.128217277,0.055209036,0.02194867,0.9568217671885846
1.031531269,0.034644051,-0.124417429,0.096194275,0.9568217671885846
1.032136962,0.240615731,-0.114837351,0.012368592,0.9568217671885846
1.032742656,0.032249032,-0.143577585,-0.033136779,0.9568217671885846
1.033348349,-0.099477043,-0.090887155,-0.294193908,0.9568217671885846
1.033954043,-0.032416496,0.043233938,-0.126542541,0.9568217671885846
1.034559737,-0.032416496,0.019283743,0.208760193,0.9568217671885846
1.03516543,-0.135402336,-0.054961862,0.014763611,0.9568217671885846
1.035771124,-0.202462883,0.074369192,0.012368592,0.9568217671885846
1.036376817,0.013088875,0.067184134,-0.021161682,0.9568217671885846
1.036982511,0.209480477,0.002518606,-0.100197326,0.9568217671885846
1.037588204,-0.06115673,-0.021431589,0.180019959,0.9568217671885846
1.038193898,-0.104267082,-0.150762644,0.12493451,0.9568217671885846
1.038799591,0.130444832,-0.086097116,-0.054691955,0.9568217671885846
1.039405285,-0.039601554,-0.028616648,0.057873963,0.9568217671885846
1.040010978,-0.070736808,0.012098684,-0.006791564,0.9568217671885846
1.040616672,-0.051576652,0.040838919,0.002788514,0.9568217671885846
1.0412223649999999,0.003508797,0.03365386,0.211155213,0.9568217671885846
1.041828059,0.080149422,0.026468802,0.012368592,0.9568217671885846
1.042433752,0.063384285,-0.129207468,0.089009217,0.9568217671885846
1.0430394459999999,0.211875496,0.012098684,0.038713807,0.9568217671885846
1.043645139,-0.06115673,0.028863821,0.196785096,0.9568217671885846
1.044250833,-0.022836418,-0.22021821,0.12253949,0.9568217671885846
1.044856526,0.111284676,0.129454641,-0.02834674,0.9568217671885846
1.04546222,-0.070736808,0.074369192,0.096194275,0.9568217671885846
1.046067913,-0.118637199,-0.045381784,0.033923768,0.9568217671885846
1.046673607,0.175950203,0.273155813,0.065059022,0.9568217671885846
1.0472793,0.044224129,0.100714407,0.067454041,0.9568217671885846
1.047884994,-0.118637199,0.309081106,-0.035531799,0.9568217671885846
1.048490687,0.003508797,0.134244681,-0.193603088,0.9568217671885846
1.049096381,-0.123427238,-0.052566843,0.1728349,0.9568217671885846
1.049702075,-0.037206535,0.414461966,-0.097802307,0.9568217671885846
1.050307768,-0.245573234,-0.007061472,-0.445080139,0.9568217671885846
1.050913462,-0.137797355,0.076764212,0.53448285,0.9568217671885846
1.051519155,0.166370125,0.009703665,0.908105897,0.9568217671885846
1.052124849,0.015483895,0.043233938,0.057873963,0.9568217671885846
1.052730542,0.003508797,0.043233938,-0.073852111,0.9568217671885846
1.053336236,-0.001281242,-0.026221628,0.160859803,0.9568217671885846
1.053941929,-0.020441398,0.098319388,0.182414979,0.9568217671885846
1.054547623,-0.015651359,-0.11962739,-0.011581603,0.9568217671885846
1.055153316,-0.087501945,0.040838919,-0.004396545,0.9568217671885846
1.05575901,-0.039601554,0.055209036,0.148884705,0.9568217671885846
1.0563647029999998,0.132839852,-0.148367624,0.043503846,0.9568217671885846
1.056970397,-0.099477043,-0.090887155,-0.018766662,0.9568217671885846
1.05757609,-0.077921867,0.019283743,-0.157677795,0.9568217671885846
1.0581817839999998,0.202295418,-0.112442331,0.093799256,0.9568217671885846
1.058787477,-0.180907707,0.043233938,0.048293885,0.9568217671885846
1.059393171,-0.089896965,0.119874563,-0.057086975,0.9568217671885846
1.059998864,-0.039601554,-0.042986765,0.048293885,0.9568217671885846
1.060604558,0.027458992,-0.136392527,0.02194867,0.9568217671885846
1.0612102509999999,0.254985848,-0.052566843,-0.061877014,0.9568217671885846
1.061815945,-0.080316886,-0.052566843,0.029133729,0.9568217671885846
1.062421638,-0.089896965,-0.153157663,-0.033136779,0.9568217671885846
1.0630273319999999,0.166370125,0.004913626,-0.138517639,0.9568217671885846
1.0636330250000001,-0.133007316,-0.191477976,0.136909608,0.9568217671885846
1.064238719,-0.327003898,-0.126812448,-0.2319234,0.9568217671885846
1.064844412,0.111284676,-0.105257273,-0.18402301,0.9568217671885846
1.0654501060000001,-0.085106925,0.117479544,-0.023556701,0.9568217671885846
1.0660558,0.003508797,0.124664602,-0.076247131,0.9568217671885846
1.066661493,-0.001281242,-0.160342722,0.151279725,0.9568217671885846
1.0672671870000001,-0.123427238,0.079159231,-0.18162799,0.9568217671885846
1.06787288,-0.06115673,0.040838919,-0.090617248,0.9568217671885846
1.068478574,0.010693856,0.055209036,0.005183533,0.9568217671885846
1.069084267,0.04182911,0.045628958,0.029133729,0.9568217671885846
1.069689961,-0.058761711,-0.095677194,0.091404236,0.9568217671885846
1.070295654,0.032249032,-0.078912058,0.105774354,0.9568217671885846
1.070901348,0.163975106,0.024073782,0.141699647,0.9568217671885846
1.071507041,0.017878914,-0.057356882,-0.085827209,0.9568217671885846
1.072112735,0.049014168,0.052814016,-0.07864215,0.9568217671885846
1.072718428,-0.006071281,0.069579153,-0.037926818,0.9568217671885846
1.073324122,-0.037206535,-0.076517038,0.1728349,0.9568217671885846
1.073929815,0.266960946,-0.045381784,0.196785096,0.9568217671885846
1.074535509,-0.087501945,-0.021431589,0.112959412,0.9568217671885846
1.075141202,0.075359383,-0.083702097,0.294980897,0.9568217671885846
1.075746896,-0.058761711,0.038443899,0.045898865,0.9568217671885846
1.0763525889999999,-0.104267082,0.124664602,-0.112172424,0.9568217671885846
1.076958283,-0.094687004,0.009703665,0.244685486,0.9568217671885846
1.077563976,0.070569344,0.098319388,-0.076247131,0.9568217671885846
1.0781696699999999,0.219060555,-0.007061472,-0.02834674,0.9568217671885846
1.078775363,-0.099477043,0.055209036,0.129724549,0.9568217671885846
1.079381057,-0.053971672,0.057604056,-0.07864215,0.9568217671885846
1.07998675,0.154395028,-0.124417429,0.220735291,0.9568217671885846
1.080592444,0.001113778,-0.023826609,-0.073852111,0.9568217671885846
1.081198137,0.003508797,-0.01424653,0.318931092,0.9568217671885846
1.081803831,-0.089896965,0.024073782,0.062664002,0.9568217671885846
1.082409525,-0.288683586,0.122269583,-0.136122619,0.9568217671885846
1.083015218,0.029854012,0.124664602,0.12493451,0.9568217671885846
1.083620912,-0.015651359,0.110294485,0.038713807,0.9568217671885846
1.084226605,-0.041996574,-0.107652292,0.254265565,0.9568217671885846
1.0848322989999999,0.087334481,0.031258841,0.086614197,0.9568217671885846
1.085437992,0.001113778,0.040838919,-0.013976623,0.9568217671885846
1.086043686,-0.051576652,0.03365386,0.065059022,0.9568217671885846
1.086649379,-0.051576652,-0.098072214,0.077034119,0.9568217671885846
1.087255073,-0.030021476,-0.122022409,0.079429139,0.9568217671885846
1.087860766,-0.056366691,-0.002271433,0.033923768,0.9568217671885846
1.08846646,0.14481495,-0.162737741,-0.047506896,0.9568217671885846
1.089072153,0.04182911,0.127059622,-0.059481994,0.809265242342028
1.089677847,-0.025231437,0.009703665,0.0746391,0.809265242342028
1.09028354,0.111284676,-0.181897898,0.196785096,0.809265242342028
1.090889234,-0.245573234,0.004913626,-0.102592346,0.809265242342028
1.0914949269999998,0.065779305,-0.021431589,0.089009217,0.809265242342028
1.092100621,0.058594246,-0.050171823,0.017158631,0.809265242342028
1.092706314,-0.015651359,0.148614798,-0.114567443,0.809265242342028
1.0933120079999998,0.070569344,-0.122022409,0.098589295,0.809265242342028
1.093917701,0.068174325,-0.126812448,0.055478943,0.809265242342028
1.094523395,-0.032416496,0.067184134,0.007578553,0.809265242342028
1.095129088,-0.101872062,-0.009456491,-0.061877014,0.809265242342028
1.095734782,0.013088875,-0.047776804,-0.071457092,0.809265242342028
1.0963404749999999,-0.200067863,0.069579153,0.148884705,0.809265242342028
1.096946169,-0.053971672,0.227650442,0.065059022,0.809265242342028
1.097551863,0.199900399,-0.062146921,0.055478943,0.809265242342028
1.0981575559999999,-0.051576652,0.043233938,0.062664002,0.809265242342028
1.09876325,-0.336583976,0.028863821,0.079429139,0.809265242342028
1.099368943,-0.154562492,-0.129207468,0.057873963,0.809265242342028
1.0999746369999999,-0.16414257,-0.033406687,-0.298983947,0.809265242342028
1.10058033,-0.068341789,-0.086097116,-0.035531799,0.809265242342028
1.101186024,-0.065946769,-0.050171823,0.055478943,0.809265242342028
1.101791717,0.070569344,-0.031011667,0.208760193,0.809265242342028
1.102397411,0.101704598,-0.019036569,0.206365174,0.809265242342028
1.103003104,-0.044391593,-0.026221628,0.038713807,0.809265242342028
1.103608798,0.123259774,0.146219778,0.151279725,0.809265242342028
1.104214491,0.010693856,0.174960013,-0.116962463,0.809265242342028
1.104820185,0.065779305,0.052814016,-0.215158264,0.809265242342028
1.1054258780000001,-0.097082023,-0.033406687,0.156069764,0.809265242342028
1.106031572,-0.180907707,0.115084524,0.096194275,0.809265242342028
1.106637265,-0.080316886,0.057604056,-0.179232971,0.809265242342028
1.1072429590000001,-0.159352531,-0.035801706,0.232710389,0.809265242342028
1.107848652,-0.046786613,-0.004666452,0.314141053,0.809265242342028
1.108454346,0.022668953,0.040838919,0.112959412,0.809265242342028
1.109060039,-0.082711906,0.009703665,0.02434369,0.809265242342028
1.109665733,0.125654793,-0.023826609,-0.107382385,0.809265242342028
1.110271426,0.008298836,-0.172317819,-0.097802307,0.809265242342028
1.11087712,0.044224129,0.028863821,0.606333436,0.809265242342028
1.1114828129999998,-0.094687004,-0.062146921,0.364436463,0.809265242342028
1.112088507,-0.16174755,-0.181897898,0.01955365,0.809265242342028
1.1126942,0.04182911,-0.054961862,0.187205018,0.809265242342028
1.1132998939999998,-0.209647941,-0.22021821,-0.116962463,0.809265242342028
1.113905588,0.14481495,0.074369192,-0.090617248,0.809265242342028
1.114511281,0.029854012,0.100714407,0.038713807,0.809265242342028
1.1151169749999998,-0.109057121,-0.100467234,0.098589295,0.809265242342028
1.115722668,-0.06115673,-0.064541941,-0.021161682,0.809265242342028
1.116328362,0.032249032,-0.110047312,-0.009186584,0.809265242342028
1.116934055,-0.041996574,-0.06933198,0.220735291,0.809265242342028
1.117539749,-0.140192375,-0.086097116,-0.035531799,0.809265242342028
1.1181454419999999,-0.140192375,-0.107652292,0.12493451,0.809265242342028
1.118751136,-0.173722648,-0.105257273,0.026738709,0.809265242342028
1.119356829,0.123259774,-0.265723581,-0.064272033,0.809265242342028
1.1199625229999999,0.034644051,-0.143577585,0.165649842,0.809265242342028
1.1205682160000001,-0.11145214,-0.148367624,-0.148097717,0.809265242342028
1.12117391,-0.147377433,0.1366397,-0.18162799,0.809265242342028
1.121779603,0.013088875,0.103109427,-0.172047912,0.809265242342028
1.1223852970000001,-0.018046379,-0.225008249,0.271030701,0.809265242342028
1.12299099,-0.041996574,-0.196268015,0.07224408,0.809265242342028
1.123596684,0.101704598,-0.06693696,-0.02834674,0.809265242342028
1.124202377,0.003508797,0.162984915,-0.037926818,0.809265242342028
1.124808071,-0.089896965,-0.071726999,-0.097802307,0.809265242342028
1.125413764,-0.01325634,0.098319388,0.247080506,0.809265242342028
1.126019458,-0.21443798,-0.01664155,0.203970154,0.809265242342028
1.1266251509999998,-0.044391593,-0.11962739,0.007578553,0.809265242342028
1.1272308450000001,0.068174325,-0.11962739,-0.152887756,0.809265242342028
1.127836538,0.116074715,-0.141182566,-0.100197326,0.809265242342028
1.1284422319999998,-0.041996574,-0.105257273,0.033923768,0.809265242342028
1.129047925,-0.149772453,-0.040591745,0.235105408,0.809265242342028
1.129653619,0.013088875,-0.035801706,0.256660584,0.809265242342028
1.1302593129999998,-0.075526847,-0.004666452,0.187205018,0.809265242342028
1.130865006,0.008298836,0.165379934,0.065059022,0.809265242342028
1.1314707,0.075359383,-0.074122019,-0.124147521,0.809265242342028
1.132076393,0.008298836,-0.126812448,0.096194275,0.809265242342028
1.132682087,0.14481495,-0.217823191,-0.109777404,0.809265242342028
1.1332877799999999,0.166370125,0.014493704,-0.277428771,0.809265242342028
1.133893474,-0.156957511,0.119874563,0.062664002,0.809265242342028
1.134499167,-0.006071281,-0.122022409,-0.054691955,0.809265242342028
1.1351048609999999,-0.152167472,-0.026221628,0.002788514,0.809265242342028
1.135710554,-0.235993156,0.088739309,0.031528748,0.809265242342028
1.136316248,-0.041996574,-0.126812448,-0.057086975,0.809265242342028
1.136921941,-0.140192375,0.067184134,-0.03074176,0.809265242342028
1.137527635,-0.106662101,0.038443899,0.041108826,0.809265242342028
1.1381333279999999,-0.106662101,0.012098684,0.105774354,0.809265242342028
1.138739022,-0.003676261,0.040838919,-0.006791564,0.809265242342028
1.139344715,0.120864754,0.067184134,0.237500428,0.809265242342028
1.1399504089999999,-0.125822258,0.287525931,0.299770936,0.809265242342028
1.1405561020000001,-0.025231437,-0.06693696,-0.102592346,0.809265242342028
1.141161796,0.056199227,-0.074122019,0.620703553,0.809265242342028
1.141767489,-0.125822258,0.088739309,0.388386658,0.809265242342028
1.1423731830000001,-0.16174755,0.021678763,0.050688904,0.809265242342028
1.142978876,-0.056366691,0.191725149,0.077034119,0.809265242342028
1.14358457,0.065779305,0.064789114,-0.097802307,0.809265242342028
1.144190263,-0.099477043,0.151009817,0.110564393,0.809265242342028
1.144795957,-0.295868644,0.012098684,0.069849061,0.809265242342028
1.145401651,-0.01325634,-0.040591745,0.132119568,0.809265242342028
1.146007344,-0.034811515,0.210885306,-0.148097717,0.809265242342028
1.146613038,-0.224018058,0.143824759,0.098589295,0.809265242342028
1.147218731,0.020273934,-0.002271433,0.12493451,0.809265242342028
1.147824425,-0.01086132,0.028863821,0.333301209,0.809265242342028
1.1484301179999998,-0.082711906,0.198910208,0.079429139,0.809265242342028
1.149035812,0.013088875,0.014493704,0.000393494,0.809265242342028
1.149641505,-0.027626457,-0.131602487,0.17762494,0.809265242342028
1.1502471989999998,0.001113778,0.105504446,-0.258268615,0.809265242342028
1.150852892,-0.087501945,-0.009456491,0.160859803,0.809265242342028
1.151458586,-0.176117668,0.012098684,0.182414979,0.809265242342028
1.152064279,-0.116242179,0.256390677,0.077034119,0.809265242342028
1.152669973,0.082544442,0.031258841,0.294980897,0.809265242342028
1.1532756659999999,0.14002491,-0.213033152,0.170439881,0.809265242342028
1.15388136,-0.001281242,-0.06933198,-0.12893756,0.809265242342028
1.154487053,0.015483895,-0.019036569,0.0746391,0.809265242342028
1.1550927469999999,-0.075526847,-0.040591745,0.151279725,0.809265242342028
1.15569844,-0.116242179,-0.105257273,0.043503846,0.809265242342028
1.156304134,-0.133007316,-0.198663034,0.139304627,0.809265242342028
1.156909827,-0.190487785,-0.112442331,-0.12893756,0.809265242342028
1.157515521,-0.255153312,-0.136392527,0.132119568,0.809265242342028
1.158121214,-0.16414257,-0.131602487,0.02194867,0.809265242342028
1.158726908,0.034644051,-0.203453073,-0.219948303,0.809265242342028
1.159332601,-0.065946769,-0.107652292,-0.021161682,0.809265242342028
1.159938295,-0.018046379,-0.308833933,0.148884705,0.809265242342028
1.1605439880000001,0.096914559,-0.217823191,0.067454041,0.809265242342028
1.161149682,0.063384285,0.038443899,0.055478943,0.809265242342028
1.161755376,0.108889657,0.067184134,0.0746391,0.809265242342028
1.1623610690000001,-0.025231437,0.002518606,0.129724549,0.809265242342028
1.162966763,-0.003676261,-0.236983347,0.136909608,0.809265242342028
1.163572456,-0.018046379,-0.277698679,-0.320539123,0.809265242342028
1.1641781500000001,-0.041996574,-0.112442331,-0.07864215,0.809265242342028
1.164783843,-0.06115673,-0.145972605,0.151279725,0.809265242342028
1.165389537,-0.01325634,-0.227403269,-0.047506896,0.809265242342028
1.16599523,0.034644051,-0.002271433,0.134514588,0.809265242342028
1.166600924,0.037039071,-0.007061472,0.12253949,0.809265242342028
1.167206617,-0.01086132,-0.081307077,0.017158631,0.809265242342028
1.167812311,-0.034811515,-0.076517038,0.098589295,0.809265242342028
1.1684180039999998,0.015483895,0.031258841,-0.205578185,0.809265242342028
1.169023698,-0.168932609,0.050418997,-0.021161682,0.809265242342028
1.169629391,-0.133007316,0.13903472,0.203970154,0.809265242342028
1.1702350849999998,0.070569344,0.009703665,-0.207973205,0.809265242342028
1.170840778,0.046619149,-0.01424653,-0.097802307,0.809265242342028
1.171446472,-0.085106925,0.093529348,-0.160072814,0.809265242342028
1.172052165,0.03943409,-0.059751902,-0.004396545,0.809265242342028
1.172657859,-0.216833,0.043233938,0.215945252,0.809265242342028
1.1732635519999999,-0.11145214,-0.002271433,-0.023556701,0.809265242342028
1.173869246,0.135234871,0.119874563,-0.052296935,0.809265242342028
1.174474939,0.058594246,0.115084524,0.045898865,0.809265242342028
1.1750806329999999,0.101704598,0.08394927,0.112959412,0.809265242342028
1.1756863260000001,0.060989266,0.117479544,0.033923768,0.809265242342028
1.17629202,0.235825692,0.071974173,0.144094666,0.809265242342028
1.1768977139999999,0.070569344,0.091134329,0.103379334,0.809265242342028
1.1775034070000001,0.104099617,0.112689505,0.156069764,0.809265242342028
1.178109101,0.389106942,0.098319388,0.041108826,0.809265242342028
1.178714794,-0.01086132,-0.004666452,-0.083432189,0.809265242342028
1.1793204880000001,-0.092291984,0.098319388,0.000393494,0.809265242342028
1.179926181,0.04182911,0.050418997,-0.239108459,0.809265242342028
1.180531875,0.032249032,-0.054961862,0.194390076,0.809265242342028
1.181137568,-0.245573234,-0.01664155,0.22552533,0.809265242342028
1.181743262,-0.068341789,0.08394927,-0.097802307,0.809265242342028
1.1823489550000001,0.015483895,-0.007061472,0.110564393,0.809265242342028
1.182954649,-0.144982414,-0.023826609,-0.224738342,0.809265242342028
1.1835603419999998,-0.058761711,-0.011851511,0.139304627,0.809265242342028
1.1841660360000001,-0.049181633,0.048023977,0.218340272,0.809265242342028
1.184771729,0.19511036,-0.028616648,-0.016371642,0.809265242342028
1.1853774229999998,0.04182911,-0.06693696,0.053083924,0.809265242342028
1.185983116,0.0897295,0.038443899,-0.071457092,0.809265242342028
1.18658881,-0.11384716,-0.078912058,0.194390076,0.809265242342028
1.187194503,-0.204857902,-0.181897898,0.048293885,0.809265242342028
1.187800197,0.051409188,-0.100467234,-0.033136779,0.809265242342028
1.1884058899999999,-0.041996574,0.016888723,0.292585877,0.809265242342028
1.189011584,-0.104267082,0.093529348,0.206365174,0.8480353255091354
1.189617277,-0.039601554,0.050418997,0.038713807,0.8480353255091354
1.1902229709999999,-0.245573234,-0.110047312,0.376411561,0.8480353255091354
1.190828664,-0.128217277,-0.1699228,0.316536072,0.8480353255091354
1.191434358,-0.104267082,-0.162737741,-0.093012267,0.8480353255091354
1.192040051,-0.415619621,0.03604888,-0.040321838,0.8480353255091354
1.192645745,-0.032416496,-0.088492136,0.251870545,0.8480353255091354
1.193251439,-0.099477043,-0.229798288,0.280610779,0.8480353255091354
1.193857132,-0.11145214,-0.033406687,-0.100197326,0.8480353255091354
1.194462826,-0.046786613,0.1366397,0.168044861,0.8480353255091354
1.1950685189999999,-0.089896965,0.146219778,0.077034119,0.8480353255091354
1.195674213,0.099309578,0.129454641,-0.018766662,0.8480353255091354
1.196279906,-0.085106925,0.098319388,0.12253949,0.8480353255091354
1.1968855999999999,-0.142587394,-0.038196726,0.093799256,0.8480353255091354
1.1974912930000001,0.238220711,-0.150762644,0.069849061,0.8480353255091354
1.198096987,-0.056366691,0.117479544,0.01955365,0.8480353255091354
1.19870268,-0.073131828,0.081554251,0.01955365,0.8480353255091354
1.1993083740000001,-0.015651359,0.071974173,0.132119568,0.8480353255091354
1.199914067,-0.077921867,0.203700247,0.077034119,0.8480353255091354
1.200519761,-0.046786613,-0.100467234,-0.011581603,0.8480353255091354
1.201125454,-0.056366691,-0.062146921,0.333301209,0.8480353255091354
1.201731148,0.24540577,0.091134329,0.338091248,0.8480353255091354
1.202336841,0.154395028,0.088739309,-0.061877014,0.8480353255091354
1.202942535,-0.101872062,-0.136392527,0.017158631,0.8480353255091354
1.2035482279999998,0.015483895,-0.198663034,0.009973572,0.8480353255091354
1.204153922,0.094519539,-0.143577585,-0.097802307,0.8480353255091354
1.204759615,0.04182911,0.03365386,0.065059022,0.8480353255091354
1.2053653089999998,0.0897295,0.059999075,-0.215158264,0.8480353255091354
1.205971002,0.125654793,-0.22021821,0.098589295,0.8480353255091354
1.206576696,0.247800789,0.050418997,0.031528748,0.8480353255091354
1.207182389,0.197505379,0.059999075,0.271030701,0.8480353255091354
1.207788083,0.03943409,-0.059751902,0.098589295,0.8480353255091354
1.2083937759999999,-0.001281242,-0.045381784,-0.124147521,0.8480353255091354
1.20899947,0.049014168,-0.031011667,0.060268983,0.8480353255091354
1.209605164,-0.006071281,-0.054961862,-0.03074176,0.8480353255091354
1.2102108569999999,0.202295418,-0.11962739,0.211155213,0.8480353255091354
1.210816551,-0.0084663,-0.174712839,-0.018766662,0.8480353255091354
1.211422244,-0.001281242,0.000123587,-0.066667053,0.8480353255091354
1.2120279379999999,0.096914559,0.071974173,0.211155213,0.8480353255091354
1.212633631,0.017878914,-0.045381784,-0.042716857,0.8480353255091354
1.213239325,0.037039071,-0.112442331,0.129724549,0.8480353255091354
1.213845018,-0.156957511,0.009703665,0.283005799,0.8480353255091354
1.214450712,-0.16174755,-0.22021821,0.009973572,0.8480353255091354
1.215056405,-0.044391593,-0.028616648,-0.064272033,0.8480353255091354
1.215662099,-0.149772453,-0.021431589,0.053083924,0.8480353255091354
1.216267792,-0.044391593,-0.299253855,0.311746033,0.8480353255091354
1.216873486,0.034644051,-0.122022409,-0.155282775,0.8480353255091354
1.2174791790000001,-0.283893547,0.007308645,-0.097802307,0.8480353255091354
1.218084873,-0.362929191,-0.023826609,-0.013976623,0.8480353255091354
1.218690566,0.034644051,-0.002271433,-0.193603088,0.8480353255091354
1.2192962600000001,-0.144982414,-0.186687937,0.017158631,0.8480353255091354
1.219901953,-0.149772453,-0.165132761,-0.116962463,0.8480353255091354
1.220507647,0.022668953,0.227650442,-0.059481994,0.8480353255091354
1.22111334,-0.092291984,0.165379934,0.127329529,0.8480353255091354
1.221719034,-0.094687004,-0.064541941,0.182414979,0.8480353255091354
1.222324727,-0.058761711,0.024073782,-0.035531799,0.8480353255091354
1.222930421,0.010693856,0.23723052,0.168044861,0.8480353255091354
1.2235361139999998,0.032249032,0.012098684,0.132119568,0.8480353255091354
1.224141808,0.060989266,0.174960013,0.100984315,0.8480353255091354
1.224747502,-0.049181633,0.143824759,0.110564393,0.8480353255091354
1.2253531949999998,0.14002491,-0.01424653,0.02434369,0.8480353255091354
1.225958889,-0.137797355,-0.133997507,0.230315369,0.8480353255091354
1.226564582,-0.018046379,0.026468802,0.012368592,0.8480353255091354
1.2271702759999998,0.082544442,0.165379934,-0.021161682,0.8480353255091354
1.227775969,-0.245573234,0.059999075,0.081824158,0.8480353255091354
1.228381663,-0.01086132,0.110294485,0.112959412,0.8480353255091354
1.228987356,0.135234871,0.155799856,0.160859803,0.8480353255091354
1.22959305,-0.077921867,0.124664602,-0.176837951,0.8480353255091354
1.2301987429999999,-0.034811515,0.134244681,-0.253478576,0.8480353255091354
1.230804437,0.221455575,0.03604888,-0.179232971,0.8480353255091354
1.23141013,0.056199227,0.091134329,0.311746033,0.8480353255091354
1.2320158239999999,0.099309578,0.043233938,0.136909608,0.8480353255091354
1.232621517,0.185530282,-0.004666452,-0.18402301,0.8480353255091354
1.233227211,0.037039071,0.08394927,0.237500428,0.8480353255091354
1.233832904,0.137629891,0.057604056,-0.004396545,0.8480353255091354
1.234438598,0.104099617,-0.002271433,0.079429139,0.8480353255091354
1.235044291,0.003508797,-0.062146921,0.134514588,0.8480353255091354
1.235649985,0.015483895,-0.112442331,0.086614197,0.8480353255091354
1.236255678,-0.130612297,0.012098684,0.199180115,0.8480353255091354
1.236861372,0.013088875,0.074369192,0.01955365,0.8480353255091354
1.2374670650000001,0.084939461,-0.06933198,-0.004396545,0.8480353255091354
1.238072759,-0.123427238,0.141429739,0.249475525,0.8480353255091354
1.2386784519999998,0.04182911,0.280340872,-0.059481994,0.8480353255091354
1.2392841460000001,-0.149772453,0.265970755,-0.03074176,0.8480353255091354
1.239889839,0.025063973,-0.052566843,0.199180115,0.8480353255091354
1.2404955329999998,0.032249032,-0.083702097,0.009973572,0.8480353255091354
1.2411012270000001,-0.039601554,0.095924368,0.170439881,0.8480353255091354
1.24170692,0.065779305,0.165379934,0.287795838,0.8480353255091354
1.242312614,-0.039601554,0.095924368,-0.037926818,0.8480353255091354
1.242918307,0.065779305,0.040838919,0.136909608,0.8480353255091354
1.243524001,-0.039601554,-0.047776804,0.096194275,0.8480353255091354
1.244129694,-0.104267082,-0.033406687,-0.011581603,0.8480353255091354
1.244735388,-0.006071281,0.151009817,-0.02834674,0.8480353255091354
1.2453410809999998,-0.018046379,0.050418997,-0.006791564,0.8480353255091354
1.245946775,-0.030021476,-0.040591745,0.237500428,0.8480353255091354
1.246552468,0.104099617,0.031258841,0.196785096,0.8480353255091354
1.2471581619999998,-0.046786613,0.059999075,0.134514588,0.8480353255091354
1.247763855,-0.022836418,-0.083702097,-0.150492736,0.8480353255091354
1.248369549,-0.027626457,-0.133997507,-0.114567443,0.8480353255091354
1.248975242,-0.058761711,-0.031011667,-0.205578185,0.8480353255091354
1.249580936,0.190320321,-0.019036569,-0.018766662,0.8480353255091354
1.2501866289999999,-0.025231437,0.153404837,0.100984315,0.8480353255091354
1.250792323,-0.118637199,0.182145071,-0.059481994,0.8480353255091354
1.251398016,-0.178512687,-0.131602487,0.084219178,0.8480353255091354
1.2520037099999999,-0.171327629,0.172564993,-0.002001525,0.8480353255091354
1.2526094030000001,0.108889657,0.055209036,0.12493451,0.8480353255091354
1.253215097,-0.228808097,0.067184134,0.129724549,0.8480353255091354
1.25382079,-0.125822258,0.038443899,0.112959412,0.8480353255091354
1.2544264840000001,0.168765145,-0.100467234,0.146489686,0.8480353255091354
1.255032177,-0.053971672,0.002518606,0.170439881,0.8480353255091354
1.255637871,0.096914559,-0.181897898,-0.059481994,0.8480353255091354
1.2562435650000001,0.118469735,-0.145972605,-0.040321838,0.8480353255091354
1.256849258,0.001113778,-0.078912058,-0.052296935,0.8480353255091354
1.257454952,-0.0084663,-0.033406687,0.057873963,0.8480353255091354
1.258060645,-0.082711906,-0.009456491,0.27582074,0.8480353255091354
1.258666339,-0.077921867,-0.047776804,0.002788514,0.8480353255091354
1.259272032,-0.149772453,-0.133997507,0.165649842,0.8480353255091354
1.259877726,0.128049813,-0.076517038,-0.18162799,0.8480353255091354
1.2604834189999998,0.099309578,0.100714407,-0.521720764,0.8480353255091354
1.261089113,-0.144982414,-0.019036569,0.465027283,0.8480353255091354
1.261694806,-0.046786613,-0.074122019,0.302165955,0.8480353255091354
1.2623004999999998,0.058594246,-0.126812448,-0.150492736,0.8480353255091354
1.262906193,0.020273934,-0.126812448,0.033923768,0.8480353255091354
1.263511887,-0.092291984,0.031258841,-0.059481994,0.8480353255091354
1.26411758,-0.185697746,0.014493704,0.139304627,0.8480353255091354
1.264723274,-0.041996574,-0.007061472,0.084219178,0.8480353255091354
1.2653289669999999,0.281331063,-0.172317819,0.110564393,0.8480353255091354
1.265934661,-0.018046379,0.098319388,0.249475525,0.8480353255091354
1.266540354,-0.11145214,-0.028616648,0.153674744,0.8480353255091354
1.2671460479999999,-0.173722648,0.024073782,-0.049901916,0.8480353255091354
1.267751741,0.108889657,0.225255423,0.170439881,0.8480353255091354
1.268357435,0.135234871,-0.093282175,0.065059022,0.8480353255091354
1.268963128,-0.168932609,0.043233938,-0.248688537,0.8480353255091354
1.269568822,0.252590828,0.131849661,0.098589295,0.8480353255091354
1.270174515,-0.044391593,0.062394095,0.089009217,0.8480353255091354
1.270780209,-0.377299308,0.098319388,0.050688904,0.8480353255091354
1.271385902,-0.058761711,-0.040591745,-0.002001525,0.8480353255091354
1.271991596,-0.049181633,-0.162737741,-0.011581603,0.8480353255091354
1.27259729,-0.21443798,0.124664602,-0.004396545,0.8480353255091354
1.273202983,0.001113778,0.110294485,0.057873963,0.8480353255091354
1.273808677,-0.065946769,0.074369192,0.309351014,0.8480353255091354
1.2744143700000001,-0.041996574,0.021678763,0.103379334,0.8480353255091354
1.275020064,0.135234871,-0.011851511,0.165649842,0.8480353255091354
1.275625757,-0.041996574,0.122269583,0.191995057,0.8480353255091354
1.2762314510000001,-0.171327629,-0.124417429,0.261450623,0.8480353255091354
1.276837144,0.005903817,-0.296858835,-0.011581603,0.8480353255091354
1.277442838,-0.068341789,-0.124417429,-0.107382385,0.8480353255091354
1.278048531,0.03943409,0.021678763,-0.152887756,0.8480353255091354
1.278654225,0.101704598,0.069579153,-0.066667053,0.8480353255091354
1.279259918,-0.032416496,0.160589895,0.211155213,0.8480353255091354
1.279865612,-0.101872062,0.177355032,0.136909608,0.8480353255091354
1.2804713049999998,-0.144982414,0.019283743,0.0746391,0.8480353255091354
1.281076999,-0.104267082,0.093529348,0.07224408,0.8480353255091354
1.281682692,-0.109057121,-0.047776804,-0.119357482,0.8480353255091354
1.2822883859999998,-0.070736808,-0.019036569,-0.045111877,0.8480353255091354
1.282894079,-0.015651359,0.174960013,0.287795838,0.8480353255091354
1.283499773,0.096914559,-0.026221628,0.187205018,0.8480353255091354
1.284105466,-0.049181633,-0.045381784,0.345276307,0.8480353255091354
1.28471116,0.264565926,-0.088492136,0.294980897,0.8480353255091354
1.2853168529999999,0.017878914,-0.083702097,0.273425721,0.8480353255091354
1.285922547,-0.099477043,0.038443899,0.117749451,0.8480353255091354
1.28652824,0.104099617,-0.054961862,0.223130311,0.8480353255091354
1.2871339339999999,-0.044391593,-0.071726999,0.184809998,0.8480353255091354
1.287739627,-0.058761711,-0.026221628,0.041108826,0.8480353255091354
1.288345321,-0.06115673,-0.033406687,0.184809998,0.8480353255091354
1.2889510149999999,0.044224129,-0.019036569,0.065059022,1.147271349114852
1.289556708,-0.097082023,0.002518606,-0.157677795,1.147271349114852
1.290162402,0.101704598,-0.124417429,-0.322934142,1.147271349114852
1.290768095,0.094519539,-0.059751902,-0.064272033,1.147271349114852
1.291373789,-0.094687004,0.076764212,0.548852967,1.147271349114852
1.291979482,0.101704598,0.095924368,0.369226502,1.147271349114852
1.292585176,-0.259943351,-0.019036569,-0.229528381,1.147271349114852
1.293190869,0.065779305,0.050418997,-0.172047912,1.147271349114852
1.293796563,0.197505379,0.153404837,0.160859803,1.147271349114852
1.2944022560000001,-0.142587394,0.071974173,0.206365174,1.147271349114852
1.29500795,0.010693856,0.012098684,-0.037926818,1.147271349114852
1.295613643,-0.140192375,0.107899466,0.048293885,1.147271349114852
1.2962193370000001,0.017878914,-0.01424653,-0.057086975,1.147271349114852
1.29682503,-0.020441398,-0.133997507,0.081824158,1.147271349114852
1.297430724,0.072964364,0.071974173,-0.002001525,1.147271349114852
1.298036417,-0.104267082,0.03365386,0.089009217,1.147271349114852
1.298642111,-0.097082023,0.151009817,0.153674744,1.147271349114852
1.299247804,0.113679696,0.002518606,0.0746391,1.147271349114852
1.299853498,0.154395028,-0.16752778,0.206365174,1.147271349114852
1.3004591909999998,0.173555184,-0.086097116,-0.064272033,1.147271349114852
1.301064885,-0.092291984,-0.004666452,-0.116962463,1.147271349114852
1.301670578,0.111284676,0.019283743,0.156069764,1.147271349114852
1.3022762719999998,0.120864754,0.103109427,0.263845643,1.147271349114852
1.302881965,-0.022836418,0.124664602,0.134514588,1.147271349114852
1.303487659,-0.16414257,0.055209036,0.235105408,1.147271349114852
1.3040933529999998,-0.101872062,-0.054961862,0.031528748,1.147271349114852
1.304699046,-0.097082023,-0.150762644,0.180019959,1.147271349114852
1.30530474,-0.053971672,-0.052566843,0.057873963,1.147271349114852
1.305910433,0.063384285,-0.098072214,0.096194275,1.147271349114852
1.306516127,-0.142587394,0.012098684,0.182414979,1.147271349114852
1.3071218199999999,0.020273934,-0.074122019,-0.002001525,1.147271349114852
1.307727514,0.09212452,-0.081307077,0.371621522,1.147271349114852
1.308333207,-0.058761711,-0.042986765,0.105774354,1.147271349114852
1.3089389009999999,0.099309578,-0.150762644,-0.052296935,1.147271349114852
1.3095445940000001,0.197505379,0.127059622,0.045898865,1.147271349114852
1.310150288,-0.073131828,-0.277698679,-0.033136779,1.147271349114852
1.310755981,-0.255153312,-0.160342722,-0.025951721,1.147271349114852
1.3113616750000001,0.051409188,0.057604056,0.048293885,1.147271349114852
1.311967368,-0.041996574,-0.06693696,0.144094666,1.147271349114852
1.312573062,-0.01325634,-0.074122019,0.069849061,1.147271349114852
1.313178755,0.274146004,0.055209036,0.01955365,1.147271349114852
1.313784449,0.044224129,-0.033406687,0.0746391,1.147271349114852
1.314390142,0.178345223,-0.153157663,-0.040321838,1.147271349114852
1.314995836,-0.027626457,-0.265723581,-0.061877014,1.147271349114852
1.3156015289999998,-0.219228019,-0.110047312,-0.162467834,1.147271349114852
1.3162072230000001,0.013088875,0.055209036,0.141699647,1.147271349114852
1.316812916,0.060989266,0.100714407,0.43149701,1.147271349114852
1.3174186099999998,0.075359383,0.048023977,0.259055604,1.147271349114852
1.318024303,0.032249032,-0.165132761,-0.006791564,1.147271349114852
1.318629997,-0.06355175,0.045628958,0.194390076,1.147271349114852
1.31923569,0.058594246,-0.098072214,0.091404236,1.147271349114852
1.319841384,0.065779305,-0.225008249,-0.174442932,1.147271349114852
1.320447078,-0.087501945,-0.057356882,-0.38759967,1.147271349114852
1.321052771,-0.006071281,0.100714407,-0.425919982,1.147271349114852
1.321658465,0.108889657,-0.098072214,0.333301209,1.147271349114852
1.3222641579999999,0.032249032,-0.110047312,0.338091248,1.147271349114852
1.322869852,0.154395028,-0.057356882,-0.093012267,1.147271349114852
1.323475545,-0.044391593,-0.059751902,0.220735291,1.147271349114852
1.3240812389999999,-0.228808097,0.088739309,0.108169373,1.147271349114852
1.324686932,-0.092291984,0.045628958,-0.097802307,1.147271349114852
1.325292626,0.087334481,-0.174712839,0.211155213,1.147271349114852
1.325898319,0.101704598,-0.162737741,-0.021161682,1.147271349114852
1.326504013,0.152000008,-0.112442331,-0.167257873,1.147271349114852
1.327109706,0.209480477,-0.009456491,0.089009217,1.147271349114852
1.3277154,-0.231203117,-0.193872995,-0.02834674,1.147271349114852
1.328321093,-0.034811515,-0.011851511,-0.116962463,1.147271349114852
1.3289267869999999,-0.099477043,0.100714407,0.033923768,1.147271349114852
1.3295324800000001,0.013088875,0.002518606,-0.18162799,1.147271349114852
1.330138174,0.072964364,-0.064541941,0.031528748,1.147271349114852
1.330743867,0.053804207,0.026468802,0.180019959,1.147271349114852
1.3313495610000001,0.113679696,-0.023826609,0.057873963,1.147271349114852
1.331955254,-0.030021476,-0.047776804,0.014763611,1.147271349114852
1.332560948,-0.137797355,0.048023977,0.189600037,1.147271349114852
1.333166641,-0.209647941,-0.210638132,0.060268983,1.147271349114852
1.333772335,0.159185067,-0.193872995,-0.279823791,1.147271349114852
1.334378028,0.010693856,-0.081307077,0.031528748,1.147271349114852
1.334983722,0.008298836,0.091134329,0.158464783,1.147271349114852
1.335589416,-0.025231437,0.009703665,0.093799256,1.147271349114852
1.336195109,-0.310238761,0.052814016,0.060268983,1.147271349114852
1.336800803,-0.252758293,0.045628958,0.036318787,1.147271349114852
1.3374064959999998,-0.16653759,0.040838919,0.242290467,1.147271349114852
1.33801219,-0.044391593,0.088739309,0.182414979,1.147271349114852
1.338617883,-0.140192375,0.021678763,-0.023556701,1.147271349114852
1.3392235769999998,-0.075526847,-0.021431589,0.014763611,1.147271349114852
1.33982927,-0.094687004,0.007308645,0.067454041,1.147271349114852
1.340434964,-0.089896965,0.091134329,-0.002001525,1.147271349114852
1.341040657,0.087334481,-0.021431589,-0.124147521,1.147271349114852
1.341646351,-0.11384716,0.08634429,0.160859803,1.147271349114852
1.3422520439999999,0.104099617,-0.078912058,0.012368592,1.147271349114852
1.342857738,-0.135402336,-0.136392527,0.081824158,1.147271349114852
1.343463431,-0.303053703,-0.01664155,0.12493451,1.147271349114852
1.3440691249999999,-0.097082023,-0.086097116,0.096194275,1.147271349114852
1.344674818,0.013088875,-0.131602487,0.160859803,1.147271349114852
1.345280512,0.187925301,-0.203453073,-0.23431842,1.147271349114852
1.345886205,0.013088875,0.18693511,-0.145702697,1.147271349114852
1.346491899,-0.106662101,0.1366397,0.065059022,1.147271349114852
1.347097592,0.04182911,0.012098684,0.067454041,1.147271349114852
1.347703286,0.283726082,0.062394095,-0.025951721,1.147271349114852
1.348308979,0.051409188,-0.074122019,0.163254822,1.147271349114852
1.348914673,0.025063973,-0.038196726,0.103379334,1.147271349114852
1.3495203660000001,0.04182911,0.062394095,-0.059481994,1.147271349114852
1.35012606,-0.082711906,-0.332784128,0.266240662,1.147271349114852
1.350731753,0.09212452,-0.189082956,-0.057086975,1.147271349114852
1.3513374470000001,0.04182911,0.210885306,-0.325329162,1.147271349114852
1.351943141,-0.116242179,-0.141182566,0.591963318,1.147271349114852
1.352548834,0.049014168,-0.035801706,0.014763611,1.147271349114852
1.3531545280000001,0.130444832,-0.074122019,-0.260663635,1.147271349114852
1.353760221,-0.176117668,-0.026221628,0.266240662,1.147271349114852
1.354365915,-0.01325634,0.055209036,0.043503846,1.147271349114852
1.354971608,0.034644051,0.091134329,-0.009186584,1.147271349114852
1.355577302,-0.147377433,0.134244681,0.151279725,1.147271349114852
1.356182995,-0.01086132,0.014493704,0.17762494,1.147271349114852
1.356788689,-0.046786613,-0.01664155,0.249475525,1.147271349114852
1.3573943819999998,-0.180907707,0.071974173,0.189600037,1.147271349114852
1.358000076,-0.135402336,0.069579153,0.026738709,1.147271349114852
1.358605769,-0.0084663,-0.076517038,0.127329529,1.147271349114852
1.3592114629999998,-0.015651359,-0.023826609,0.182414979,1.147271349114852
1.359817156,-0.089896965,-0.126812448,0.100984315,1.147271349114852
1.36042285,-0.006071281,0.024073782,-0.148097717,1.147271349114852
1.361028543,-0.085106925,0.191725149,0.110564393,1.147271349114852
1.361634237,-0.075526847,0.009703665,-0.1337276,1.147271349114852
1.3622399299999999,0.226245614,-0.172317819,-0.160072814,1.147271349114852
1.362845624,0.135234871,0.052814016,0.060268983,1.147271349114852
1.363451317,0.003508797,0.081554251,-0.212763244,1.147271349114852
1.3640570109999999,0.104099617,-0.028616648,-0.004396545,1.147271349114852
1.3646627040000001,0.022668953,-0.031011667,0.170439881,1.147271349114852
1.365268398,0.226245614,-0.019036569,0.132119568,1.147271349114852
1.365874091,0.247800789,-0.110047312,0.110564393,1.147271349114852
1.3664797850000001,-0.154562492,0.03365386,0.191995057,1.147271349114852
1.367085478,-0.245573234,0.198910208,0.103379334,1.147271349114852
1.367691172,-0.240783195,-0.038196726,0.141699647,1.147271349114852
1.3682968660000001,-0.073131828,0.007308645,0.093799256,1.147271349114852
1.368902559,0.120864754,-0.205848093,0.036318787,1.147271349114852
1.369508253,-0.077921867,-0.083702097,0.0746391,1.147271349114852
1.370113946,-0.01086132,0.162984915,0.005183533,1.147271349114852
1.37071964,-0.001281242,-0.059751902,0.232710389,1.147271349114852
1.3713253330000001,-0.075526847,-0.136392527,0.156069764,1.147271349114852
1.371931027,-0.104267082,-0.01664155,-0.085827209,1.147271349114852
1.3725367199999998,-0.109057121,-0.122022409,0.112959412,1.147271349114852
1.3731424140000001,0.087334481,-0.01664155,-0.009186584,1.147271349114852
1.373748107,-0.056366691,-0.189082956,0.062664002,1.147271349114852
1.3743538009999998,0.020273934,-0.287278757,0.12493451,1.147271349114852
1.374959494,-0.123427238,0.198910208,-0.018766662,1.147271349114852
1.375565188,-0.128217277,0.016888723,-0.045111877,1.147271349114852
1.376170881,-0.068341789,-0.143577585,0.0746391,1.147271349114852
1.376776575,-0.154562492,0.043233938,0.005183533,1.147271349114852
1.3773822679999999,-0.051576652,0.064789114,0.029133729,1.147271349114852
1.377987962,0.152000008,0.016888723,0.12493451,1.147271349114852
1.378593655,0.116074715,0.172564993,0.22792035,1.147271349114852
1.3791993489999999,-0.121032218,0.000123587,0.203970154,1.147271349114852
1.379805042,-0.130612297,0.095924368,-0.251083557,1.147271349114852
1.380410736,-0.226413078,-0.059751902,0.091404236,1.147271349114852
1.381016429,-0.116242179,-0.06933198,0.239895447,1.147271349114852
1.381622123,0.19511036,0.105504446,0.385991639,1.147271349114852
1.3822278159999999,0.120864754,-0.057356882,0.196785096,1.147271349114852
1.38283351,-0.101872062,0.076764212,-0.035531799,1.147271349114852
1.383439204,-0.202462883,-0.093282175,0.180019959,1.147271349114852
1.3840448969999999,-0.065946769,-0.160342722,0.158464783,1.147271349114852
1.384650591,0.09212452,0.122269583,0.093799256,1.147271349114852
1.385256284,-0.025231437,0.067184134,0.012368592,1.147271349114852
1.3858619779999999,0.068174325,-0.258538523,0.191995057,1.147271349114852
1.3864676710000001,0.015483895,-0.11723237,0.148884705,1.147271349114852
1.387073365,-0.144982414,-0.031011667,-0.002001525,1.147271349114852
1.387679058,-0.116242179,0.059999075,0.067454041,1.147271349114852
1.3882847520000001,-0.293473625,0.019283743,0.110564393,1.147271349114852
1.388890445,-0.219228019,-0.011851511,0.148884705,0.8929234962082417
1.389496139,-0.06355175,0.055209036,0.191995057,0.8929234962082417
1.390101832,-0.123427238,-0.033406687,0.117749451,0.8929234962082417
1.390707526,-0.027626457,0.038443899,0.086614197,0.8929234962082417
1.391313219,0.065779305,-0.124417429,0.17522992,0.8929234962082417
1.391918913,-0.121032218,0.009703665,0.1728349,0.8929234962082417
1.3925246059999998,-0.221623039,0.134244681,-0.049901916,0.8929234962082417
1.3931303,-0.209647941,0.105504446,0.201575135,0.8929234962082417
1.393735993,0.159185067,0.055209036,0.120144471,0.8929234962082417
1.3943416869999998,0.123259774,-0.181897898,0.041108826,0.8929234962082417
1.39494738,0.044224129,0.024073782,0.117749451,0.8929234962082417
1.395553074,0.132839852,0.134244681,0.077034119,0.8929234962082417
1.396158767,-0.030021476,0.014493704,0.182414979,0.8929234962082417
1.396764461,-0.056366691,-0.064541941,0.053083924,0.8929234962082417
1.3973701539999999,-0.085106925,0.158194876,0.041108826,0.8929234962082417
1.397975848,-0.142587394,-0.093282175,-0.064272033,0.8929234962082417
1.398581541,-0.104267082,-0.203453073,0.244685486,0.8929234962082417
1.3991872349999999,-0.018046379,-0.150762644,-0.03074176,0.8929234962082417
1.399792929,-0.156957511,-0.107652292,-0.138517639,0.8929234962082417
1.400398622,-0.154562492,0.100714407,0.22552533,0.8929234962082417
1.4010043159999999,-0.130612297,0.08394927,0.036318787,0.8929234962082417
1.401610009,0.046619149,0.014493704,-0.025951721,0.8929234962082417
1.402215703,0.302886239,-0.11962739,0.196785096,0.8929234962082417
1.402821396,0.128049813,0.028863821,-0.033136779,0.8929234962082417
1.40342709,-0.085106925,0.107899466,-0.035531799,0.8929234962082417
1.404032783,0.003508797,0.203700247,0.02194867,0.8929234962082417
1.404638477,0.240615731,0.13903472,0.108169373,0.8929234962082417
1.40524417,0.159185067,0.012098684,0.1728349,0.8929234962082417
1.405849864,0.044224129,-0.083702097,0.014763611,0.8929234962082417
1.4064555570000001,-0.003676261,0.002518606,-0.047506896,0.8929234962082417
1.407061251,0.03943409,-0.021431589,-0.071457092,0.8929234962082417
1.407666944,0.068174325,-0.150762644,0.026738709,0.8929234962082417
1.4082726380000001,0.037039071,0.071974173,-0.076247131,0.8929234962082417
1.408878331,0.080149422,0.057604056,0.127329529,0.8929234962082417
1.409484025,-0.06355175,0.067184134,0.036318787,0.8929234962082417
1.410089718,0.204690438,-0.213033152,-0.207973205,0.8929234962082417
1.410695412,0.104099617,-0.282488718,0.647048768,0.8929234962082417
1.411301105,-0.020441398,-0.031011667,0.721294373,0.8929234962082417
1.411906799,-0.051576652,0.014493704,0.206365174,0.8929234962082417
1.4125124919999998,-0.224018058,0.028863821,0.242290467,0.8929234962082417
1.413118186,-0.015651359,-0.308833933,0.139304627,0.8929234962082417
1.413723879,-0.159352531,-0.090887155,-0.006791564,0.8929234962082417
1.4143295729999998,-0.173722648,-0.047776804,0.1728349,0.8929234962082417
1.414935267,0.087334481,-0.064541941,0.017158631,0.8929234962082417
1.41554096,-0.159352531,-0.040591745,-0.205578185,0.8929234962082417
1.4161466539999998,-0.046786613,-0.081307077,0.261450623,0.8929234962082417
1.416752347,0.070569344,0.024073782,0.316536072,0.8929234962082417
1.417358041,-0.044391593,0.03365386,0.0746391,0.8929234962082417
1.417963734,-0.022836418,0.004913626,0.014763611,0.8929234962082417
1.418569428,-0.06115673,-0.033406687,-0.011581603,0.8929234962082417
1.4191751209999999,0.020273934,0.162984915,-0.095407287,0.8929234962082417
1.419780815,-0.068341789,-0.074122019,0.132119568,0.8929234962082417
1.420386508,0.072964364,0.064789114,0.156069764,0.8929234962082417
1.4209922019999999,0.001113778,0.220465384,0.218340272,0.8929234962082417
1.4215978950000001,0.037039071,-0.124417429,0.153674744,0.8929234962082417
1.422203589,0.341206551,-0.035801706,-0.049901916,0.8929234962082417
1.422809282,0.065779305,0.040838919,-0.373229553,0.8929234962082417
1.423414976,0.14002491,0.043233938,0.115354432,0.8929234962082417
1.424020669,-0.080316886,0.18933013,0.357251404,0.8929234962082417
1.424626363,-0.077921867,-0.011851511,0.036318787,0.8929234962082417
1.425232056,0.044224129,-0.06693696,0.189600037,0.8929234962082417
1.42583775,0.235825692,-0.042986765,0.050688904,0.8929234962082417
1.4264434430000001,0.185530282,0.031258841,0.01955365,0.8929234962082417
1.427049137,0.116074715,-0.019036569,0.120144471,0.8929234962082417
1.4276548299999998,0.027458992,0.059999075,0.086614197,0.8929234962082417
1.4282605240000001,-0.06115673,0.019283743,0.098589295,0.8929234962082417
1.428866217,-0.01325634,-0.019036569,0.247080506,0.8929234962082417
1.4294719109999998,-0.171327629,-0.062146921,-0.069062072,0.8929234962082417
1.430077604,-0.039601554,0.067184134,0.089009217,0.8929234962082417
1.430683298,-0.094687004,0.160589895,0.254265565,0.8929234962082417
1.431288992,-0.080316886,-0.241773386,0.050688904,0.8929234962082417
1.431894685,-0.020441398,-0.102862253,-0.013976623,0.8929234962082417
1.432500379,-0.085106925,-0.028616648,0.201575135,0.8929234962082417
1.433106072,0.003508797,0.012098684,0.235105408,0.8929234962082417
1.433711766,0.204690438,-0.047776804,0.009973572,0.8929234962082417
1.4343174589999999,-0.11384716,0.117479544,0.026738709,0.8929234962082417
1.434923153,-0.032416496,-0.040591745,0.249475525,0.8929234962082417
1.435528846,-0.053971672,-0.081307077,0.235105408,0.8929234962082417
1.4361345399999998,0.223850594,0.026468802,0.098589295,0.8929234962082417
1.436740233,-0.032416496,0.031258841,0.256660584,0.8929234962082417
1.437345927,-0.16653759,0.014493704,0.093799256,0.8929234962082417
1.43795162,0.094519539,-0.064541941,-0.1337276,0.8929234962082417
1.438557314,0.008298836,0.115084524,0.077034119,0.8929234962082417
1.4391630069999999,-0.16174755,-0.210638132,0.352461365,0.8929234962082417
1.439768701,-0.240783195,0.000123587,-0.047506896,0.8929234962082417
1.440374394,-0.094687004,0.048023977,-0.059481994,0.8929234962082417
1.4409800879999999,-0.192882804,-0.074122019,-0.176837951,0.8929234962082417
1.4415857810000001,-0.058761711,0.03365386,0.37880658,0.8929234962082417
1.442191475,-0.173722648,-0.019036569,0.249475525,0.8929234962082417
1.442797168,0.084939461,0.13903472,-0.272638732,0.8929234962082417
1.4434028620000001,0.034644051,-0.081307077,0.182414979,0.8929234962082417
1.444008555,-0.135402336,0.024073782,-0.351674377,0.8929234962082417
1.444614249,0.058594246,0.031258841,-0.066667053,0.8929234962082417
1.445219942,0.132839852,0.038443899,-0.047506896,0.8929234962082417
1.445825636,-0.0084663,0.124664602,0.017158631,0.8929234962082417
1.446431329,-0.025231437,-0.081307077,0.029133729,0.8929234962082417
1.447037023,-0.001281242,-0.145972605,-0.203183166,0.8929234962082417
1.447642717,0.106494637,0.012098684,0.067454041,0.8929234962082417
1.44824841,0.111284676,0.165379934,0.041108826,0.8929234962082417
1.448854104,0.005903817,-0.131602487,0.014763611,0.8929234962082417
1.4494597969999998,0.274146004,0.117479544,-0.227133361,0.8929234962082417
1.450065491,0.001113778,0.184540091,0.096194275,0.8929234962082417
1.450671184,-0.144982414,-0.145972605,-0.033136779,0.8929234962082417
1.4512768779999998,-0.034811515,0.112689505,-0.116962463,0.8929234962082417
1.451882571,0.072964364,-0.086097116,0.077034119,0.8929234962082417
1.452488265,0.125654793,-0.083702097,0.002788514,0.8929234962082417
1.453093958,0.044224129,0.040838919,0.041108826,0.8929234962082417
1.453699652,-0.073131828,-0.203453073,-0.016371642,0.8929234962082417
1.4543053449999999,0.005903817,0.052814016,-0.124147521,0.8929234962082417
1.454911039,0.235825692,0.206095266,-0.052296935,0.8929234962082417
1.455516732,0.183135262,-0.102862253,0.338091248,0.8929234962082417
1.4561224259999999,0.03943409,-0.086097116,0.129724549,0.8929234962082417
1.456728119,0.058594246,-0.028616648,0.22552533,0.8929234962082417
1.457333813,-0.022836418,0.069579153,0.148884705,0.8929234962082417
1.457939506,-0.173722648,0.206095266,-0.023556701,0.8929234962082417
1.4585452,0.053804207,-0.081307077,0.060268983,0.8929234962082417
1.459150893,-0.022836418,-0.06693696,0.105774354,0.8929234962082417
1.459756587,-0.073131828,-0.054961862,0.199180115,0.8929234962082417
1.46036228,0.075359383,0.038443899,0.055478943,0.8929234962082417
1.460967974,0.04182911,0.079159231,-0.049901916,0.8929234962082417
1.4615736670000001,0.154395028,0.040838919,-0.157677795,0.8929234962082417
1.462179361,0.044224129,-0.002271433,0.084219178,0.8929234962082417
1.462785055,-0.106662101,-0.155552683,0.132119568,0.8929234962082417
1.4633907480000001,0.099309578,-0.095677194,0.055478943,0.8929234962082417
1.463996442,-0.130612297,-0.179502878,0.029133729,0.8929234962082417
1.464602135,-0.11145214,-0.021431589,-0.090617248,0.8929234962082417
1.4652078290000001,-0.116242179,-0.004666452,0.182414979,0.8929234962082417
1.465813522,-0.089896965,-0.22021821,0.02194867,0.8929234962082417
1.466419216,0.075359383,-0.038196726,-0.047506896,0.8929234962082417
1.467024909,0.0897295,0.052814016,0.043503846,0.8929234962082417
1.467630603,0.022668953,0.045628958,0.060268983,0.8929234962082417
1.468236296,-0.058761711,0.007308645,0.321326111,0.8929234962082417
1.46884199,0.04182911,0.179750052,0.153674744,0.8929234962082417
1.4694476829999998,-0.049181633,0.184540091,-0.016371642,0.8929234962082417
1.470053377,0.046619149,0.03604888,-0.260663635,0.8929234962082417
1.47065907,-0.030021476,0.014493704,-0.174442932,0.8929234962082417
1.4712647639999998,-0.068341789,0.064789114,0.488977479,0.8929234962082417
1.471870457,0.03943409,-0.028616648,0.093799256,0.8929234962082417
1.472476151,0.056199227,-0.06933198,0.103379334,0.8929234962082417
1.473081844,-0.01325634,0.016888723,0.323721131,0.8929234962082417
1.473687538,-0.044391593,0.08394927,0.208760193,0.8929234962082417
1.4742932309999999,0.022668953,0.208490286,0.354856385,0.8929234962082417
1.474898925,-0.104267082,0.122269583,0.333301209,0.8929234962082417
1.475504618,-0.027626457,0.067184134,0.314141053,0.8929234962082417
1.4761103119999999,-0.11384716,0.115084524,0.100984315,0.8929234962082417
1.476716005,0.034644051,0.014493704,0.098589295,0.8929234962082417
1.477321699,0.070569344,-0.028616648,0.180019959,0.8929234962082417
1.477927392,-0.001281242,-0.045381784,0.191995057,0.8929234962082417
1.478533086,0.001113778,0.021678763,0.026738709,0.8929234962082417
1.47913878,-0.307843742,-0.06933198,-0.006791564,0.8929234962082417
1.479744473,0.175950203,-0.198663034,0.115354432,0.8929234962082417
1.480350167,0.099309578,0.08394927,0.201575135,0.8929234962082417
1.48095586,-0.156957511,0.048023977,0.144094666,0.8929234962082417
1.481561554,0.120864754,-0.042986765,0.026738709,0.8929234962082417
1.482167247,-0.089896965,-0.081307077,0.105774354,0.8929234962082417
1.482772941,-0.015651359,-0.280093698,0.005183533,0.8929234962082417
1.4833786340000001,-0.11145214,0.014493704,0.086614197,0.8929234962082417
1.483984328,-0.298263664,-0.004666452,0.02194867,0.8929234962082417
1.484590021,0.022668953,-0.162737741,-0.08103717,0.8929234962082417
1.4851957150000001,0.022668953,-0.011851511,-0.023556701,0.8929234962082417
1.485801408,-0.11384716,0.009703665,0.251870545,0.8929234962082417
1.486407102,-0.056366691,-0.138787546,0.108169373,0.8929234962082417
1.487012795,-0.015651359,-0.172317819,-0.143307678,0.8929234962082417
1.487618489,-0.202462883,-0.059751902,0.151279725,0.8929234962082417
1.488224182,-0.0084663,-0.078912058,-0.025951721,0.8929234962082417
1.488829876,-0.015651359,0.069579153,-0.004396545,0.9664560492444443
1.4894355689999998,0.070569344,0.170169973,0.230315369,0.9664560492444443
1.490041263,0.013088875,0.002518606,0.079429139,0.9664560492444443
1.490646956,-0.015651359,-0.042986765,0.057873963,0.9664560492444443
1.4912526499999998,0.015483895,0.009703665,0.093799256,0.9664560492444443
1.491858343,-0.142587394,-0.035801706,0.012368592,0.9664560492444443
1.492464037,-0.025231437,-0.131602487,0.249475525,0.9664560492444443
1.49306973,-0.025231437,-0.112442331,-0.08103717,0.9664560492444443
1.493675424,-0.034811515,-0.06693696,0.065059022,0.9664560492444443
1.494281118,-0.109057121,-0.098072214,0.180019959,0.9664560492444443
1.494886811,-0.003676261,0.194120169,-0.033136779,0.9664560492444443
1.495492505,-0.097082023,0.028863821,0.146489686,0.9664560492444443
1.4960981979999999,0.034644051,0.016888723,0.012368592,0.9664560492444443
1.496703892,-0.156957511,0.002518606,0.158464783,0.9664560492444443
1.497309585,-0.049181633,0.012098684,0.115354432,0.9664560492444443
1.4979152789999999,0.228640633,0.198910208,-0.035531799,0.9664560492444443
1.4985209720000001,-0.16414257,0.08394927,0.110564393,0.9664560492444443
1.499126666,-0.068341789,0.03604888,0.112959412,0.9664560492444443
1.499732359,-0.020441398,-0.090887155,0.045898865,0.9664560492444443
1.5003380530000001,0.005903817,0.155799856,0.541667908,0.9664560492444443
1.500943746,-0.01325634,0.124664602,0.002788514,0.9664560492444443
1.50154944,-0.058761711,0.009703665,0.144094666,0.9664560492444443
1.502155133,-0.037206535,0.131849661,0.1728349,0.9664560492444443
1.502760827,0.017878914,0.08394927,0.005183533,0.9664560492444443
1.50336652,-0.032416496,-0.019036569,0.184809998,0.9664560492444443
1.503972214,-0.144982414,0.004913626,-0.037926818,0.9664560492444443
1.5045779069999998,-0.056366691,0.146219778,-0.100197326,0.9664560492444443
1.5051836010000001,0.008298836,-0.052566843,0.112959412,0.9664560492444443
1.505789294,0.008298836,0.263575735,0.215945252,0.9664560492444443
1.5063949879999998,-0.06115673,0.172564993,-0.148097717,0.9664560492444443
1.507000681,-0.001281242,-0.217823191,0.01955365,0.9664560492444443
1.507606375,0.005903817,-0.076517038,-0.126542541,0.9664560492444443
1.508212068,0.034644051,0.167774954,-0.061877014,0.9664560492444443
1.508817762,0.015483895,0.069579153,-0.059481994,0.9664560492444443
1.5094234549999999,-0.130612297,-0.045381784,0.17762494,0.9664560492444443
1.510029149,-0.089896965,0.23723052,0.139304627,0.9664560492444443
1.510634843,0.053804207,0.1366397,-0.073852111,0.9664560492444443
1.5112405359999999,0.025063973,-0.021431589,0.014763611,0.9664560492444443
1.51184623,0.065779305,0.141429739,0.249475525,0.9664560492444443
1.512451923,-0.121032218,0.165379934,0.110564393,0.9664560492444443
1.5130576169999999,0.017878914,-0.007061472,-0.112172424,0.9664560492444443
1.51366331,0.425032235,0.088739309,0.242290467,0.9664560492444443
1.514269004,-0.116242179,0.179750052,-0.033136779,0.9664560492444443
1.514874697,-0.056366691,0.062394095,-0.126542541,0.9664560492444443
1.515480391,0.108889657,-0.229798288,0.254265565,0.9664560492444443
1.516086084,-0.116242179,-0.122022409,-0.083432189,0.9664560492444443
1.516691778,-0.475495109,0.131849661,-0.07864215,0.9664560492444443
1.517297471,-0.16174755,-0.153157663,-0.104987365,0.9664560492444443
1.5179031649999999,0.080149422,-0.038196726,-0.155282775,0.9664560492444443
1.5185088580000001,-0.109057121,0.074369192,0.105774354,0.9664560492444443
1.519114552,0.111284676,-0.193872995,0.321326111,0.9664560492444443
1.519720245,-0.118637199,0.03365386,0.127329529,0.9664560492444443
1.5203259390000001,-0.099477043,-0.086097116,-0.057086975,0.9664560492444443
1.520931632,-0.089896965,-0.083702097,0.170439881,0.9664560492444443
1.521537326,0.065779305,-0.064541941,0.254265565,0.9664560492444443
1.522143019,-0.121032218,-0.191477976,0.120144471,0.9664560492444443
1.522748713,-0.178512687,-0.208243112,-0.002001525,0.9664560492444443
1.523354406,0.214270516,-0.129207468,0.045898865,0.9664560492444443
1.5239601,-0.087501945,-0.009456491,-0.021161682,0.9664560492444443
1.5245657929999998,-0.087501945,-0.054961862,0.002788514,0.9664560492444443
1.525171487,0.03943409,-0.026221628,0.280610779,0.9664560492444443
1.52577718,-0.092291984,-0.057356882,0.079429139,0.9664560492444443
1.5263828739999998,-0.003676261,0.009703665,-0.179232971,0.9664560492444443
1.526988568,0.003508797,-0.026221628,0.065059022,0.9664560492444443
1.527594261,-0.01086132,0.055209036,0.170439881,0.9664560492444443
1.5281999549999998,-0.240783195,0.000123587,0.232710389,0.9664560492444443
1.528805648,0.005903817,-0.019036569,0.110564393,0.9664560492444443
1.529411342,-0.025231437,0.299501028,0.045898865,0.9664560492444443
1.530017035,-0.073131828,0.026468802,0.316536072,0.9664560492444443
1.530622729,0.108889657,0.009703665,0.033923768,0.9664560492444443
1.5312284219999999,-0.049181633,0.313871145,0.247080506,0.9664560492444443
1.531834116,0.161580086,0.071974173,0.608728455,0.9664560492444443
1.532439809,-0.027626457,-0.035801706,0.273425721,0.9664560492444443
1.5330455029999999,-0.137797355,0.014493704,0.017158631,0.9664560492444443
1.533651196,0.175950203,-0.052566843,0.100984315,0.9664560492444443
1.53425689,-0.128217277,0.062394095,0.347671326,0.9664560492444443
1.534862583,-0.058761711,0.18933013,0.12253949,0.9664560492444443
1.535468277,0.24540577,0.03365386,0.27582074,0.9664560492444443
1.53607397,-0.018046379,0.048023977,0.206365174,0.9664560492444443
1.536679664,-0.041996574,0.208490286,0.096194275,0.9664560492444443
1.537285357,-0.116242179,0.100714407,0.091404236,0.9664560492444443
1.537891051,0.060989266,-0.153157663,-0.052296935,0.9664560492444443
1.5384967440000001,0.029854012,0.062394095,0.158464783,0.9664560492444443
1.539102438,-0.06355175,0.050418997,0.036318787,0.9664560492444443
1.539708131,0.013088875,0.014493704,-0.037926818,0.9664560492444443
1.5403138250000001,-0.051576652,0.151009817,0.148884705,0.9664560492444443
1.540919518,0.116074715,0.024073782,0.077034119,0.9664560492444443
1.541525212,-0.006071281,0.03365386,0.033923768,0.9664560492444443
1.5421309060000001,0.008298836,-0.098072214,0.256660584,0.9664560492444443
1.542736599,-0.06115673,-0.009456491,0.220735291,0.9664560492444443
1.543342293,-0.116242179,0.213280325,-0.013976623,0.9664560492444443
1.543947986,-0.020441398,-0.040591745,0.156069764,0.9664560492444443
1.54455368,-0.233598136,-0.32080903,0.254265565,0.9664560492444443
1.545159373,-0.21443798,-0.241773386,-0.186418029,0.9664560492444443
1.545765067,0.034644051,-0.114837351,-0.148097717,0.9664560492444443
1.5463707599999998,0.149604989,-0.133997507,0.220735291,0.9664560492444443
1.546976454,0.027458992,0.117479544,0.139304627,0.9664560492444443
1.547582147,-0.06115673,-0.076517038,0.07224408,0.9664560492444443
1.5481878409999998,0.053804207,-0.047776804,0.299770936,0.9664560492444443
1.548793534,0.135234871,0.059999075,0.132119568,0.9664560492444443
1.549399228,-0.329398918,-0.181897898,-0.093012267,0.9664560492444443
1.550004921,-0.070736808,-0.009456491,-0.289403869,0.9664560492444443
1.550610615,0.233430672,-0.105257273,0.036318787,0.9664560492444443
1.5512163079999999,-0.06355175,0.040838919,0.165649842,0.9664560492444443
1.551822002,0.116074715,0.076764212,0.280610779,0.9664560492444443
1.552427695,-0.099477043,-0.32080903,0.362041443,0.9664560492444443
1.5530333889999999,0.013088875,-0.107652292,-0.018766662,0.9664560492444443
1.5536390820000001,0.084939461,0.040838919,0.182414979,0.9664560492444443
1.554244776,0.082544442,0.043233938,0.180019959,0.9664560492444443
1.554850469,0.03943409,-0.105257273,0.158464783,0.9664560492444443
1.5554561630000001,-0.025231437,-0.150762644,0.194390076,0.9664560492444443
1.556061856,-0.118637199,-0.040591745,0.182414979,0.9664560492444443
1.55666755,-0.06355175,-0.038196726,-0.021161682,0.9664560492444443
1.557273243,0.013088875,0.007308645,0.160859803,0.9664560492444443
1.557878937,-0.051576652,-0.023826609,0.43149701,0.9664560492444443
1.558484631,0.027458992,0.040838919,0.100984315,0.9664560492444443
1.559090324,-0.073131828,-0.126812448,0.043503846,0.9664560492444443
1.559696018,-0.051576652,0.088739309,0.512927674,0.9664560492444443
1.5603017110000001,0.049014168,0.213280325,0.747639588,0.9664560492444443
1.560907405,0.096914559,-0.064541941,0.033923768,0.9664560492444443
1.5615130979999998,0.199900399,-0.033406687,0.414731873,0.9664560492444443
1.5621187920000001,-0.0084663,0.014493704,0.460237244,0.9664560492444443
1.562724485,-0.195277824,-0.01664155,0.033923768,0.9664560492444443
1.5633301789999998,0.183135262,-0.052566843,0.223130311,0.9664560492444443
1.563935872,-0.030021476,0.141429739,0.105774354,0.9664560492444443
1.564541566,0.056199227,0.009703665,0.129724549,0.9664560492444443
1.565147259,0.408267098,0.08634429,0.033923768,0.9664560492444443
1.565752953,-0.070736808,0.306686087,-0.18402301,0.9664560492444443
1.5663586459999999,-0.156957511,-0.045381784,0.043503846,0.9664560492444443
1.56696434,-0.030021476,0.069579153,0.362041443,0.9664560492444443
1.567570033,-0.034811515,0.309081106,0.079429139,0.9664560492444443
1.5681757269999999,-0.099477043,0.158194876,-0.076247131,0.9664560492444443
1.56878142,-0.032416496,-0.057356882,0.038713807,0.9664560492444443
1.569387114,-0.147377433,-0.047776804,-0.006791564,0.9664560492444443
1.569992807,-0.171327629,-0.042986765,0.057873963,0.9664560492444443
1.570598501,-0.06355175,-0.057356882,-0.006791564,0.9664560492444443
1.5712041939999999,0.046619149,-0.002271433,-0.097802307,0.9664560492444443
1.571809888,-0.085106925,-0.040591745,0.201575135,0.9664560492444443
1.572415581,0.003508797,-0.059751902,-0.093012267,0.9664560492444443
1.5730212749999999,0.183135262,0.134244681,0.017158631,0.9664560492444443
1.573626969,-0.0084663,-0.031011667,0.338091248,0.9664560492444443
1.574232662,-0.06115673,0.057604056,0.211155213,0.9664560492444443
1.5748383559999999,-0.092291984,-0.083702097,0.184809998,0.9664560492444443
1.5754440490000001,0.065779305,-0.076517038,0.17762494,0.9664560492444443
1.576049743,0.027458992,-0.047776804,0.136909608,0.9664560492444443
1.576655436,-0.049181633,-0.179502878,0.053083924,0.9664560492444443
1.5772611300000001,-0.0084663,-0.090887155,-0.071457092,0.9664560492444443
1.577866823,0.14481495,-0.138787546,-0.009186584,0.9664560492444443
1.578472517,-0.200067863,-0.050171823,-0.12893756,0.9664560492444443
1.57907821,0.068174325,-0.133997507,0.199180115,0.9664560492444443
1.579683904,-0.056366691,-0.042986765,-0.104987365,0.9664560492444443
1.580289597,-0.015651359,-0.081307077,-0.07864215,0.9664560492444443
1.580895291,0.173555184,0.105504446,0.132119568,0.9664560492444443
1.5815009839999998,-0.001281242,0.000123587,0.000393494,0.9664560492444443
1.582106678,0.197505379,-0.122022409,0.120144471,0.9664560492444443
1.582712371,-0.176117668,-0.074122019,-0.186418029,0.9664560492444443
1.5833180649999998,-0.128217277,-0.093282175,-0.112172424,0.9664560492444443
1.583923758,0.010693856,0.045628958,0.299770936,0.9664560492444443
1.584529452,-0.16414257,0.007308645,0.27821576,0.9664560492444443
1.585135145,-0.068341789,0.055209036,-0.057086975,0.9664560492444443
1.585740839,0.015483895,-0.102862253,0.069849061,0.9664560492444443
1.5863465319999999,-0.018046379,-0.095677194,0.256660584,0.9664560492444443
1.586952226,-0.109057121,0.024073782,0.17522992,0.9664560492444443
1.587557919,-0.137797355,-0.002271433,0.081824158,0.9664560492444443
1.5881636129999999,0.051409188,0.095924368,0.089009217,0.9664560492444443
1.588769306,0.19511036,0.064789114,0.120144471,0.7819816033055964
1.589375,-0.015651359,0.062394095,-0.071457092,0.7819816033055964
1.589980694,-0.053971672,0.08634429,-0.394784728,0.7819816033055964
1.5905863869999999,-0.06115673,0.151009817,0.098589295,0.7819816033055964
1.591192081,-0.262338371,0.08394927,0.000393494,0.7819816033055964
1.591797774,-0.046786613,-0.052566843,-0.38520465,0.7819816033055964
1.5924034679999999,0.216665535,0.004913626,0.002788514,0.7819816033055964
1.593009161,-0.109057121,0.000123587,0.053083924,0.7819816033055964
1.593614855,-0.298263664,0.014493704,0.005183533,0.7819816033055964
1.594220548,-0.216833,0.117479544,0.220735291,0.7819816033055964
1.594826242,-0.238388175,0.093529348,0.256660584,0.7819816033055964
1.595431935,0.003508797,0.040838919,0.309351014,0.7819816033055964
1.596037629,-0.092291984,-0.090887155,0.285400818,0.7819816033055964
1.596643322,0.135234871,0.191725149,0.235105408,0.7819816033055964
1.597249016,0.070569344,0.167774954,0.223130311,0.7819816033055964
1.597854709,-0.171327629,-0.191477976,0.029133729,0.7819816033055964
1.598460403,0.03943409,-0.002271433,0.081824158,0.7819816033055964
1.599066096,0.020273934,-0.052566843,0.100984315,0.7819816033055964
1.59967179,0.113679696,-0.098072214,0.302165955,0.7819816033055964
1.600277483,0.075359383,0.069579153,0.244685486,0.7819816033055964
1.600883177,-0.094687004,0.069579153,0.000393494,0.7819816033055964
1.60148887,0.111284676,-0.033406687,-0.104987365,0.7819816033055964
1.602094564,-0.015651359,0.002518606,-0.033136779,0.7819816033055964
1.602700257,-0.099477043,0.160589895,0.055478943,0.7819816033055964
1.603305951,-0.089896965,0.007308645,0.108169373,0.7819816033055964
1.603911644,-0.049181633,-0.105257273,-0.109777404,0.7819816033055964
1.604517338,0.118469735,0.141429739,0.151279725,0.7819816033055964
1.605123031,-0.144982414,0.076764212,0.187205018,0.7819816033055964
1.605728725,0.204690438,-0.050171823,-0.061877014,0.7819816033055964
1.606334419,-0.077921867,-0.088492136,0.062664002,0.7819816033055964
1.606940112,0.010693856,-0.028616648,-0.112172424,0.7819816033055964
1.607545806,0.14481495,-0.148367624,0.120144471,0.7819816033055964
1.6081514989999999,-0.197672843,-0.155552683,0.189600037,0.7819816033055964
1.608757193,-0.11384716,-0.150762644,-0.061877014,0.7819816033055964
1.609362886,-0.101872062,0.016888723,-0.049901916,0.7819816033055964
1.6099685799999999,-0.224018058,-0.028616648,0.110564393,0.7819816033055964
1.610574273,-0.051576652,-0.145972605,0.115354432,0.7819816033055964
1.611179967,0.013088875,0.024073782,0.067454041,0.7819816033055964
1.61178566,0.118469735,0.009703665,0.189600037,0.7819816033055964
1.6123913539999999,-0.077921867,-0.083702097,0.220735291,0.7819816033055964
1.612997047,-0.092291984,-0.040591745,0.165649842,0.7819816033055964
1.613602741,0.123259774,-0.011851511,0.043503846,0.7819816033055964
1.614208434,-0.159352531,-0.054961862,0.000393494,0.7819816033055964
1.614814128,-0.070736808,0.007308645,0.120144471,0.7819816033055964
1.615419821,-0.073131828,0.031258841,0.17762494,0.7819816033055964
1.616025515,-0.003676261,-0.131602487,0.151279725,0.7819816033055964
1.616631208,-0.051576652,-0.009456491,-0.08103717,0.7819816033055964
1.617236902,-0.041996574,0.122269583,0.201575135,0.7819816033055964
1.617842595,-0.116242179,-0.239378366,0.077034119,0.7819816033055964
1.618448289,-0.121032218,-0.150762644,-0.066667053,0.7819816033055964
1.619053982,-0.06115673,0.048023977,0.110564393,0.7819816033055964
1.619659676,-0.068341789,-0.165132761,0.069849061,0.7819816033055964
1.620265369,-0.018046379,0.014493704,-0.217553283,0.7819816033055964
1.620871063,0.063384285,0.196515188,0.359646424,0.7819816033055964
1.621476757,-0.003676261,-0.095677194,0.079429139,0.7819816033055964
1.62208245,-0.209647941,-0.033406687,0.541667908,0.7819816033055964
1.622688144,-0.058761711,-0.098072214,0.465027283,0.7819816033055964
1.623293837,-0.058761711,0.002518606,-0.013976623,0.7819816033055964
1.623899531,0.010693856,0.081554251,0.311746033,0.7819816033055964
1.624505224,0.099309578,-0.007061472,0.045898865,0.7819816033055964
1.625110918,-0.097082023,-0.038196726,0.237500428,0.7819816033055964
1.625716611,-0.121032218,-0.232193308,0.208760193,0.7819816033055964
1.626322305,-0.221623039,-0.021431589,-0.009186584,0.7819816033055964
1.626927998,-0.178512687,0.210885306,0.050688904,0.7819816033055964
1.627533692,-0.185697746,0.007308645,0.259055604,0.7819816033055964
1.6281393849999999,0.19511036,-0.057356882,0.127329529,0.7819816033055964
1.628745079,0.084939461,-0.002271433,0.249475525,0.7819816033055964
1.629350772,0.049014168,0.141429739,0.053083924,0.7819816033055964
1.6299564659999999,0.094519539,0.03365386,-0.049901916,0.7819816033055964
1.630562159,-0.018046379,0.093529348,0.043503846,0.7819816033055964
1.631167853,-0.06355175,-0.062146921,0.273425721,0.7819816033055964
1.631773546,-0.271918449,-0.06693696,0.230315369,0.7819816033055964
1.63237924,-0.178512687,-0.189082956,0.000393494,0.7819816033055964
1.632984933,-0.025231437,-0.107652292,-0.114567443,0.7819816033055964
1.633590627,-0.104267082,0.234835501,0.009973572,0.7819816033055964
1.63419632,0.017878914,0.093529348,0.184809998,0.7819816033055964
1.634802014,-0.065946769,-0.093282175,0.17762494,0.7819816033055964
1.635407707,-0.202462883,0.103109427,-0.054691955,0.7819816033055964
1.636013401,0.185530282,0.105504446,0.160859803,0.7819816033055964
1.636619094,0.049014168,-0.236983347,0.127329529,0.7819816033055964
1.637224788,-0.041996574,-0.047776804,-0.088222228,0.7819816033055964
1.637830482,-0.094687004,-0.143577585,-0.109777404,0.7819816033055964
1.638436175,-0.001281242,0.021678763,-0.116962463,0.7819816033055964
