Time (s),Accel X (m/s^2),Accel Y (m/s^2),Accel Z (m/s^2),CI Value
3.740625,-0.0742485056877136,-0.11927805376052901,-0.111851341438293,1.0480734160970633
3.7412310606060606,0.150883330249786,0.00526296186447143,0.312067115592957,1.0480734160970633
3.741837121212121,-0.15088913068771398,0.0890886454582214,0.0797502210617066,1.0480734160970633
3.742443181818182,-0.19639450178146398,-0.0115021748542786,-0.126221458625793,1.0480734160970633
3.7430492424242425,-0.0502983103752136,-0.0546125264167786,-0.020840599250793398,1.0480734160970633
3.743655303030303,-0.014373017406463599,0.0651384501457214,0.055800025749206596,1.0480734160970633
3.7442613636363635,0.0287373341560364,0.17770436811447102,0.0150846937179566,1.0480734160970633
3.7448674242424245,0.19399368181228602,0.134594016551971,0.22345139293670702,1.0480734160970633
3.745473484848485,0.0359223927497864,-0.0522175068855286,0.11567551403045699,1.0480734160970633
3.7460795454545455,-0.0958036814689636,0.0627434306144714,0.0414299085617066,1.0480734160970633
3.746685606060606,-0.153284150218964,-0.128858131885529,0.398287818717957,1.0480734160970633
3.747291666666667,0.0455024708747864,0.0699284892082214,0.0869352796554566,1.0480734160970633
3.7478977272727274,0.0910078419685364,0.26392507123947095,0.0605900648117066,1.0480734160970633
3.748503787878788,0.0023921193122864,-0.140833229541779,0.16836594371795702,1.0480734160970633
3.7491098484848484,-0.0838285838127136,0.0435832743644714,0.704850318717957,1.0480734160970633
3.7497159090909093,0.0215522755622864,0.0220280985832214,0.431818092155457,1.0480734160970633
3.75032196969697,-0.0407182322502136,-0.10969797563552901,0.0414299085617066,1.0480734160970633
3.7509280303030303,-0.306565400218964,0.0579533915519714,0.724010474967957,1.0480734160970633
3.751534090909091,-0.0455082713127136,0.0675334696769714,0.407867896842957,1.0480734160970633
3.752140151515152,0.062267607593536396,-0.140833229541779,0.11567551403045699,1.0480734160970633
3.7527462121212123,0.0023921193122864,-0.15759836626052898,0.144415748405457,1.0480734160970633
3.753352272727273,-0.0263481150627136,0.0100530009269714,-0.011260521125793399,1.0480734160970633
3.7539583333333333,-0.270640107250214,0.09866872358322139,0.0605900648117066,1.0480734160970633
3.754564393939394,-0.059878388500213604,0.0387932353019714,0.11328049449920699,1.0480734160970633
3.7551704545454547,0.0359223927497864,-0.248609108448029,0.22345139293670702,1.0480734160970633
3.7557765151515152,0.0047871388435364,-0.0977228779792786,0.07017014293670659,1.0480734160970633
3.7563825757575757,0.0167622364997864,-0.06419260454177861,-0.0974812242507934,1.0480734160970633
3.7569886363636367,-0.0263481150627136,-0.143228249073029,0.16357590465545702,1.0480734160970633
3.757594696969697,0.0934028614997864,0.0699284892082214,0.06538010387420659,1.0480734160970633
3.7582007575757577,0.059872588062286396,0.0244231181144714,0.13244065074920702,1.0480734160970633
3.758806818181818,0.06945266618728639,-0.19591867876052899,0.142020728874207,1.0480734160970633
3.759412878787879,-0.0407182322502136,0.000472922801971429,0.06777512340545659,1.0480734160970633
3.7600189393939396,-0.0095829783439636,0.0483733134269714,0.379127662467957,1.0480734160970633
3.760625,-0.0191630564689636,-0.0402424092292786,0.0893302991867066,1.0480734160970633
3.7612310606060606,0.28500442399978604,0.0890886454582214,0.048614967155456594,1.0480734160970633
3.761837121212121,0.13411819353103602,-0.0330573506355286,0.0989103773117066,1.0480734160970633
3.762443181818182,-0.038323212718963606,0.0387932353019714,-0.138196556282043,1.0480734160970633
3.7630492424242425,0.0119721974372864,0.18249440717697102,0.307277076530457,1.0480734160970633
3.763655303030303,-0.0095829783439636,0.00526296186447143,0.285721900749207,1.0480734160970633
3.7642613636363635,-0.16525924787521398,-0.0450324482917786,0.130045631217957,1.0480734160970633
3.7648674242424245,-0.435896454906464,0.000472922801971429,0.28093186168670703,1.0480734160970633
3.765473484848485,-0.217949677562714,0.0172380595207214,0.13244065074920702,1.0480734160970633
3.7660795454545455,-0.117358857250214,-0.0162922139167786,-0.0926911851882934,1.0480734160970633
3.766685606060606,-0.0023979197502136,0.00526296186447143,-0.00886550159454341,1.0480734160970633
3.767291666666667,0.033527373218536397,0.0699284892082214,0.180341041374207,1.0480734160970633
3.7678977272727274,-0.105383759593964,-0.08814279985427861,0.17794602184295702,1.0480734160970633
3.768503787878788,-0.0215580760002136,-0.0498224873542786,0.022269752311706602,1.0480734160970633
3.7691098484848484,0.0023921193122864,0.0723235087394714,0.139625709342957,1.0480734160970633
3.7697159090909094,-0.0934086619377136,0.0579533915519714,0.0941203382492066,1.0480734160970633
3.77032196969697,0.16285842790603602,0.0220280985832214,0.16836594371795702,1.0480734160970633
3.7709280303030304,0.0910078419685364,0.18249440717697102,0.151600806999207,1.0480734160970633
3.771534090909091,-0.0071879588127136,0.0387932353019714,0.142020728874207,1.0480734160970633
3.772140151515152,-0.033533173656463605,0.170519309520721,0.11328049449920699,1.0480734160970633
3.7727462121212123,-0.059878388500213604,0.0363982157707214,0.211476295280457,1.0480734160970633
3.773352272727273,-0.0167680369377136,-0.07616770219802861,0.12286057262420699,1.0480734160970633
3.7739583333333333,-0.241899872875214,0.0340031962394714,-0.0759260484695434,1.0480734160970633
3.774564393939394,-0.0095829783439636,-0.00671213579177857,0.206686256217957,1.0480734160970633
3.7751704545454547,-0.167654267406464,0.0531633524894714,-0.042395775032043406,1.0480734160970633
3.7757765151515152,-0.0958036814689636,-0.203103737354279,0.161180885124207,1.0480734160970633
3.7763825757575757,0.15327834978103602,-0.0378473896980286,0.180341041374207,1.0480734160970633
3.7769886363636367,-0.0718534861564636,-0.0929328389167786,-0.217232200813293,1.0480734160970633
3.777594696969697,0.0910078419685364,-0.0905378193855286,-0.126221458625793,1.0480734160970633
3.7782007575757577,-0.328120576000214,0.0316081767082214,0.240216529655457,1.0480734160970633
3.778806818181818,0.0143672169685364,-0.140833229541779,0.249796607780457,1.0480734160970633
3.7794128787878787,0.31613967790603603,-0.11448801469802901,0.47013840465545703,1.0480734160970633
3.7800189393939396,-0.105383759593964,-0.07616770219802861,0.10609543590545699,1.0480734160970633
3.780625,-0.0790385447502136,-0.08095774126052861,0.465348365592957,1.0480734160970633
3.7812310606060606,0.0862178029060364,-0.0426374287605286,0.6162345960617069,1.0480734160970633
3.781837121212121,0.007182158374786401,-0.23663401079177898,0.11807053356170699,1.0480734160970633
3.782443181818182,-0.100593720531464,-0.16238840532302898,-0.0160505601882934,1.0480734160970633
3.7830492424242426,0.052687529468536394,-0.0546125264167786,-0.138196556282043,1.0480734160970633
3.783655303030303,-0.0502983103752136,-0.00192209672927857,0.11328049449920699,1.0480734160970633
3.7842613636363636,-0.0263481150627136,0.0747185282707214,0.180341041374207,1.0480734160970633
3.7848674242424245,-0.14609909162521398,-0.102512917041779,0.012689674186706601,1.0480734160970633
3.785473484848485,-0.0407182322502136,-0.140833229541779,-0.011260521125793399,1.0480734160970633
3.7860795454545455,0.0478974904060364,0.20165456342697102,0.331227271842957,1.0480734160970633
3.786685606060606,0.170043486499786,0.00286794233322143,0.0893302991867066,1.0480734160970633
3.787291666666667,0.292189482593536,0.09387868452072139,0.0390348890304566,1.0480734160970633
3.7878977272727274,-0.0646684275627136,0.156149192333221,0.130045631217957,1.0480734160970633
3.788503787878788,-0.0502983103752136,-0.0115021748542786,0.0893302991867066,1.0480734160970633
3.7891098484848484,-0.014373017406463599,-0.06658762407302861,0.00310959606170659,1.0480734160970633
3.7897159090909094,-0.014373017406463599,-0.10730295610427901,0.0414299085617066,1.0480734160970633
3.79032196969697,0.0646626271247864,-0.0354523701667786,0.206686256217957,1.0480734160970633
3.7909280303030304,-0.26345504865646396,0.0292131571769714,0.0150846937179566,1.0480734160970633
3.791534090909091,-0.371230927562714,-0.0138971943855286,-0.035210716438293405,1.0480734160970633
3.7921401515151514,-0.0814335642814636,-0.08814279985427861,0.381522681999207,1.0480734160970633
3.7927462121212123,-0.0838285838127136,0.00765798139572143,0.22345139293670702,1.0480734160970633
3.793352272727273,-0.0479032908439636,-0.0450324482917786,-0.154961693000793,1.0480734160970633
3.7939583333333333,-0.0838285838127136,0.0148430399894714,-0.0663459703445434,1.0480734160970633
3.794564393939394,-0.0814335642814636,-0.128858131885529,0.16836594371795702,1.0480734160970633
3.7951704545454548,0.0886128224372864,-0.260584206104279,-0.0471858140945434,1.0480734160970633
3.7957765151515153,-0.129333954906464,-0.11448801469802901,0.0174797132492066,1.0480734160970633
3.7963825757575758,0.062267607593536396,0.148964133739471,0.12046555309295699,1.0480734160970633
3.7969886363636367,-0.057483368968963604,0.0842986063957214,0.0965153577804566,1.0480734160970633
3.797594696969697,-0.167654267406464,-0.00671213579177857,0.0318498304367066,1.0480734160970633
3.7982007575757577,-0.105383759593964,0.0220280985832214,0.053405006217956595,1.0480734160970633
3.798806818181818,-0.033533173656463605,-0.0426374287605286,0.175551002311707,1.0480734160970633
3.7994128787878787,-0.0023979197502136,0.0220280985832214,-0.042395775032043406,1.0480734160970633
3.8000189393939396,-0.25387497053146396,0.0244231181144714,0.18273606090545702,1.0480734160970633
3.800625,0.0886128224372864,0.0459782938957214,0.0845402601242066,1.0480734160970633
3.8012310606060606,0.119748076343536,-0.0378473896980286,0.130045631217957,1.0480734160970633
3.801837121212121,0.110167998218536,-0.207893776416779,0.156390846061707,1.0480734160970633
3.802443181818182,0.0143672169685364,-0.08095774126052861,0.058195045280456596,1.0480734160970633
3.8030492424242426,0.0095771779060364,0.0723235087394714,0.15878586559295702,1.0480734160970633
3.803655303030303,-0.0886186228752136,-0.212683815479279,0.101305396842957,1.0480734160970633
3.8042613636363636,0.059872588062286396,-0.19112863969802898,-0.14059157581329298,1.0480734160970633
3.804867424242424,0.12932815446853602,-0.08095774126052861,-0.0879011461257934,1.0480734160970633
3.805473484848485,-0.17004928693771398,-0.188733620166779,0.0462199476242066,1.0480734160970633
3.8060795454545455,-0.0479032908439636,0.156149192333221,-0.0902961656570434,1.0480734160970633
3.806685606060606,-0.0287431345939636,-0.0546125264167786,0.127650611686707,1.0480734160970633
3.807291666666667,-0.0191630564689636,-0.0474274678230286,0.149205787467957,1.0480734160970633
3.8078977272727275,-0.126938935375214,-0.155203346729279,0.11088547496795699,1.0480734160970633
3.808503787878788,0.026342314624786402,-0.205498756885529,0.0342448499679566,1.0480734160970633
3.8091098484848485,0.0478974904060364,-0.0258722920417786,0.628209693717957,1.0480734160970633
3.8097159090909094,-0.102988740062714,-0.183943581104279,0.235426490592957,1.0480734160970633
3.81032196969697,0.0095771779060364,-0.0522175068855286,-0.152566673469543,1.0480734160970633
3.8109280303030304,-0.0886186228752136,-0.004317116260528569,0.7000602796554569,1.0480734160970633
3.811534090909091,-0.100593720531464,-0.16238840532302898,0.144415748405457,1.0480734160970633
3.8121401515151514,-0.014373017406463599,-0.0546125264167786,-0.20046706409454298,1.0480734160970633
3.8127462121212123,0.052687529468536394,0.00765798139572143,0.06777512340545659,1.0480734160970633
3.813352272727273,0.052687529468536394,0.146569114208221,-0.0016804430007934098,1.0480734160970633
3.8139583333333333,0.052687529468536394,0.189679465770721,0.15878586559295702,1.0480734160970633
3.814564393939394,-0.0263481150627136,0.0363982157707214,0.252191627311707,1.0480734160970633
3.815170454545455,0.0478974904060364,0.27350514936447096,0.00550461559295659,1.0480734160970633
3.8157765151515153,0.0431074513435364,0.0890886454582214,0.161180885124207,1.0480734160970633
3.816382575757576,-0.0790385447502136,-0.215078835010529,0.271351783561707,1.0480734160970633
3.8169886363636363,-0.0431132517814636,0.0699284892082214,0.185131080436707,1.0480734160970633
3.817594696969697,0.0143672169685364,-0.179153542041779,0.142020728874207,1.0480734160970633
3.8182007575757577,-0.0694584666252136,0.158544211864471,-0.0639509508132934,1.0480734160970633
3.818806818181818,-0.148494111156464,0.0531633524894714,-0.037605735969543405,1.0480734160970633
3.8194128787878787,-0.059878388500213604,-0.25818918657302903,0.022269752311706602,1.0480734160970633
3.8200189393939397,0.16285842790603602,0.0100530009269714,-0.164541771125793,1.0480734160970633
3.820625,0.124538115406036,-0.06898264360427861,0.12046555309295699,1.0480734160970633
3.8212310606060607,-0.122148896312714,0.0747185282707214,0.24261154918670702,1.0480734160970633
3.821837121212121,-0.033533173656463605,-0.11448801469802901,-0.0543708726882934,1.0480734160970633
3.822443181818182,0.055082548999786395,-0.0522175068855286,-0.032815696907043404,1.0480734160970633
3.8230492424242426,-0.004792939281463599,0.0531633524894714,-0.037605735969543405,1.0480734160970633
3.823655303030303,-2.90021896360126e-06,-0.133648170948029,0.0318498304367066,1.0480734160970633
3.8242613636363636,0.0311323536872864,0.0148430399894714,0.10849045543670699,1.0480734160970633
3.824867424242424,0.14848831071853602,0.09627370405197139,0.0917253187179566,1.0480734160970633
3.825473484848485,0.0215522755622864,-0.0594025654792786,0.273746803092957,1.0480734160970633
3.8260795454545455,-0.268245087718964,0.0244231181144714,0.127650611686707,1.0480734160970633
3.826685606060606,-0.059878388500213604,-0.12406809282302901,0.0342448499679566,1.0480734160970633
3.827291666666667,-0.0862236033439636,-0.148018288135529,0.12046555309295699,1.0480734160970633
3.8278977272727275,0.0359223927497864,-0.00910715532302857,0.00550461559295659,1.0480734160970633
3.828503787878788,-0.0934086619377136,-0.0354523701667786,0.252191627311707,1.0480734160970633
3.8291098484848485,-0.0526933299064636,-0.0617975850105286,0.197106178092957,1.0480734160970633
3.829715909090909,0.06705764665603639,0.18249440717697102,0.11088547496795699,1.0480734160970633
3.83032196969697,-0.129333954906464,-0.00671213579177857,0.35038742809295703,1.0480734160970633
3.8309280303030304,-0.0526933299064636,-0.102512917041779,0.221056373405457,1.0480734160970633
3.831534090909091,-0.0694584666252136,-0.126463112354279,0.252191627311707,1.0480734160970633
3.8321401515151514,-0.16046920881271398,-0.08814279985427861,0.422238014030457,1.0480734160970633
3.8327462121212124,-0.167654267406464,-0.0929328389167786,0.273746803092957,1.0480734160970633
3.833352272727273,-0.117358857250214,-0.0570075459480286,0.30967209606170704,1.0480734160970633
3.8339583333333334,-0.035928193187713606,-0.11448801469802901,-0.0663459703445434,1.0480734160970633
3.834564393939394,0.0910078419685364,-0.179153542041779,0.00789963512420659,1.0480734160970633
3.835170454545455,-0.0311381541252136,-0.0450324482917786,-0.00886550159454341,1.0480734160970633
3.8357765151515153,-0.13172897443771397,-0.145623268604279,-0.133406517219543,1.0480734160970633
3.836382575757576,-0.0958036814689636,-0.07616770219802861,0.0198747327804566,1.0480734160970633
3.8369886363636363,-0.189209443187714,-0.0450324482917786,0.051009986686706595,1.0480734160970633
3.8375946969696972,0.0119721974372864,0.00286794233322143,0.165970924186707,1.0480734160970633
3.8382007575757577,-0.0670634470939636,-0.164783424854279,0.35996750621795703,1.0480734160970633
3.8388068181818182,-0.117358857250214,-0.13125315141677898,0.0246647718429566,1.0480734160970633
3.8394128787878787,-0.0263481150627136,-0.08814279985427861,-0.25794753284454297,1.0480734160970633
3.8400189393939397,-0.15567916975021398,0.0316081767082214,0.19231613903045702,1.0480734160970633
3.840625,0.06945266618728639,-0.17196848344802898,0.405472877311707,1.0480734160970633
3.841231060606061,0.0407124318122864,-0.0570075459480286,0.319252174186707,1.0480734160970633
3.841837121212121,0.105377959156036,0.0340031962394714,0.15399582653045701,1.0480734160970633
3.842443181818182,-0.0071879588127136,-0.004317116260528569,-0.0735310289382934,1.0480734160970633
3.843049242424242,-0.033533173656463605,0.0651384501457214,-0.00886550159454341,1.0480734160970633
3.843655303030303,-0.014373017406463599,-0.140833229541779,0.0605900648117066,1.0480734160970633
3.844261363636364,-0.0023979197502136,-0.0234772725105286,0.0941203382492066,1.0480734160970633
3.844867424242424,-0.0550883494377136,-0.183943581104279,0.170760963249207,1.0480734160970633
3.845473484848485,0.0478974904060364,-0.11927805376052901,-0.267527610969543,1.0480734160970633
3.846079545454545,0.14848831071853602,0.23278981733322102,0.053405006217956595,1.0480734160970633
3.846685606060606,0.0215522755622864,-0.289324440479279,0.11807053356170699,1.0480734160970633
3.847291666666667,0.0383174122810364,-0.22705393266677898,0.12046555309295699,1.0480734160970633
3.847897727272727,0.0407124318122864,0.160939231395721,0.06298508434295659,1.0480734160970633
3.848503787878788,-0.0191630564689636,-0.138438210010529,-0.0016804430007934098,1.0480734160970633
3.849109848484848,-0.014373017406463599,-0.004317116260528569,0.391102760124207,1.0480734160970633
3.849715909090909,-0.038323212718963606,-0.174363502979279,0.125255592155457,1.0480734160970633
3.85032196969697,-0.13651901350021398,-0.0234772725105286,-0.00886550159454341,1.0480734160970633
3.85092803030303,-0.0814335642814636,0.0100530009269714,0.0150846937179566,1.0480734160970633
3.851534090909091,-0.038323212718963606,-0.150413307666779,0.0893302991867066,1.0480734160970633
3.852140151515152,-0.182024384593964,0.220814719676971,0.00550461559295659,1.0480734160970633
3.852746212121212,-0.22034469709396398,0.09387868452072139,0.0366398694992066,1.0480734160970633
3.853352272727273,-2.90021896360126e-06,-0.08095774126052861,0.34080734996795703,1.0480734160970633
3.853958333333333,0.100587920093536,-0.00671213579177857,0.194711158561707,1.0480734160970633
3.854564393939394,-0.0694584666252136,-0.138438210010529,0.149205787467957,1.0480734160970633
3.8551704545454553,-0.17004928693771398,0.12022389936447099,0.201896217155457,1.0480734160970633
3.855776515151515,-0.148494111156464,-0.0426374287605286,-0.14059157581329298,1.0480734160970633
3.8563825757575763,0.07424270524978639,0.0459782938957214,-0.020840599250793398,1.0480734160970633
3.856988636363636,-0.0862236033439636,-0.0378473896980286,0.101305396842957,1.0480734160970633
3.8575946969696973,0.136513213062286,-0.150413307666779,0.0174797132492066,1.0480734160970633
3.858200757575758,-0.062273408031463605,0.108248801708221,-0.150171653938293,1.0480734160970633
3.8588068181818183,-0.46224166975021397,-0.169573463916779,-0.262737571907043,1.0480734160970633
3.859412878787879,0.16285842790603602,-0.004317116260528569,0.17315598278045702,1.0480734160970633
3.8600189393939393,-0.193999482250214,-0.27734934282302903,0.07017014293670659,1.0480734160970633
3.860625,-0.0646684275627136,-0.169573463916779,-0.107061302375793,1.0480734160970633
3.861231060606061,0.17962356462478601,0.0771135478019714,0.058195045280456596,1.0480734160970633
3.861837121212121,-0.0550883494377136,-0.0234772725105286,-0.178911888313293,1.0480734160970633
3.862443181818182,0.0359223927497864,0.0100530009269714,0.127650611686707,1.0480734160970633
3.863049242424242,0.007182158374786401,-0.07856272172927861,0.225846412467957,1.0480734160970633
3.863655303030303,-0.0646684275627136,-0.164783424854279,0.012689674186706601,1.0480734160970633
3.864261363636364,0.22273391618728602,0.0842986063957214,0.0773552015304566,1.0480734160970633
3.864867424242424,-0.119753876781464,0.139384055614471,0.23782151012420702,1.0480734160970633
3.865473484848485,-0.21555465803146398,0.09148366498947139,0.252191627311707,1.0480734160970633
3.866079545454545,0.055082548999786395,-0.102512917041779,0.24261154918670702,1.0480734160970633
3.866685606060606,0.14369827165603602,-0.24142404985427898,0.225846412467957,1.0480734160970633
3.867291666666667,0.117353056812286,-0.08095774126052861,0.283326881217957,1.0480734160970633
3.867897727272727,-0.0479032908439636,0.0148430399894714,0.11088547496795699,1.0480734160970633
3.868503787878788,0.107772978687286,0.09866872358322139,-0.178911888313293,1.0480734160970633
3.869109848484848,-0.0191630564689636,-0.0282673115730286,0.412657935905457,1.0480734160970633
3.869715909090909,0.126933134937286,0.0579533915519714,0.134835670280457,1.0480734160970633
3.87032196969697,0.0957978810310364,-0.0450324482917786,-0.207652122688293,1.0480734160970633
3.87092803030303,-0.17004928693771398,-0.08814279985427861,0.10370041637420699,1.0480734160970633
3.871534090909091,-0.057483368968963604,0.0316081767082214,0.197106178092957,1.0480734160970633
3.872140151515152,0.117353056812286,0.0172380595207214,0.0318498304367066,1.0480734160970633
3.872746212121212,0.110167998218536,-0.0402424092292786,0.0989103773117066,1.0480734160970633
3.873352272727273,-0.23950485334396399,-0.18154856157302898,0.199501197624207,1.0480734160970633
3.873958333333333,-0.0119779978752136,-0.07377268266677861,-0.0160505601882934,1.0480734160970633
3.874564393939394,-0.13172897443771397,-0.06898264360427861,-0.0950862047195434,1.0480734160970633
3.8751704545454553,-0.17483932600021398,-0.0498224873542786,-0.00647048206329341,1.0480734160970633
3.875776515151515,0.196388701343536,-0.08574778032302861,0.058195045280456596,1.0480734160970633
3.8763825757575763,-0.033533173656463605,-0.11688303422927901,0.0821452405929566,1.0480734160970633
3.876988636363636,-0.0694584666252136,0.0771135478019714,0.0102946546554566,1.0480734160970633
3.8775946969696973,0.057477568531036395,0.0340031962394714,0.0821452405929566,1.0480734160970633
3.878200757575758,0.0957978810310364,0.0387932353019714,0.11088547496795699,1.0480734160970633
3.8788068181818183,-0.0095829783439636,0.0124480204582214,-0.00886550159454341,1.0480734160970633
3.879412878787879,0.0957978810310364,-0.174363502979279,0.10609543590545699,1.0480734160970633
3.8800189393939393,-0.182024384593964,-0.159993385791779,-0.0855061265945434,1.0480734160970633
3.880625,-0.177234345531464,0.0459782938957214,-0.147776634407043,1.0480734160970633
3.881231060606061,-0.134123993968964,-0.16238840532302898,0.0965153577804566,1.0480734160970633
3.881837121212121,-0.184419404125214,-0.12406809282302901,0.0773552015304566,1.0480734160970633
3.882443181818182,-0.038323212718963606,0.23757985639572102,-0.032815696907043404,1.0480734160970633
3.883049242424242,-0.13651901350021398,0.105853782176971,0.00789963512420659,1.0480734160970633
3.883655303030303,0.100587920093536,-0.203103737354279,0.149205787467957,1.0480734160970633
3.884261363636364,-0.0742485056877136,-0.0953278584480286,-0.0471858140945434,1.0480734160970633
3.884867424242424,0.126933134937286,0.0699284892082214,-0.0950862047195434,1.0480734160970633
3.885473484848485,0.0359223927497864,-0.0426374287605286,0.0845402601242066,1.0480734160970633
3.886079545454545,-0.289800263500214,-0.148018288135529,0.144415748405457,1.0480734160970633
3.886685606060606,-0.13651901350021398,-0.12167307329177901,-0.0663459703445434,1.0480734160970633
3.887291666666667,-0.275430146312714,-0.08335276079177861,0.0989103773117066,1.0480734160970633
3.887897727272727,0.13890823259353602,-0.00671213579177857,0.17794602184295702,1.0480734160970633
3.888503787878788,0.119748076343536,0.24715993452072102,0.180341041374207,1.0480734160970633
3.889109848484848,0.416730498218536,0.0747185282707214,0.28093186168670703,1.0480734160970633
3.889715909090909,-0.0910136424064636,-0.6916877217292791,-0.035210716438293405,1.0480734160970633
3.89032196969697,-0.395181122875214,-0.545591530323029,-0.406438743782043,1.0480734160970633
3.89092803030303,-0.167654267406464,0.148964133739471,-0.301057884407043,1.0480734160970633
3.891534090909091,-0.014373017406463599,0.39086110639572097,0.6186296155929569,1.0480734160970633
3.892140151515152,0.462235869312286,0.699818625926971,0.7599357679367069,1.0480734160970633
3.892746212121212,0.433495634937286,0.17291432905197102,0.211476295280457,1.0480734160970633
3.893352272727273,0.0886128224372864,-1.09884104204178,-0.384883568000793,1.0480734160970633
3.893958333333333,-0.656238251781464,-0.6318122334480291,-0.722581321907043,1.0480734160970633
3.894564393939394,-0.344885712718964,0.513007102489471,-0.313032982063293,1.0480734160970633
3.8951704545454553,-0.112568818187714,1.0614665751457202,0.266561744499207,1.0480734160970633
3.895776515151515,0.756823271656036,0.994406028270721,1.12397873668671,1.0480734160970633
3.8963825757575763,1.1017060841560402,-0.37794016313552903,0.630604713249207,1.0480734160970633
3.896988636363636,0.251474150562286,-1.28086252641678,-0.8375422594070431,1.0480734160970633
3.8975946969696973,-1.00591110334396,-0.528826393604279,-1.11536452503204,1.0480734160970633
3.8982007575757582,-1.4034843455314598,0.659103293895721,-0.645940696907043,1.0480734160970633
3.8988068181818183,-0.289800263500214,1.0279363017082201,0.15399582653045701,1.0480734160970633
3.8994128787878792,1.1975068654060401,0.596832786083221,0.807836158561707,1.0480734160970633
3.9000189393939393,1.6453755177497902,-0.37794016313552903,1.05212815074921,1.0480734160970633
3.9006250000000002,0.440680693531036,-0.938374733448029,-0.17651686878204298,1.0480734160970633
3.901231060606061,-1.31486862287521,-0.21747385454177898,-1.8242903062820401,1.0480734160970633
3.9018371212121212,-2.1722856150627097,0.23278981733322102,-0.9165779039382931,1.0480734160970633
3.902443181818182,-0.289800263500214,0.695028586864471,0.292906959342957,1.0480734160970633
3.9030492424242422,1.49448928728104,0.730953879833221,1.14074387340546,1.0480734160970633
3.903655303030303,2.30879592790604,0.23278981733322102,1.28684006481171,1.0480734160970633
3.904261363636364,0.5700117482185361,-0.492901100635529,0.07017014293670659,1.0480734160970633
3.904867424242424,-1.6094560252189598,-1.1323713154792798,-1.64226882190704,1.0480734160970633
3.905473484848485,-2.06450973615646,-0.370755104541779,-2.2146784898757903,1.0480734160970633
3.906079545454545,-0.6274980174064639,0.40283620405197096,0.127650611686707,1.0480734160970633
3.906685606060606,1.33641799821854,1.11176198530197,1.76105393199921,1.0480734160970633
3.907291666666667,2.10761428728104,1.05907155561447,1.90236008434296,1.0480734160970633
3.907897727272727,1.43461379899979,-0.16238840532302898,0.137230689811707,1.0480734160970633
3.908503787878788,-0.864604951000214,-1.6616706318855299,-2.01589186878204,1.0480734160970633
3.909109848484848,-2.33275192365646,-1.04854563188553,-1.9176960680007902,1.0480734160970633
3.909715909090909,-1.34600387678146,0.7860393290519709,-0.291477806282043,1.0480734160970633
3.91032196969697,0.807118681812286,1.6434563212394702,1.6053776624679599,1.0480734160970633
3.91092803030303,2.5339277638435402,1.32012868452072,1.87361984996796,1.0480734160970633
3.911534090909091,1.97828323259354,-0.744378151416779,0.5180387952804569,1.0480734160970633
3.912140151515152,-0.457451630687714,-1.88680246782303,-1.63029372425079,1.0480734160970633
3.912746212121212,-2.94827194318771,-0.45458078813552905,-2.23623366565704,1.0480734160970633
3.913352272727273,-2.6249443064689597,0.948900657176971,-0.583670189094543,1.0480734160970633
3.913958333333333,0.754428252124786,1.32970876264572,1.17187912731171,1.0480734160970633
3.914564393939394,3.0033515919685403,0.424391379833221,1.95505051403046,1.0480734160970633
3.9151704545454553,2.56985305681229,-0.940769752979279,0.913217017936707,1.0480734160970633
3.915776515151515,-0.6682133494377139,-1.23296213579178,-1.15368483753204,1.0480734160970633
3.9163825757575763,-3.43446090803146,-0.198313698291779,-2.0949275133132903,1.0480734160970633
3.916988636363636,-3.20453903303146,0.908185325145721,-1.4003718492507902,1.0480734160970633
3.9175946969696973,0.852624052906036,0.690238547801971,0.5635441663742069,1.0480734160970633
3.9182007575757583,3.34823440446854,0.364515891551971,2.29993332653046,1.0480734160970633
3.9188068181818183,2.9530561818122902,0.00765798139572143,1.86403977184296,1.0480734160970633
3.9194128787878793,-0.356860810375214,-0.792278542041779,-0.480684349250793,1.0480734160970633
3.9200189393939393,-3.3602153025627097,-0.9287946553230291,-2.88049391956329,1.0480734160970633
3.9206250000000002,-2.99377731428146,-0.404285377979279,-2.21946852893829,1.0480734160970633
3.921231060606061,0.0047871388435364,0.5872527079582209,0.625814674186707,1.0480734160970633
3.9218371212121212,2.6608637989997903,1.41592946577072,2.81007248668671,1.0480734160970633
3.922443181818182,2.88120559587479,1.0207512431144699,2.4556095960617097,1.0480734160970633
3.9230492424242422,0.371225127124786,-0.667737526416779,-0.430388939094543,1.0480734160970633
3.923655303030303,-2.20342086896896,-2.22210520219803,-3.43613845081329,1.0480734160970633
3.924261363636364,-2.99377731428146,-1.03178049516678,-2.52124098987579,1.0480734160970633
3.924867424242424,-1.13524215803146,1.41832448530197,0.491693580436707,1.0480734160970633
3.925473484848485,2.23934036149979,2.2661613993644703,2.33825363903046,1.0480734160970633
3.926079545454545,3.29554397478104,1.0207512431144699,2.42447434215546,1.0480734160970633
3.926685606060606,1.73399124040604,-1.27846750688553,0.130045631217957,1.0480734160970633
3.927291666666667,-1.7507621775627098,-1.95625803422928,-2.63141188831329,1.0480734160970633
3.927897727272727,-4.03082077131271,-0.169573463916779,-2.77271804065704,1.0480734160970633
3.928503787878788,-2.50279831037521,1.59316091108322,-0.284292747688293,1.0480734160970633
3.929109848484848,2.14593459978104,1.65064137983322,2.02929611949921,1.0480734160970633
3.929715909090909,4.294267119312289,0.0483733134269714,2.43165940074921,1.0480734160970633
3.93032196969697,2.44531204118729,-1.34073801469803,0.5779142835617069,1.0480734160970633
3.93092803030303,-1.57353073225021,-1.3934284443855298,-1.30936110706329,1.0480734160970633
3.931534090909091,-4.6199955760002105,-0.169573463916779,-2.3607746812820403,1.0480734160970633
3.932140151515152,-3.03928268537521,1.12852712202072,-1.37642165393829,1.0480734160970633
3.932746212121212,2.11958938493729,0.764484153270721,1.6436979749679599,1.0480734160970633
3.933352272727273,4.526584013843539,0.479476829051971,3.0878947523117097,1.0480734160970633
3.933958333333333,2.78779983415604,-0.219868874073029,1.57424240856171,1.0480734160970633
3.934564393939394,-1.5447904978752098,-0.9096344990730291,-1.76201979846954,1.0480734160970633
3.935170454545455,-4.69663620100021,-0.725217995166779,-3.8145515367507903,1.0480734160970633
3.935776515151515,-2.78062057600021,-0.239029030323029,-1.83387038440704,1.0480734160970633
3.936382575757576,1.65974563493729,0.699818625926971,1.53592209606171,1.0480734160970633
3.936988636363636,3.90627395524979,1.4422746806144702,3.44475266246796,1.0480734160970633
3.937594696969697,2.66565383806229,0.723768821239471,1.96702561168671,1.0480734160970633
3.9382007575757583,-0.823889618968964,-1.10842112016678,-1.4171369859695402,1.0480734160970633
3.938806818181818,-3.70509811506271,-2.08079904985428,-3.60857985706329,1.0480734160970633
3.9394128787878793,-3.15903366193771,-0.562356667041779,-2.05421218128204,1.0480734160970633
3.940018939393939,-0.0670634470939636,1.59555593061447,1.44970139293671,1.0480734160970633
3.9406250000000003,3.3362593068122903,2.00749928998947,3.07591965465546,1.0480734160970633
3.941231060606061,3.5757612599372903,0.596832786083221,2.09156662731171,1.0480734160970633
3.9418371212121213,0.586776884937286,-1.4652790303230299,-0.566905052375793,1.0480734160970633
3.942443181818182,-2.82852096662521,-1.95386301469803,-3.40739821643829,1.0480734160970633
3.9430492424242423,-4.23200241193771,-0.08335276079177861,-2.78708815784454,1.0480734160970633
3.943655303030303,-1.31965866193771,2.00749928998947,0.30967209606170704,1.0480734160970633
3.944261363636364,3.37697463884354,1.47101491498947,2.75259201793671,1.0480734160970633
3.944867424242424,4.732555693531039,-0.291719460010529,2.6951115491867097,1.0480734160970633
3.945473484848485,0.893339384937286,-1.36947824907303,-0.0759260484695434,1.0480734160970633
3.946079545454545,-3.3099198924064597,-1.27128244829178,-2.93078932971954,1.0480734160970633
3.946685606060606,-4.986433564281461,0.0890886454582214,-2.9762947008132903,1.0480734160970633
3.947291666666667,-1.85374801740646,1.41592946577072,-0.169331810188293,1.0480734160970633
3.947897727272727,3.4320600880622902,0.604017844676971,2.8747380140304597,1.0480734160970633
3.948503787878788,5.08222854509354,0.22799977827072102,3.2411760023117098,1.0480734160970633
3.949109848484848,1.9112226857185401,-0.533616432666779,0.793466041374207,1.0480734160970633
3.949715909090909,-3.1805888377189597,-1.01262033891678,-2.8996540758132903,1.0480734160970633
3.95032196969697,-5.10857956037521,-0.528826393604279,-3.9774128648757903,1.0480734160970633
3.95092803030303,-1.8058476267814598,-0.12167307329177901,-0.8974177476882931,1.0480734160970633
3.951534090909091,3.07041213884354,0.821964622020721,2.88671311168671,1.0480734160970633
3.952140151515152,4.485868681812289,1.41353444623947,3.61958908824921,1.0480734160970633
3.952746212121212,2.24652542009354,0.11782887983322099,1.14553391246796,1.0480734160970633
3.953352272727273,-2.1124101267814597,-1.1060261006355299,-2.26018386096954,1.0480734160970633
3.953958333333333,-4.208052216625211,-1.75507639360428,-4.17619948596954,1.0480734160970633
3.954564393939394,-2.20342086896896,-0.533616432666779,-1.55365309925079,1.0480734160970633
3.955170454545455,1.4920942677497901,2.06258473920822,2.05803635387421,1.0480734160970633
3.955776515151515,4.01883987321854,1.89493337202072,3.27949631481171,1.0480734160970633
3.956382575757576,2.92910598649979,0.17770436811447102,1.6484880140304599,1.0480734160970633
3.956988636363636,-1.0705766306877098,-1.50599436235428,-1.49377761096954,1.0480734160970633
3.957594696969697,-4.00447555646896,-1.82213694047928,-3.68043044300079,1.0480734160970633
3.9582007575757583,-3.79850387678146,0.0435832743644714,-2.34161452503204,1.0480734160970633
3.958806818181818,0.462235869312286,2.15838552045822,1.32995041637421,1.0480734160970633
3.9594128787878793,4.29905715837479,1.41113942670822,3.49265305309296,1.0480734160970633
3.960018939393939,4.02602493181229,-0.08335276079177861,2.1131218030929597,1.0480734160970633
3.9606250000000003,-0.119753876781464,-1.00304026079178,-0.772876732063293,1.0480734160970633
3.9612310606060612,-4.241582490062711,-1.21619699907303,-3.39302809925079,1.0480734160970633
3.9618371212121213,-4.5265898142814605,0.445946555614471,-2.7631379625320402,1.0480734160970633
3.9624431818181822,-0.378415986156464,1.55723561811447,0.5779142835617069,1.0480734160970633
3.9630492424242423,4.605619658374789,0.599227805614471,3.48546799449921,1.0480734160970633
3.9636553030303032,4.34935256853104,0.41241628217697096,3.07831467418671,1.0480734160970633
3.964261363636364,0.332904814624786,-0.818623756885529,-0.322613060188293,1.0480734160970633
3.964867424242424,-4.1146464549064605,-1.2042219014167799,-3.67564040393829,1.0480734160970633
3.965473484848485,-4.90979293928146,-0.253399147510529,-3.65408522815704,1.0480734160970633
3.966079545454545,-0.371230927562714,-0.128858131885529,0.47013840465545703,1.0480734160970633
3.966685606060606,4.27031692399979,1.11176198530197,3.82795578746796,1.0480734160970633
3.967291666666667,4.35174758806229,1.46622487592697,3.2411760023117098,1.0480734160970633
3.967897727272727,0.7304780568122861,-0.26776926469802903,0.23303147106170702,1.0480734160970633
3.968503787878788,-3.57576706037521,-1.29523264360428,-3.1726863023757903,1.0480734160970633
3.969109848484848,-4.20326217756271,-1.42456369829178,-4.27679030628204,1.0480734160970633
3.969715909090909,-0.962800751781464,-0.148018288135529,-0.43757399768829297,1.0480734160970633
3.97032196969697,2.5075825489997903,2.13204030561447,3.12382004528046,1.0480734160970633
3.97092803030303,4.23918167009354,1.50933522748947,3.21962082653046,1.0480734160970633
3.971534090909091,1.7651264943122902,0.0411882548332214,0.649764869499207,1.0480734160970633
3.972140151515152,-2.66086959943771,-1.49641428422928,-2.4206501695632903,1.0480734160970633
3.972746212121212,-4.16494186506271,-1.61616526079178,-3.76186110706329,1.0480734160970633
3.973352272727273,-2.68721481428146,0.661498313426971,-1.41474196643829,1.0480734160970633
3.973958333333333,1.74117629899979,1.97636403608322,2.53943527965546,1.0480734160970633
3.974564393939394,5.01037795915604,1.03751637983322,3.2675212171554597,1.0480734160970633
3.975170454545455,3.00574661149979,-0.449790749073029,1.56466233043671,1.0480734160970633
3.975776515151515,-1.60227096662521,-1.3287629170417798,-1.81231520862579,1.0480734160970633
3.976382575757576,-4.79243698225021,-1.17308664751053,-3.75946608753204,1.0480734160970633
3.976988636363636,-3.87753952131271,0.486661887645721,-2.03026198596954,1.0480734160970633
3.977594696969697,1.14002639665604,1.14529225873947,1.5670573499679599,1.0480734160970633
3.978200757575758,5.24987991228104,0.5273772196769709,3.72736496715546,1.0480734160970633
3.978806818181818,3.29793899431229,0.30224538373947096,2.2161076429367097,1.0480734160970633
3.979412878787879,-1.4034843455314598,-0.844968971729279,-1.21356032581329,1.0480734160970633
3.980018939393939,-4.8259672556877105,-1.2305671162605298,-3.9941780015945403,1.0480734160970633
3.980625,-3.82963913068771,-0.16717844438552898,-2.55477126331329,1.0480734160970633
3.9812310606060612,1.48490920915604,-0.0186872334480286,1.15990402965546,1.0480734160970633
3.981837121212121,4.92415725603104,1.1261321024894702,3.83514084606171,1.0480734160970633
3.9824431818181822,3.44164016618729,1.27462331342697,2.84120774059296,1.0480734160970633
3.983049242424242,-0.771199189281464,-0.773118385791779,-0.7153962633132931,1.0480734160970633
3.9836553030303032,-4.32301315412521,-1.07728586626053,-3.62294997425079,1.0480734160970633
3.984261363636364,-3.3769804392814597,-1.61616526079178,-3.27327712268829,1.0480734160970633
3.9848674242424242,0.514926298999786,-0.174363502979279,0.786280982780457,1.0480734160970633
3.985473484848485,3.40810989274979,2.56793386030197,3.19567063121796,1.0480734160970633
3.9860795454545452,3.84639846696854,1.29378346967697,2.68792649059296,1.0480734160970633
3.986685606060606,0.13890823259353602,0.0100530009269714,0.134835670280457,1.0480734160970633
3.987291666666667,-3.5398417674064597,-1.38145334672928,-3.00503493518829,1.0480734160970633
3.987897727272727,-3.6260624705314597,-1.69041086626053,-3.52235915393829,1.0480734160970633
3.988503787878788,-1.02507125959396,0.771669211864471,-0.147776634407043,1.0480734160970633
3.989109848484848,3.00574661149979,1.93804372358322,3.07591965465546,1.0480734160970633
3.989715909090909,4.605619658374789,0.635153098583221,2.67834641246796,1.0480734160970633
3.99032196969697,1.1376313771247901,-0.279744362354279,0.352782447624207,1.0480734160970633
3.99092803030303,-2.9410868845939597,-1.30960276079178,-2.17396315784454,1.0480734160970633
3.991534090909091,-4.25834762678146,-1.04136057329178,-2.97150466175079,1.0480734160970633
3.992140151515152,-2.33754196271896,0.800409446239471,-0.928553001594543,1.0480734160970633
3.992746212121212,2.8404902638435403,1.11176198530197,2.31909348278046,1.0480734160970633
3.993352272727273,5.36963088884354,0.369305930614471,3.2938664319992097,1.0480734160970633
3.993958333333333,1.8034468068122902,0.239974875926971,1.37785080699921,1.0480734160970633
3.994564393939394,-2.59620407209396,-1.19943186235428,-1.9224861070632902,1.0480734160970633
3.995170454545455,-5.06307418928146,-1.04854563188553,-3.81934157581329,1.0480734160970633
3.995776515151515,-2.51956344709396,0.105853782176971,-1.9991267320632902,1.0480734160970633
3.996382575757576,3.16860793962479,-0.0210822529792786,2.24724289684296,1.0480734160970633
3.996988636363636,4.61040969743729,1.5237053446769702,3.97405197887421,1.0480734160970633
3.997594696969697,2.26329055681229,1.05188649702072,1.72752365856171,1.0480734160970633
3.9982007575757583,-2.1794706736564597,-0.844968971729279,-1.75243972034454,1.0480734160970633
3.998806818181818,-4.93613815412521,-0.756353249073029,-3.67564040393829,1.0480734160970633
3.9994128787878793,-2.31119674787521,-1.51796946001053,-2.22186354846954,1.0480734160970633
4.000018939393939,2.1147993458747902,0.153754172801971,1.7897941663742098,1.0480734160970633
4.000625,3.8583735646247903,2.36675221967697,3.66509445934296,1.0480734160970633
4.001231060606061,2.86444045915604,0.8051994853019709,2.01732102184296,1.0480734160970633
4.001837121212121,-1.1639823924064598,0.0124480204582214,-0.9572932359695431,1.0480734160970633
4.002443181818182,-3.9853154002189597,-1.3838483662605299,-3.52714919300079,1.0480734160970633
4.003049242424242,-2.5818339549064597,-1.71436106157303,-2.6936823961257903,1.0480734160970633
4.003655303030303,0.258659209156036,0.8650749735832209,0.8796867444992069,1.0480734160970633
4.004261363636364,3.92303909196854,1.53328542280197,3.21243576793671,1.0480734160970633
4.004867424242424,3.7913130177497902,0.19686452436447102,2.30232834606171,1.0480734160970633
4.005473484848485,-0.404761201000214,-0.219868874073029,-0.296267845344543,1.0480734160970633
4.006079545454545,-3.58055709943771,-1.4533039326667798,-2.94036940784454,1.0480734160970633
4.006685606060606,-3.60690231428146,-0.794673561573029,-2.86851882190704,1.0480734160970633
4.007291666666667,-0.570017548656464,0.872260032176971,-0.11903640003204301,1.0480734160970633
4.007897727272727,3.78891799821854,0.769274192333221,3.02322922496796,1.0480734160970633
4.008503787878788,4.72297561540604,0.33098561811447097,3.5070231702804597,1.0480734160970633
4.009109848484848,0.19399368181228602,0.469896750926971,0.321647193717957,1.0480734160970633
4.009715909090909,-3.56379196271896,-1.27607248735428,-3.04335524768829,1.0480734160970633
4.01032196969697,-4.2343974314689605,-0.904844460010529,-3.14873610706329,1.0480734160970633
4.01092803030303,-0.874185029125214,-0.126463112354279,-0.6172004625320431,1.0480734160970633
4.011534090909091,4.08829543962479,-0.179153542041779,2.66158127574921,1.0480734160970633
4.012140151515151,4.31582229509354,1.73446706342697,3.5237883069992098,1.0480734160970633
4.012746212121212,0.833463896656036,0.819569602489471,0.647369849967957,1.0480734160970633
4.013352272727273,-3.4632011424064597,-0.914424538135529,-2.7799030992507903,1.0480734160970633
4.013958333333333,-4.51940475568771,-0.574331764698029,-3.64211013050079,1.0480734160970633
4.014564393939394,-0.749644013500214,-1.5299445576667798,-1.13691970081329,1.0480734160970633
4.015170454545455,2.91952590837479,0.477081809520721,2.3262785413742098,1.0480734160970633
4.015776515151515,3.80089309587479,2.33801198530197,3.32260666637421,1.0480734160970633
4.016382575757576,1.59747512712479,0.27111012983322097,1.4736515882492098,1.0480734160970633
4.016988636363636,-2.69439987287521,0.0819035868644714,-1.7476496812820401,1.0480734160970633
4.017594696969697,-4.44994918928146,-1.57784494829178,-3.81215651721954,1.0480734160970633
4.018200757575758,-1.45617477521896,-1.4221686787605299,-2.00391677112579,1.0480734160970633
4.018806818181818,1.40826858415604,1.19798268842697,1.9694206312179598,1.0480734160970633
4.019412878787879,4.05237014665604,1.52131032514572,3.48786301403046,1.0480734160970633
4.020018939393939,2.4381269825935403,0.474686789989471,1.42814621715546,1.0480734160970633
4.020625,-1.97828903303146,-0.0474274678230286,-1.0626740953445402,1.0480734160970633
4.021231060606061,-3.84161422834396,-1.2090119404792798,-2.79906325550079,1.0480734160970633
4.021837121212121,-2.5650688181877097,-0.7707233662605291,-2.2410237047195403,1.0480734160970633
4.022443181818182,1.12565627946854,0.831544700145721,0.7767009046554569,1.0480734160970633
4.023049242424242,4.17691116228104,0.5465373759269709,3.15974533824921,1.0480734160970633
4.023655303030303,3.64042678728104,0.378886008739471,2.75738205699921,1.0480734160970633
4.024261363636364,-1.14482223615646,0.09866872358322139,-0.669890892219543,1.0480734160970633
4.024867424242424,-4.136201630687711,-1.3072077412605299,-3.3954231187820403,1.0480734160970633
4.025473484848485,-3.47038620100021,-0.433025612354279,-2.80864333362579,1.0480734160970633
4.026079545454545,1.01069534196854,-0.164783424854279,0.28093186168670703,1.0480734160970633
4.026685606060606,4.79003616228104,0.0483733134269714,3.12382004528046,1.0480734160970633
4.027291666666667,3.46319534196854,1.8829582743644702,2.9944889905929597,1.0480734160970633
4.027897727272727,-0.773594208812714,0.445946555614471,-0.212442161750793,1.0480734160970633
4.028503787878788,-3.82963913068771,-0.9096344990730291,-3.03138015003204,1.0480734160970633
4.029109848484849,-3.58534713850021,-0.47613596391677904,-3.10083571643829,1.0480734160970633
4.029715909090909,0.965189970874786,-1.26649240922928,-0.346563255500793,1.0480734160970633
4.0303219696969705,3.94219924821854,1.2722282938957201,2.8483927991867097,1.0480734160970633
4.03092803030303,3.44643020524979,2.22784108686447,3.15016526012421,1.0480734160970633
4.031534090909091,-0.0886186228752136,0.165729270458221,0.338412330436707,1.0480734160970633
4.0321401515151525,-3.42727584943771,-0.10730295610427901,-2.3775398180007903,1.0480734160970633
4.0327462121212125,-3.59732223615646,-1.43653879594803,-2.94515944690704,1.0480734160970633
4.0333522727272735,-0.177234345531464,-0.907239479541779,-0.7776667711257931,1.0480734160970633
4.033958333333333,2.64888870134354,1.29857350873947,2.34064865856171,1.0480734160970633
4.0345643939393945,3.93980422868729,0.989615989208221,2.7717521741867097,1.0480734160970633
4.035170454545455,1.02267043962479,0.148964133739471,0.989857642936707,1.0480734160970633
4.0357765151515155,-3.10155319318771,-0.23184397172927898,-1.98475661487579,1.0480734160970633
4.036382575757576,-3.54463180646896,-1.39821848344803,-3.28046218128204,1.0480734160970633
4.0369886363636365,-1.45377975568771,-0.468950905323029,-1.2039802476882902,1.0480734160970633
4.037594696969697,2.37585647478104,0.982430930614471,1.45928147106171,1.0480734160970633
4.038200757575758,4.272711943531039,0.448341575145721,3.1142399671554597,1.0480734160970633
4.038806818181818,2.1746748341560402,0.752509055614471,1.7299186780929598,1.0480734160970633
4.039412878787879,-2.69918991193771,0.0579533915519714,-1.6063435289382901,1.0480734160970633
4.040018939393939,-4.05956100568771,-1.43653879594803,-3.4816438219070402,0.4262475021961384
4.040625,-2.3255668650627097,-0.363570045948029,-2.15001296253204,0.4262475021961384
4.041231060606061,2.7734297169685402,-0.34680490922927903,1.45928147106171,0.4262475021961384
4.041837121212121,4.71818557634354,0.275900168895721,3.3609269788742098,0.4262475021961384
4.042443181818182,2.08605911149979,1.50454518842697,2.1035417249679598,0.4262475021961384
4.043049242424242,-1.99265915021896,-0.0330573506355286,-1.11536452503204,0.4262475021961384
4.043655303030303,-4.3804936228752105,-0.538406471729279,-3.0792805406570403,0.4262475021961384
4.044261363636364,-2.59620407209396,-0.6701325459480291,-2.53561110706329,0.4262475021961384
4.044867424242424,2.2513154591560403,-1.3622931904792799,0.884476783561707,0.4262475021961384
4.045473484848485,3.87992874040604,1.0447014384269702,3.18609055309296,0.4262475021961384
4.046079545454545,2.63451858415604,1.78715749311447,2.18736740856171,0.4262475021961384
4.046685606060606,-1.2957084666252099,0.295060325145721,-0.382488548469543,0.4262475021961384
4.047291666666667,-4.169731904125211,-0.219868874073029,-2.76553298206329,0.4262475021961384
4.047897727272727,-2.57943893537521,-1.68083078813553,-2.78469313831329,0.4262475021961384
4.048503787878788,1.0897309864997902,-0.924004616260529,0.273746803092957,0.4262475021961384
4.049109848484848,3.22129836931229,1.53807546186447,2.5059050062179598,0.4262475021961384
4.049715909090909,2.94587112321854,0.915370383739471,1.97181565074921,0.4262475021961384
4.05032196969697,-0.785569306468964,0.151359153270721,-0.102271263313293,0.4262475021961384
4.05092803030303,-3.82005905256271,-0.255794167041779,-1.95362136096954,0.4262475021961384
4.051534090909091,-2.70397995100021,-1.29283762407303,-2.44460036487579,0.4262475021961384
4.052140151515152,-0.227529755687714,-0.40668039751052903,-0.40883376331329296,0.4262475021961384
4.052746212121212,3.12549758806229,0.903395286083221,2.1897624280929597,0.4262475021961384
4.053352272727273,3.77454788103104,0.0579533915519714,2.84120774059296,0.4262475021961384
4.053958333333333,0.747243193531036,0.860284934520721,0.853341529655457,0.4262475021961384
4.054564393939394,-3.6092973338127097,-0.22705393266677898,-2.5236360094070402,0.4262475021961384
4.055170454545455,-3.50870651350021,-1.41258860063553,-3.09365065784454,0.4262475021961384
4.055776515151515,-0.843049775218964,-0.24621408891677898,-1.20637526721954,0.4262475021961384
4.056382575757576,3.62366165056229,-0.24621408891677898,1.82092942028046,0.4262475021961384
4.056988636363636,4.04039504899979,0.556117454051971,3.0016740491867098,0.4262475021961384
4.057594696969697,0.840648955249786,1.5620256571769702,1.04733811168671,0.4262475021961384
4.058200757575758,-2.98898727521896,-0.24142404985427898,-1.8195002672195402,0.4262475021961384
4.058806818181818,-4.07872116193771,-0.725217995166779,-3.21100661487579,0.4262475021961384
4.059412878787879,-1.2190678416252099,-1.00783029985428,-1.54407302112579,0.4262475021961384
4.060018939393939,3.39852981462479,-0.986275124073029,1.61256272106171,0.4262475021961384
4.060625,3.74580764665604,1.6698015360832201,2.99688401012421,0.4262475021961384
4.061231060606061,1.5088594044685402,1.44945973920822,1.6149577405929598,0.4262475021961384
4.061837121212121,-2.65607956037521,0.388466086864471,-1.2590656969070402,0.4262475021961384
4.062443181818182,-4.361333466625211,-0.06658762407302861,-2.78229811878204,0.4262475021961384
4.063049242424242,-1.37953415021896,-1.61377024126053,-1.86979567737579,0.4262475021961384
4.063655303030303,2.04055374040604,-0.8689191670417791,1.31318527965546,0.4262475021961384
4.064261363636364,3.82963333024979,1.46622487592697,2.71427170543671,0.4262475021961384
4.064867424242424,2.14593459978104,0.738138938426971,1.71554856090546,0.4262475021961384
4.065473484848485,-1.64538131818771,0.5656975321769709,-0.684261009407043,0.4262475021961384
4.066079545454545,-4.12662155256271,-0.44739572954177903,-2.5835114976882902,0.4262475021961384
4.066685606060606,-1.86811813459396,-1.34313303422928,-2.07097731800079,0.4262475021961384
4.067291666666667,1.0418305958747902,-0.418655495166779,0.41026291637420703,0.4262475021961384
4.067897727272727,3.8583735646247903,0.764484153270721,2.58015061168671,0.4262475021961384
4.068503787878788,2.7973799122810403,0.41241628217697096,2.51788010387421,0.4262475021961384
4.069109848484848,-0.981960908031464,0.754904075145721,-0.248367454719543,0.4262475021961384
4.069715909090909,-4.155361786937711,-0.473740944385529,-2.85893874378204,0.4262475021961384
4.07032196969697,-2.8309159861564597,-1.35750315141678,-2.54998122425079,0.4262475021961384
4.07092803030303,0.668207548999786,-0.15759836626052898,-0.11903640003204301,0.4262475021961384
4.071534090909091,4.306242216968539,-0.29650949907302904,2.39094406871796,0.4262475021961384
4.072140151515152,2.98419143571854,0.896210227489471,2.50111496715546,0.4262475021961384
4.072746212121212,-0.708928681468964,1.2626482157707202,0.225846412467957,0.4262475021961384
4.0733522727272735,-3.67875290021896,-0.423445534229279,-2.32245436878204,0.4262475021961384
4.073958333333333,-3.4368559275627097,-0.5096662373542791,-2.70086745471954,0.4262475021961384
4.074564393939394,0.270634306812286,-1.2090119404792798,-0.6172004625320431,0.4262475021961384
4.0751704545454555,4.00446975603104,-0.734798073291779,2.14186203746796,0.4262475021961384
4.0757765151515155,3.29075393571854,1.60274098920822,2.67116135387421,0.4262475021961384
4.0763825757575765,0.131723173999786,1.24827809858322,0.788676002311707,0.4262475021961384
4.076988636363636,-3.49912643537521,0.570487571239471,-1.59915847034454,0.4262475021961384
4.0775946969696975,-4.02842575178146,-0.270164284229279,-2.80864333362579,0.4262475021961384
4.078200757575758,0.102982939624786,-1.62095529985428,-1.1393147203445402,0.4262475021961384
4.0788068181818184,2.8668354786872903,-0.363570045948029,1.85685471324921,0.4262475021961384
4.079412878787879,3.73383254899979,1.53089040327072,3.0016740491867098,0.4262475021961384
4.0800189393939394,0.8095137013435361,0.798014426708221,0.9826725843429569,0.4262475021961384
4.080625,-2.5914140330314597,0.457921653270721,-1.94643630237579,0.4262475021961384
4.081231060606061,-3.92783493146896,-0.6916877217292791,-2.3607746812820403,0.4262475021961384
4.081837121212121,-0.570017548656464,-1.3024177021980299,-1.5584431383132902,0.4262475021961384
4.082443181818182,2.35669631853104,-0.138438210010529,0.9994377210617069,0.4262475021961384
4.083049242424242,3.9445942677497903,0.9057903056144709,2.71427170543671,0.4262475021961384
4.083655303030303,1.5184394825935401,0.556117454051971,1.8879899671554599,0.4262475021961384
4.084261363636364,-2.43813278303146,0.577672629833221,-1.01477370471954,0.4262475021961384
4.084867424242424,-3.92783493146896,-0.672527565479279,-2.90204909534454,0.4262475021961384
4.085473484848485,-1.5950859080314599,-1.37426828813553,-1.65424391956329,0.4262475021961384
4.086079545454545,2.09324417009354,-0.203103737354279,0.826996314811707,0.4262475021961384
4.086685606060606,4.03081497087479,-0.0258722920417786,2.61607590465546,0.4262475021961384
4.087291666666667,2.17946487321854,1.03991139936447,2.03169113903046,0.4262475021961384
4.087897727272727,-2.09804000959396,0.903395286083221,-0.6387556383132931,0.4262475021961384
4.088503787878788,-4.148176728343961,-0.38512522172927904,-2.6601521226882903,0.4262475021961384
4.089109848484849,-2.57464889631271,-0.684502663135529,-2.45897048206329,0.4262475021961384
4.089715909090909,1.8130268849372901,-1.31678781938553,0.28093186168670703,0.4262475021961384
4.09032196969697,4.279897002124789,-0.229448952198029,2.61368088512421,0.4262475021961384
4.09092803030303,2.3543012989997902,1.6003459696769702,2.26879807262421,0.4262475021961384
4.091534090909091,-1.32923874006271,0.908185325145721,0.055800025749206596,0.4262475021961384
4.092140151515152,-3.98771041975021,0.359725852489471,-2.5236360094070402,0.4262475021961384
4.092746212121212,-3.20453903303146,-0.600676979541779,-2.62183181018829,0.4262475021961384
4.093352272727273,1.89206252946854,-1.34073801469803,-0.0950862047195434,0.4262475021961384
4.093958333333333,3.6356367482185403,-0.0570075459480286,2.00295090465546,0.4262475021961384
4.094564393939394,2.90515579118729,1.22193288373947,2.07719651012421,0.4262475021961384
4.095170454545455,-0.838259736156464,0.939320579051971,0.345597389030457,0.4262475021961384
4.095776515151515,-3.78652877912521,0.544142356395721,-2.16917311878204,0.4262475021961384
4.096382575757576,-3.2739945994377098,-0.852154030323029,-2.3775398180007903,0.4262475021961384
4.096988636363636,0.18441360368728602,-1.3287629170417798,-0.5764851305007931,0.4262475021961384
4.097594696969697,3.16381790056229,-0.06419260454177861,1.66285813121796,0.4262475021961384
4.098200757575758,3.1662129200935403,0.817174582958221,2.47716477184296,0.4262475021961384
4.098806818181818,0.5101362599372861,1.01117116498947,1.0880534437179599,0.4262475021961384
4.099412878787879,-3.25483444318771,0.22320973920822101,-1.9272761461257901,0.4262475021961384
4.100018939393939,-3.36261032209396,-0.758748268604279,-2.59548659534454,0.4262475021961384
4.100625,-0.531697236156464,-1.2904426045417798,-0.866282493782043,0.4262475021961384
4.101231060606061,3.10394241228104,-0.5096662373542791,1.44251633434296,0.4262475021961384
4.101837121212121,3.78891799821854,0.26153005170822097,2.6256559827804598,0.4262475021961384
4.102443181818182,0.704132841968536,1.0279363017082201,1.44970139293671,0.4262475021961384
4.103049242424242,-3.15903366193771,0.584857688426971,-0.942923118782043,0.4262475021961384
4.103655303030303,-3.68833297834396,-0.370755104541779,-2.57872145862579,0.4262475021961384
4.104261363636364,-1.1975126658439599,-0.615047096729279,-1.2303254625320401,0.4262475021961384
4.104867424242424,3.06801711931229,-0.866524147510529,1.0593132093429598,0.4262475021961384
4.105473484848485,4.29187209978104,-0.16238840532302898,2.24484787731171,0.4262475021961384
4.106079545454545,1.3986885060310401,1.31533864545822,1.57424240856171,0.4262475021961384
4.106685606060606,-2.2393461619377097,1.0207512431144699,-0.564510032844543,0.4262475021961384
4.107291666666667,-3.82484909162521,0.577672629833221,-2.51884597034454,0.4262475021961384
4.107897727272727,-1.8920683299064598,-0.557566627979279,-1.6877741930007901,0.4262475021961384
4.108503787878788,2.5842231739997903,-1.18985178422928,0.6809001234054569,0.4262475021961384
4.109109848484848,3.88232375993729,0.0435832743644714,1.88080490856171,0.4262475021961384
4.109715909090909,1.8034468068122902,0.903395286083221,1.55987229137421,0.4262475021961384
4.11032196969697,-1.71723190412521,1.00877614545822,-0.724976341438293,0.4262475021961384
4.11092803030303,-3.87035446271896,0.38128102827072097,-1.91290602893829,0.4262475021961384
4.111534090909091,-1.9854740916252098,-0.844968971729279,-2.0446321031570402,0.4262475021961384
4.1121401515151526,1.36036819353104,-1.24493723344803,-0.150171653938293,0.4262475021961384
4.112746212121212,3.72425247087479,0.0699284892082214,2.06043137340546,0.4262475021961384
4.113352272727273,2.45728713884354,0.793224387645721,2.33106858043671,0.4262475021961384
4.113958333333333,-0.9675907908439639,1.0830217509269702,0.0150846937179566,0.4262475021961384
4.1145643939393945,-4.06435104475021,0.287875266551971,-2.51645095081329,0.4262475021961384
4.1151704545454555,-2.48124313459396,-0.847363991260529,-2.04942214221954,0.4262475021961384
4.115776515151515,1.02267043962479,-1.17308664751053,-0.178911888313293,0.4262475021961384
4.1163825757575765,3.69790725603104,-0.567146706104279,1.89996506481171,0.4262475021961384
4.1169886363636365,2.83809524431229,0.548932395458221,2.16820725231171,0.4262475021961384
4.1175946969696975,-0.404761201000214,0.989615989208221,0.5994694593429569,0.4262475021961384
4.118200757575758,-3.49912643537521,0.36212087202072096,-1.69735427112579,0.4262475021961384
4.1188068181818185,-3.1039482127189597,-0.524036354541779,-1.95362136096954,0.4262475021961384
4.119412878787879,0.136513213062286,-1.06531076860428,-0.459129173469543,0.4262475021961384
4.1200189393939395,3.4823554982185403,-0.708452858448029,1.4137760999679598,0.4262475021961384
4.120625,3.2691987599372903,0.28308522748947096,2.49871994762421,0.4262475021961384
4.121231060606061,0.373620146656036,1.29617848920822,1.21977951793671,0.4262475021961384
4.121837121212121,-3.42248581037521,1.04709645795822,-1.40755690784454,0.4262475021961384
4.122443181818182,-3.93022995100021,0.151359153270721,-2.37514479846954,0.4262475021961384
4.123049242424242,-0.531697236156464,-0.813833717823029,-1.10817946643829,0.4262475021961384
4.123655303030303,3.27398879899979,-0.859339088916779,1.1790641859054598,0.4262475021961384
4.124261363636364,3.84400344743729,0.16812428998947102,1.99337082653046,0.4262475021961384
4.124867424242424,0.323324736499786,1.14529225873947,0.953932349967957,0.4262475021961384
4.125473484848485,-2.70637497053146,1.05907155561447,-0.9333430406570431,0.4262475021961384
4.126079545454545,-3.81526901350021,-0.00192209672927857,-2.4038850328445402,0.4262475021961384
4.126685606060606,-0.840654755687714,-0.806648659229279,-1.2806208726882902,0.4262475021961384
4.127291666666667,2.58661819353104,-1.10842112016678,0.709640357780457,0.4262475021961384
4.127897727272727,3.93740920915604,0.285480247020721,2.0867765882492098,0.4262475021961384
4.128503787878788,1.1160762013435401,1.02314626264572,2.21131760387421,0.4262475021961384
4.129109848484848,-2.22976608381271,0.972850852489471,-0.705816185188293,0.4262475021961384
4.129715909090909,-3.92064987287521,0.26153005170822097,-2.63859694690704,0.4262475021961384
4.13032196969697,-1.4729399119377098,-1.32636789751053,-1.52730788440704,0.4262475021961384
4.13092803030303,2.10282424821854,-1.04136057329178,0.494088599967957,0.4262475021961384
4.131534090909091,3.92064407243729,-0.442605690479279,1.8065593030929599,0.4262475021961384
4.132140151515152,1.8776924122810401,0.486661887645721,1.49999680309296,0.4262475021961384
4.132746212121212,-1.7124418650627098,1.0207512431144699,-0.13101149768829298,0.4262475021961384
4.133352272727273,-4.02363571271896,0.419601340770721,-2.06858229846954,0.4262475021961384
4.133958333333333,-2.0764848338127098,-0.392310280323029,-1.86979567737579,0.4262475021961384
4.134564393939394,1.4657490529060402,-0.947954811573029,0.230636451530457,0.4262475021961384
4.135170454545455,4.00207473649979,-0.638997292041779,1.96223557262421,0.4262475021961384
4.135776515151515,2.74468948259354,0.484266868114471,1.9358903577804598,0.4262475021961384
4.136382575757576,-1.0490214549064598,1.2243279032707202,0.496483619499207,0.4262475021961384
4.136988636363636,-3.80329391584396,0.812384543895721,-1.70693434925079,0.4262475021961384
4.137594696969697,-2.9674320994377097,-0.0282673115730286,-2.30568923206329,0.4262475021961384
4.138200757575758,0.874179228687286,-0.983880104541779,-0.126221458625793,0.4262475021961384
4.138806818181818,3.52786086931229,-0.763538307666779,1.56226731090546,0.4262475021961384
4.139412878787879,3.12549758806229,0.26392507123947095,2.0364811780929597,0.4262475021961384
4.140018939393939,-0.919690400218964,1.11655202436447,0.7216154554367069,0.4262475021961384
4.140625,-3.29794479475021,0.977640891551971,-1.06985915393829,0.6961646700356998
4.141231060606061,-3.10634323225021,-0.07137766313552861,-1.6350837633132902,0.6961646700356998
4.141837121212121,0.124538115406036,-1.05573069047928,-0.528584739875793,0.6961646700356998
4.142443181818182,3.26201370134354,-1.1539264912605298,0.987462623405457,0.6961646700356998
4.143049242424242,3.30751907243729,0.146569114208221,1.86403977184296,0.6961646700356998
4.143655303030303,-0.14130905256271398,1.0614665751457202,1.31318527965546,0.6961646700356998
4.144261363636364,-2.90276657209396,0.654313254833221,-1.55125807971954,0.6961646700356998
4.144867424242424,-3.6931230174064598,0.194469504833221,-2.4469953844070402,0.6961646700356998
4.145473484848485,-0.17004928693771398,-1.4054035420417799,-0.686656028938293,0.6961646700356998
4.146079545454545,3.1326826466560402,-1.07728586626053,1.27486496715546,0.6961646700356998
4.146685606060606,3.58773635759354,-0.102512917041779,1.92870529918671,0.6961646700356998
4.147291666666667,0.795143584156036,0.493846946239471,1.11200363903046,0.6961646700356998
4.147897727272727,-2.75427536115646,1.07344167280197,-0.7800617906570431,0.6961646700356998
4.148503787878788,-3.62366745100021,0.146569114208221,-1.93206618518829,0.6961646700356998
4.149109848484849,-1.2885234080314598,-0.660552467823029,-1.09380934925079,0.6961646700356998
4.149715909090909,2.37585647478104,-0.8689191670417791,0.5827043226242069,0.6961646700356998
4.15032196969697,3.95417434587479,-0.5120612568855291,1.81374436168671,0.6961646700356998
4.15092803030303,1.7220161427497902,0.635153098583221,1.48323166637421,0.6961646700356998
4.151534090909091,-2.08127487287521,1.39437428998947,-0.313032982063293,0.6961646700356998
4.152140151515152,-4.14578170881271,1.11655202436447,-2.17156813831329,0.6961646700356998
4.152746212121212,-1.93517868146896,-0.401890358448029,-1.52730788440704,0.6961646700356998
4.153352272727273,2.04294875993729,-1.07968088579178,0.606654517936707,0.6961646700356998
4.153958333333333,3.63324172868729,-0.552776588916779,1.0497331312179599,0.6961646700356998
4.154564393939394,2.1746748341560402,0.299850364208221,1.06410324840546,0.6961646700356998
4.1551704545454555,-1.6525663767814598,1.2842033915519702,0.175551002311707,0.6961646700356998
4.155776515151515,-3.80329391584396,0.819569602489471,-2.06379225940704,0.6961646700356998
4.156382575757576,-2.6153642283439598,-0.361175026416779,-1.7380696031570402,0.6961646700356998
4.156988636363636,1.2957026661872901,-1.14195139360428,-0.0974812242507934,0.6961646700356998
4.1575946969696975,3.68353713884354,-1.09644602251053,1.11200363903046,0.6961646700356998
4.1582007575757585,2.52674270524979,0.580067649364471,2.02929611949921,0.6961646700356998
4.158806818181818,-1.25499313459396,1.3656340556144702,0.424633033561707,0.6961646700356998
4.1594128787878795,-3.74102340803146,0.49145192670822097,-1.9176960680007902,0.6961646700356998
4.1600189393939395,-2.8476811228752097,0.0555583720207214,-2.20988845081329,0.6961646700356998
4.1606250000000005,1.23822219743729,-1.45809397172928,-0.183701927375793,0.6961646700356998
4.161231060606061,3.76975784196854,-0.880894264698029,1.6101677015304598,0.6961646700356998
4.1618371212121215,2.86923049821854,0.366910911083221,1.83529953746796,0.6961646700356998
4.162443181818182,-0.21076461896896398,0.8075945048332209,0.690480201530457,0.6961646700356998
4.1630492424242425,-3.1973539744377097,0.881840110301971,-1.1488947984695401,0.6961646700356998
4.163655303030303,-3.17340377912521,-0.0402424092292786,-1.6829841539382902,0.6961646700356998
4.164261363636364,-0.148494111156464,-0.837783913135529,-0.7561115953445431,0.6961646700356998
4.164867424242424,3.12789260759354,-0.804253639698029,0.8365763929367069,0.6961646700356998
4.165473484848485,3.55660110368729,-0.634207252979279,1.80895432262421,0.6961646700356998
4.166079545454545,0.601147002124786,0.651918235301971,1.04733811168671,0.6961646700356998
4.166685606060606,-2.79259567365646,1.29138845014572,-1.05309401721954,0.6961646700356998
4.167291666666667,-3.72186325178146,0.551327414989471,-2.1643830797195402,0.6961646700356998
4.167897727272727,-0.900530243968964,-0.382730202198029,-1.1393147203445402,0.6961646700356998
4.168503787878788,2.91234084978104,-0.945559792041779,1.0281779554367099,0.6961646700356998
4.169109848484848,3.65719192399979,-0.686897682666779,1.36108567028046,0.6961646700356998
4.169715909090909,1.2813325489997902,0.642338157176971,0.7767009046554569,0.6961646700356998
4.17032196969697,-2.6417094431877097,1.4470647196769701,-0.169331810188293,0.6961646700356998
4.17092803030303,-4.04279586896896,0.582462668895721,-1.25427565784454,0.6961646700356998
4.171534090909091,-1.48251999006271,-0.155203346729279,-1.4985676500320402,0.6961646700356998
4.172140151515152,2.28245071306229,-1.12518625688553,0.16836594371795702,0.6961646700356998
4.172746212121212,4.06434524431229,-1.05333567094803,1.71075852184296,0.6961646700356998
4.173352272727273,1.7914717091560401,0.970455832958221,1.4185661390304598,0.6961646700356998
4.173958333333333,-1.98307907209396,1.3488689188957201,-0.255552513313293,0.6961646700356998
4.174564393939394,-3.96376022443771,0.513007102489471,-2.17635817737579,0.6961646700356998
4.175170454545455,-1.8441679392814598,-0.43542063188552904,-1.3788166734695402,0.6961646700356998
4.175776515151515,2.05731887712479,-1.57784494829178,0.482113502311707,0.6961646700356998
4.176382575757576,3.45122024431229,-0.370755104541779,1.4952067640304598,0.6961646700356998
4.176988636363636,1.94714797868729,0.414811301708221,1.24851975231171,0.6961646700356998
4.177594696969697,-1.2573881541252099,0.671078391551971,0.0174797132492066,0.6961646700356998
4.178200757575758,-3.23806930646896,0.802804465770721,-1.4818025133132902,0.6961646700356998
4.178806818181818,-2.30161666975021,-0.270164284229279,-1.4554572984695402,0.6961646700356998
4.179412878787879,0.900524443531036,-1.09165598344803,-0.255552513313293,0.6961646700356998
4.180018939393939,3.55420608415604,-0.634207252979279,1.2293595960617099,0.6961646700356998
4.180625,2.6608637989997903,-0.255794167041779,1.5287370374679599,0.6961646700356998
4.181231060606061,-0.684978486156464,0.572882590770721,0.5371989515304569,0.6961646700356998
4.181837121212121,-3.25243942365646,1.47101491498947,-1.07704421253204,0.6961646700356998
4.182443181818182,-3.15903366193771,0.577672629833221,-2.06858229846954,0.6961646700356998
4.183049242424242,0.0143672169685364,-0.423445534229279,-0.583670189094543,0.6961646700356998
4.183655303030303,3.42727004899979,-0.715637917041779,1.63411789684296,0.6961646700356998
4.184261363636364,3.58055129899979,-0.607862038135529,1.1527189710617098,0.6961646700356998
4.184867424242424,-0.134123993968964,0.994406028270721,0.453373267936707,0.6961646700356998
4.185473484848485,-3.11352829084396,1.38958425092697,-0.526189720344543,0.6961646700356998
4.186079545454545,-3.3099198924064597,0.510612082958221,-2.26257888050079,0.6961646700356998
4.186685606060606,-0.589177704906464,-0.353989967823029,-0.621990501594543,0.6961646700356998
4.187291666666667,3.04167190446854,-1.52036447954178,0.891661842155457,0.6961646700356998
4.187897727272727,3.77694290056229,-0.703662819385529,1.3323454359054598,0.6961646700356998
4.188503787878788,0.383200224781036,0.948900657176971,1.1575090101242098,0.6961646700356998
4.189109848484848,-2.92911178693771,0.901000266551971,-1.06027907581329,0.6961646700356998
4.189715909090909,-3.5134965525627098,0.479476829051971,-1.99194167346954,0.6961646700356998
4.19032196969697,-0.610732880687714,-0.9886701436042791,-1.00998366565704,0.6961646700356998
4.19092803030303,2.86204543962479,-1.3718732686042798,0.613839576530457,0.6961646700356998
4.191534090909091,3.34104934587479,-0.31806467485427903,1.65567307262421,0.6961646700356998
4.192140151515152,1.20229690446854,0.278295188426971,0.913217017936707,0.6961646700356998
4.192746212121212,-2.39262741193771,0.936925559520721,-0.511819603157043,0.6961646700356998
4.193352272727273,-3.18537887678146,0.364515891551971,-1.6877741930007901,0.6961646700356998
4.193958333333333,-1.2454130564689598,-0.468950905323029,-1.3955818101882902,0.6961646700356998
4.194564393939394,1.7100410450935402,-0.636602272510529,0.439003150749207,0.6961646700356998
4.195170454545455,3.51828079118729,-0.442605690479279,1.48083664684296,0.6961646700356998
4.195776515151515,2.09563918962479,0.0579533915519714,1.0545231702804598,0.6961646700356998
4.196382575757576,-1.5400004588127099,0.836334739208221,-0.0543708726882934,0.6961646700356998
4.196988636363636,-3.46799118146896,1.3608440165519702,-1.7380696031570402,0.6961646700356998
4.197594696969697,-2.3854423533439597,0.20165456342697102,-1.6781941148757902,0.6961646700356998
4.1982007575757585,1.1975068654060401,-0.516851295948029,0.436608131217957,0.6961646700356998
4.198806818181819,3.3889497364997903,-0.480926002979279,0.8629216077804569,0.6961646700356998
4.1994128787878795,2.84528030290604,-0.9695099873542791,1.0928434827804598,0.6961646700356998
4.200018939393939,-0.900530243968964,0.812384543895721,0.271351783561707,0.6961646700356998
4.2006250000000005,-3.61887741193771,1.35365895795822,-1.58718337268829,0.6961646700356998
4.201231060606061,-2.84289108381271,0.27350514936447096,-0.866282493782043,0.6961646700356998
4.2018371212121215,0.332904814624786,-0.370755104541779,-0.6555207750320431,0.6961646700356998
4.202443181818182,3.60929153337479,-1.50599436235428,0.498878639030457,0.6961646700356998
4.2030492424242425,3.05843704118729,-0.373150124073029,2.10593674449921,0.6961646700356998
4.203655303030303,-0.692163544750214,1.38000417280197,0.6976652601242069,0.6961646700356998
4.204261363636364,-3.4536210642814598,0.889025168895721,-1.5033576890945402,0.6961646700356998
4.204867424242424,-2.96503707990646,0.553722434520721,-2.14043288440704,0.6961646700356998
4.205473484848485,0.31613967790603603,-1.45809397172928,-0.320218040657043,0.6961646700356998
4.206079545454545,3.41768997087479,-1.58263498735428,1.45449143199921,0.6961646700356998
4.206685606060606,2.75666458024979,0.12022389936447099,1.56945236949921,0.6961646700356998
4.207291666666667,0.16285842790603602,0.42199636030197096,0.712035377311707,0.6961646700356998
4.207897727272727,-2.78062057600021,0.6471281962394709,-1.0626740953445402,0.6961646700356998
4.208503787878788,-2.88839645490646,0.436366477489471,-1.72848952503204,0.6961646700356998
4.209109848484849,-0.6274980174064639,-0.507271217823029,-0.41841384143829297,0.6961646700356998
4.209715909090909,2.53153274431229,-0.703662819385529,0.6186296155929569,0.6961646700356998
4.21032196969697,3.36978958024979,-0.353989967823029,0.973092506217957,0.6961646700356998
4.21092803030303,1.3076777638435402,-0.00192209672927857,0.8581315687179569,0.6961646700356998
4.211534090909091,-2.30401168928146,0.6854485087394709,-0.5740901109695431,0.6961646700356998
4.212140151515151,-3.59732223615646,0.896210227489471,-1.47222243518829,0.6961646700356998
4.212746212121212,-1.2717582713127098,0.287875266551971,-0.748926536750793,0.6961646700356998
4.213352272727273,1.61424026384354,-0.40668039751052903,0.338412330436707,0.6961646700356998
4.213958333333333,3.60689651384354,-0.7491681904792791,1.36827072887421,0.6961646700356998
4.214564393939394,2.03336868181229,-0.653367409229279,0.894056861686707,0.6961646700356998
4.215170454545455,-1.7507621775627098,1.2291179423332201,-0.284292747688293,0.6961646700356998
4.215776515151515,-3.58774215803146,1.21714284467697,-1.00758864612579,0.6961646700356998
4.216382575757576,-2.23695114240646,0.376490989208221,-1.90332595081329,0.6961646700356998
4.216988636363636,1.13044631853104,-0.873709206104279,0.0821452405929566,0.6961646700356998
4.217594696969697,3.78652297868729,-1.51796946001053,1.64609299449921,0.6961646700356998
4.218200757575758,1.98067825212479,0.23278981733322102,1.09044846324921,0.6961646700356998
4.218806818181818,-1.3268437205314598,1.08062673139572,-0.0998762437820434,0.6961646700356998
4.219412878787879,-3.5230766306877097,0.776459250926971,-1.9655964586257901,0.6961646700356998
4.220018939393939,-2.6680546580314597,-0.0474274678230286,-1.5464680406570401,0.6961646700356998
4.220625,1.7531513966560401,-1.59221506547928,0.278536842155457,0.6961646700356998
4.221231060606061,3.63803176774979,-1.27846750688553,0.9227970960617069,0.6961646700356998
4.221837121212121,1.6621406544685402,0.307035422801971,1.26288986949921,0.6961646700356998
4.222443181818182,-0.917295380687714,0.702213645458221,-0.0950862047195434,0.6961646700356998
4.223049242424242,-3.4368559275627097,0.7860393290519709,-1.1441047594070402,0.6961646700356998
4.223655303030303,-2.41657760725021,0.184889426708221,-0.353748314094543,0.6961646700356998
4.224261363636364,0.637072295093536,-0.741983131885529,-0.372908470344543,0.6961646700356998
4.224867424242424,2.63930862321854,-0.598281960010529,0.791071021842957,0.6961646700356998
4.225473484848485,2.70157913103104,-0.301299538135529,1.80416428356171,0.6961646700356998
4.226079545454545,0.177228545093536,0.0292131571769714,0.484508521842957,0.6961646700356998
4.226685606060606,-2.93629684553146,1.02554128217697,-0.964478294563293,0.6961646700356998
4.227291666666667,-2.8381010447502097,0.812384543895721,-1.32133620471954,0.6961646700356998
4.227897727272727,-0.500561982250214,-0.104907936573029,-0.6746809312820431,0.6961646700356998
4.228503787878788,2.0118135060310403,-0.636602272510529,1.3107902601242098,0.6961646700356998
4.229109848484848,3.64282180681229,-0.967114967823029,0.910821998405457,0.6961646700356998
4.229715909090909,0.938844756031036,-0.44739572954177903,0.22345139293670702,0.6961646700356998
4.23032196969697,-2.22497604475021,1.09020680952072,0.127650611686707,0.6961646700356998
4.23092803030303,-3.53744674787521,1.00638112592697,-2.21228347034454,0.6961646700356998
4.231534090909091,-1.67891159162521,0.0340031962394714,-0.768086693000793,0.6961646700356998
4.232140151515152,2.25371047868729,-0.763538307666779,0.949142310905457,0.6961646700356998
4.232746212121212,3.96854446306229,-1.73831125688553,0.0869352796554566,0.6961646700356998
4.233352272727273,1.5040693654060402,0.235184836864471,1.01141281871796,0.6961646700356998
4.233958333333333,-2.33514694318771,1.56442067670822,0.0198747327804566,0.6961646700356998
4.234564393939394,-3.59732223615646,0.683053489208221,-1.38121169300079,0.6961646700356998
4.235170454545455,-1.1903276072502098,-0.12167307329177901,-1.04830397815704,0.6961646700356998
4.235776515151515,2.3447212208747903,-1.45090891313553,0.427028053092957,0.6961646700356998
4.236382575757576,3.36020950212479,-1.00064524126053,1.79218918590546,0.6961646700356998
4.236988636363636,1.48490920915604,0.388466086864471,0.9778825452804569,0.6961646700356998
4.237594696969697,-1.7076518260002098,0.814779563426971,-0.138196556282043,0.6961646700356998
4.238200757575758,-3.1374784861564597,0.877050071239471,-0.665100853157043,0.6961646700356998
4.238806818181818,-1.5064701853752098,0.153754172801971,-1.6494538805007901,0.6961646700356998
4.2394128787878795,1.4873042286872902,-0.835388893604279,0.0917253187179566,0.6961646700356998
4.240018939393939,2.85965042009354,-0.5120612568855291,1.95505051403046,0.6961646700356998
4.240625,2.11000930681229,0.0819035868644714,0.417447974967957,0.39556393031484294
4.2412310606060615,-0.661028290843964,-0.00671213579177857,-0.265132591438293,0.39556393031484294
4.2418371212121215,-2.81175582990646,1.00398610639572,-0.861492454719543,0.39556393031484294
4.2424431818181825,-2.6153642283439598,0.6471281962394709,-1.27822585315704,0.39556393031484294
4.243049242424242,0.419125517749786,-0.17196848344802898,0.606654517936707,0.39556393031484294
4.2436553030303035,2.60817336931229,-0.330039772510529,0.745565650749207,0.39556393031484294
4.244261363636364,2.79498489274979,-1.0293854756355298,0.549174049186707,0.39556393031484294
4.2448674242424245,0.546061552906036,0.11543386030197099,0.266561744499207,0.39556393031484294
4.245473484848485,-2.89558151350021,1.23869802045822,-1.40276686878204,0.39556393031484294
4.2460795454545455,-2.97222213850021,0.678263450145721,-0.12143141956329301,0.39556393031484294
4.246685606060606,-0.435896454906464,0.40283620405197096,-0.6195954820632931,0.39556393031484294
4.247291666666667,2.65128372087479,-1.00543528032303,-0.686656028938293,0.39556393031484294
4.247897727272727,3.36739456071854,-1.67843576860428,2.53943527965546,0.39556393031484294
4.248503787878788,0.258659209156036,0.637548118114471,1.51915695934296,0.39556393031484294
4.249109848484849,-3.11831832990646,1.55484059858322,-1.3404963609695402,0.39556393031484294
4.249715909090909,-3.10155319318771,0.874655051708221,-1.9009309312820402,0.39556393031484294
4.25032196969697,-0.356860810375214,-0.473740944385529,-1.21356032581329,0.39556393031484294
4.25092803030303,2.8500703419685403,-1.9227277607917799,1.18385422496796,0.39556393031484294
4.251534090909091,3.32667922868729,-0.713242897510529,1.50478684215546,0.39556393031484294
4.252140151515151,0.505346220874786,0.671078391551971,0.338412330436707,0.39556393031484294
4.252746212121212,-2.09085495100021,0.850704856395721,-0.5597199937820431,0.39556393031484294
4.253352272727273,-2.56985885725021,0.534562278270721,-2.38472487659454,0.39556393031484294
4.253958333333333,-1.49210006818771,-0.392310280323029,-0.547744896125793,0.39556393031484294
4.254564393939394,2.18425491228104,-0.792278542041779,1.54310715465546,0.39556393031484294
4.255170454545455,2.69439407243729,-0.248609108448029,-0.0926911851882934,0.39556393031484294
4.255776515151515,1.35797317399979,0.424391379833221,0.441398170280457,0.39556393031484294
4.256382575757576,-1.0490214549064598,0.295060325145721,0.462953346061707,0.39556393031484294
4.256988636363636,-3.20932907209396,1.0614665751457202,-1.46743239612579,0.39556393031484294
4.257594696969697,-1.86811813459396,0.448341575145721,-0.583670189094543,0.39556393031484294
4.258200757575758,1.2645674122810402,0.0747185282707214,-0.0687409898757934,0.39556393031484294
4.258806818181818,2.70157913103104,-0.428235573291779,1.0377580335617098,0.39556393031484294
4.259412878787879,2.51237258806229,-1.17308664751053,1.34671555309296,0.39556393031484294
4.260018939393939,-0.857419892406464,0.386071067333221,-0.219627220344543,0.39556393031484294
4.260625,-3.36500534162521,1.0207512431144699,0.24740158824920702,0.39556393031484294
4.261231060606061,-2.38783737287521,1.06386159467697,-1.4003718492507902,0.39556393031484294
4.261837121212121,-0.30417038068771396,-0.0162922139167786,-1.1057844469070401,0.39556393031484294
4.262443181818182,3.2596186818122903,-1.5467096943855299,2.70948166637421,0.39556393031484294
4.263049242424242,2.96742629899979,-0.7108478779792791,1.43772629528046,0.39556393031484294
4.263655303030303,-0.675398408031464,0.668683372020721,-1.22793044300079,0.39556393031484294
4.264261363636364,-3.33866012678146,1.28180837202072,-1.6949592515945402,0.39556393031484294
4.264867424242424,-2.65607956037521,0.7070036845207209,-1.48898757190704,0.39556393031484294
4.265473484848485,0.457445830249786,-1.22338205766678,-0.0974812242507934,0.39556393031484294
4.266079545454546,3.44643020524979,-1.48443918657303,0.635394752311707,0.39556393031484294
4.266685606060606,2.10042922868729,-0.468950905323029,1.0880534437179599,0.39556393031484294
4.267291666666667,0.052687529468536394,0.651918235301971,0.204291236686707,0.39556393031484294
4.267897727272727,-2.78541061506271,0.929740500926971,-1.70214431018829,0.39556393031484294
4.268503787878788,-2.51956344709396,0.13219899702072102,-0.293872825813293,0.39556393031484294
4.269109848484848,0.19399368181228602,-0.253399147510529,1.0880534437179599,0.39556393031484294
4.269715909090909,2.7135542286872902,-0.344409889698029,-0.5381648180007931,0.39556393031484294
4.27032196969697,2.23215530290604,-0.588701881885529,1.1742741468429598,0.39556393031484294
4.27092803030303,0.644257353687286,-0.004317116260528569,1.77063401012421,0.39556393031484294
4.271534090909091,-1.8321928416252098,0.369305930614471,-1.2638557359695402,0.39556393031484294
4.272140151515151,-2.7446952830314597,1.07823171186447,-0.768086693000793,0.39556393031484294
4.272746212121212,-0.665818329906464,0.5273772196769709,-0.708211204719543,0.39556393031484294
4.273352272727273,1.12086624040604,-0.411470436573029,0.5228288343429569,0.39556393031484294
4.273958333333333,2.84767532243729,-0.260584206104279,1.24133469371796,0.39556393031484294
4.274564393939394,1.41305862321854,-0.8713141865730291,-0.6555207750320431,0.39556393031484294
4.275170454545455,-1.3268437205314598,0.38128102827072097,0.352782447624207,0.39556393031484294
4.275776515151515,-2.79259567365646,1.4422746806144702,-1.84345046253204,0.39556393031484294
4.276382575757576,-2.12678024396896,0.663893332958221,-2.64099196643829,0.39556393031484294
4.276988636363636,0.862204131031036,-0.514456276416779,2.15383713512421,0.39556393031484294
4.277594696969697,3.71946243181229,-0.981485085010529,1.0593132093429598,0.39556393031484294
4.278200757575759,1.9926533497810401,-0.380335182666779,-1.43629714221954,0.39556393031484294
4.278806818181818,-1.20948776350021,0.671078391551971,-0.25794753284454297,0.39556393031484294
4.279412878787879,-3.68114791975021,1.03033132123947,-0.188491966438293,0.39556393031484294
4.280018939393939,-1.62382614240646,0.299850364208221,-0.564510032844543,0.39556393031484294
4.280625000000001,1.7866816700935402,-0.844968971729279,-0.30824294300079297,0.39556393031484294
4.281231060606061,3.13747268571854,-1.17548166704178,0.5204338148117069,0.39556393031484294
4.281837121212121,1.96870315446854,-0.270164284229279,1.4904167249679598,0.39556393031484294
4.2824431818181825,-1.10171188459396,0.697423606395721,-0.6004353258132931,0.39556393031484294
4.283049242424243,-3.11831832990646,0.728558860301971,-0.126221458625793,0.39556393031484294
4.283655303030303,-1.32444870100021,0.33338063764572096,-0.0759260484695434,0.39556393031484294
4.2842613636363645,0.601147002124786,-0.49529612016677904,-2.17396315784454,0.39556393031484294
4.2848674242424245,2.16269973649979,-1.01741037797928,1.4305412366867098,0.39556393031484294
4.2854734848484854,2.0716889943122903,-0.0498224873542786,2.34064865856171,0.39556393031484294
4.286079545454545,-0.38320602521896396,0.230394797801971,-0.9405280992507931,0.39556393031484294
4.2866856060606064,-2.24653122053146,0.513007102489471,-1.0674641344070401,0.39556393031484294
4.287291666666667,-2.28006149396896,0.683053489208221,-1.04830397815704,0.39556393031484294
4.287897727272727,-0.299380341625214,0.0842986063957214,0.144415748405457,0.39556393031484294
4.288503787878788,1.80584182634354,-0.08574778032302861,1.34192551403046,0.39556393031484294
4.289109848484848,2.40220168962479,-0.27734934282302903,-0.327403099250793,0.39556393031484294
4.289715909090909,0.586776884937286,-0.622232155323029,0.5587541273117069,0.39556393031484294
4.29032196969697,-1.5280253611564598,0.5058220438957209,-1.07225417346954,0.39556393031484294
4.29092803030303,-3.41769577131271,0.8267546610832209,-1.1488947984695401,0.39556393031484294
4.291534090909091,-0.914900361156464,0.426786399364471,2.00534592418671,0.39556393031484294
4.292140151515152,1.84895217790604,0.0771135478019714,-0.8590974351882931,0.39556393031484294
4.292746212121212,2.5243476857185403,-1.32636789751053,-0.808802025032043,0.39556393031484294
4.293352272727273,1.2094819630622902,-0.734798073291779,2.97053879528046,0.39556393031484294
4.293958333333333,-1.9088334666252098,1.21714284467697,0.13244065074920702,0.39556393031484294
4.294564393939394,-2.9674320994377097,1.3608440165519702,-2.42783522815704,0.39556393031484294
4.295170454545455,-0.845444794750214,-0.27734934282302903,-1.37642165393829,0.39556393031484294
4.295776515151515,2.0884541310310403,-0.952744850635529,0.886871803092957,0.39556393031484294
4.296382575757576,3.06801711931229,-1.10123606157303,1.4257511976242099,0.39556393031484294
4.296988636363636,1.16876663103104,0.00765798139572143,-0.509424583625793,0.39556393031484294
4.297594696969697,-2.16749557600021,0.848309836864471,0.5803093030929569,0.39556393031484294
4.298200757575758,-2.07408981428146,0.445946555614471,-0.847122337532043,0.39556393031484294
4.298806818181818,-0.905320283031464,0.0387932353019714,-2.76553298206329,0.39556393031484294
4.299412878787879,0.864599150562286,-0.8713141865730291,1.60777268199921,0.39556393031484294
4.300018939393939,2.9530561818122902,-0.919214577198029,2.21131760387421,0.39556393031484294
4.300625,1.37473831071854,0.357330832958221,-1.52730788440704,0.39556393031484294
4.301231060606061,-1.10650192365646,-0.248609108448029,-0.451944114875793,0.39556393031484294
4.301837121212121,-2.37107223615646,0.254344993114471,-0.25794753284454297,0.39556393031484294
4.302443181818182,-1.97828903303146,0.692633567333221,-0.7177912828445431,0.39556393031484294
4.303049242424242,0.831068877124786,0.304640403270721,0.8581315687179569,0.39556393031484294
4.303655303030303,1.8250019825935402,0.28308522748947096,0.316857154655457,0.39556393031484294
4.304261363636364,1.9016426075935402,-0.821018776416779,1.04733811168671,0.39556393031484294
4.304867424242424,0.186808623218536,-0.433025612354279,-0.329798118782043,0.39556393031484294
4.305473484848485,-2.6584745799064597,0.661498313426971,-0.806407005500793,0.39556393031484294
4.306079545454545,-2.01181930646896,0.903395286083221,1.49281174449921,0.39556393031484294
4.306685606060606,-0.356860810375214,0.771669211864471,-2.09013747425079,0.39556393031484294
4.307291666666667,1.8345820607185401,-0.5312214131355291,-0.547744896125793,0.39556393031484294
4.307897727272727,2.86444045915604,-1.2521222920417798,3.5836637952804598,0.39556393031484294
4.308503787878788,0.0215522755622864,-0.19591867876052899,0.199501197624207,0.39556393031484294
4.309109848484848,-2.38783737287521,0.884235129833221,-2.12606276721954,0.39556393031484294
4.309715909090909,-2.4022074900627097,1.09020680952072,-1.6494538805007901,0.39556393031484294
4.31032196969697,-0.237109833812714,-0.667737526416779,0.0366398694992066,0.39556393031484294
4.31092803030303,2.44052200212479,-1.24972727251053,1.28205002574921,0.39556393031484294
4.311534090909091,2.57943313493729,-0.943164772510529,0.175551002311707,0.39556393031484294
4.312140151515152,0.22752395524978603,-0.07616770219802861,0.283326881217957,0.39556393031484294
4.312746212121212,-1.8226127635002098,1.00638112592697,-1.25667067737579,0.39556393031484294
4.313352272727273,-2.11480514631271,0.101063743114471,-2.26257888050079,0.39556393031484294
4.313958333333333,-0.581992646312714,-0.5719367451667791,1.4784416273117098,0.39556393031484294
4.314564393939394,2.1818598927497903,-0.0138971943855286,1.35150559215546,0.39556393031484294
4.315170454545455,1.78428665056229,-0.25818918657302903,-1.4051618883132901,0.39556393031484294
4.315776515151515,0.514926298999786,-0.06898264360427861,0.929982154655457,0.39556393031484294
4.316382575757576,-1.1160820017814599,0.0292131571769714,0.403077857780457,0.39556393031484294
4.316988636363636,-2.28724655256271,0.40283620405197096,-0.9764533922195431,0.39556393031484294
4.317594696969697,-0.7280888377189639,0.951295676708221,0.23303147106170702,0.39556393031484294
4.318200757575758,0.981955107593536,0.27350514936447096,-0.229207298469543,0.39556393031484294
4.318806818181818,1.53999465837479,-0.533616432666779,1.1790641859054598,0.39556393031484294
4.319412878787879,1.48011917009354,-0.528826393604279,0.786280982780457,0.39556393031484294
4.320018939393939,-0.950825654125214,-0.40668039751052903,-0.5812751695632931,0.39556393031484294
4.320625,-2.1363603220939598,0.733348899364471,0.347992408561707,0.39556393031484294
4.3212310606060615,-1.58071579084396,1.90690846967697,-2.56195632190704,0.39556393031484294
4.321837121212121,-0.0455082713127136,-0.284534401416779,-0.0998762437820434,0.39556393031484294
4.322443181818182,2.39741165056229,-1.1491364521980298,3.82077072887421,0.39556393031484294
4.323049242424242,1.52322952165604,0.0268181376457214,-1.13452468128204,0.39556393031484294
4.3236553030303035,-0.5269071970939639,-0.262979225635529,-2.17635817737579,0.39556393031484294
4.324261363636364,-2.58422897443771,0.829149680614471,-0.262737571907043,0.39556393031484294
4.324867424242424,-1.9255986033439598,0.639943137645721,0.431818092155457,0.39556393031484294
4.3254734848484855,0.998720244312286,-0.646182350635529,0.379127662467957,0.39556393031484294
4.3260795454545455,2.48602737321854,-0.686897682666779,-0.406438743782043,0.39556393031484294
4.326685606060606,1.39629348649979,-0.8305988545417791,1.1862492444992099,0.39556393031484294
4.327291666666667,-0.474216767406464,0.467501731395721,0.125255592155457,0.39556393031484294
4.3278977272727275,-2.41657760725021,0.615992942333221,-1.55604811878204,0.39556393031484294
4.328503787878788,-1.5495805369377098,-0.22226389360427898,1.38024582653046,0.39556393031484294
4.3291098484848485,0.526901396656036,0.18728444623947102,-0.11903640003204301,0.39556393031484294
4.329715909090909,1.58789504899979,-0.31566965532302904,-1.3572614976882902,0.39556393031484294
4.33032196969697,1.43461379899979,-0.832993874073029,2.37417893199921,0.39556393031484294
4.33092803030303,0.06945266618728639,0.369305930614471,0.673715064811707,0.39556393031484294
4.331534090909091,-1.2789433299064599,-0.0522175068855286,-1.75722975940704,0.39556393031484294
4.332140151515152,-1.3771391306877099,0.290270286083221,-0.602830345344543,0.39556393031484294
4.332746212121212,-0.560437470531464,0.532167258739471,-0.12382643909454301,0.39556393031484294
4.333352272727273,0.799933623218536,-0.198313698291779,1.18864426403046,0.39556393031484294
4.333958333333333,1.59747512712479,-0.11927805376052901,-0.032815696907043404,0.39556393031484294
4.334564393939394,0.41433547868728604,-0.624627174854279,-0.612410423469543,0.39556393031484294
4.335170454545455,-0.502957001781464,-0.39470529985427905,0.256981666374207,0.39556393031484294
4.335776515151515,-1.9758940135002099,1.3488689188957201,-2.46855056018829,0.39556393031484294
4.336382575757576,-1.8872782908439598,0.592042747020721,0.319252174186707,0.39556393031484294
4.336988636363636,0.663417509937286,-0.104907936573029,2.43165940074921,0.39556393031484294
4.337594696969697,2.27047561540604,-0.24142404985427898,-1.95841140003204,0.39556393031484294
4.338200757575758,1.2693574513435402,-1.25691233110428,-0.475894310188293,0.39556393031484294
4.338806818181818,-1.0609965525627099,0.146569114208221,1.8113493421554598,0.39556393031484294
4.339412878787879,-2.78062057600021,1.11655202436447,-0.0926911851882934,0.39556393031484294
4.340018939393939,-1.16637741193771,0.24236989545822102,-1.3500764390945401,0.39556393031484294
4.340625,1.26696243181229,-0.804253639698029,-0.25794753284454297,0.9791607713240131
4.341231060606061,2.09803420915604,-0.715637917041779,1.8544596937179598,0.9791607713240131
4.341837121212121,1.5567597950935401,-0.34680490922927903,0.7216154554367069,0.9791607713240131
4.342443181818182,-1.3699540720939598,0.33098561811447097,-0.969268333625793,0.9791607713240131
4.343049242424242,-2.39981247053146,0.697423606395721,0.712035377311707,0.9791607713240131
4.343655303030303,-0.172444306468964,0.345355735301971,-1.0962043687820402,0.9791607713240131
4.344261363636364,0.728083037281036,-0.229448952198029,-1.25427565784454,0.9791607713240131
4.344867424242424,1.6669306935310402,-0.935979713916779,2.80049240856171,0.9791607713240131
4.345473484848485,1.3028877247810402,0.110643821239471,0.21387131481170701,0.9791607713240131
4.346079545454545,-0.7280888377189639,0.27111012983322097,-2.05421218128204,0.9791607713240131
4.346685606060606,-1.2621781931877099,-0.22226389360427898,-0.763296653938293,0.9791607713240131
4.347291666666667,-1.1975126658439599,0.517797141551971,-0.19567702503204298,0.9791607713240131
4.347897727272727,-0.0886186228752136,0.319010520458221,0.805441139030457,0.9791607713240131
4.348503787878788,1.4370088185310401,0.388466086864471,0.453373267936707,0.9791607713240131
4.349109848484849,1.1496064747810402,0.194469504833221,0.11807053356170699,0.9791607713240131
4.349715909090909,0.593961943531036,-0.612652077198029,0.321647193717957,0.9791607713240131
4.35032196969697,-1.00112106428146,-0.0977228779792786,-1.93685622425079,0.9791607713240131
4.35092803030303,-2.22976608381271,0.592042747020721,1.48323166637421,0.9791607713240131
4.351534090909091,-0.33291061506271397,1.19798268842697,1.9909758069992098,0.9791607713240131
4.352140151515152,0.962794951343536,0.24236989545822102,-2.55237624378204,0.9791607713240131
4.352746212121212,1.59987014665604,-1.04375559282303,1.0545231702804598,0.9791607713240131
4.353352272727273,0.835858916187286,-0.588701881885529,2.77893723278046,0.9791607713240131
4.353958333333333,-1.6310112010002098,0.448341575145721,-1.15847487659454,0.9791607713240131
4.354564393939394,-2.1291752635002097,1.2722282938957201,-2.52124098987579,0.9791607713240131
4.355170454545455,-0.560437470531464,-0.0234772725105286,-0.47828932971954297,0.9791607713240131
4.355776515151515,1.59747512712479,-0.952744850635529,1.47125656871796,0.9791607713240131
4.356382575757576,2.3614863575935403,-0.876104225635529,0.644974830436707,0.9791607713240131
4.356988636363636,0.280214384937286,-0.203103737354279,-0.7992219469070431,0.9791607713240131
4.357594696969697,-1.52563034162521,0.32380055952072095,0.338412330436707,0.9791607713240131
4.358200757575758,-1.35797897443771,0.520192161083221,-1.99194167346954,0.9791607713240131
4.358806818181818,-0.42392135725021396,-0.49529612016677904,-0.962083275032043,0.9791607713240131
4.359412878787879,1.01548538103104,-0.392310280323029,3.44954270153046,0.9791607713240131
4.360018939393939,1.9064326466560402,0.000472922801971429,-0.0687409898757934,0.9791607713240131
4.360625,0.160463408374786,-0.08574778032302861,-1.72848952503204,0.9791607713240131
4.361231060606061,-1.00112106428146,0.09866872358322139,0.506063697624207,0.9791607713240131
4.361837121212121,-1.1903276072502098,-0.18633860063552898,0.0366398694992066,0.9791607713240131
4.362443181818183,-0.593967743968964,0.6064128642082209,-0.274712669563293,0.9791607713240131
4.363049242424242,0.663417509937286,0.723768821239471,0.513248756217957,0.9791607713240131
4.363655303030303,0.946029814624786,0.000472922801971429,0.472533424186707,0.9791607713240131
4.3642613636363645,0.663417509937286,-0.243819069385529,0.544384010124207,0.9791607713240131
4.364867424242425,-0.158074189281464,-0.464160866260529,-0.9381330797195431,0.9791607713240131
4.365473484848485,-1.3436088572502098,-0.382730202198029,0.973092506217957,0.9791607713240131
4.366079545454545,-1.26457321271896,1.40634938764572,-0.212442161750793,0.9791607713240131
4.3666856060606065,-0.122148896312714,0.982430930614471,-2.98347975940704,0.9791607713240131
4.3672916666666675,1.37952834978104,-0.924004616260529,2.59931076793671,0.9791607713240131
4.367897727272727,1.5208345021247902,-0.543196510791779,2.13228195934296,0.9791607713240131
4.3685037878787885,-0.0239530955314636,-0.282139381885529,-2.68170729846954,0.9791607713240131
4.369109848484849,-1.6262211619377098,0.287875266551971,-1.6997492906570402,0.9791607713240131
4.3697159090909095,-2.06450973615646,0.704608664989471,0.23782151012420702,0.9791607713240131
4.37032196969697,0.261054228687286,-0.619837135791779,1.0545231702804598,0.9791607713240131
4.3709280303030305,1.9399629200935402,-0.725217995166779,0.477323463249207,0.9791607713240131
4.371534090909091,1.3891084279060402,-0.622232155323029,-0.315428001594543,0.9791607713240131
4.3721401515151515,-0.19639450178146398,-0.353989967823029,0.5395939710617069,0.9791607713240131
4.372746212121212,-1.7148368845939599,0.879445090770721,-1.65424391956329,0.9791607713240131
4.373352272727273,-1.74357711896896,0.0866936259269714,-0.219627220344543,0.9791607713240131
4.373958333333333,0.48618606462478603,-0.382730202198029,2.34783371715546,0.9791607713240131
4.374564393939394,1.81063186540604,0.570487571239471,-1.13452468128204,0.9791607713240131
4.375170454545455,1.19511184587479,-0.48571604204177904,-0.336983177375793,0.9791607713240131
4.375776515151515,0.0047871388435364,-0.210288795948029,1.91912522106171,0.9791607713240131
4.376382575757576,-1.12326706037521,0.19207448530197102,-0.6746809312820431,0.9791607713240131
4.376988636363636,-0.950825654125214,-0.08095774126052861,-1.0794392320632902,0.9791607713240131
4.377594696969697,-0.0862236033439636,0.6471281962394709,-0.0136555406570434,0.9791607713240131
4.378200757575758,0.752033232593536,0.33338063764572096,0.434213111686707,0.9791607713240131
4.378806818181818,1.34360305681229,-0.26776926469802903,0.774305885124207,0.9791607713240131
4.379412878787879,0.234709013843536,-0.368360085010529,-0.708211204719543,0.9791607713240131
4.380018939393939,-0.505352021312714,-0.514456276416779,0.501273658561707,0.9791607713240131
4.380625,-0.775989228343964,0.6279680399894709,-1.03153884143829,0.9791607713240131
4.381231060606061,-1.31965866193771,1.19558766889572,-1.8841657945632901,0.9791607713240131
4.381837121212121,0.18920364274978602,-0.413865456104279,3.00406906871796,0.9791607713240131
4.382443181818182,1.5208345021247902,0.0483733134269714,1.20301438121796,0.9791607713240131
4.383049242424242,0.831068877124786,-0.423445534229279,-2.8733088609695403,0.9791607713240131
4.383655303030303,-0.0431132517814636,-0.9287946553230291,-0.260342552375793,0.9791607713240131
4.384261363636364,-2.04534957990646,1.0207512431144699,0.9970427015304569,0.9791607713240131
4.384867424242424,-1.2454130564689598,0.8051994853019709,-0.19567702503204298,0.9791607713240131
4.385473484848485,1.01309036149979,-0.5312214131355291,-0.411228782844543,0.9791607713240131
4.386079545454546,1.2358271779060401,-0.22226389360427898,0.525223853874207,0.9791607713240131
4.386685606060606,1.3244429005622902,-0.567146706104279,1.32037033824921,0.9791607713240131
4.387291666666667,-0.596362763500214,-0.0498224873542786,-1.27343581409454,0.9791607713240131
4.387897727272727,-2.2656913767814597,0.649523215770721,0.455768287467957,0.9791607713240131
4.388503787878788,-0.651448212718964,0.0363982157707214,0.769515846061707,0.9791607713240131
4.389109848484848,1.29330764665604,0.160939231395721,-1.8458454820632901,0.9791607713240131
4.389715909090909,0.962794951343536,-0.37554514360427904,0.7192204359054569,0.9791607713240131
4.39032196969697,1.0514106739997902,-0.938374733448029,1.92152024059296,0.9791607713240131
4.39092803030303,-0.673003388500214,0.350145774364471,-1.4985676500320402,0.9791607713240131
4.391534090909091,-1.0490214549064598,0.208839622020721,-1.7811799547195402,0.9791607713240131
4.392140151515151,-0.792754365062714,-0.18154856157302898,0.146810767936707,0.9791607713240131
4.392746212121212,-0.20597457990646398,0.695028586864471,0.5611491468429569,0.9791607713240131
4.393352272727273,0.773588408374786,0.268715110301971,0.8006510999679569,0.9791607713240131
4.393958333333333,0.49576614274978603,0.251949973583221,-0.490264427375793,0.9791607713240131
4.394564393939394,0.057477568531036395,-0.33722483110427903,-0.032815696907043404,0.9791607713240131
4.395170454545455,-0.385601044750214,-0.536011452198029,-1.1105744859695401,0.9791607713240131
4.395776515151515,-1.09692184553146,0.40283620405197096,-0.566905052375793,0.9791607713240131
4.396382575757576,-0.749644013500214,0.874655051708221,2.60649582653046,0.9791607713240131
4.396988636363636,0.586776884937286,0.541747336864471,-0.971663353157043,0.9791607713240131
4.397594696969697,0.713712920093536,-0.31806467485427903,-1.47222243518829,0.9791607713240131
4.398200757575758,0.775983427906036,-0.660552467823029,2.21850266246796,0.9791607713240131
4.398806818181818,-0.9867509470939639,-0.6102570576667791,0.194711158561707,0.9791607713240131
4.399412878787879,-1.5998759470939599,0.9057903056144709,-1.79315505237579,0.9791607713240131
4.400018939393939,-0.591572724437714,0.862679954051971,-1.1656599351882901,0.9791607713240131
4.400625,1.1376313771247901,-0.5910969014167791,0.530013892936707,0.9791607713240131
4.401231060606061,1.48011917009354,-0.47613596391677904,1.17187912731171,0.9791607713240131
4.401837121212121,0.459840849781036,-0.49769113969802903,-0.6746809312820431,0.9791607713240131
4.402443181818182,-1.00112106428146,-0.164783424854279,-0.346563255500793,0.9791607713240131
4.403049242424242,-1.24780807600021,0.877050071239471,-1.5847883531570401,0.9791607713240131
4.403655303030303,-0.546067353343964,-0.5120612568855291,-2.14282790393829,0.9791607713240131
4.404261363636364,0.993930205249786,-0.6892927021980291,2.82923264293671,0.9791607713240131
4.404867424242424,1.39629348649979,0.28069020795822097,1.67243820934296,0.9791607713240131
4.4054734848484856,0.392780302906036,-0.128858131885529,-2.48292067737579,0.9791607713240131
4.406079545454545,-1.10171188459396,0.09387868452072139,-0.0974812242507934,0.9791607713240131
4.406685606060606,-1.2023027049064599,-0.239029030323029,0.594679420280457,0.9791607713240131
4.4072916666666675,-0.153284150218964,-0.193523659229279,-0.0783210680007934,0.9791607713240131
4.4078977272727276,0.330509795093536,1.09978688764572,0.254586646842957,0.9791607713240131
4.408503787878788,1.03704055681229,0.558512473583221,0.175551002311707,0.9791607713240131
4.409109848484848,0.682577666187286,-0.150413307666779,0.7599357679367069,0.9791607713240131
4.4097159090909095,-0.0215580760002136,0.129803977489471,-0.9141828844070431,0.9791607713240131
4.41032196969697,-1.03704635725021,-1.14674143266678,-0.0831111070632934,0.9791607713240131
4.41092803030303,-0.723298798656464,0.467501731395721,1.20301438121796,0.9791607713240131
4.411534090909091,-0.538882294750214,1.57639577436447,-2.46855056018829,0.9791607713240131
4.412140151515152,0.658627470874786,-0.389915260791779,-0.222022239875793,0.9791607713240131
4.412746212121212,0.984350127124786,-0.46655588579177903,3.30584152965546,0.9791607713240131
4.413352272727273,0.057477568531036395,-0.380335182666779,-1.3237312242507902,0.9791607713240131
4.413958333333333,-0.692163544750214,-0.33722483110427903,-2.66733718128204,0.9791607713240131
4.414564393939394,-1.4154594431877099,0.642338157176971,-0.322613060188293,0.9791607713240131
4.415170454545455,-0.249084931468964,-0.272559303760529,1.4784416273117098,0.9791607713240131
4.415776515151515,1.7747065724372901,-0.308484596729279,1.0449430921554599,0.9791607713240131
4.416382575757576,1.09212600603104,-0.148018288135529,-0.770481712532043,0.9791607713240131
4.416988636363636,-0.222739716625214,-0.878499245166779,0.235426490592957,0.9791607713240131
4.417594696969697,-1.01309616193771,0.218419700145721,-0.851912376594543,0.9791607713240131
4.418200757575758,-1.43222457990646,0.275900168895721,-0.787246849250793,0.9791607713240131
4.418806818181818,0.332904814624786,-0.737193092823029,2.42686936168671,0.9791607713240131
4.419412878787879,1.44658889665604,0.369305930614471,-0.18609694690704298,0.9791607713240131
4.420018939393939,0.996325224781036,0.328590598583221,-1.77159987659454,0.9791607713240131
4.420625,0.33529983415603604,-0.888079323291779,1.8113493421554598,0.9791607713240131
4.421231060606061,-1.12805709943771,0.426786399364471,0.053405006217956595,0.9791607713240131
4.421837121212121,-0.919690400218964,-0.0953278584480286,-1.1009944078445402,0.9791607713240131
4.422443181818182,0.397570341968536,0.225604758739471,0.256981666374207,0.9791607713240131
4.423049242424242,0.605937041187286,0.903395286083221,0.316857154655457,0.9791607713240131
4.423655303030303,1.03225051774979,-0.291719460010529,0.6832951429367069,0.9791607713240131
4.424261363636364,-0.122148896312714,0.000472922801971429,-0.964478294563293,0.9791607713240131
4.424867424242424,-0.7065336619377139,-0.07377268266677861,-0.351353294563293,0.9791607713240131
4.425473484848485,-0.172444306468964,-0.294114479541779,-0.372908470344543,0.9791607713240131
4.426079545454545,-0.888555146312714,1.14529225873947,-1.6781941148757902,0.9791607713240131
4.426685606060606,-0.256269990062714,-0.0929328389167786,2.25442795543671,0.9791607713240131
4.427291666666667,1.10410110368729,0.0579533915519714,1.96223557262421,0.9791607713240131
4.427897727272727,0.330509795093536,0.474686789989471,-2.7799030992507903,0.9791607713240131
4.428503787878788,-0.0455082713127136,-1.52754953813553,-0.6172004625320431,0.9791607713240131
4.429109848484848,-1.3172636424064599,0.11782887983322099,1.36348068981171,0.9791607713240131
4.429715909090909,-0.941245576000214,0.922555442333221,0.458163306999207,0.9791607713240131
4.43032196969697,0.603542021656036,-0.12406809282302901,-0.5956452867507931,0.9791607713240131
4.43092803030303,1.02267043962479,-0.31806467485427903,-0.253157493782043,0.9791607713240131
4.431534090909091,0.883759306812286,-0.0282673115730286,1.5550822523117098,0.9791607713240131
4.432140151515152,-0.330515595531464,-0.363570045948029,-0.890232689094543,0.9791607713240131
4.432746212121212,-1.64538131818771,-0.169573463916779,-0.6387556383132931,0.9791607713240131
4.433352272727273,-0.467031708812714,0.0747185282707214,1.0712883069992098,0.9791607713240131
4.433958333333333,1.1112861622810402,-0.0570075459480286,-1.51293776721954,0.9791607713240131
4.434564393939394,0.926869658374786,-0.0234772725105286,-0.20525710315704299,0.9791607713240131
4.435170454545455,0.562826689624786,-0.634207252979279,2.90108322887421,0.9791607713240131
4.435776515151515,-0.464636689281464,0.00526296186447143,-1.19679518909454,0.9791607713240131
4.436382575757576,-1.21427780256271,0.328590598583221,-2.48531569690704,0.9791607713240131
4.436988636363636,-0.476611786937714,-0.615047096729279,0.24261154918670702,0.9791607713240131
4.437594696969697,0.44547073259353603,0.398046164989471,0.769515846061707,0.9791607713240131
4.438200757575758,0.421520537281036,0.728558860301971,1.05212815074921,0.9791607713240131
4.438806818181818,0.656232451343536,0.23278981733322102,-0.24597243518829298,0.9791607713240131
4.439412878787879,-0.335305634593964,0.0627434306144714,-0.265132591438293,0.9791607713240131
4.440018939393939,0.0431074513435364,-0.308484596729279,-0.825567161750793,0.9791607713240131
4.440625,-0.795149384593964,-0.330039772510529,-1.35965651721954,0.20348807629183965
4.441231060606061,-0.409551240062714,0.671078391551971,2.97293381481171,0.20348807629183965
4.441837121212121,0.936449736499786,1.23390798139572,0.333622291374207,0.20348807629183965
4.442443181818182,0.308954619312286,0.13698903608322102,-2.41825515003204,0.20348807629183965
4.443049242424242,0.0383174122810364,-0.294114479541779,2.28556320934296,0.20348807629183965
4.443655303030303,-0.577202607250214,-0.701267799854279,0.927587135124207,0.20348807629183965
4.444261363636364,-1.1256620799064598,-0.18633860063552898,-1.35486647815704,0.20348807629183965
4.444867424242424,-0.764014130687714,1.05907155561447,-1.30457106800079,0.20348807629183965
4.445473484848485,0.847834013843536,-0.18154856157302898,0.41984299449920703,0.20348807629183965
4.446079545454545,1.30049270524979,-0.741983131885529,1.2341496351242098,0.20348807629183965
4.446685606060607,0.229918974781036,-0.215078835010529,-0.5142146226882931,0.20348807629183965
4.447291666666667,-1.1376371775627099,-0.461765846729279,-0.420808860969543,0.20348807629183965
4.447897727272727,-0.902925263500214,0.601622825145721,-1.01477370471954,0.20348807629183965
4.4485037878787885,-0.0502983103752136,-0.0522175068855286,-2.16677809925079,0.20348807629183965
4.449109848484849,0.965189970874786,-0.912029518604279,1.85206467418671,0.20348807629183965
4.449715909090909,0.9699800099372861,0.45313161420822096,3.03520432262421,0.20348807629183965
4.4503219696969705,0.340089873218536,0.398046164989471,-1.99673171253204,0.20348807629183965
4.4509280303030305,-0.998726044750214,-0.380335182666779,-1.25188063831329,0.20348807629183965
4.4515340909090915,-0.7280888377189639,0.105853782176971,0.724010474967957,0.20348807629183965
4.452140151515152,0.0455024708747864,-0.823413795948029,0.319252174186707,0.20348807629183965
4.4527462121212125,0.512531279468536,0.44115651655197097,0.549174049186707,0.20348807629183965
4.453352272727273,0.687367705249786,1.1093669657707201,-0.0495808336257934,0.20348807629183965
4.4539583333333335,0.349669951343536,-0.39710031938552903,0.357572486686707,0.20348807629183965
4.454564393939394,-0.22992477521896398,0.160939231395721,-0.6172004625320431,0.20348807629183965
4.455170454545455,-1.12326706037521,-0.967114967823029,-0.7010261461257931,0.20348807629183965
4.455776515151515,-0.22034469709396398,-0.526431374073029,1.42096115856171,0.20348807629183965
4.456382575757576,-0.479006806468964,1.58597585248947,-1.88177077503204,0.20348807629183965
4.456988636363636,0.459840849781036,0.148964133739471,-0.643545677375793,0.20348807629183965
4.457594696969697,0.505346220874786,-0.638997292041779,3.44475266246796,0.20348807629183965
4.458200757575758,-0.117358857250214,0.259135032176971,-0.9333430406570431,0.20348807629183965
4.458806818181818,-0.502957001781464,-0.488111061573029,-2.8661238023757902,0.20348807629183965
4.459412878787879,-0.878975068187714,0.244764914989471,-0.7752717515945431,0.20348807629183965
4.460018939393939,-0.306565400218964,0.0627434306144714,1.65088303356171,0.20348807629183965
4.460625,1.43461379899979,-0.411470436573029,1.4688615491867099,0.20348807629183965
4.461231060606061,0.720897978687286,0.216024680614471,-0.425598900032043,0.20348807629183965
4.461837121212121,-0.629893036937714,-0.301299538135529,-0.154961693000793,0.20348807629183965
4.462443181818182,-0.670608368968964,-0.413865456104279,-0.7800617906570431,0.20348807629183965
4.463049242424242,-1.3483988963127098,0.09387868452072139,-1.1991902086257902,0.20348807629183965
4.463655303030303,0.105377959156036,-0.31806467485427903,2.0532463148117097,0.20348807629183965
4.464261363636364,1.53280959978104,0.0172380595207214,1.18385422496796,0.20348807629183965
4.464867424242424,0.36643508806228603,0.853099875926971,-2.36316970081329,0.20348807629183965
4.465473484848485,-0.22034469709396398,-0.722822975635529,1.0497331312179599,0.20348807629183965
4.466079545454545,-0.514932099437714,-0.330039772510529,0.793466041374207,0.20348807629183965
4.466685606060606,-0.46224166975021397,0.0603484110832214,-1.6614289781570402,0.20348807629183965
4.467291666666667,0.778378447437286,-0.38752024126052903,-0.669890892219543,0.20348807629183965
4.467897727272727,0.608332060718536,0.879445090770721,0.553964088249207,0.20348807629183965
4.468503787878788,0.289794463062286,0.244764914989471,1.17666916637421,0.20348807629183965
4.469109848484849,0.05029250993728639,-0.332434792041779,-0.375303489875793,0.20348807629183965
4.469715909090909,-1.07297165021896,0.127408957958221,-0.729766380500793,0.20348807629183965
4.47032196969697,-0.0479032908439636,-0.44500071001052904,-0.444759056282043,0.20348807629183965
4.47092803030303,-0.0742485056877136,0.534562278270721,-1.82189528675079,0.20348807629183965
4.471534090909091,-0.237109833812714,0.39086110639572097,2.56817551403046,0.20348807629183965
4.472140151515152,1.20708694353104,0.158544211864471,2.85557785778046,0.20348807629183965
4.472746212121212,-0.162864228343964,0.5872527079582209,-3.22058669300079,0.20348807629183965
4.473352272727273,-0.347280732250214,-0.732403053760529,-1.18961013050079,0.20348807629183965
4.473958333333333,-0.804729462718964,-0.526431374073029,1.70596848278046,0.20348807629183965
4.474564393939394,-0.562832490062714,0.374095969676971,0.606654517936707,0.20348807629183965
4.475170454545455,0.380805205249786,0.395651145458221,-0.911787864875793,0.20348807629183965
4.475776515151515,0.993930205249786,-0.322854713916779,-0.0016804430007934098,0.20348807629183965
4.476382575757576,0.48618606462478603,-0.104907936573029,1.28684006481171,0.20348807629183965
4.476988636363636,-0.33291061506271397,-0.128858131885529,-0.5956452867507931,0.20348807629183965
4.477594696969697,-1.4729399119377098,-0.39470529985427905,-0.727371360969543,0.20348807629183965
4.478200757575758,-0.320935517406464,0.127408957958221,0.750355689811707,0.20348807629183965
4.478806818181818,1.1975068654060401,0.204049582958221,-0.986033470344543,0.20348807629183965
4.479412878787879,1.15679153337479,-0.380335182666779,-0.313032982063293,0.20348807629183965
4.480018939393939,-0.0934086619377136,0.0819035868644714,2.85078781871796,0.20348807629183965
4.480625,-0.37362594709396396,0.0627434306144714,-0.495054466438293,0.20348807629183965
4.481231060606061,-1.0609965525627099,-0.330039772510529,-2.72481765003204,0.20348807629183965
4.481837121212121,-0.399971161937714,-0.16717844438552898,0.0294548109054566,0.20348807629183965
4.482443181818182,0.792748564624786,-0.540801491260529,1.49760178356171,0.20348807629183965
4.483049242424242,0.337694853687286,0.912975364208221,0.9754875257492069,0.20348807629183965
4.483655303030303,0.13411819353103602,1.01117116498947,-0.463919212532043,0.20348807629183965
4.484261363636364,-0.675398408031464,-0.128858131885529,-0.365723411750793,0.20348807629183965
4.484867424242424,-0.296985322093964,-0.07856272172927861,-0.703421165657043,0.20348807629183965
4.485473484848485,-0.598757783031464,-1.26649240922928,-1.11536452503204,0.20348807629183965
4.486079545454545,0.598751982593536,-0.210288795948029,2.1562321546554597,0.20348807629183965
4.486685606060606,0.0790327443122864,1.65303639936447,-0.22681227893829298,0.20348807629183965
4.487291666666668,0.215548857593536,-0.0186872334480286,-2.3775398180007903,0.20348807629183965
4.487897727272727,-0.0814335642814636,-0.183943581104279,2.46997971324921,0.20348807629183965
4.488503787878788,-0.950825654125214,0.0292131571769714,0.666530006217957,0.20348807629183965
4.4891098484848495,-0.5077470408439639,-0.36596506547927904,-2.04702712268829,0.20348807629183965
4.48971590909091,-0.158074189281464,0.184889426708221,-0.746531517219543,0.20348807629183965
4.49032196969697,0.356855009937286,0.09387868452072139,1.1575090101242098,0.20348807629183965
4.49092803030303,1.05380569353104,0.0196330790519714,1.1958293226242098,0.20348807629183965
4.4915340909090915,0.15806838884353602,0.139384055614471,-0.533374778938293,0.20348807629183965
4.492140151515152,-1.0562065135002099,-0.576726784229279,-0.396858665657043,0.20348807629183965
4.492746212121212,-0.629893036937714,-0.373150124073029,-0.523794700813293,0.20348807629183965
4.4933522727272734,0.062267607593536396,0.16812428998947102,-2.00391677112579,0.20348807629183965
4.4939583333333335,0.821488798999786,-0.8904743428230291,1.94547043590546,0.20348807629183965
4.494564393939394,1.25977737321854,0.170519309520721,3.01604416637421,0.20348807629183965
4.495170454545455,-0.15567916975021398,1.30336354780197,-2.37993483753204,0.20348807629183965
4.495776515151515,-0.981960908031464,-0.579121803760529,-1.01477370471954,0.20348807629183965
4.496382575757576,-0.977170868968964,-0.39470529985427905,1.0233879163742101,0.20348807629183965
4.496988636363636,0.06945266618728639,-0.361175026416779,-0.370513450813293,0.20348807629183965
4.497594696969697,1.54478469743729,-0.22705393266677898,-0.34895827503204296,0.20348807629183965
4.498200757575758,0.574801787281036,1.1093669657707201,0.527618873405457,0.20348807629183965
4.498806818181818,0.12932815446853602,0.259135032176971,0.585099342155457,0.20348807629183965
4.499412878787879,-0.730483857250214,-0.148018288135529,-0.6938410875320431,0.20348807629183965
4.500018939393939,-1.3986943064689599,-0.22226389360427898,-0.7944319078445431,0.20348807629183965
4.500625,0.229918974781036,-0.648577370166779,0.376732642936707,0.20348807629183965
4.501231060606061,0.387990263843536,1.0327263407707201,-0.8135920640945431,0.20348807629183965
4.501837121212121,0.17962356462478601,0.479476829051971,0.628209693717957,0.20348807629183965
4.502443181818182,0.399965361499786,-0.45697580766677903,2.65918625621796,0.20348807629183965
4.503049242424242,-0.6274980174064639,0.678263450145721,-1.8793757555007902,0.20348807629183965
4.503655303030303,-0.37362594709396396,-0.852154030323029,-2.87809890003204,0.20348807629183965
4.504261363636364,-0.306565400218964,-0.308484596729279,0.5419889905929569,0.20348807629183965
4.504867424242424,0.18441360368728602,0.35254079389572096,1.5455021741867099,0.20348807629183965
4.505473484848485,1.31965286149979,0.105853782176971,0.549174049186707,0.20348807629183965
4.506079545454545,0.615517119312286,0.0459782938957214,0.00789963512420659,0.20348807629183965
4.506685606060606,-0.570017548656464,0.38128102827072097,0.206686256217957,0.20348807629183965
4.507291666666667,-0.617917939281464,-0.389915260791779,-1.14649977893829,0.20348807629183965
4.507897727272727,-0.675398408031464,-0.919214577198029,-0.724976341438293,0.20348807629183965
4.508503787878788,0.342484892749786,0.32380055952072095,2.27119309215546,0.20348807629183965
4.509109848484848,1.81542190446854,0.577672629833221,-0.0926911851882934,0.20348807629183965
4.509715909090909,0.677787627124786,0.551327414989471,-1.6781941148757902,0.20348807629183965
4.51032196969697,-0.658633271312714,-0.473740944385529,1.99337082653046,0.20348807629183965
4.51092803030303,-0.684978486156464,-0.5695417256355291,-0.219627220344543,0.20348807629183965
4.511534090909091,-0.598757783031464,0.0387932353019714,-2.27934401721954,0.20348807629183965
4.512140151515151,0.42631057634353603,-0.464160866260529,-0.0663459703445434,0.20348807629183965
4.512746212121212,1.4058735646247902,0.275900168895721,1.35150559215546,0.20348807629183965
4.513352272727273,0.364040068531036,0.544142356395721,1.2676799085617099,0.20348807629183965
4.513958333333333,-0.579597626781464,0.0890886454582214,-0.942923118782043,0.20348807629183965
4.514564393939394,-1.1256620799064598,0.0459782938957214,-0.040000755500793406,0.20348807629183965
4.515170454545455,-0.356860810375214,-0.07137766313552861,-0.811197044563293,0.20348807629183965
4.515776515151515,0.0239472950935364,-0.557566627979279,-1.43629714221954,0.20348807629183965
4.516382575757576,0.450260771656036,0.146569114208221,3.2076457288742097,0.20348807629183965
4.516988636363636,0.728083037281036,1.32012868452072,0.403077857780457,0.20348807629183965
4.517594696969697,-0.713718720531464,0.45313161420822096,-3.15113112659454,0.20348807629183965
