Time (s),Accel X (m/s^2),Accel Y (m/s^2),Accel Z (m/s^2)
3.00225,2.39501953125123e-05,0.128705823612213,-0.0071729899406429605
3.0028560606060606,0.021579125976562502,0.0329050423622131,0.603556990528107
3.003462121212121,-0.09817185058593751,-0.0940309927940369,0.344894881153107
3.004068181818182,0.131750024414063,0.0185349251747131,0.023962263965607
3.0046742424242425,-0.138887182617187,-0.0126003287315369,0.11736802568435699
3.005280303030303,0.057504418945312503,-0.0269704459190369,-0.10536879072189301
3.0058863636363635,-0.0766166748046875,-0.08445091466903691,0.158083357715607
3.0064924242424245,-0.134097143554687,0.0113498665809631,0.026357283496857002
3.007098484848485,-0.0359013427734375,-0.019785387325286903,0.22993394365310701
3.0077045454545455,-0.11493698730468699,-0.156301500606537,0.12455308427810699
3.008310606060606,0.0646894775390625,-0.029365465450286902,0.026357283496857002
3.008916666666667,-0.102961889648437,0.09757056970596309,0.12455308427810699
3.0095227272727274,-0.0359013427734375,-0.14911644201278698,0.19400865068435702
3.010128787878788,-0.126912084960937,0.0185349251747131,0.172453474903107
3.0107348484848484,-0.019136206054687497,0.176606214237213,0.07425767412185699
3.0113409090909093,-0.0359013427734375,-0.132351305294037,0.141318220996857
3.01194696969697,-0.102961889648437,-0.07966087560653691,0.13892320146560702
3.0125530303030303,-0.0119511474609375,-0.050920641231536896,-0.086208634471893
3.013159090909091,-0.0406913818359375,-0.137141344356537,0.17005845537185701
3.013765151515152,-0.409524389648438,-0.177856676387787,0.007197127246857039
3.0143712121212123,-0.0430864013671875,-0.00302025060653688,-0.514917130565643
3.014977272727273,-0.00716110839843749,-0.010205309200286899,0.11018296709060699
3.0155833333333333,-0.100566870117187,-0.08684593420028691,0.35207993974685703
3.016189393939394,-0.11733200683593699,-0.113191149044037,0.399980330371857
3.0167954545454547,-0.37838913574218797,0.111940686893463,0.050307478809357
3.0174015151515152,-0.0646415771484375,-0.0413405631065369,-0.071838517284393
3.0180075757575757,-0.11972702636718699,-0.14432640295028698,0.318549666309357
3.0186136363636367,-0.263428198242187,-0.07487083654403691,0.289809431934357
3.019219696969697,0.0311592041015625,-0.232942125606537,0.308969588184357
3.0198257575757577,0.0694795166015625,-0.182646715450287,0.19400865068435702
3.020431818181818,-0.059851538085937496,0.0329050423622131,0.011987166309357
3.021037878787879,0.10779982910156301,0.0688303353309631,0.136528181934357
3.0216439393939396,0.0143940673828125,0.09996558923721309,0.131738142871857
3.02225,-0.30893356933593796,-0.161091539669037,0.155688338184357
3.0228560606060606,0.0263691650390625,-0.151511461544037,0.296994490528107
3.023462121212121,0.09342971191406249,-0.0892409537315369,0.158083357715607
3.024068181818182,-0.181997534179687,-0.0413405631065369,0.12934312334060702
3.0246742424242425,-0.11972702636718699,0.0496701790809631,0.102997908496857
3.025280303030303,-0.08140671386718751,-0.137141344356537,0.098207869434357
3.0258863636363635,-0.0287162841796875,-0.13474632482528698,-0.033518204784393
3.0264924242424245,0.0263691650390625,-0.22815208654403699,-0.047888321971893
3.027098484848485,-0.100566870117187,-0.187436754512787,-0.172429337596893
3.0277045454545455,-0.22031784667968698,0.0233249642372131,0.00240708818435704
3.028310606060606,-0.0359013427734375,0.0855954720497131,0.107787947559357
3.028916666666667,0.023974145507812503,-0.08205589513778691,0.00240708818435704
3.0295227272727274,0.131750024414063,-0.046130602169036895,0.186823592090607
3.030128787878788,0.023974145507812503,-0.00302025060653688,0.253884138965607
3.0307348484848484,-0.15565231933593698,-0.010205309200286899,0.24430406084060702
3.0313409090909094,-0.0119511474609375,0.0161399056434631,0.035937361621857
3.03194696969697,-0.12212204589843699,-0.0245754263877869,0.131738142871857
3.0325530303030304,-0.0119511474609375,-0.268867418575287,0.100602888965607
3.033159090909091,0.08384963378906249,-0.182646715450287,0.167663435840607
3.033765151515152,-0.126912084960937,0.030510022830963098,-0.215539689159393
3.0343712121212123,0.0287641845703125,-0.06768577795028691,-0.047888321971893
3.034977272727273,-0.0550614990234375,-0.19462181310653698,0.232328963184357
3.0355833333333333,-0.021531225585937497,-0.19941185216903698,-0.227514786815643
3.036189393939394,-0.12451706542968699,0.236481702518463,0.12934312334060702
3.0367954545454547,-0.249058081054687,0.0185349251747131,0.270649275684357
3.0374015151515152,-0.08380173339843751,-0.12756126623153702,0.17484849443435702
3.0380075757575757,-0.20594772949218698,-0.141931383419037,0.13892320146560702
3.0386136363636367,-0.170022436523437,-0.165881578731537,0.07186265459060699
3.039219696969697,0.021579125976562502,-0.07966087560653691,0.162873396778107
3.0398257575757577,-0.11972702636718699,0.09757056970596309,0.282624373340607
3.040431818181818,0.07905959472656249,0.0329050423622131,0.201193709278107
3.0410378787878787,0.184440454101563,-0.08205589513778691,0.143713240528107
3.0416439393939396,0.12456496582031301,-0.0605007193565369,0.440695662403107
3.04225,-0.00716110839843749,-0.300002672481537,0.306574568653107
3.0428560606060606,-0.08859177246093751,-0.0581056998252869,0.285019392871857
3.043462121212121,-0.0311113037109375,-0.08684593420028691,0.086232771778107
3.044068181818182,-0.09338181152343751,-0.046130602169036895,-0.431091446971893
3.0446742424242426,0.00481398925781251,-0.175461656856537,0.268254256153107
3.045280303030303,-0.09577683105468751,-0.029365465450286902,-0.038308243846893
3.0458863636363636,-0.177207495117187,0.0185349251747131,-0.021543107128143
3.0464924242424245,-0.100566870117187,-0.08205589513778691,0.158083357715607
3.047098484848485,-0.00237106933593749,0.0544602181434631,-0.11015882978439301
3.0477045454545455,-0.158047338867187,-0.0149953482627869,0.150898299121857
3.048310606060606,-0.0406913818359375,0.188581311893463,-0.138899064159393
3.048916666666667,0.0718745361328125,-0.00541527013778688,0.06946763505935699
3.0495227272727274,-0.09577683105468751,-0.292817613887787,-0.062258439159393
3.050128787878788,-0.107751928710937,-0.26647239904403697,-0.040703263378143
3.0507348484848484,-0.11014694824218699,-0.0557106802940369,0.011987166309357
3.0513409090909094,0.10779982910156301,-0.16827659826278699,0.033542342090607004
3.05194696969697,0.00241896972656251,-0.0365505240440369,0.143713240528107
3.0525530303030304,-0.16523239746093699,-0.043735582637786895,0.205983748340607
3.053159090909091,-0.0382963623046875,-0.08445091466903691,0.220353865528107
3.0537651515151514,-0.0670365966796875,0.0209299447059631,0.265859236621857
3.0543712121212123,0.170070336914063,0.0185349251747131,0.256279158496857
3.054977272727273,-0.0359013427734375,0.00895484704971312,0.06946763505935699
3.0555833333333333,-0.239478002929687,-0.029365465450286902,0.253884138965607
3.056189393939394,-0.0550614990234375,-0.0269704459190369,-0.083813614940643
3.0567954545454548,0.150910180664063,-0.311977770137787,0.213168806934357
3.0574015151515153,0.021579125976562502,-0.12756126623153702,0.091022810840607
3.0580075757575758,-0.107751928710937,0.0185349251747131,0.205983748340607
3.0586136363636367,-0.00955612792968749,0.0185349251747131,0.261069197559357
3.059219696969697,0.0263691650390625,-0.197016832637787,-0.090998673534393
3.0598257575757577,0.11737990722656301,-0.151511461544037,0.059887556934357
3.060431818181818,-0.0478764404296875,-0.113191149044037,0.093417830371857
3.0610378787878787,-0.0502714599609375,-0.048525621700286896,0.318549666309357
3.0616439393939396,-0.09338181152343751,-0.0916359732627869,0.11018296709060699
3.06225,0.10779982910156301,-0.20899193029403698,0.047912459278107
3.0628560606060606,0.062294458007812505,-0.08445091466903691,0.021567244434357
3.063462121212121,0.08145461425781249,-0.0221804068565369,0.016777205371857
3.064068181818182,0.0455293212890625,-0.0988210318565369,0.313759627246857
3.0646742424242426,-0.179602514648437,-0.137141344356537,0.258674178028107
3.065280303030303,-0.004766088867187489,-0.019785387325286903,0.11497300615310699
3.0658863636363636,0.0694795166015625,-0.271262438106537,0.155688338184357
3.066492424242424,0.11019484863281301,-0.259287340450287,-0.040703263378143
3.067098484848485,-0.158047338867187,0.0496701790809631,0.126948103809357
3.0677045454545455,0.0143940673828125,-0.0245754263877869,0.102997908496857
3.068310606060606,0.0119990478515625,-0.235337145137787,0.177243513965607
3.068916666666667,-0.12451706542968699,-0.101216051387787,0.136528181934357
3.0695227272727275,0.196415551757813,-0.0892409537315369,0.095812849903107
3.070128787878788,-0.0335063232421875,-0.07726585607528691,0.158083357715607
3.0707348484848485,-0.15086228027343698,0.107150647830963,0.102997908496857
3.0713409090909094,-0.00237106933593749,-0.050920641231536896,0.308969588184357
3.07194696969697,0.182045434570313,-0.352693102169037,0.06946763505935699
3.0725530303030304,0.136540063476563,-0.15869652013778698,0.153293318653107
3.073159090909091,-0.0167411865234375,-0.108401109981537,0.24430406084060702
3.0737651515151514,-0.004766088867187489,-0.22336204748153698,0.622717146778107
3.0743712121212123,-0.09098679199218751,0.0353000618934631,-0.289785294628143
3.074977272727273,0.0694795166015625,-0.08205589513778691,-0.268230118846893
3.0755833333333333,0.11977492675781301,-0.273657457637787,0.225143904590607
3.076189393939394,-0.0718266357421875,0.0496701790809631,-0.06465345869064301
3.0767954545454548,-0.021531225585937497,0.0233249642372131,0.280229353809357
3.0774015151515153,-0.08859177246093751,-0.07247581701278691,0.079047713184357
3.0780075757575758,-0.12451706542968699,0.0616452767372131,0.36166001787185703
3.0786136363636363,-0.134097143554687,-0.0413405631065369,0.045517439746857
3.079219696969697,-0.217922827148437,-0.15390648107528698,0.215563826465607
3.0798257575757577,-0.251453100585937,0.0688303353309631,0.438300642871857
3.080431818181818,-0.126912084960937,0.0736203743934631,0.11736802568435699
3.0810378787878787,0.10540480957031301,-0.00781028966903688,0.086232771778107
3.0816439393939397,-0.0167411865234375,-0.050920641231536896,0.19879868974685702
3.08225,-0.057456518554687495,-0.0892409537315369,0.191613631153107
3.0828560606060607,-0.189182592773437,0.174211194705963,-0.0071729899406429605
3.083462121212121,-0.019136206054687497,0.14068092126846302,0.172453474903107
3.084068181818182,0.07905959472656249,-0.07487083654403691,0.17484849443435702
3.0846742424242426,0.021579125976562502,-0.268867418575287,0.162873396778107
3.085280303030303,-0.186787573242187,-0.0581056998252869,0.081442732715607
3.0858863636363636,-0.39754929199218797,0.174211194705963,0.079047713184357
3.086492424242424,-0.09577683105468751,-0.0413405631065369,0.100602888965607
3.087098484848485,-0.004766088867187489,-0.110796129512787,0.222748885059357
3.0877045454545455,-0.100566870117187,-0.07487083654403691,0.050307478809357
3.088310606060606,-0.105356909179687,-0.029365465450286902,0.146108260059357
3.088916666666667,0.0479243408203125,-0.115586168575287,0.205983748340607
3.0895227272727275,-0.102961889648437,-0.103611070919037,0.00480210771560704
3.090128787878788,2.39501953125123e-05,-0.010205309200286899,0.18442857255935702
3.0907348484848485,0.021579125976562502,-0.187436754512787,0.210773787403107
3.091340909090909,0.062294458007812505,-0.101216051387787,0.136528181934357
3.09194696969697,0.0359492431640625,0.044880140018463105,0.062282576465607004
3.0925530303030304,-0.105356909179687,0.09278053064346309,0.294599470996857
3.093159090909091,-0.12451706542968699,0.14068092126846302,0.11257798662185699
3.0937651515151514,-0.00716110839843749,-0.19941185216903698,-0.011963029003143
3.0943712121212124,0.0503193603515625,-0.048525621700286896,0.062282576465607004
3.094977272727273,-0.126912084960937,-0.0245754263877869,0.091022810840607
3.0955833333333334,-0.12212204589843699,-0.050920641231536896,0.126948103809357
3.096189393939394,0.033554223632812505,0.0233249642372131,0.17005845537185701
3.096795454545455,0.08863967285156249,-0.20899193029403698,0.222748885059357
3.0974015151515153,-0.268218237304687,-0.19941185216903698,0.107787947559357
3.098007575757576,-0.162837377929687,-0.106006090450287,-0.052678361034393
3.0986136363636363,0.0646894775390625,-0.07726585607528691,0.055097517871857
3.0992196969696972,-0.0550614990234375,-0.08445091466903691,0.263464217090607
3.0998257575757577,0.0479243408203125,-0.125166246700287,0.246699080371857
3.1004318181818182,0.136540063476563,-0.165881578731537,0.158083357715607
3.1010378787878787,0.0766645751953125,-0.0149953482627869,0.217958845996857
3.1016439393939397,0.232340844726563,-0.0605007193565369,0.165268416309357
3.10225,0.0694795166015625,-0.12995628576278698,0.06707261552810699
3.102856060606061,0.0431343017578125,-0.13953636388778698,-0.182009415721893
3.103462121212121,-0.0526664794921875,0.104755628299713,-0.215539689159393
3.104068181818182,-0.273008276367187,0.119125745487213,0.572421736621857
3.104674242424242,0.0479243408203125,-0.20899193029403698,0.6466673420906071
3.105280303030303,-0.021531225585937497,-0.15390648107528698,0.088627791309357
3.105886363636364,-0.08859177246093751,0.0353000618934631,0.083837752246857
3.106492424242424,0.126959985351563,-0.00302025060653688,0.11018296709060699
3.107098484848485,-0.15565231933593698,-0.0221804068565369,0.057492537403107
3.107704545454545,-0.227502905273437,0.0903855111122131,0.126948103809357
3.108310606060606,0.196415551757813,0.0137448861122131,0.17005845537185701
3.108916666666667,-0.20594772949218698,-0.146721422481537,0.028752303028107
3.109522727272727,-0.0335063232421875,-0.12756126623153702,0.182033553028107
3.110128787878788,0.13414504394531301,0.174211194705963,0.18921861162185702
3.110734848484848,-0.08380173339843751,0.00416480798721312,0.150898299121857
3.111340909090909,0.021579125976562502,-0.151511461544037,0.18921861162185702
3.11194696969697,0.00720900878906251,-0.000625231075286882,0.016777205371857
3.11255303030303,0.129355004882813,0.0664353157997131,0.177243513965607
3.113159090909091,-0.0335063232421875,-0.08205589513778691,0.12455308427810699
3.113765151515152,0.100614770507813,0.0640402962684631,0.126948103809357
3.114371212121212,0.179650415039063,0.044880140018463105,0.023962263965607
3.114977272727273,-0.021531225585937497,-0.16827659826278699,0.026357283496857002
3.115583333333333,-0.00955612792968749,-0.137141344356537,0.102997908496857
3.116189393939394,0.0383442626953125,0.0233249642372131,-0.059863419628143
3.1167954545454553,-0.21073776855468698,0.00416480798721312,0.275439314746857
3.1174015151515153,-0.30414353027343705,-0.242522203731537,0.182033553028107
3.1180075757575763,-0.08140671386718751,-0.175461656856537,0.055097517871857
3.1186136363636363,0.0407392822265625,-0.26647239904403697,-0.062258439159393
3.1192196969696973,0.00481398925781251,-0.0581056998252869,0.153293318653107
3.119825757575758,-0.0263212646484375,-0.120376207637787,0.366450056934357
3.1204318181818183,-0.062246557617187497,-0.010205309200286899,0.143713240528107
3.121037878787879,-0.107751928710937,-0.16348655920028698,0.13892320146560702
3.1216439393939392,0.00241896972656251,-0.161091539669037,0.062282576465607004
3.12225,0.0311592041015625,0.0520651986122131,0.102997908496857
3.122856060606061,-0.057456518554687495,-0.08205589513778691,0.131738142871857
3.123462121212121,0.0479243408203125,-0.048525621700286896,0.313759627246857
3.124068181818182,0.182045434570313,-0.0940309927940369,0.18921861162185702
3.124674242424242,0.07905959472656249,0.0185349251747131,0.093417830371857
3.125280303030303,-0.0454814208984375,-0.115586168575287,0.12455308427810699
3.125886363636364,-0.15565231933593698,0.234086682987213,0.19400865068435702
3.126492424242424,-0.102961889648437,-0.115586168575287,0.136528181934357
3.127098484848485,0.033554223632812505,-0.22815208654403699,-0.00477797040939296
3.127704545454545,-0.16044235839843698,-0.0964260123252869,0.182033553028107
3.128310606060606,-0.11972702636718699,-0.254497301387787,0.428720564746857
3.128916666666667,-0.12451706542968699,-0.0341555045127869,0.225143904590607
3.129522727272727,-0.134097143554687,-0.230547106075287,0.148503279590607
3.130128787878788,0.0311592041015625,-0.321557848262787,0.282624373340607
3.130734848484848,0.0551093994140625,-0.21378196935653698,0.033542342090607004
3.131340909090909,-0.0167411865234375,-0.0365505240440369,0.11257798662185699
3.13194696969697,-0.08140671386718751,-0.113191149044037,0.273044295215607
3.13255303030303,0.0527143798828125,-0.211386949825287,0.285019392871857
3.133159090909091,0.0311592041015625,-0.15390648107528698,0.8861692952156071
3.133765151515152,0.19402053222656301,0.0017697884559631201,0.265859236621857
3.134371212121212,0.00241896972656251,-0.115586168575287,-0.17003431806564298
3.134977272727273,-0.0718266357421875,-0.07966087560653691,0.306574568653107
3.135583333333333,0.09342971191406249,-0.048525621700286896,0.150898299121857
3.136189393939394,-0.0311113037109375,-0.0245754263877869,0.177243513965607
3.1367954545454553,-0.15086228027343698,-0.050920641231536896,0.12455308427810699
3.137401515151515,-0.09098679199218751,-0.000625231075286882,-0.11015882978439301
3.1380075757575763,-0.33767380371093797,0.0903855111122131,0.241909041309357
3.138613636363636,-0.021531225585937497,-0.187436754512787,0.340104842090607
3.1392196969696973,0.126959985351563,-0.304792711544037,-0.009568009471892961
3.139825757575758,-0.179602514648437,-0.110796129512787,0.026357283496857002
3.1404318181818183,-0.0263212646484375,-0.19941185216903698,0.093417830371857
3.141037878787879,-0.09577683105468751,-0.0940309927940369,0.306574568653107
3.1416439393939393,0.0287641845703125,0.128705823612213,0.320944685840607
3.14225,-0.0694316162109375,0.0353000618934631,0.19879868974685702
3.142856060606061,-0.00237106933593749,-0.08205589513778691,0.17005845537185701
3.143462121212121,0.00960402832031251,-0.0149953482627869,0.344894881153107
3.144068181818182,-0.0430864013671875,0.234086682987213,0.23472398271560702
3.144674242424242,0.189230493164063,0.042485120487213104,0.165268416309357
3.145280303030303,-0.0167411865234375,-0.18983177404403698,0.213168806934357
3.145886363636364,-0.0718266357421875,-0.0988210318565369,-0.057468400096892996
3.146492424242424,-0.08859177246093751,-0.0341555045127869,0.160478377246857
3.147098484848485,-0.15565231933593698,-0.0557106802940369,0.476620955371857
3.147704545454545,-0.158047338867187,-0.07487083654403691,0.057492537403107
3.148310606060606,-0.181997534179687,-0.108401109981537,0.11736802568435699
3.148916666666667,-0.0167411865234375,-0.132351305294037,0.246699080371857
3.149522727272727,-0.00237106933593749,-0.137141344356537,0.021567244434357
3.150128787878788,0.11258986816406301,-0.14432640295028698,0.186823592090607
3.150734848484848,0.103009790039063,0.0065598275184631195,0.040727400684357
3.151340909090909,-0.059851538085937496,-0.12995628576278698,0.18442857255935702
3.15194696969697,0.0263691650390625,-0.173066637325287,0.18921861162185702
3.15255303030303,0.0143940673828125,-0.14432640295028698,-0.00477797040939296
3.153159090909091,-0.0670365966796875,-0.13953636388778698,0.205983748340607
3.153765151515152,0.0766645751953125,0.0496701790809631,0.22993394365310701
3.154371212121212,-0.11254196777343699,-0.125166246700287,0.17963853349685702
3.154977272727273,-0.174812475585937,-0.211386949825287,0.282624373340607
3.155583333333333,-0.019136206054687497,-0.07247581701278691,0.12215806474685699
3.156189393939394,-0.09098679199218751,0.0832004525184631,0.17484849443435702
3.1567954545454553,0.00481398925781251,-0.0221804068565369,0.22993394365310701
3.157401515151515,-0.0382963623046875,-0.0964260123252869,0.021567244434357
3.1580075757575763,0.10540480957031301,-0.137141344356537,0.028752303028107
3.158613636363636,0.0527143798828125,-0.0988210318565369,-0.11255384931564301
3.1592196969696973,-0.11733200683593699,0.212531507205963,0.265859236621857
3.1598257575757582,-0.0478764404296875,-0.010205309200286899,0.438300642871857
3.1604318181818183,-0.08380173339843751,-0.151511461544037,0.320944685840607
3.1610378787878792,0.0431343017578125,-0.362273180294037,0.141318220996857
3.1616439393939393,-0.0670365966796875,-0.230547106075287,0.050307478809357
3.1622500000000002,-0.0382963623046875,-0.0940309927940369,0.033542342090607004
3.162856060606061,0.07905959472656249,-0.15390648107528698,0.426325545215607
3.1634621212121212,0.09342971191406249,-0.122771227169037,-0.043098282909393
3.164068181818182,0.165280297851563,-0.211386949825287,0.11736802568435699
3.1646742424242422,-0.021531225585937497,-0.175461656856537,0.548471541309357
3.165280303030303,0.09342971191406249,-0.15390648107528698,-0.014358048534392999
3.165886363636364,0.0143940673828125,-0.07726585607528691,0.359264998340607
3.166492424242424,-0.021531225585937497,-0.050920641231536896,0.263464217090607
3.167098484848485,-0.11254196777343699,-0.0365505240440369,0.079047713184357
3.167704545454545,-0.131702124023437,-0.259287340450287,0.158083357715607
3.168310606060606,-0.0718266357421875,0.0185349251747131,0.285019392871857
3.168916666666667,-0.181997534179687,-0.0149953482627869,0.062282576465607004
3.169522727272727,-0.14128220214843698,-0.0269704459190369,-0.023938126659393
3.170128787878788,-0.00955612792968749,0.09517555017471309,0.035937361621857
3.170734848484848,-0.00955612792968749,-0.156301500606537,0.052702498340607
3.171340909090909,0.0503193603515625,-0.019785387325286903,0.344894881153107
3.17194696969697,-0.0694316162109375,-0.043735582637786895,0.213168806934357
3.17255303030303,-0.0478764404296875,-0.16348655920028698,0.12455308427810699
3.173159090909091,0.0407392822265625,-0.0605007193565369,0.220353865528107
3.173765151515152,0.0143940673828125,0.0065598275184631195,0.165268416309357
3.174371212121212,0.09103469238281249,0.143075940799713,0.246699080371857
3.174977272727273,-0.0526664794921875,0.128705823612213,0.328129744434357
3.175583333333333,-0.00237106933593749,0.0353000618934631,0.047912459278107
3.176189393939394,-0.193972631835937,-0.13953636388778698,0.182033553028107
3.176795454545455,-0.11972702636718699,-0.120376207637787,0.13413316240310702
3.177401515151515,0.057504418945312503,-0.0557106802940369,-0.093393693065643
3.178007575757576,0.256291040039063,0.0113498665809631,0.19879868974685702
3.178613636363636,0.131750024414063,0.0017697884559631201,0.37124009599685703
3.179219696969697,-0.102961889648437,-0.103611070919037,0.241909041309357
3.1798257575757582,-0.16044235839843698,-0.06768577795028691,-0.009568009471892961
3.180431818181818,0.00481398925781251,-0.0245754263877869,0.059887556934357
3.1810378787878792,0.08624465332031249,0.0616452767372131,0.376030135059357
3.181643939393939,-0.153257299804687,0.0832004525184631,0.296994490528107
3.1822500000000002,-0.059851538085937496,-0.06768577795028691,0.06707261552810699
3.182856060606061,-0.0430864013671875,-0.0892409537315369,0.019172224903107
3.1834621212121212,0.09582473144531249,-0.019785387325286903,0.222748885059357
3.184068181818182,-0.00955612792968749,-0.125166246700287,0.220353865528107
3.1846742424242422,-0.20115769042968698,-0.15390648107528698,0.287414412403107
3.185280303030303,0.191625512695313,-0.019785387325286903,0.42153550615310703
3.185886363636364,0.0167890869140625,-0.283237535762787,0.241909041309357
3.186492424242424,-0.09338181152343751,-0.14911644201278698,0.148503279590607
3.187098484848485,0.062294458007812505,-0.06768577795028691,0.289809431934357
3.187704545454545,-0.0526664794921875,-0.156301500606537,0.388005232715607
3.188310606060606,-0.07901169433593751,0.00416480798721312,-0.095788712596893
3.188916666666667,-0.222712866210937,-0.08205589513778691,0.31136460771560703
3.189522727272727,-0.0119511474609375,0.0329050423622131,0.440695662403107
3.190128787878788,-0.131702124023437,0.0329050423622131,0.105392928028107
3.190734848484848,-0.229897924804687,-0.137141344356537,-0.00477797040939296
3.191340909090909,0.08624465332031249,0.13589088220596302,0.191613631153107
3.19194696969697,-0.162837377929687,0.0065598275184631195,0.282624373340607
3.19255303030303,-0.198762670898437,-0.254497301387787,-0.205959611034393
3.193159090909091,0.0191841064453125,-0.0413405631065369,-0.177219376659393
3.193765151515152,-0.0263212646484375,-0.151511461544037,0.354474959278107
3.194371212121212,0.00481398925781251,-0.0652907584190369,0.296994490528107
3.194977272727273,-0.0167411865234375,-0.046130602169036895,1.2068653107038e-05
3.195583333333333,-0.023926245117187498,-0.08445091466903691,0.100602888965607
3.196189393939394,-0.131702124023437,0.00895484704971312,0.18921861162185702
3.196795454545455,-0.172417456054687,-0.16827659826278699,0.263464217090607
3.197401515151515,-0.021531225585937497,-0.0126003287315369,0.100602888965607
3.198007575757576,0.09342971191406249,-0.00541527013778688,0.143713240528107
3.198613636363636,0.15330520019531302,-0.13474632482528698,0.057492537403107
3.199219696969697,0.11258986816406301,-0.146721422481537,0.18442857255935702
3.1998257575757583,-0.00955612792968749,-0.08205589513778691,0.256279158496857
3.200431818181818,-0.08859177246093751,-0.07008079748153691,0.162873396778107
3.2010378787878793,0.09342971191406249,-0.0988210318565369,0.033542342090607004
3.2016439393939393,0.0167890869140625,-0.192226793575287,0.06467759599685699
3.2022500000000003,-0.09338181152343751,0.0736203743934631,0.07665269365310699
3.202856060606061,-0.00716110839843749,0.119125745487213,-0.009568009471892961
3.2034621212121213,0.11737990722656301,-0.07008079748153691,0.287414412403107
3.204068181818182,0.12456496582031301,0.0233249642372131,0.277834334278107
3.2046742424242423,-0.08619675292968751,-0.25689232091903696,0.35207993974685703
3.205280303030303,-0.136492163085937,-0.122771227169037,-0.081418595409393
3.205886363636364,-0.0550614990234375,0.20534644861221302,0.12215806474685699
3.206492424242424,0.0479243408203125,-0.08684593420028691,0.277834334278107
3.207098484848485,-0.136492163085937,-0.180251695919037,0.059887556934357
3.207704545454545,0.11258986816406301,-0.0269704459190369,0.217958845996857
3.208310606060606,0.023974145507812503,-0.120376207637787,0.222748885059357
3.208916666666667,-0.244268041992187,0.0592502572059631,0.22993394365310701
3.209522727272727,0.0503193603515625,-0.06289573888778689,0.031147322559357
3.210128787878788,0.179650415039063,-0.20899193029403698,-0.014358048534392999
3.210734848484848,-0.0119511474609375,-0.08684593420028691,0.040727400684357
3.211340909090909,-0.0406913818359375,-0.0652907584190369,0.296994490528107
3.21194696969697,-0.08859177246093751,-0.0126003287315369,0.213168806934357
3.21255303030303,-0.0550614990234375,-0.185041734981537,0.282624373340607
3.213159090909091,0.0143940673828125,-0.0581056998252869,0.246699080371857
3.213765151515152,-0.0119511474609375,0.0137448861122131,0.215563826465607
3.214371212121212,0.10779982910156301,0.0808054329872131,-0.023938126659393
3.214977272727273,0.062294458007812505,0.104755628299713,0.126948103809357
3.215583333333333,0.103009790039063,0.042485120487213104,0.17005845537185701
3.216189393939394,0.0646894775390625,0.00416480798721312,-0.10536879072189301
3.216795454545455,2.39501953125123e-05,-0.27605247716903697,0.00480210771560704
3.217401515151515,0.0311592041015625,-0.029365465450286902,0.007197127246857039
3.218007575757576,-0.0359013427734375,-0.00541527013778688,0.241909041309357
3.218613636363636,0.0455293212890625,-0.0533156607627869,0.13892320146560702
3.219219696969697,0.11737990722656301,0.0592502572059631,0.18442857255935702
3.2198257575757583,-0.15086228027343698,-0.18983177404403698,-0.095788712596893
3.220431818181818,0.00720900878906251,-0.0988210318565369,0.062282576465607004
3.2210378787878793,0.10540480957031301,0.0903855111122131,0.17005845537185701
3.221643939393939,-0.08619675292968751,-0.16348655920028698,0.098207869434357
3.2222500000000003,-0.0670365966796875,-0.161091539669037,0.13413316240310702
3.2228560606060612,0.12456496582031301,-0.185041734981537,0.457460799121857
3.2234621212121213,0.062294458007812505,-0.113191149044037,0.306574568653107
3.224068181818182,-0.0311113037109375,-0.13953636388778698,0.488596053028107
3.2246742424242423,-0.162837377929687,-0.029365465450286902,0.603556990528107
3.225280303030303,0.0407392822265625,-0.0269704459190369,-0.00477797040939296
3.225886363636364,0.08384963378906249,-0.0533156607627869,0.273044295215607
3.226492424242424,0.21318068847656302,0.0113498665809631,0.105392928028107
3.227098484848485,-0.181997534179687,-0.201806871700287,0.162873396778107
3.227704545454545,-0.09577683105468751,-0.0221804068565369,0.033542342090607004
3.228310606060606,0.186835473632813,0.14068092126846302,0.12215806474685699
3.228916666666667,-0.14128220214843698,0.0520651986122131,0.17484849443435702
3.229522727272727,0.10540480957031301,-0.0365505240440369,0.23951402177810702
3.230128787878788,0.0646894775390625,-0.0221804068565369,0.263464217090607
3.230734848484848,-0.0119511474609375,-0.0317604849815369,0.06707261552810699
3.231340909090909,-0.019136206054687497,0.133495862674713,0.100602888965607
3.23194696969697,0.0455293212890625,-0.00302025060653688,0.167663435840607
3.23255303030303,-0.00716110839843749,-0.0221804068565369,0.289809431934357
3.233159090909091,-0.00716110839843749,0.0376950814247131,0.093417830371857
3.233765151515152,-0.30653854980468703,-0.00302025060653688,0.11497300615310699
3.234371212121212,-0.366414038085938,0.0017697884559631201,0.191613631153107
3.234977272727273,0.15330520019531302,-0.0581056998252869,0.217958845996857
3.235583333333333,0.0311592041015625,0.0496701790809631,0.368845076465607
3.236189393939394,-0.0335063232421875,-0.343113024044037,0.050307478809357
3.236795454545455,-0.16044235839843698,-0.141931383419037,0.210773787403107
3.237401515151515,-0.234687963867187,0.028115003299713098,0.126948103809357
3.238007575757576,0.0551093994140625,-0.0557106802940369,0.205983748340607
3.238613636363636,-0.014346166992187501,0.104755628299713,0.330524763965607
3.239219696969697,0.0670844970703125,0.119125745487213,0.13413316240310702
3.2398257575757583,-0.0694316162109375,0.0736203743934631,0.155688338184357
3.240431818181818,-0.0694316162109375,-0.132351305294037,0.026357283496857002
3.2410378787878793,0.07905959472656249,-0.14911644201278698,0.217958845996857
3.241643939393939,-0.0311113037109375,-0.115586168575287,0.052702498340607
3.2422500000000003,-0.00237106933593749,-0.106006090450287,0.366450056934357
3.2428560606060612,-0.0335063232421875,0.0688303353309631,0.469435896778107
3.2434621212121213,0.12456496582031301,0.109545667362213,0.196403670215607
3.2440681818181822,0.11737990722656301,-0.18983177404403698,0.00959214677810704
3.2446742424242423,-0.00237106933593749,-0.156301500606537,0.349684920215607
3.2452803030303032,-0.170022436523437,-0.0988210318565369,0.177243513965607
3.245886363636364,-0.0454814208984375,0.0544602181434631,-0.021543107128143
3.2464924242424242,0.00481398925781251,0.0640402962684631,0.06946763505935699
3.247098484848485,-0.08619675292968751,-0.010205309200286899,0.222748885059357
3.2477045454545452,-0.0454814208984375,-0.06289573888778689,0.330524763965607
3.248310606060606,-0.08619675292968751,0.0736203743934631,0.12215806474685699
3.248916666666667,-0.09338181152343751,0.0616452767372131,0.31136460771560703
3.249522727272727,-0.12212204589843699,-0.019785387325286903,0.215563826465607
3.250128787878788,-0.0694316162109375,-0.019785387325286903,0.086232771778107
3.250734848484848,-0.138887182617187,-0.110796129512787,0.342499861621857
3.251340909090909,-0.193972631835937,0.222111585330963,0.19400865068435702
3.25194696969697,0.08145461425781249,-0.00541527013778688,0.11497300615310699
3.25255303030303,0.08863967285156249,-0.201806871700287,0.519731306934357
3.253159090909091,0.15330520019531302,-0.000625231075286882,-0.014358048534392999
3.253765151515152,-0.129307104492187,-0.046130602169036895,0.177243513965607
3.254371212121212,-0.0742216552734375,-0.0940309927940369,0.397585310840607
3.254977272727273,0.160490258789063,0.0520651986122131,0.06707261552810699
3.255583333333333,-0.0550614990234375,-0.0245754263877869,0.517336287403107
3.256189393939394,0.0359492431640625,-0.120376207637787,0.24430406084060702
3.256795454545455,0.15809523925781302,-0.043735582637786895,0.079047713184357
3.257401515151515,0.10779982910156301,-0.0269704459190369,0.146108260059357
3.258007575757576,0.0383442626953125,-0.08445091466903691,0.079047713184357
3.258613636363636,0.0646894775390625,-0.0126003287315369,0.237119002246857
3.259219696969697,-0.0119511474609375,-0.141931383419037,0.208378767871857
3.259825757575758,0.165280297851563,-0.187436754512787,0.150898299121857
3.260431818181818,-0.023926245117187498,0.0592502572059631,0.12215806474685699
3.261037878787879,-0.0550614990234375,0.0832004525184631,0.220353865528107
3.261643939393939,-0.021531225585937497,0.0568552376747131,0.256279158496857
3.26225,-0.179602514648437,0.186186292362213,0.050307478809357
3.2628560606060613,-0.14128220214843698,-0.0389455435752869,-0.081418595409393
3.263462121212121,-0.0550614990234375,-0.132351305294037,0.201193709278107
3.2640681818181823,-0.057456518554687495,0.0688303353309631,0.30178452959060703
3.264674242424242,0.00241896972656251,0.0568552376747131,0.232328963184357
3.2652803030303033,0.225155786132813,-0.0940309927940369,0.155688338184357
3.265886363636364,0.165280297851563,0.030510022830963098,0.308969588184357
3.2664924242424243,0.023974145507812503,0.044880140018463105,0.102997908496857
3.267098484848485,-0.0406913818359375,0.0808054329872131,-0.11734388837814301
3.2677045454545453,-0.11254196777343699,0.047275159549713106,0.215563826465607
3.268310606060606,0.062294458007812505,-0.156301500606537,0.29220445146560703
3.268916666666667,-0.00955612792968749,-0.00781028966903688,0.00240708818435704
3.269522727272727,-0.0167411865234375,-0.0988210318565369,0.019172224903107
3.270128787878788,-0.11493698730468699,-0.0581056998252869,0.12934312334060702
3.270734848484848,0.0431343017578125,-0.0533156607627869,0.213168806934357
3.271340909090909,0.244315942382813,0.0113498665809631,0.167663435840607
3.27194696969697,-0.0311113037109375,-0.07726585607528691,0.11976304521560699
3.27255303030303,-0.153257299804687,-0.0389455435752869,0.095812849903107
3.273159090909091,-0.057456518554687495,0.00416480798721312,0.079047713184357
3.273765151515151,-0.0526664794921875,-0.106006090450287,0.19400865068435702
3.274371212121212,-0.0694316162109375,-0.0557106802940369,0.102997908496857
3.274977272727273,0.057504418945312503,-0.180251695919037,0.00480210771560704
3.275583333333333,-0.186787573242187,0.09757056970596309,0.038332381153107
3.276189393939394,-0.0550614990234375,-0.0557106802940369,0.17484849443435702
3.276795454545455,-0.0550614990234375,-0.235337145137787,0.12934312334060702
3.277401515151515,-0.0670365966796875,-0.125166246700287,-0.033518204784393
3.278007575757576,0.09103469238281249,0.0496701790809631,0.246699080371857
3.278613636363636,-0.0382963623046875,0.0784104134559631,0.17005845537185701
3.279219696969697,0.00241896972656251,-0.019785387325286903,0.186823592090607
3.279825757575758,-0.186787573242187,-0.180251695919037,0.17484849443435702
3.280431818181818,-0.105356909179687,-0.20899193029403698,-0.18919447431564299
3.281037878787879,0.033554223632812505,-0.029365465450286902,-0.17961439619064298
3.281643939393939,-0.014346166992187501,-0.12995628576278698,0.208378767871857
3.2822500000000003,0.0766645751953125,-0.0269704459190369,0.893354353809357
3.2828560606060613,-0.177207495117187,0.0640402962684631,0.12455308427810699
3.2834621212121213,0.0167890869140625,-0.15869652013778698,-0.177219376659393
3.2840681818181823,0.0766645751953125,-0.07726585607528691,0.615532088184357
3.2846742424242423,0.0479243408203125,-0.07487083654403691,0.438300642871857
3.2852803030303033,0.182045434570313,-0.15390648107528698,0.162873396778107
3.285886363636364,0.0455293212890625,0.193371350955963,0.294599470996857
3.2864924242424243,-0.100566870117187,0.047275159549713106,0.17005845537185701
3.287098484848485,-0.28498337402343704,-0.20420189123153698,0.07186265459060699
3.2877045454545453,0.100614770507813,-0.0892409537315369,0.026357283496857002
3.288310606060606,0.0311592041015625,-0.029365465450286902,0.057492537403107
3.288916666666667,-0.16044235839843698,0.0065598275184631195,0.13892320146560702
3.289522727272727,-0.11014694824218699,0.116730725955963,-0.028728165721893
3.290128787878788,-0.019136206054687497,-0.216176988887787,0.177243513965607
3.290734848484849,0.100614770507813,-0.182646715450287,0.172453474903107
3.291340909090909,0.0431343017578125,0.14547096033096302,0.038332381153107
3.29194696969697,0.186835473632813,-0.14432640295028698,0.263464217090607
3.29255303030303,0.352091821289062,-0.07247581701278691,0.246699080371857
3.293159090909091,0.11258986816406301,-0.110796129512787,0.17963853349685702
3.293765151515152,-0.0550614990234375,-0.108401109981537,0.17963853349685702
3.294371212121212,-0.08859177246093751,0.162236097049713,0.146108260059357
3.294977272727273,-0.134097143554687,0.0137448861122131,0.237119002246857
3.295583333333333,-0.057456518554687495,0.0784104134559631,0.165268416309357
3.296189393939394,-0.100566870117187,0.0688303353309631,0.023962263965607
3.296795454545455,0.0311592041015625,-0.28563255529403697,0.220353865528107
3.297401515151515,-0.136492163085937,-0.0916359732627869,0.277834334278107
3.298007575757576,-0.021531225585937497,0.047275159549713106,0.172453474903107
3.298613636363636,-0.021531225585937497,-0.0221804068565369,0.277834334278107
3.299219696969697,-0.12451706542968699,0.162236097049713,0.023962263965607
3.299825757575758,0.09342971191406249,-0.247312242794037,0.105392928028107
3.300431818181818,0.0359492431640625,-0.00302025060653688,0.059887556934357
3.301037878787879,0.0407392822265625,0.114335706424713,0.091022810840607
3.301643939393939,-0.20115769042968698,-0.16827659826278699,0.241909041309357
3.30225,-0.22031784667968698,-0.170671617794037,0.23951402177810702
3.302856060606061,-0.11733200683593699,-0.0221804068565369,0.11497300615310699
3.303462121212121,-0.229897924804687,-0.019785387325286903,0.052702498340607
3.304068181818182,-0.277798315429687,-0.0988210318565369,0.287414412403107
3.304674242424242,-0.019136206054687497,0.13589088220596302,0.308969588184357
3.305280303030303,0.0670844970703125,-0.0245754263877869,0.227538924121857
3.3058863636363642,0.0646894775390625,-0.0964260123252869,0.023962263965607
3.306492424242424,0.15809523925781302,0.0640402962684631,0.11736802568435699
3.3070984848484852,-0.11972702636718699,0.0329050423622131,0.256279158496857
3.307704545454545,-0.11493698730468699,0.0903855111122131,0.13892320146560702
3.3083106060606062,-0.09577683105468751,-0.0269704459190369,0.00480210771560704
3.308916666666667,0.062294458007812505,-0.175461656856537,0.141318220996857
3.3095227272727272,-0.057456518554687495,-0.029365465450286902,-0.040703263378143
3.310128787878788,-0.0670365966796875,-0.13953636388778698,0.07186265459060699
3.3107348484848482,-0.0478764404296875,-0.0988210318565369,0.150898299121857
3.311340909090909,-0.174812475585937,-0.185041734981537,0.177243513965607
3.31194696969697,0.162885278320313,-0.206596910762787,0.205983748340607
3.31255303030303,0.0359492431640625,-0.122771227169037,-0.11734388837814301
3.313159090909091,-0.107751928710937,-0.110796129512787,-0.11255384931564301
3.313765151515152,0.0718745361328125,-0.08445091466903691,0.019172224903107
3.314371212121212,0.0527143798828125,-0.170671617794037,0.11976304521560699
3.314977272727273,0.0527143798828125,-0.156301500606537,-0.074233536815643
3.315583333333333,-0.174812475585937,0.0832004525184631,-0.134109025096893
3.316189393939394,-0.203552709960937,-0.046130602169036895,0.131738142871857
3.316795454545455,-0.059851538085937496,-0.0940309927940369,0.232328963184357
3.317401515151515,-0.191577612304687,-0.0149953482627869,0.098207869434357
3.318007575757576,0.0359492431640625,-0.230547106075287,0.011987166309357
3.318613636363636,-0.004766088867187489,-0.117981188106537,0.093417830371857
3.319219696969697,0.023974145507812503,-0.103611070919037,-0.031123185253143
3.319825757575758,0.0718745361328125,0.236481702518463,-0.059863419628143
3.320431818181818,-0.0526664794921875,0.289172132205963,0.083837752246857
3.321037878787879,0.0670844970703125,-0.108401109981537,-0.014358048534392999
3.321643939393939,-0.0478764404296875,-0.108401109981537,0.07665269365310699
3.32225,-0.0718266357421875,-0.07487083654403691,0.263464217090607
3.3228560606060613,-0.102961889648437,0.025719983768463097,0.282624373340607
3.323462121212121,-0.0478764404296875,0.0137448861122131,0.213168806934357
3.3240681818181823,-0.0382963623046875,-0.046130602169036895,0.304179549121857
3.324674242424242,-0.203552709960937,-0.264077379512787,0.196403670215607
3.3252803030303033,-0.0335063232421875,-0.185041734981537,-0.12452894697189301
3.3258863636363643,-0.08140671386718751,-0.0581056998252869,0.093417830371857
3.3264924242424243,-0.289773413085937,-0.029365465450286902,0.126948103809357
3.3270984848484852,0.023974145507812503,-0.13953636388778698,-0.0071729899406429605
3.3277045454545453,0.0287641845703125,0.047275159549713106,0.196403670215607
3.3283106060606062,0.09342971191406249,0.114335706424713,0.215563826465607
3.328916666666667,0.00241896972656251,0.0808054329872131,-0.011963029003143
3.3295227272727272,-0.22031784667968698,0.047275159549713106,-0.047888321971893
3.330128787878788,-0.12451706542968699,-0.180251695919037,0.055097517871857
3.3307348484848482,0.0479243408203125,-0.16348655920028698,0.040727400684357
3.331340909090909,-0.0478764404296875,-0.12995628576278698,-0.10776381025314301
3.33194696969697,-0.208342749023437,0.0065598275184631195,-0.0071729899406429605
3.33255303030303,-0.0646415771484375,-0.120376207637787,0.11497300615310699
3.333159090909091,-0.004766088867187489,-0.20420189123153698,0.325734724903107
3.333765151515152,0.136540063476563,-0.06768577795028691,0.047912459278107
3.334371212121212,0.0527143798828125,0.0903855111122131,-0.06944349775314301
3.334977272727273,-0.09338181152343751,0.107150647830963,0.270649275684357
3.335583333333333,0.09582473144531249,0.0496701790809631,0.028752303028107
3.336189393939394,0.0479243408203125,-0.14911644201278698,0.00240708818435704
3.336795454545455,-0.14607224121093698,-0.0126003287315369,0.210773787403107
3.337401515151515,-0.22031784667968698,-0.0389455435752869,0.225143904590607
3.338007575757576,-0.057456518554687495,-0.0557106802940369,-0.009568009471892961
3.338613636363636,0.059899438476562504,0.0592502572059631,0.12934312334060702
3.339219696969697,-0.08859177246093751,0.0592502572059631,0.06946763505935699
3.339825757575758,-0.0335063232421875,-0.043735582637786895,0.007197127246857039
3.340431818181818,-0.126912084960937,-0.19941185216903698,0.093417830371857
3.341037878787879,-0.0406913818359375,0.0544602181434631,-0.021543107128143
3.341643939393939,-0.134097143554687,0.0640402962684631,0.24909409990310702
3.34225,-0.08140671386718751,-0.010205309200286899,-0.10297377119064301
3.342856060606061,-0.0263212646484375,-0.120376207637787,-0.316130509471893
3.343462121212121,-0.0430864013671875,-0.000625231075286882,-0.011963029003143
3.344068181818182,0.11737990722656301,0.16942115564346302,0.344894881153107
3.344674242424242,0.136540063476563,-0.12756126623153702,0.653852400684357
3.345280303030303,-0.138887182617187,-0.197016832637787,0.18442857255935702
3.3458863636363643,2.39501953125123e-05,0.0209299447059631,0.016777205371857
3.346492424242424,-0.0502714599609375,-0.00302025060653688,0.18921861162185702
3.3470984848484853,-0.138887182617187,0.044880140018463105,0.232328963184357
3.347704545454545,-0.237082983398437,0.044880140018463105,0.13413316240310702
3.3483106060606063,-0.251453100585937,-0.14432640295028698,0.131738142871857
3.348916666666667,0.0191841064453125,-0.151511461544037,0.13413316240310702
3.3495227272727273,-0.0287162841796875,-0.182646715450287,0.268254256153107
3.350128787878788,-0.08619675292968751,0.0329050423622131,0.23472398271560702
3.350734848484849,0.00960402832031251,0.102360608768463,0.146108260059357
3.351340909090909,-0.021531225585937497,-0.0245754263877869,0.17005845537185701
3.35194696969697,-0.12451706542968699,-0.0413405631065369,0.038332381153107
3.35255303030303,0.0143940673828125,-0.14432640295028698,-0.062258439159393
3.353159090909091,-0.16044235839843698,-0.06289573888778689,0.459855818653107
3.353765151515152,-0.019136206054687497,-0.0269704459190369,0.126948103809357
3.354371212121212,0.033554223632812505,-0.187436754512787,-0.021543107128143
3.354977272727273,0.146120141601563,0.0113498665809631,0.148503279590607
3.355583333333333,-0.021531225585937497,-0.043735582637786895,-0.203564591503143
3.356189393939394,-0.0670365966796875,0.028115003299713098,0.17005845537185701
3.356795454545455,0.0431343017578125,0.296357190799713,0.17484849443435702
3.357401515151515,-0.0311113037109375,-0.07966087560653691,0.328129744434357
3.358007575757576,0.0311592041015625,-0.173066637325287,0.17963853349685702
3.358613636363636,0.14851516113281302,-0.120376207637787,-0.011963029003143
3.359219696969697,-0.102961889648437,-0.156301500606537,0.220353865528107
3.359825757575758,-0.20594772949218698,-0.0413405631065369,-0.026333146190643
3.360431818181818,-0.100566870117187,-0.26647239904403697,0.062282576465607004
3.361037878787879,-0.241873022460937,-0.07966087560653691,0.00240708818435704
3.361643939393939,0.09342971191406249,-0.12995628576278698,-0.093393693065643
3.36225,0.126959985351563,-0.300002672481537,0.296994490528107
3.362856060606061,0.0694795166015625,0.121520765018463,0.043122420215607
3.363462121212121,0.0407392822265625,-0.07487083654403691,0.158083357715607
3.364068181818182,-0.213132788085937,-0.393408434200287,0.306574568653107
3.364674242424242,0.19881057128906302,-0.211386949825287,-0.040703263378143
3.365280303030303,2.39501953125123e-05,-0.117981188106537,-0.10776381025314301
3.3658863636363643,-0.138887182617187,0.0113498665809631,0.083837752246857
3.366492424242424,-0.0119511474609375,-0.00781028966903688,0.213168806934357
3.3670984848484853,-0.0382963623046875,-0.175461656856537,0.160478377246857
3.367704545454545,0.023974145507812503,-0.120376207637787,0.047912459278107
3.3683106060606063,-0.167627416992187,-0.146721422481537,0.246699080371857
3.3689166666666672,-0.241873022460937,-0.0389455435752869,0.280229353809357
3.3695227272727273,-0.021531225585937497,-0.07966087560653691,-0.023938126659393
3.3701287878787882,0.0119990478515625,-0.117981188106537,0.081442732715607
3.3707348484848483,-0.134097143554687,-0.07966087560653691,0.268254256153107
3.371340909090909,0.215575708007813,0.0185349251747131,0.208378767871857
3.37194696969697,0.215575708007813,0.00895484704971312,0.419140486621857
3.37255303030303,0.215575708007813,-0.029365465450286902,0.591581892871857
3.373159090909091,0.0670844970703125,-0.00302025060653688,-0.100578751659393
3.373765151515152,0.0191841064453125,-0.13474632482528698,0.368845076465607
3.374371212121212,0.08624465332031249,0.0903855111122131,0.141318220996857
3.374977272727273,-0.0263212646484375,0.0496701790809631,0.093417830371857
3.375583333333333,-0.11972702636718699,-0.103611070919037,0.407165388965607
3.376189393939394,2.39501953125123e-05,0.0137448861122131,0.011987166309357
3.376795454545455,0.00720900878906251,-0.180251695919037,0.158083357715607
3.377401515151515,0.0143940673828125,-0.117981188106537,-0.210749650096893
3.378007575757576,-0.170022436523437,0.044880140018463105,0.040727400684357
3.378613636363636,-0.09098679199218751,-0.08684593420028691,0.22993394365310701
3.379219696969697,-0.134097143554687,-0.156301500606537,0.06707261552810699
3.379825757575758,0.021579125976562502,-0.13474632482528698,0.06467759599685699
3.380431818181818,-0.11972702636718699,0.121520765018463,0.201193709278107
3.381037878787879,0.033554223632812505,0.119125745487213,0.232328963184357
3.381643939393939,0.11258986816406301,0.00895484704971312,0.435905623340607
3.38225,-0.07901169433593751,-0.132351305294037,0.150898299121857
3.382856060606061,0.0167890869140625,-0.13953636388778698,-0.00477797040939296
3.383462121212121,-0.105356909179687,0.047275159549713106,0.100602888965607
3.384068181818182,-0.07901169433593751,0.21492652673721302,0.30178452959060703
3.384674242424242,-0.189182592773437,0.0903855111122131,0.24430406084060702
3.385280303030303,-0.102961889648437,-0.26647239904403697,-0.055073380565642996
3.385886363636364,-0.102961889648437,-0.125166246700287,0.091022810840607
3.386492424242424,-0.0694316162109375,-0.0533156607627869,0.126948103809357
3.387098484848485,-0.08140671386718751,-0.0126003287315369,0.11497300615310699
3.387704545454545,-0.08380173339843751,0.0520651986122131,0.100602888965607
3.388310606060606,-0.00237106933593749,0.00895484704971312,0.18921861162185702
3.3889166666666672,0.0119990478515625,-0.15390648107528698,-0.019148087596892998
3.389522727272727,-0.0430864013671875,0.0137448861122131,0.055097517871857
3.3901287878787882,-0.019136206054687497,-0.010205309200286899,0.186823592090607
3.390734848484848,-0.11493698730468699,0.16463111658096302,0.143713240528107
3.3913409090909092,-0.0263212646484375,-0.010205309200286899,0.328129744434357
3.39194696969697,-0.258638159179687,-0.357483141231537,-0.033518204784393
3.3925530303030302,0.00241896972656251,-0.0557106802940369,-0.023938126659393
3.393159090909091,0.234735864257813,-0.180251695919037,0.296994490528107
3.393765151515152,-0.0694316162109375,-0.0940309927940369,0.045517439746857
3.394371212121212,-0.14607224121093698,-0.07247581701278691,-0.06465345869064301
3.394977272727273,-0.08380173339843751,-0.314372789669037,-0.079023575878143
3.395583333333333,0.0551093994140625,-0.206596910762787,0.12215806474685699
3.396189393939394,-0.383179174804688,0.025719983768463097,0.17484849443435702
3.396795454545455,-0.0287162841796875,-0.00781028966903688,0.215563826465607
3.397401515151515,0.11977492675781301,-0.14432640295028698,0.323339705371857
3.398007575757576,0.0646894775390625,-0.232942125606537,0.11497300615310699
3.398613636363636,0.12456496582031301,-0.0126003287315369,-0.06944349775314301
3.399219696969697,-0.0311113037109375,0.0879904915809631,0.011987166309357
3.399825757575758,0.14372512207031302,0.0185349251747131,0.337709822559357
3.400431818181818,0.0119990478515625,-0.0940309927940369,0.342499861621857
3.401037878787879,-0.251453100585937,-0.120376207637787,-0.131714005565643
3.401643939393939,-0.15086228027343698,-0.16827659826278699,-0.205959611034393
3.40225,-0.00237106933593749,-0.101216051387787,0.203588728809357
3.402856060606061,-0.057456518554687495,0.0329050423622131,0.275439314746857
3.403462121212121,-0.213132788085937,-0.07966087560653691,-0.11015882978439301
3.404068181818182,-0.0502714599609375,-0.398198473262787,0.277834334278107
3.404674242424242,-0.09338181152343751,-0.398198473262787,0.792763533496857
3.405280303030303,0.0143940673828125,0.00895484704971312,0.191613631153107
3.4058863636363643,0.021579125976562502,-0.00781028966903688,0.148503279590607
3.406492424242424,-0.062246557617187497,0.0496701790809631,0.091022810840607
3.4070984848484853,0.00481398925781251,0.0113498665809631,0.165268416309357
3.407704545454545,-0.143677221679687,-0.0988210318565369,0.428720564746857
3.4083106060606063,0.0503193603515625,-0.0126003287315369,0.215563826465607
3.4089166666666673,-0.023926245117187498,-0.0605007193565369,0.17963853349685702
3.4095227272727273,-0.100566870117187,0.0736203743934631,0.158083357715607
3.4101287878787883,-0.08380173339843751,0.0855954720497131,0.026357283496857002
3.410734848484849,0.191625512695313,-0.240127184200287,0.059887556934357
3.4113409090909093,0.0503193603515625,-0.00781028966903688,0.07186265459060699
3.41194696969697,0.0431343017578125,0.19576637048721302,0.24430406084060702
3.4125530303030303,-0.258638159179687,0.0688303353309631,0.328129744434357
3.413159090909091,-0.21073776855468698,-0.173066637325287,0.17963853349685702
3.413765151515152,-0.004766088867187489,-0.201806871700287,-0.045493302440643
3.414371212121212,-0.14607224121093698,0.123915784549713,-0.138899064159393
3.414977272727273,-0.0406913818359375,0.0832004525184631,0.196403670215607
3.415583333333333,-0.352043920898438,-0.048525621700286896,0.12455308427810699
3.416189393939394,-0.196367651367187,0.0329050423622131,0.026357283496857002
3.416795454545455,0.00720900878906251,-0.180251695919037,0.205983748340607
3.417401515151515,-0.246663061523437,-0.00302025060653688,0.07186265459060699
3.418007575757576,-0.143677221679687,0.0903855111122131,0.153293318653107
3.418613636363636,-0.0167411865234375,-0.029365465450286902,0.11976304521560699
3.419219696969697,0.0455293212890625,-0.0269704459190369,0.028752303028107
3.419825757575758,0.13893508300781302,-0.300002672481537,0.340104842090607
3.420431818181818,0.00720900878906251,-0.13953636388778698,0.047912459278107
3.421037878787879,-0.21073776855468698,0.114335706424713,0.143713240528107
3.421643939393939,-0.0167411865234375,-0.0581056998252869,0.17005845537185701
3.42225,0.13414504394531301,-0.0652907584190369,0.19879868974685702
3.422856060606061,0.0191841064453125,-0.08205589513778691,0.383215193653107
3.423462121212121,0.062294458007812505,-0.08205589513778691,0.210773787403107
3.424068181818182,0.07905959472656249,-0.0126003287315369,0.282624373340607
3.424674242424242,-0.021531225585937497,0.0520651986122131,0.11018296709060699
3.425280303030303,-0.14607224121093698,-0.0389455435752869,0.172453474903107
3.425886363636364,-0.0167411865234375,-0.180251695919037,0.028752303028107
3.426492424242424,-0.0478764404296875,0.0065598275184631195,-0.011963029003143
3.427098484848485,-0.129307104492187,0.128705823612213,0.253884138965607
3.427704545454545,0.0407392822265625,-0.0892409537315369,0.153293318653107
3.428310606060606,0.062294458007812505,-0.18983177404403698,0.107787947559357
3.4289166666666673,0.184440454101563,-0.0533156607627869,0.047912459278107
3.429522727272727,0.170070336914063,0.0017697884559631201,0.100602888965607
3.4301287878787883,-0.09338181152343751,-0.0245754263877869,0.19879868974685702
3.430734848484848,-0.16523239746093699,0.0832004525184631,0.177243513965607
3.4313409090909093,0.0551093994140625,-0.125166246700287,0.24909409990310702
3.43194696969697,0.08863967285156249,-0.290422594356537,0.17963853349685702
3.4325530303030303,0.0646894775390625,0.0137448861122131,0.622717146778107
3.433159090909091,0.0670844970703125,-0.07966087560653691,0.062282576465607004
3.433765151515152,-0.27540329589843704,-0.12995628576278698,0.35207993974685703
3.434371212121212,-0.143677221679687,0.0065598275184631195,0.265859236621857
3.434977272727273,-0.019136206054687497,-0.0964260123252869,0.00959214677810704
3.435583333333333,-0.138887182617187,-0.21857200841903698,0.500571150684357
3.436189393939394,0.0359492431640625,0.0784104134559631,0.019172224903107
3.436795454545455,-0.129307104492187,0.0137448861122131,0.153293318653107
3.437401515151515,-0.268218237304687,-0.156301500606537,-0.0071729899406429605
3.438007575757576,0.100614770507813,-0.08684593420028691,0.06946763505935699
3.438613636363636,-0.014346166992187501,-0.0557106802940369,0.11018296709060699
3.439219696969697,0.191625512695313,-0.0652907584190369,0.13892320146560702
3.439825757575758,0.11977492675781301,-0.0245754263877869,0.275439314746857
3.440431818181818,-0.004766088867187489,-0.00781028966903688,0.217958845996857
3.441037878787879,0.160490258789063,0.0137448861122131,0.256279158496857
3.441643939393939,-0.0430864013671875,-0.101216051387787,0.160478377246857
3.44225,0.062294458007812505,-0.0341555045127869,0.215563826465607
3.442856060606061,0.0479243408203125,0.16942115564346302,0.383215193653107
3.443462121212121,-0.0119511474609375,-0.12756126623153702,0.177243513965607
3.444068181818182,-0.0287162841796875,-0.12995628576278698,0.148503279590607
3.444674242424242,0.0742695556640625,0.00895484704971312,0.191613631153107
3.445280303030303,-0.11972702636718699,-0.0413405631065369,0.105392928028107
3.445886363636364,0.160490258789063,0.152656018924713,0.232328963184357
3.446492424242424,0.00241896972656251,-0.08205589513778691,0.213168806934357
3.447098484848485,-0.153257299804687,-0.21857200841903698,0.17005845537185701
3.447704545454545,0.00960402832031251,-0.161091539669037,0.177243513965607
3.448310606060606,-0.170022436523437,0.0161399056434631,-0.009568009471892961
3.4489166666666673,0.0455293212890625,0.0688303353309631,-0.074233536815643
3.449522727272727,-0.237082983398437,-0.182646715450287,0.13892320146560702
3.4501287878787883,0.100614770507813,-0.273657457637787,0.220353865528107
3.450734848484848,0.20360061035156302,-0.122771227169037,-0.083813614940643
3.4513409090909093,-0.08140671386718751,-0.21378196935653698,-0.081418595409393
3.4519469696969702,-0.09338181152343751,-0.173066637325287,-0.026333146190643
3.4525530303030303,-0.186787573242187,0.0832004525184631,-0.0071729899406429605
3.4531590909090912,-0.0550614990234375,-0.046130602169036895,0.081442732715607
3.453765151515152,-0.021531225585937497,-0.12995628576278698,-0.023938126659393
3.4543712121212122,0.033554223632812505,0.0520651986122131,0.172453474903107
3.454977272727273,-0.162837377929687,0.29156715173721304,0.12934312334060702
3.4555833333333332,-0.268218237304687,-0.019785387325286903,-0.011963029003143
3.456189393939394,-0.172417456054687,-0.113191149044037,0.19879868974685702
3.456795454545455,0.0263691650390625,-0.07247581701278691,0.021567244434357
3.457401515151515,-0.09817185058593751,-0.25689232091903696,0.07425767412185699
3.458007575757576,-0.14128220214843698,-0.0533156607627869,0.083837752246857
3.458613636363636,0.0263691650390625,-0.000625231075286882,0.210773787403107
3.459219696969697,0.09582473144531249,-0.319162828731537,0.213168806934357
3.459825757575758,0.172465356445313,-0.261682359981537,-0.328105607128143
3.460431818181818,-0.11972702636718699,-0.333532945919037,0.031147322559357
3.461037878787879,-0.193972631835937,0.15984107751846302,0.136528181934357
3.461643939393939,0.0407392822265625,0.207741468143463,0.107787947559357
3.46225,0.131750024414063,-0.235337145137787,-0.043098282909393
3.462856060606061,-0.07901169433593751,-0.0245754263877869,0.026357283496857002
3.463462121212121,-0.11972702636718699,-0.177856676387787,0.759233260059357
3.464068181818182,-0.217922827148437,0.16463111658096302,0.519731306934357
3.464674242424242,-0.11493698730468699,-0.010205309200286899,0.479015974903107
3.465280303030303,-0.0263212646484375,-0.08445091466903691,0.531706404590607
3.465886363636364,-0.11014694824218699,0.19097633142471301,0.213168806934357
3.466492424242424,-0.0406913818359375,-0.165881578731537,0.270649275684357
3.467098484848485,-0.0646415771484375,-0.14911644201278698,0.028752303028107
3.467704545454545,-0.08140671386718751,0.0544602181434631,0.045517439746857
3.468310606060606,-0.0478764404296875,0.14068092126846302,0.021567244434357
3.468916666666667,0.0407392822265625,0.025719983768463097,0.18442857255935702
3.469522727272727,-0.00716110839843749,-0.07726585607528691,0.347289900684357
3.470128787878788,0.0263691650390625,0.0832004525184631,-0.009568009471892961
3.4707348484848493,-0.100566870117187,-0.046130602169036895,0.332919783496857
3.471340909090909,-0.00237106933593749,0.00895484704971312,0.11018296709060699
3.4719469696969703,0.318561547851562,0.128705823612213,0.160478377246857
3.47255303030303,0.00960402832031251,-0.13474632482528698,-0.258650040721893
3.4731590909090913,-0.00716110839843749,-0.0245754263877869,0.057492537403107
3.473765151515151,0.059899438476562504,0.0832004525184631,0.476620955371857
3.4743712121212122,-0.179602514648437,-0.06768577795028691,-0.043098282909393
3.474977272727273,0.00481398925781251,0.0113498665809631,0.107787947559357
3.4755833333333332,0.141330102539063,0.0017697884559631201,0.105392928028107
3.476189393939394,-0.0406913818359375,-0.07008079748153691,0.342499861621857
3.476795454545455,-0.019136206054687497,0.0353000618934631,0.294599470996857
3.477401515151515,0.0455293212890625,0.042485120487213104,0.17005845537185701
3.478007575757576,0.241920922851563,-0.029365465450286902,0.052702498340607
3.478613636363636,0.141330102539063,-0.161091539669037,0.131738142871857
3.479219696969697,-0.11014694824218699,-0.175461656856537,0.201193709278107
3.479825757575758,-0.0526664794921875,0.183791272830963,0.098207869434357
3.480431818181818,-0.16044235839843698,0.0185349251747131,0.11257798662185699
3.481037878787879,0.15330520019531302,-0.08445091466903691,0.182033553028107
3.481643939393939,0.189230493164063,0.0209299447059631,0.043122420215607
3.48225,0.08384963378906249,0.00895484704971312,0.19400865068435702
3.482856060606061,-0.263428198242187,0.0161399056434631,0.294599470996857
3.483462121212121,-0.356833959960938,-0.240127184200287,0.182033553028107
3.484068181818182,-0.08859177246093751,-0.21378196935653698,0.337709822559357
3.484674242424242,-0.21552780761718698,-0.252102281856537,0.062282576465607004
3.485280303030303,-0.0263212646484375,0.183791272830963,-0.033518204784393
3.485886363636364,0.00720900878906251,0.0688303353309631,0.23472398271560702
3.486492424242424,0.0407392822265625,-0.0581056998252869,0.24430406084060702
3.487098484848485,-0.0526664794921875,-0.15390648107528698,0.136528181934357
3.487704545454545,-0.0119511474609375,-0.180251695919037,0.41195542802810703
3.488310606060606,0.11977492675781301,-0.08445091466903691,0.270649275684357
3.4889166666666673,-0.0502714599609375,-0.06768577795028691,0.141318220996857
3.489522727272727,-0.0359013427734375,0.0233249642372131,0.23951402177810702
3.4901287878787883,-0.023926245117187498,-0.232942125606537,-0.019148087596892998
3.490734848484848,0.10540480957031301,-0.173066637325287,0.237119002246857
3.4913409090909093,-0.062246557617187497,0.047275159549713106,0.265859236621857
3.4919469696969703,-0.21073776855468698,0.114335706424713,0.37124009599685703
3.4925530303030303,-0.0406913818359375,-0.122771227169037,0.658642439746857
3.4931590909090913,-0.0766166748046875,0.0376950814247131,0.057492537403107
3.493765151515152,-0.0406913818359375,-0.07247581701278691,0.050307478809357
3.4943712121212123,-0.11014694824218699,-0.177856676387787,0.11018296709060699
3.494977272727273,-0.0526664794921875,-0.0149953482627869,-0.098183732128143
3.4955833333333333,0.0551093994140625,-0.206596910762787,0.155688338184357
3.496189393939394,-0.004766088867187489,-0.18983177404403698,0.059887556934357
3.496795454545455,-0.158047338867187,-0.0413405631065369,0.182033553028107
3.497401515151515,0.0143940673828125,-0.029365465450286902,0.225143904590607
3.498007575757576,0.14851516113281302,-0.08445091466903691,0.18442857255935702
3.498613636363636,0.0670844970703125,-0.07966087560653691,0.177243513965607
3.499219696969697,0.00960402832031251,-0.0940309927940369,0.11497300615310699
3.499825757575758,-0.08859177246093751,-0.15390648107528698,0.29220445146560703
3.500431818181818,-0.14607224121093698,-0.0892409537315369,0.205983748340607
3.501037878787879,0.0287641845703125,0.09517555017471309,0.105392928028107
3.501643939393939,0.09103469238281249,0.0592502572059631,0.25148911943435703
3.50225,-0.0287162841796875,0.0832004525184631,0.19879868974685702
3.502856060606061,0.11977492675781301,-0.0916359732627869,0.021567244434357
3.503462121212121,0.00720900878906251,-0.278447496700287,0.07425767412185699
3.504068181818182,-0.11014694824218699,-0.07247581701278691,0.105392928028107
3.504674242424242,-0.0526664794921875,-0.14432640295028698,0.196403670215607
3.505280303030303,0.126959985351563,-0.106006090450287,0.383215193653107
3.505886363636364,0.129355004882813,-0.302397692012787,0.23472398271560702
3.506492424242424,-0.00955612792968749,-0.24970726232528698,0.31136460771560703
3.507098484848485,0.00481398925781251,-0.00302025060653688,0.045517439746857
3.507704545454545,-0.0526664794921875,0.0903855111122131,0.057492537403107
3.508310606060606,-0.105356909179687,-0.15390648107528698,0.162873396778107
3.508916666666667,-0.11493698730468699,-0.192226793575287,0.160478377246857
3.509522727272727,-0.11972702636718699,-0.0964260123252869,0.148503279590607
3.510128787878788,-0.193972631835937,-0.08205589513778691,0.18921861162185702
3.510734848484849,-0.09817185058593751,0.0544602181434631,0.196403670215607
3.511340909090909,0.21318068847656302,-0.0940309927940369,0.045517439746857
3.51194696969697,0.09342971191406249,0.0161399056434631,0.191613631153107
3.51255303030303,-0.08859177246093751,-0.0245754263877869,0.227538924121857
3.513159090909091,-0.11254196777343699,-0.0964260123252869,0.182033553028107
3.513765151515151,-0.004766088867187489,-0.048525621700286896,0.031147322559357
3.514371212121212,-0.0335063232421875,-0.185041734981537,0.426325545215607
3.5149772727272732,0.0551093994140625,-0.137141344356537,0.136528181934357
3.515583333333333,0.0287641845703125,-0.0652907584190369,0.143713240528107
3.5161893939393942,-0.0335063232421875,-0.103611070919037,0.452670760059357
3.516795454545455,-0.0478764404296875,-0.0221804068565369,0.22993394365310701
3.5174015151515152,-0.244268041992187,-0.16827659826278699,0.29220445146560703
3.518007575757576,-0.0646415771484375,-0.15869652013778698,0.023962263965607
3.518613636363636,-0.00237106933593749,0.00416480798721312,-0.16524427900314298
3.519219696969697,-0.0694316162109375,-0.00541527013778688,0.210773787403107
3.519825757575758,-0.20594772949218698,0.0808054329872131,0.136528181934357
3.520431818181818,-0.08859177246093751,-0.06768577795028691,0.19879868974685702
3.521037878787879,0.057504418945312503,-0.30718773107528696,0.268254256153107
3.521643939393939,0.0263691650390625,-0.0652907584190369,-0.059863419628143
3.52225,-0.179602514648437,-0.0126003287315369,0.49099107255935703
3.522856060606061,-0.268218237304687,-0.12756126623153702,0.419140486621857
3.523462121212121,0.11258986816406301,-0.00541527013778688,-0.062258439159393
3.524068181818182,-0.0311113037109375,-0.00781028966903688,0.287414412403107
3.524674242424242,-0.0359013427734375,-0.108401109981537,0.603556990528107
3.525280303030303,-0.0670365966796875,-0.0533156607627869,0.467040877246857
3.525886363636364,-0.193972631835937,0.193371350955963,0.040727400684357
3.526492424242424,-0.08619675292968751,-0.0988210318565369,-0.016753068065643
3.527098484848485,0.033554223632812505,-0.00302025060653688,0.079047713184357
3.527704545454546,0.0311592041015625,-0.13474632482528698,0.203588728809357
3.528310606060606,-0.0454814208984375,-0.137141344356537,-0.028728165721893
3.528916666666667,-0.0382963623046875,0.044880140018463105,0.052702498340607
3.529522727272727,-0.273008276367187,-0.16827659826278699,0.23472398271560702
3.530128787878788,0.021579125976562502,-0.06768577795028691,0.055097517871857
3.530734848484848,0.0167890869140625,-0.295212633419037,0.24430406084060702
3.531340909090909,-0.15086228027343698,0.09517555017471309,-0.11255384931564301
3.5319469696969703,0.0527143798828125,-0.0126003287315369,-0.086208634471893
3.5325530303030304,-0.107751928710937,-0.16348655920028698,0.146108260059357
3.5331590909090913,0.10540480957031301,-0.00302025060653688,-0.100578751659393
3.5337651515151514,0.131750024414063,-0.0557106802940369,0.17963853349685702
3.5343712121212123,-0.11254196777343699,0.047275159549713106,0.17005845537185701
3.5349772727272732,-0.105356909179687,0.13589088220596302,0.098207869434357
3.5355833333333333,-0.170022436523437,0.121520765018463,0.215563826465607
3.5361893939393942,0.170070336914063,-0.08445091466903691,-0.057468400096892996
3.536795454545455,-0.014346166992187501,0.00895484704971312,0.126948103809357
3.5374015151515152,-0.014346166992187501,0.15026099939346302,0.126948103809357
3.538007575757576,0.0191841064453125,0.248456800174713,0.06946763505935699
3.5386136363636362,-0.208342749023437,0.0784104134559631,0.210773787403107
3.539219696969697,0.0503193603515625,-0.0652907584190369,0.182033553028107
3.539825757575758,0.215575708007813,0.0664353157997131,0.086232771778107
3.540431818181818,0.0551093994140625,-0.0245754263877869,0.12934312334060702
3.541037878787879,0.0287641845703125,0.00416480798721312,0.215563826465607
3.541643939393939,-0.0550614990234375,0.042485120487213104,0.201193709278107
3.54225,-0.07901169433593751,-0.175461656856537,0.177243513965607
3.542856060606061,-0.004766088867187489,-0.244917223262787,-0.031123185253143
3.543462121212121,-0.12451706542968699,0.028115003299713098,-0.014358048534392999
3.544068181818182,0.0479243408203125,0.0592502572059631,0.007197127246857039
3.544674242424242,-0.11493698730468699,-0.108401109981537,-0.019148087596892998
3.545280303030303,-0.14128220214843698,-0.175461656856537,0.404770369434357
3.545886363636364,-0.08859177246093751,-0.151511461544037,0.093417830371857
3.546492424242424,-0.14607224121093698,-0.146721422481537,-0.11255384931564301
3.547098484848485,0.08863967285156249,-0.07247581701278691,0.186823592090607
3.547704545454545,0.0742695556640625,0.193371350955963,0.07425767412185699
3.548310606060606,-0.08619675292968751,-0.156301500606537,0.00480210771560704
3.548916666666667,0.11737990722656301,-0.290422594356537,-0.342475724315643
3.549522727272727,0.0694795166015625,-0.132351305294037,0.040727400684357
3.550128787878788,-0.00237106933593749,0.0329050423622131,0.220353865528107
3.550734848484848,0.09103469238281249,0.0113498665809631,-0.014358048534392999
3.551340909090909,0.0718745361328125,-0.201806871700287,0.356869978809357
3.55194696969697,0.0503193603515625,-0.125166246700287,0.081442732715607
3.55255303030303,-0.208342749023437,-0.0964260123252869,0.00959214677810704
3.553159090909091,0.299401391601563,0.0544602181434631,0.026357283496857002
3.553765151515152,0.227550805664063,0.133495862674713,0.035937361621857
3.554371212121212,-0.191577612304687,-0.000625231075286882,0.423930525684357
3.554977272727273,0.0143940673828125,-0.0341555045127869,0.18442857255935702
3.555583333333333,0.0551093994140625,-0.125166246700287,0.088627791309357
3.556189393939394,-0.0526664794921875,0.028115003299713098,0.007197127246857039
3.556795454545455,-0.251453100585937,-0.010205309200286899,0.12934312334060702
3.557401515151515,-0.20594772949218698,-0.22336204748153698,-0.021543107128143
3.558007575757576,0.196415551757813,0.15984107751846302,0.011987166309357
3.558613636363636,0.14851516113281302,-0.00781028966903688,0.407165388965607
3.559219696969697,-0.0694316162109375,-0.15390648107528698,0.047912459278107
3.559825757575758,-0.11254196777343699,0.0568552376747131,0.225143904590607
3.560431818181818,-0.09577683105468751,-0.017390367794036903,0.093417830371857
3.561037878787879,-0.004766088867187489,0.0209299447059631,0.091022810840607
3.561643939393939,-0.0430864013671875,0.0185349251747131,0.102997908496857
3.56225,-0.08619675292968751,-0.0245754263877869,0.062282576465607004
3.562856060606061,-0.0694316162109375,-0.0533156607627869,0.273044295215607
3.563462121212121,0.00960402832031251,-0.137141344356537,-0.083813614940643
3.564068181818182,-0.08859177246093751,-0.170671617794037,0.12215806474685699
3.564674242424242,-0.0430864013671875,-0.010205309200286899,0.07186265459060699
3.565280303030303,-0.0742216552734375,0.186186292362213,0.208378767871857
3.565886363636364,0.0718745361328125,0.0760153939247131,0.328129744434357
3.566492424242424,-0.0718266357421875,0.0832004525184631,0.201193709278107
3.567098484848485,-0.191577612304687,0.133495862674713,0.107787947559357
3.567704545454545,-0.179602514648437,-0.048525621700286896,-0.12213392744064301
3.568310606060606,-0.0167411865234375,-0.12756126623153702,0.102997908496857
3.568916666666667,0.0670844970703125,-0.0940309927940369,0.19879868974685702
3.569522727272727,-0.08140671386718751,0.00895484704971312,0.268254256153107
3.570128787878788,0.0407392822265625,-0.14432640295028698,0.040727400684357
3.570734848484848,-0.09817185058593751,-0.07487083654403691,0.13892320146560702
3.571340909090909,-0.174812475585937,0.0592502572059631,0.22993394365310701
3.5719469696969703,0.0694795166015625,0.0376950814247131,0.100602888965607
3.57255303030303,-0.0382963623046875,0.09996558923721309,0.325734724903107
3.5731590909090913,0.08145461425781249,-0.216176988887787,0.376030135059357
3.5737651515151523,0.09103469238281249,-0.125166246700287,0.182033553028107
3.5743712121212123,0.0383442626953125,0.00416480798721312,0.268254256153107
3.5749772727272733,-0.00716110839843749,0.0185349251747131,0.502966170215607
3.5755833333333333,-0.249058081054687,0.22450660486221302,-0.12931898603439299
3.5761893939393943,0.08624465332031249,-0.268867418575287,-0.014358048534392999
3.576795454545455,0.09821975097656249,-0.225757067012787,0.210773787403107
3.5774015151515153,-0.0550614990234375,-0.0389455435752869,-0.055073380565642996
3.578007575757576,-0.143677221679687,-0.0892409537315369,0.126948103809357
3.5786136363636363,-0.177207495117187,-0.019785387325286903,0.160478377246857
3.579219696969697,0.08384963378906249,-0.192226793575287,0.057492537403107
3.579825757575758,0.08863967285156249,-0.14432640295028698,-0.0071729899406429605
3.580431818181818,0.0742695556640625,-0.06289573888778689,0.172453474903107
3.581037878787879,-0.143677221679687,-0.13953636388778698,0.00480210771560704
3.581643939393939,-0.280193334960937,-0.07726585607528691,-0.050283341503143
3.58225,0.00720900878906251,-0.017390367794036903,0.675407576465607
3.582856060606061,0.10779982910156301,-0.22815208654403699,0.160478377246857
3.583462121212121,-0.131702124023437,-0.175461656856537,-0.167639298534393
3.584068181818182,-0.09577683105468751,-0.029365465450286902,0.450275740528107
3.584674242424242,-0.11972702636718699,-0.175461656856537,0.368845076465607
3.585280303030303,-0.239478002929687,-0.108401109981537,-0.026333146190643
3.585886363636364,0.033554223632812505,0.119125745487213,-0.095788712596893
3.586492424242424,-0.014346166992187501,-0.161091539669037,-0.12931898603439299
3.587098484848485,0.0311592041015625,-0.26647239904403697,0.00480210771560704
3.587704545454545,-0.023926245117187498,0.167026136112213,0.220353865528107
3.588310606060606,-0.203552709960937,0.236481702518463,0.268254256153107
3.588916666666667,-0.09338181152343751,-0.0365505240440369,0.246699080371857
3.589522727272727,0.08384963378906249,-0.113191149044037,0.203588728809357
3.590128787878788,-0.09338181152343751,0.186186292362213,0.277834334278107
3.590734848484848,-0.0406913818359375,0.0736203743934631,0.081442732715607
3.591340909090909,0.129355004882813,-0.187436754512787,0.282624373340607
3.59194696969697,0.184440454101563,-0.06768577795028691,0.13413316240310702
3.59255303030303,0.021579125976562502,0.0209299447059631,0.007197127246857039
3.593159090909091,-0.232292944335937,-0.230547106075287,0.613137068653107
3.593765151515152,-0.186787573242187,0.0520651986122131,0.13413316240310702
3.594371212121212,-0.057456518554687495,0.00895484704971312,-0.093393693065643
3.594977272727273,-0.0526664794921875,-0.141931383419037,0.253884138965607
3.595583333333333,-0.12451706542968699,0.0712253548622131,0.299389510059357
3.596189393939394,0.10540480957031301,-0.0389455435752869,0.280229353809357
3.5967954545454552,0.29221633300781297,0.0496701790809631,0.227538924121857
3.597401515151515,-0.062246557617187497,-0.192226793575287,0.488596053028107
3.5980075757575762,-0.36880905761718796,0.0161399056434631,-0.265835099315643
3.598613636363636,-0.344858862304688,-0.20420189123153698,-0.294575333690643
3.5992196969696972,0.0359492431640625,-0.247312242794037,0.287414412403107
3.599825757575758,0.280241235351563,-0.00302025060653688,0.524521345996857
3.6004318181818182,-0.14607224121093698,-0.362273180294037,-0.256255021190643
3.601037878787879,-0.574780737304687,0.21971656579971302,-0.0071729899406429605
3.6016439393939392,0.457472680664062,-0.402988512325287,0.49099107255935703
3.60225,0.428732446289062,0.14547096033096302,-0.943625626659393
3.602856060606061,-0.443054663085938,0.0137448861122131,0.153293318653107
3.603462121212121,-0.615496069335937,-0.484419176387787,0.447880720996857
3.604068181818182,0.471842797851562,0.406528089237213,-0.498151993846893
3.604674242424242,0.531718286132813,0.0736203743934631,-0.385586075878143
3.605280303030303,-0.546040502929687,0.0736203743934631,0.102997908496857
3.605886363636364,-0.167627416992187,0.0736203743934631,0.694567732715607
3.606492424242424,0.21318068847656302,0.0832004525184631,0.155688338184357
3.607098484848485,0.14851516113281302,0.121520765018463,-0.043098282909393
3.607704545454545,-0.455029760742188,0.09757056970596309,-0.335290665721893
3.608310606060606,-0.273008276367187,-0.137141344356537,-0.270625138378143
3.608916666666667,0.12456496582031301,-0.0916359732627869,0.19400865068435702
3.609522727272727,0.220365747070313,0.116730725955963,0.160478377246857
3.610128787878788,-0.332883764648438,0.6101047493934629,0.136528181934357
3.610734848484849,-0.675371557617187,-0.812536852169037,0.052702498340607
3.611340909090909,0.342511743164062,-0.21857200841903698,0.423930525684357
3.61194696969697,0.756850122070313,0.305937268924713,0.093417830371857
3.61255303030303,0.0407392822265625,0.231691663455963,-0.493361954784393
3.613159090909091,-0.783147436523437,-0.5658498404502871,0.028752303028107
3.6137651515151523,0.10779982910156301,-0.692785875606537,0.835873885059357
3.614371212121212,1.26938430175781,0.5478342415809629,-0.323315568065643
3.6149772727272733,-0.7280619873046871,-0.07966087560653691,0.023962263965607
3.615583333333333,-0.898108374023437,-0.187436754512787,0.150898299121857
3.6161893939393943,0.711344750976563,0.0329050423622131,-0.498151993846893
3.6167954545454553,0.641889184570313,0.0209299447059631,0.246699080371857
3.6174015151515153,0.277846215820313,-0.106006090450287,0.055097517871857
3.6180075757575763,-1.50165329589844,0.20534644861221302,0.931674666309357
3.6186136363636363,-0.21073776855468698,0.162236097049713,-0.519707169628143
3.6192196969696973,1.52086135253906,-0.5418996451377871,0.091022810840607
3.619825757575758,0.764035180664063,0.310727307987213,0.6658274983406071
3.6204318181818183,-1.0226493896484399,-0.755056383419037,-0.7711842204093929
3.621037878787879,-1.16395554199219,0.919062268924713,0.059887556934357
3.6216439393939392,1.4370356689453099,-0.503579332637787,0.680197615528107
3.62225,0.500583032226562,-0.699970934200287,0.754443220996857
3.622856060606061,-0.979539038085937,1.08431861658096,-1.95911390790939
3.623462121212121,-0.8502079833984371,-0.934682848262787,0.055097517871857
3.624068181818182,1.32925979003906,0.327492444705963,0.749653181934357
3.624674242424242,0.210785668945313,0.5334641243934629,-1.22384291181564
3.625280303030303,-2.32314499511719,-0.173066637325287,1.06579576005936
3.625886363636364,0.162885278320313,-0.7885866568565371,0.502966170215607
3.626492424242424,1.36758010253906,-0.019785387325286903,-0.502942032909393
3.627098484848485,0.5484834228515629,0.0233249642372131,-0.079023575878143
3.627704545454545,-1.42501267089844,0.186186292362213,-0.265835099315643
3.628310606060606,-0.490955053710938,-0.0365505240440369,0.414350447559357
3.628916666666667,1.48254104003906,-0.0652907584190369,-0.172429337596893
3.629522727272727,0.481422875976562,-0.477234117794037,0.543681502246857
3.630128787878788,-0.9699589599609371,1.51063209314346,-0.529287247753143
3.630734848484849,-1.66930466308594,-0.9274977896690371,-0.8502198649406429
3.631340909090909,1.3484199462890598,0.234086682987213,0.687382674121857
3.63194696969697,0.823910668945313,0.327492444705963,0.579606795215607
3.63255303030303,-1.24538620605469,0.545439222049713,-0.237094864940643
3.633159090909091,-0.455029760742188,-0.0892409537315369,0.057492537403107
3.633765151515151,0.898156274414063,-1.34423118810654,1.0418455647468599
3.634371212121212,1.58552687988281,1.24957496423721,-0.675383439159393
3.634977272727273,-1.34118698730469,0.188581311893463,-0.074233536815643
3.635583333333333,-1.13042526855469,-0.7861916373252871,0.534101424121857
3.636189393939394,1.8489790283203098,-0.06768577795028691,-0.014358048534392999
3.636795454545455,1.1472383056640598,0.6316599251747129,0.232328963184357
3.637401515151515,-0.598730932617187,0.361022718143463,-0.376005997753143
3.638007575757576,-2.03334763183594,-1.36818138341904,0.522126326465607
3.638613636363636,0.900551293945313,0.509513929080963,-0.301760392284393
3.639219696969697,1.94956984863281,0.0376950814247131,-0.100578751659393
3.639825757575758,-0.11972702636718699,0.619684827518463,0.246699080371857
3.640431818181818,-1.20706589355469,-0.680810777950287,0.201193709278107
3.641037878787879,-1.56152878417969,-0.137141344356537,-0.421511368846893
3.641643939393939,2.50760939941406,0.114335706424713,0.512546248340607
3.64225,0.08384963378906249,-0.577824938106537,0.811923689746857
3.642856060606061,-1.35795212402344,0.875951917362213,-0.680173478221893
3.643462121212121,-0.9484037841796871,-0.836487047481537,0.718517928028107
3.644068181818182,1.7579682861328099,0.226901624393463,0.17484849443435702
3.644674242424242,1.02509230957031,0.116730725955963,-0.043098282909393
3.645280303030303,-3.17098190917969,0.28198707361221304,-0.505337052440643
3.645886363636364,0.479027856445312,-0.635305406856537,0.294599470996857
3.646492424242424,1.67893264160156,0.384972913455963,-0.06704847822189301
3.647098484848485,0.270661157226563,-0.00302025060653688,-0.586767716503143
3.647704545454546,-2.02137253417969,0.5550193001747129,0.227538924121857
3.648310606060606,-1.18072067871094,-0.7861916373252871,0.383215193653107
3.648916666666667,2.3734883056640603,0.454428479862213,-0.749629044628143
3.649522727272727,0.960426782226563,-0.489209215450287,0.17963853349685702
3.650128787878788,-1.81540085449219,1.28071021814346,0.337709822559357
3.650734848484848,-1.9112016357421902,-1.03287864904404,-0.6514332438468929
3.651340909090909,1.6861177001953098,-0.297607652950287,0.13413316240310702
3.65194696969697,1.74838820800781,0.5717844368934629,0.728098006153107
3.65255303030303,-2.2369242919921897,0.6723752572059629,-0.498151993846893
3.653159090909091,-0.931638647460937,-0.120376207637787,-0.5316822672843929
3.653765151515151,1.29093947753906,-1.59570823888779,1.22626206865311
3.654371212121212,1.60229201660156,1.36453590173721,-0.316130509471893
3.6549772727272734,-2.0381376708984402,0.698720472049713,-0.565212540721893
3.655583333333333,-1.3292118896484402,-1.17897484045029,0.608347029590607
3.6561893939393943,2.5531147705078103,-0.489209215450287,0.285019392871857
3.6567954545454553,1.4298506103515598,0.6484250618934629,-0.083813614940643
3.6574015151515153,-1.3723222412109402,0.9478025032997129,-0.261045060253143
3.6580075757575763,-2.68239792480469,-1.06640892248154,0.582001814746857
3.6586136363636363,1.3987153564453099,-0.0916359732627869,-0.16045423994064298
3.6592196969696973,2.7854316650390603,0.523884046268463,-0.502942032909393
3.6598257575757582,-0.586755834960937,0.444848401737213,0.045517439746857
3.6604318181818183,-1.72439011230469,-0.9274977896690371,0.723307967090607
3.6610378787878792,-0.938823706054687,-0.20899193029403698,-0.368820939159393
3.6616439393939393,3.8272651611328103,0.43287330408096303,-0.100578751659393
3.6622500000000002,-0.198762670898437,-0.264077379512787,0.742468123340607
3.662856060606061,-2.29440476074219,-0.151511461544037,-0.732863907909393
3.6634621212121212,-0.16523239746093699,-0.6688356802940371,0.246699080371857
3.664068181818182,2.42138869628906,0.260431897830963,0.8454539631843571
3.6646742424242422,0.347301782226562,0.238876722049713,-0.620297989940643
3.665280303030303,-3.23564743652344,0.739435804080963,-0.074233536815643
3.665886363636364,0.555668481445313,-1.34423118810654,0.536496443653107
3.666492424242424,2.50521437988281,0.39215797204971303,-0.457436661815643
3.667098484848485,0.45986770019531203,0.119125745487213,-0.131714005565643
3.667704545454545,-2.58180710449219,1.00288795251846,-0.340080704784393
3.668310606060606,-1.37950729980469,-1.12628441076279,0.558051619434357
3.668916666666667,3.09917922363281,0.277197034549713,-0.538867325878143
3.669522727272727,1.57115676269531,-0.180251695919037,-0.505337052440643
3.670128787878788,-2.8692094482421897,1.17053931970596,1.07298081865311
3.670734848484848,-2.18662888183594,-0.731106188106537,-0.440671525096893
3.671340909090909,2.45491896972656,-0.692785875606537,-0.414326310253143
3.67194696969697,2.35432814941406,0.875951917362213,-0.713703751659393
3.67255303030303,-2.78538376464844,0.5334641243934629,-0.205959611034393
3.673159090909091,-1.39148239746094,-0.319162828731537,0.598766951465607
3.673765151515152,2.08129592285156,-1.05203880529404,1.31487779130936
3.674371212121212,1.87532424316406,0.7921262337684629,0.764023299121857
3.674977272727273,-2.90513474121094,0.600524671268463,-0.926860489940643
3.675583333333333,-1.3076567138671902,-1.04485374670029,0.22993394365310701
3.676189393939394,2.8021968017578103,-0.503579332637787,0.177243513965607
3.676795454545455,1.5017011962890598,0.9741477181434629,-0.687358536815643
3.677401515151515,-2.20578903808594,1.00049293298721,-0.021543107128143
3.678007575757576,-2.75185349121094,-1.20292503576279,0.462250838184357
3.678613636363636,1.8561640869140599,-0.6448854849815371,-0.06944349775314301
3.679219696969697,2.97463820800781,0.796916272830963,-1.01787123212814
3.6798257575757582,-0.871763159179687,0.7681760384559629,0.055097517871857
3.680431818181818,-2.80454392089844,-0.932287828731537,1.62862534990311
3.6810378787878792,-0.500535131835938,-0.5466896842002871,-0.12931898603439299
3.681643939393939,4.17933303222656,0.40173805017471304,-0.232304825878143
3.6822500000000002,-0.7112968505859371,0.425688245487213,0.007197127246857039
3.682856060606061,-2.80214890136719,-0.302397692012787,-0.469411759471893
3.6834621212121212,0.316166528320312,-0.611355211544037,0.701752791309357
3.684068181818182,3.39376662597656,0.265221936893463,0.220353865528107
3.6846742424242422,-0.258638159179687,-0.00302025060653688,-0.445461564159393
3.685280303030303,-4.00923874511719,0.6675852181434629,0.11976304521560699
3.685886363636364,1.04664748535156,-1.45200706701279,0.256279158496857
3.686492424242424,3.35305129394531,0.123915784549713,-0.354450821971893
3.687098484848485,0.258686059570313,-0.108401109981537,0.047912459278107
3.687704545454545,-3.50388962402344,1.08910865564346,0.213168806934357
3.688310606060606,-1.17353562011719,-0.913127672481537,0.450275740528107
3.688916666666667,4.0643720947265605,-0.479629137325287,-0.443066544628143
3.689522727272727,1.9854951416015598,0.176606214237213,0.040727400684357
3.690128787878788,-3.6643559326171897,1.10108375329971,-0.716098771190643
3.690734848484848,-2.13633347167969,-0.692785875606537,0.12455308427810699
3.691340909090909,3.15905471191406,-0.7861916373252871,0.409560408496857
3.69194696969697,2.17949172363281,1.17772437829971,-1.13762220869064
3.69255303030303,-3.80805710449219,0.8735568978309629,0.622717146778107
3.693159090909091,-1.8680912841796902,-1.52146263341904,-0.282600236034393
3.693765151515152,3.05606887207031,-0.779006578731537,0.402375349903107
3.694371212121212,1.76036330566406,1.36453590173721,-0.062258439159393
3.694977272727273,-4.12659470214844,0.983727796268463,-0.728073868846893
3.695583333333333,-1.49446823730469,-1.02090355138779,0.560446638965607
3.696189393939394,3.4177168212890603,-0.994558336544037,0.091022810840607
3.6967954545454553,1.42266555175781,0.8879270150184629,-0.253860001659393
3.697401515151515,-2.82849411621094,1.3166355111122099,-0.201169571971893
3.6980075757575763,-2.82130905761719,-1.04485374670029,0.732888045215607
3.698613636363636,2.5291645751953102,-0.537109606075287,-0.11494886884689301
3.6992196969696973,3.02972365722656,0.545439222049713,-0.814294571971893
3.6998257575757583,-0.9675639404296871,1.38369605798721,-0.30655043134689297
3.7004318181818183,-3.47993942871094,-1.37057640295029,1.64778550615311
3.7010378787878793,0.244315942382813,-0.393408434200287,0.567631697559357
3.7016439393939393,4.62959670410156,0.5478342415809629,-0.558027482128143
3.7022500000000003,-0.960378881835937,0.5885495736122129,-0.098183732128143
3.702856060606061,-3.06320603027344,-0.558664781856537,-0.634668107128143
3.7034621212121213,0.189230493164063,-1.21729515295029,0.407165388965607
3.704068181818182,3.95899123535156,0.8927170540809629,1.0969310139656099
3.7046742424242423,-0.459819799804688,0.138285901737213,-0.330500626659393
3.705280303030303,-4.41639206542969,0.605314710330963,-0.308945450878143
3.705886363636364,1.38434523925781,-1.49990745763779,0.510151228809357
3.706492424242424,3.62608352050781,0.13589088220596302,-0.519707169628143
3.707098484848485,0.210785668945313,0.222111585330963,-0.031123185253143
3.707704545454545,-4.2583207763671895,0.605314710330963,0.280229353809357
3.708310606060606,-1.21185593261719,-0.6856008170127871,0.541286482715607
3.708916666666667,4.68468215332031,-0.5107643912315369,-0.414326310253143
3.709522727272727,2.0573457275390603,-0.151511461544037,-0.014358048534392999
3.710128787878788,-4.4307621826171895,1.02923316736221,-0.217934708690643
3.710734848484848,-2.7662236083984397,-0.0581056998252869,0.855034041309357
3.711340909090909,3.94222609863281,-0.620935289669037,-0.06465345869064301
3.71194696969697,2.5028193603515603,0.248456800174713,-0.431091446971893
3.71255303030303,-4.1984452880859395,1.95610572595596,-0.284995255565643
3.713159090909091,-1.9112016357421902,-1.38973655920029,-0.191589493846893
3.713765151515152,3.38179152832031,-1.16220970373154,0.917304549121857
3.714371212121212,2.0741108642578103,1.34298072595596,-0.852614884471893
3.714977272727273,-4.55530319824219,1.03162818689346,-0.471806779003143
3.715583333333333,-1.3244218505859402,-1.14544456701279,0.275439314746857
3.716189393939394,4.24639357910156,-1.05682884435654,-0.198774552440643
3.716795454545455,1.81544875488281,1.08910865564346,-0.385586075878143
3.717401515151515,-3.35539841308594,1.56571754236221,-0.495756974315643
3.718007575757576,-3.26917770996094,-1.54062278966904,1.03466050615311
3.718613636363636,3.2117451416015603,-0.596985094356537,0.12934312334060702
3.719219696969697,3.38658156738281,0.437663343143463,-0.48617689619064297
3.719825757575758,-1.6669096435546902,2.02077125329971,-1.04900648603439
3.720431818181818,-3.93978317871094,-2.04357689123154,0.890959334278107
3.721037878787879,1.1376582275390599,-0.20899193029403698,0.735283064746857
3.721643939393939,4.68228713378906,0.557414319705963,-0.500547013378143
3.72225,-1.60224411621094,0.784941175174713,-0.404746232128143
3.7228560606060612,-3.22367233886719,-0.182646715450287,0.148503279590607
3.723462121212121,0.979586938476563,-1.81125999670029,1.02268540849686
3.724068181818182,4.45955031738281,1.06994849939346,-0.268230118846893
3.724674242424242,-1.09689499511719,0.222111585330963,-0.507732071971893
3.725280303030303,-4.98640671386719,0.46161353845596304,0.11736802568435699
3.725886363636364,2.05495070800781,-1.17418480138779,0.821503767871857
3.726492424242424,4.12664260253906,0.25324683923721303,-0.639458146190643
3.727098484848485,-0.186787573242187,0.39215797204971303,-0.335290665721893
3.727704545454545,-5.09178757324219,0.6484250618934629,0.158083357715607
3.728310606060606,-0.811887670898437,-0.860437242794037,0.397585310840607
3.728916666666667,5.15171096191406,0.0161399056434631,-0.203564591503143
3.729522727272727,1.02030227050781,0.303542249393463,-0.438276505565643
3.730128787878788,-4.60320358886719,0.665190198612213,-0.031123185253143
3.730734848484849,-3.1182914794921897,-0.973003160762787,0.617927107715607
3.731340909090909,5.11339064941406,-0.311977770137787,0.335314803028107
3.73194696969697,2.8021968017578103,0.179001233768463,-0.433486466503143
3.73255303030303,-5.17321823730469,1.79084937829971,-0.261045060253143
3.733159090909091,-2.1243583740234397,-1.1981349967002901,1.1568065022468599
3.733765151515152,4.27992385253906,-1.34902122716904,1.4777391194343599
3.734371212121212,1.87532424316406,1.27831519861221,-0.11494886884689301
3.734977272727273,-5.70970261230469,1.33819068689346,-0.364030900096893
3.735583333333333,-1.4321977294921902,-1.10233421545029,0.30178452959060703
3.736189393939394,4.65115187988281,-0.858042223262787,-0.47659681806564297
3.736795454545455,1.6214521728515598,0.49274879236221303,-0.603532853221893
3.737401515151515,-4.28227097167969,1.80282447595596,-0.079023575878143
3.7380075757575764,-3.53981491699219,-1.43045189123154,0.986760115528107
3.738613636363636,3.9302510009765603,-0.434123766231537,-0.16524427900314298
3.7392196969696974,4.01647170410156,-0.364668199825287,-0.692148575878143
3.7398257575757583,-2.19620895996094,2.13573219079971,-0.661013321971893
3.7404318181818184,-4.40202194824219,-1.61007835607529,0.356869978809357
3.7410378787878793,1.1903486572265598,-0.580219957637787,0.859824080371857
3.7416439393939394,5.36486770019531,0.765781018924713,0.337709822559357
3.7422500000000003,-2.24650437011719,0.720275647830963,-0.807109513378143
3.7428560606060612,-3.70507126464844,-0.07487083654403691,-0.481386857128143
3.7434621212121213,1.61426711425781,-1.70587913732529,1.44181382646561
3.7440681818181822,4.74695266113281,1.32621558923721,0.191613631153107
3.7446742424242423,-2.04292770996094,0.9525925423622129,-0.696938614940643
3.7452803030303032,-5.13010788574219,-0.0149953482627869,0.438300642871857
3.745886363636364,2.95068801269531,-1.65558372716904,0.941254744434357
3.7464924242424242,4.51942580566406,0.44245338220596303,-0.459831681346893
3.747098484848485,-0.819072729492187,0.363417737674713,-0.455041642284393
3.7477045454545452,-5.2091435302734395,0.722670667362213,0.023962263965607
3.748310606060606,-0.0382963623046875,-1.10472923498154,0.464645857715607
3.748916666666667,6.21030959472656,-0.019785387325286903,-0.227514786815643
3.749522727272727,0.481422875976562,0.305937268924713,-0.411931290721893
3.750128787878788,-5.16124313964844,0.9885178353309629,0.165268416309357
3.750734848484849,-2.77101364746094,-1.02569359045029,0.5867918538093571
3.751340909090909,6.15522414550781,-0.19941185216903698,0.558051619434357
3.75194696969697,2.01184035644531,0.346652600955963,-1.10409193525314
3.75255303030303,-5.40314011230469,1.33340064783096,-0.23469984540939298
3.753159090909091,-1.50165329589844,-1.12388939123154,0.969994978809357
3.753765151515151,4.77808791503906,-1.23885032873154,0.467040877246857
3.754371212121212,2.09327102050781,1.09150367517471,-0.737653946971893
3.754977272727273,-6.01626511230469,1.44117652673721,-0.9100953532218929
3.755583333333333,-0.7903324951171871,-1.55978294591904,0.30178452959060703
3.756189393939394,5.51335891113281,-0.6856008170127871,-0.150874161815643
3.756795454545455,1.4801460205078099,0.5885495736122129,-0.47659681806564297
3.757401515151515,-4.96245651855469,1.87228004236221,-0.10776381025314301
3.758007575757576,-3.49909958496094,-1.84000023107529,1.00831529130936
3.758613636363636,4.5769062744140605,-0.8221169302940371,-0.258650040721893
3.759219696969697,4.13382766113281,0.0496701790809631,-0.977155900096893
3.759825757575758,-3.36976853027344,2.01358619470596,0.165268416309357
3.760431818181818,-4.82115036621094,-1.74419944982529,0.47183091630935703
3.761037878787879,2.04537062988281,-0.6832057974815371,0.771208357715607
3.761643939393939,6.08337355957031,0.8927170540809629,-0.380796036815643
3.76225,-3.23564743652344,0.365812757205963,-0.397561173534393
3.762856060606061,-4.11461960449219,0.28198707361221304,0.414350447559357
3.763462121212121,2.11243117675781,-1.84479027013779,0.867009138965607
3.764068181818182,4.77329787597656,0.9693576790809629,0.24430406084060702
3.764674242424242,-2.9721952880859397,0.8112863900184629,-0.641853165721893
3.765280303030303,-5.27380905761719,0.0568552376747131,0.241909041309357
3.765886363636364,3.55902297363281,-1.20771507482529,0.881379256153107
3.766492424242424,4.68947219238281,0.5358591439247129,-0.543657364940643
3.767098484848485,-1.6166142333984401,0.109545667362213,-0.18440443525314298
3.7677045454545453,-5.97794479980469,0.8304465462684629,0.17963853349685702
3.768310606060606,0.495792993164062,-1.16699974279404,0.419140486621857
3.768916666666667,6.60069777832031,-0.0245754263877869,-0.625088029003143
3.769522727272727,-0.191577612304687,-0.165881578731537,-0.22032972822189298
3.770128787878788,-5.12531784667969,1.67349342126846,0.519731306934357
3.770734848484848,-2.62731247558594,-1.69150902013779,0.050307478809357
3.771340909090909,6.8186445556640605,-0.592195055294037,0.48141099443435703
3.77194696969697,1.5615766845703098,1.16095924158096,-0.443066544628143
3.77255303030303,-6.07853562011719,0.737040784549713,-1.11127699384689
3.773159090909091,-1.0010942138671899,-1.32746605138779,0.730493025684357
3.773765151515151,5.32415236816406,-1.37297142248154,1.3412230061531099
3.774371212121212,1.37955520019531,1.29268531579971,-1.1735475016593901
3.774977272727273,-6.78506638183594,1.61840797204971,-0.773579239940643
3.775583333333333,-0.462214819335938,-1.34183616857529,0.692172713184357
3.776189393939394,6.17917434082031,-0.9251027701377871,-0.06704847822189301
3.776795454545455,1.5400215087890599,0.444848401737213,-0.555632462596893
3.777401515151515,-5.47020065917969,2.13812721033096,-0.368820939159393
3.778007575757576,-3.42724899902344,-1.34183616857529,0.981970076465607
3.778613636363636,5.42713820800781,-1.13586448888779,-0.12931898603439299
3.779219696969697,4.44518020019531,-0.0892409537315369,-1.18791761884689
3.7798257575757583,-3.96852341308594,2.2770383431434604,0.694567732715607
3.780431818181818,-4.96006149902344,-1.25561546545029,0.720912947559357
3.7810378787878793,2.47168410644531,-1.50230247716904,0.11736802568435699
3.781643939393939,6.23904982910156,1.06515846033096,-0.498151993846893
3.7822500000000003,-4.17210007324219,0.981332776737213,-0.227514786815643
3.7828560606060613,-4.39962692871094,-0.273657457637787,-0.342475724315643
3.7834621212121213,2.79740676269531,-1.86395042638779,1.26937242021561
3.7840681818181823,4.92418410644531,1.46752174158096,0.589186873340607
3.7846742424242423,-3.49670456542969,1.02444312829971,-1.54238050947189
3.7852803030303033,-5.37439987792969,-0.156301500606537,0.186823592090607
3.785886363636364,3.93504104003906,-1.6172634146690401,0.929279646778107
3.7864924242424243,4.62720168457031,0.6891403939247129,-0.431091446971893
3.787098484848485,-2.34949020996094,0.739435804080963,-0.275415177440643
3.7877045454545453,-5.98273483886719,0.478378675174713,0.6466673420906071
3.788310606060606,0.953241723632813,-1.21011009435654,1.1400413655281099
3.788916666666667,6.67494338378906,-0.108401109981537,-1.1136720133781401
3.789522727272727,-0.25624313964843703,-0.280842516231537,-0.498151993846893
3.790128787878788,-5.92525437011719,1.77168922204971,0.977180037403107
3.790734848484848,-1.96868210449219,-1.32028099279404,0.201193709278107
3.791340909090909,7.08928176269531,-0.779006578731537,-0.00238295087814296
3.79194696969697,1.2406440673828099,1.07234351892471,-0.529287247753143
3.79255303030303,-6.56711960449219,1.43159644861221,-0.455041642284393
3.793159090909091,-1.00827927246094,-1.2580104849815401,0.938859724903107
3.793765151515152,5.82231643066406,-1.24124534826279,1.77472154130936
3.794371212121212,1.40590041503906,1.00049293298721,-0.586767716503143
3.794977272727273,-7.14671433105469,1.53697730798721,-0.696938614940643
3.795583333333333,-0.682556616210937,-1.21729515295029,0.799948592090607
3.796189393939394,6.92163039550781,-0.9634230826377871,-0.17003431806564298
3.796795454545455,1.56876174316406,0.6077097298622129,-0.258650040721893
3.797401515151515,-6.24139694824219,2.1429172493934603,-0.629878068065643
3.798007575757576,-3.40569382324219,-1.16220970373154,1.14722642412186
3.798613636363636,6.03786818847656,-1.14544456701279,0.07665269365310699
3.799219696969697,4.18891311035156,0.21013648767471302,-1.12564711103439
3.799825757575758,-5.16124313964844,2.1501023079872104,-0.7711842204093929
3.800431818181818,-4.53853806152344,-0.9658181021690371,1.54958970537186
3.801037878787879,3.59255324707031,-1.44961204748154,0.862219099903107
3.801643939393939,6.22467971191406,0.473588636112213,-1.48011000165939
3.80225,-4.33496140136719,1.55374244470596,0.407165388965607
3.802856060606061,-4.47147751464844,-0.379038317012787,-0.368820939159393
3.803462121212121,3.3913716064453103,-2.05315696935654,0.7664183186531071
3.804068181818182,5.04154006347656,1.00767799158096,-0.00477797040939296
3.804674242424242,-4.11222458496094,0.8520017220497129,-1.00350111494064
3.805280303030303,-5.00077683105469,0.255641858768463,0.668222517871857
3.8058863636363642,4.82119826660156,-2.02202171545029,0.795158553028107
3.806492424242424,5.00561477050781,0.44245338220596303,-0.495756974315643
3.8070984848484852,-2.96022019042969,0.6124997689247129,-0.16045423994064298
3.807704545454545,-6.03542526855469,0.464008557987213,0.457460799121857
3.8083106060606062,2.01423537597656,-0.951447984981537,0.668222517871857
3.808916666666667,6.739608911132811,0.0664353157997131,-1.02266127119064
3.8095227272727272,-0.426289526367188,0.485563733768463,-1.25737318525314
3.810128787878788,-6.48089890136719,0.756200940799713,1.30529771318436
3.8107348484848482,-1.27173142089844,-0.7861916373252871,1.25500230302811
3.811340909090909,7.43655959472656,-0.8029567740440371,-0.222724747753143
3.81194696969697,0.7089497314453129,0.464008557987213,-0.9100953532218929
3.81255303030303,-7.05809860839844,1.74294898767471,-0.047888321971893
3.813159090909091,-0.490955053710938,-1.36818138341904,0.289809431934357
3.813765151515152,6.40430617675781,-1.20053001623154,0.747258162403107
3.814371212121212,0.771220239257813,0.938222425174713,-0.622693009471893
3.814977272727273,-7.79576462402344,1.9752658822059599,-1.08972181806564
3.815583333333333,-0.00237106933593749,-1.54780784826279,0.977180037403107
3.816189393939394,7.16352736816406,-1.14544456701279,-0.100578751659393
3.816795454545455,1.15442336425781,0.39215797204971303,-0.440671525096893
3.817401515151515,-7.00780319824219,1.84593482751846,-0.198774552440643
3.818007575757576,-3.53502487792969,-1.09993919591904,1.0586107014656099
3.818613636363636,7.17310744628906,-1.03048362951279,0.033542342090607004
3.819219696969697,4.3972798095703105,-0.103611070919037,-1.06337660322189
3.819825757575758,-5.88453903808594,1.64235816736221,-0.689753556346893
3.820431818181818,-5.14208298339844,-0.733501207637787,2.12439439287186
3.821037878787879,4.65354689941406,-1.30351585607529,0.404770369434357
3.821643939393939,6.01870803222656,0.193371350955963,-1.02266127119064
3.82225,-5.73365280761719,1.66630836267471,-0.593952775096893
3.8228560606060613,-4.17210007324219,0.0209299447059631,-0.692148575878143
3.823462121212121,4.17933303222656,-2.02920677404404,1.08974595537186
3.8240681818181823,4.78048293457031,0.6532151009559629,0.644272322559357
3.824674242424242,-5.42709030761719,1.52260719079971,-0.656223282909393
3.8252803030303033,-5.175613256835939,0.207741468143463,0.059887556934357
3.8258863636363643,5.3289424072265605,-1.94298607091904,1.02987046709061
3.8264924242424243,4.80682814941406,0.33228248376846303,-0.658618302440643
3.8270984848484852,-3.72662644042969,0.6316599251747129,-0.716098771190643
3.8277045454545453,-6.56232956542969,0.5310691048622129,0.744863142871857
3.8283106060606062,2.39743850097656,-1.33704612951279,1.02508042802811
3.828916666666667,7.11083693847656,-0.520344469356537,-1.0585865641593901
3.8295227272727272,-1.21185593261719,1.00767799158096,-1.19989271650314
3.830128787878788,-7.48680710449219,0.047275159549713106,0.744863142871857
3.8307348484848482,-0.440659643554688,-0.453283922481537,1.40828355302811
3.831340909090909,7.6569013916015605,-0.271262438106537,-0.182009415721893
3.83194696969697,0.354486840820312,0.296357190799713,-1.16636244306564
3.83255303030303,-7.28323044433594,1.82437965173721,0.395190291309357
3.833159090909091,-0.0287162841796875,-1.58133812170029,0.495781111621857
3.833765151515152,7.09407180175781,-1.41847679357529,0.799948592090607
3.834371212121212,0.347301782226562,0.7681760384559629,-0.478991837596893
3.834977272727273,-7.88438034667969,1.77408424158096,-0.874170060253143
3.835583333333333,0.39999221191406203,-1.64839866857529,1.1999168538093599
3.836189393939394,7.517990258789061,-0.7047609732627871,-0.040703263378143
3.836795454545455,1.01551223144531,0.430478284549713,-1.18312757978439
3.837401515151515,-7.41495651855469,1.65193824548721,-0.134109025096893
3.838007575757576,-3.16619187011719,-1.03527366857529,1.24063218584061
3.838613636363636,7.74551711425781,-0.915522692012787,-0.428696427440643
3.839219696969697,3.99731154785156,0.260431897830963,-1.6525514079093901
3.839825757575758,-6.01147507324219,1.81479957361221,-0.469411759471893
3.840431818181818,-5.35044968261719,-1.06401390295029,2.08846909990311
3.841037878787879,5.28583205566406,-1.0783840201377901,0.404770369434357
3.841643939393939,6.3396406494140605,-0.242522203731537,-0.809504532909393
3.84225,-5.98512985839844,1.57769264001846,-0.713703751659393
3.842856060606061,-4.17210007324219,-0.010205309200286899,0.225143904590607
3.843462121212121,4.57451125488281,-1.84958030920029,0.835873885059357
3.844068181818182,5.07028029785156,0.45203346033096303,-0.098183732128143
3.844674242424242,-5.68096237792969,1.31903053064346,-1.0537965250968901
3.845280303030303,-5.00556687011719,0.504723890018463,-0.335290665721893
3.845886363636364,5.60915969238281,-1.82563011388779,1.19752183427811
3.846492424242424,5.01519484863281,-0.0605007193565369,-0.565212540721893
3.847098484848485,-3.9900785888671897,1.19448951501846,-0.668198380565643
3.847704545454545,-7.05330856933594,0.35144264001846304,0.5867918538093571
3.848310606060606,2.99140334472656,-1.48793235998154,0.445485701465607
3.848916666666667,7.35273391113281,-0.441308824825287,-0.893330216503143
3.849522727272727,-1.46812302246094,1.23520484704971,-1.19031263837814
3.850128787878788,-7.9035405029296895,0.605314710330963,0.558051619434357
3.850734848484849,-0.49814011230468797,-1.01371849279404,1.30050767412186
3.851340909090909,8.21015090332031,-0.534714586544037,-0.028728165721893
3.85194696969697,-0.464609838867188,0.566994397830963,-1.7555372477531401
3.85255303030303,-7.37424118652344,1.59445777673721,0.19879868974685702
3.853159090909091,0.498188012695312,-1.29872581701279,1.22865708818436
3.853765151515152,7.18987258300781,-0.9849782584190371,0.7065428303718571
3.854371212121212,-0.5484355224609371,0.816076429080963,0.102997908496857
3.854977272727273,-7.65206345214844,1.60643287439346,-0.387981095409393
3.855583333333333,0.823910668945313,-1.64839866857529,0.814318709278107
3.856189393939394,7.53954543457031,-0.929892809200287,0.11018296709060699
3.856795454545454,0.704159692382813,0.6747702767372129,-1.04661146650314
3.857401515151515,-7.570632788085939,1.87946510095596,-0.316130509471893
3.858007575757576,-2.86681442871094,-1.41608177404404,1.48731919755936
3.858613636363636,7.84850295410156,-0.8269069693565371,-0.246674943065643
3.859219696969697,3.68835402832031,0.119125745487213,-1.6956617594718901
3.859825757575758,-6.11925095214844,1.69504859704971,-0.045493302440643
3.860431818181818,-5.89172409667969,-1.43524193029404,1.71005601396561
3.861037878787879,5.46066848144531,-0.6448854849815371,0.572421736621857
3.861643939393939,6.39233107910156,-0.0964260123252869,-1.27174330244064
3.86225,-6.21744675292969,1.23999488611221,-0.593952775096893
3.8628560606060613,-4.65349899902344,0.15026099939346302,0.898144392871857
3.863462121212121,4.47152541503906,-1.97172630529404,0.538891463184357
3.8640681818181823,5.25469680175781,0.241271741580963,-0.380796036815643
3.864674242424242,-5.45343552246094,1.61122291345596,-0.625088029003143
3.8652803030303033,-5.43427536621094,0.418503186893463,0.081442732715607
3.8658863636363643,5.45827346191406,-1.73461937170029,0.958019881153107
3.8664924242424243,5.36007766113281,0.0808054329872131,-0.675383439159393
3.8670984848484853,-4.08827438964844,1.23520484704971,-1.02266127119064
3.8677045454545453,-6.86170700683594,0.346652600955963,0.749653181934357
3.8683106060606063,2.7926167236328103,-1.34662620763779,0.876589217090607
3.8689166666666672,8.13830031738281,-0.343113024044037,-1.38909925947189
3.8695227272727273,-1.2142509521484401,1.22801978845596,-0.934045548534393
3.8701287878787882,-8.37296433105469,0.6699802376747129,0.675407576465607
3.870734848484849,-0.6705815185546871,-1.16939476232529,1.55677476396561
3.871340909090909,8.895126489257809,-0.180251695919037,-0.090998673534393
3.87194696969697,-0.455029760742188,0.5526242806434629,-1.87049818525314
3.87255303030303,-7.58739792480469,1.65912330408096,0.603556990528107
3.873159090909091,0.155700219726563,-1.33465110998154,1.16878159990311
3.873765151515151,7.30004348144531,-1.07598900060654,0.208378767871857
3.874371212121212,-0.404734350585938,0.684350354862213,-0.763999161815643
3.874977272727273,-7.86043015136719,1.79803443689346,-0.701728654003143
3.875583333333333,0.783195336914063,-1.37057640295029,1.04903062334061
3.876189393939394,7.97543898925781,-1.17418480138779,-0.016753068065643
3.876795454545455,0.7281098876953129,0.344257581424713,-0.895725236034393
3.877401515151515,-7.57302780761719,2.12854713220596,-0.217934708690643
3.878007575757576,-3.07997116699219,-1.31309593420029,1.4992942952156099
3.878613636363636,7.99220412597656,-0.850857164669037,-0.083813614940643
3.879219696969697,4.21525832519531,-0.0557106802940369,-1.53519545087814
3.879825757575758,-6.03542526855469,2.43510963220596,-0.268230118846893
3.880431818181818,-6.25816208496094,-1.39692161779404,1.64539048662186
3.881037878787879,6.0402632080078105,-0.917917711544037,0.752048201465607
3.881643939393939,6.61506789550781,0.296357190799713,-1.70763685712814
3.88225,-6.36593796386719,1.14419410486221,-0.330500626659393
3.882856060606061,-4.54093308105469,0.511908948612213,0.797553572559357
3.883462121212121,4.83796340332031,-1.7968898795127901,0.730493025684357
3.884068181818182,5.40318801269531,0.246061780643463,0.347289900684357
3.884674242424242,-5.714492651367189,1.16574928064346,-0.464621720409393
3.885280303030303,-5.24506882324219,0.38257789392471303,0.24430406084060702
3.885886363636364,5.86542678222656,-1.59570823888779,0.991550154590607
3.886492424242424,5.49180373535156,-0.331137926387787,-0.900515275096893
3.887098484848485,-4.37328171386719,1.04839332361221,-0.268230118846893
3.887704545454545,-7.07965378417969,0.823261487674713,0.225143904590607
3.888310606060606,3.11115432128906,-1.63642357091904,0.814318709278107
3.8889166666666672,8.432887719726558,-0.6424904654502871,-0.871775040721893
3.889522727272727,-1.48488815917969,1.24957496423721,-0.280205216503143
3.8901287878787882,-8.289138647460941,1.50344703454971,0.232328963184357
3.890734848484848,-0.7687773193359371,-1.6771389029502901,1.11369615068436
3.8913409090909092,9.17055373535156,-0.44609886388778697,0.007197127246857039
3.89194696969697,-0.687346655273437,0.538254163455963,-2.05970472822189
3.8925530303030302,-7.96820603027344,1.51063209314346,0.349684920215607
3.893159090909091,0.32095656738281203,-1.07359398107529,1.3196678303718599
3.8937651515151512,7.50362014160156,-1.32028099279404,0.593976912403107
3.894371212121212,-0.934033666992187,0.5550193001747129,-1.3747291422843901
3.894977272727273,-8.01610642089844,1.88425514001846,-0.749629044628143
3.895583333333333,1.19513869628906,-1.50709251623154,1.00352525224686
3.896189393939394,8.32271682128906,-0.9227077506065371,-0.335290665721893
3.896795454545455,0.435917504882812,0.114335706424713,-0.677778458690643
3.897401515151515,-7.96581101074219,1.96568580408096,-0.00477797040939296
3.898007575757576,-3.04165085449219,-1.05682884435654,1.34361802568436
3.898613636363636,8.19578078613281,-1.04964378576279,-0.428696427440643
3.899219696969697,4.00928664550781,-0.319162828731537,-1.44897474775314
3.899825757575758,-6.57909470214844,2.7823874642372104,-0.06704847822189301
3.900431818181818,-5.81987351074219,-0.953843004512787,1.15920152177811
3.901037878787879,6.24383986816406,-1.51427757482529,0.754443220996857
3.901643939393939,6.33724562988281,0.339467542362213,-1.3148536540031401
3.90225,-6.63418015136719,1.23999488611221,-0.878960099315643
3.902856060606061,-4.53853806152344,0.444848401737213,0.958019881153107
3.903462121212121,5.35049758300781,-1.86634544591904,1.15441148271561
3.904068181818182,5.2020063720703105,0.133495862674713,-0.684963517284393
3.904674242424242,-6.20307663574219,1.45794166345596,-0.924465470409393
3.905280303030303,-5.0031718505859395,0.626869886112213,0.390400252246857
3.9058863636363643,6.32527053222656,-1.89987571935654,1.01789536943436
3.906492424242424,5.34810256347656,-0.216176988887787,-0.864589982128143
3.9070984848484853,-4.90258103027344,0.9933078743934629,-0.567607560253143
3.907704545454545,-7.22095993652344,0.837631604862213,0.47183091630935703
3.9083106060606063,3.7338593994140603,-1.35381126623154,0.771208357715607
3.9089166666666673,8.444862817382809,-0.6664406607627871,-1.68608168134689
3.9095227272727273,-2.66563278808594,1.15377418298721,-0.186799454784393
3.9101287878787883,-8.37535935058594,1.62559303064346,0.7664183186531071
3.9107348484848483,-0.268218237304687,-2.2040431998252896,0.593976912403107
3.9113409090909093,8.962187036132809,-0.484419176387787,-0.596347794628143
3.91194696969697,-1.05857468261719,0.8472116829872129,-1.73877211103439
3.9125530303030303,-8.22447312011719,1.66151832361221,0.639482283496857
3.913159090909091,1.02030227050781,-1.30112083654404,1.3364329670906099
3.913765151515152,7.91795852050781,-1.33465110998154,0.783183455371857
3.914371212121212,-1.17832565917969,0.37299781579971303,-0.409536271190643
3.914977272727273,-8.14304245605469,2.1093869759559603,-0.11734388837814301
3.915583333333333,1.30770461425781,-1.33465110998154,0.641877303028107
3.916189393939394,8.29158156738281,-0.711946031856537,-0.438276505565643
3.916795454545455,-0.581965795898437,0.29156715173721304,-0.222724747753143
3.917401515151515,-8.23165817871094,2.08543678064346,-0.06465345869064301
3.918007575757576,-2.2800346435546897,-0.831697008419037,1.05621568193436
3.918613636363636,8.416122583007809,-1.37057640295029,-0.596347794628143
3.919219696969697,3.5973432861328103,-0.393408434200287,-1.28850843915939
3.919825757575758,-7.29999558105469,2.77759742517471,0.773603377246857
3.920431818181818,-5.16842819824219,-1.04006370763779,1.41307359209061
3.921037878787879,6.95276564941406,-1.70348411779404,0.423930525684357
3.921643939393939,6.0737934814453105,0.466403577518463,-1.16875746259689
3.92225,-6.89763229980469,1.58248267908096,-0.931650529003143
3.922856060606061,-4.42597214355469,0.416108167362213,0.632297224903107
3.923462121212121,5.97080764160156,-2.2208083365440396,1.43223374834061
3.924068181818182,5.14692092285156,0.15984107751846302,-0.601137833690643
3.924674242424242,-7.13473923339844,1.33819068689346,-0.991526017284393
3.925280303030303,-4.42836716308594,0.7083005501747129,0.649062361621857
3.925886363636364,7.12999709472656,-2.18009300451279,0.627507185840607
3.926492424242424,5.00561477050781,-0.489209215450287,-0.653828263378143
3.927098484848485,-5.82945358886719,1.20167457361221,-0.313735489940643
3.927704545454545,-7.37424118652344,0.9909128548622129,0.445485701465607
3.928310606060606,4.48829055175781,-1.50230247716904,1.04903062334061
3.928916666666667,8.387382348632809,-0.872412340450287,-1.57112074384689
3.929522727272727,-3.4248539794921897,0.9286423470497129,-0.706518693065643
3.930128787878788,-8.30590378417969,2.27464332361221,1.25739732255936
3.930734848484848,0.881391137695313,-2.1585378287315398,0.498176131153107
3.931340909090909,9.12983840332031,-1.17178978185654,-0.883750138378143
3.93194696969697,-1.59266403808594,1.21125465173721,-0.991526017284393
3.93255303030303,-7.96581101074219,1.88904517908096,-0.138899064159393
3.933159090909091,1.31967971191406,-1.60289329748154,1.06340074052811
3.933765151515152,7.757492211914061,-0.937077867794037,0.718517928028107
3.934371212121212,-1.8345610107421901,0.478378675174713,-1.5759107829093901
3.934977272727273,-8.394519506835941,1.98245094079971,0.083837752246857
3.935583333333333,2.17230666503906,-1.19094993810654,1.02268540849686
3.936189393939394,8.05686965332031,-0.9682131217002871,-0.7304688883781429
3.936795454545455,-0.7280619873046871,0.564599378299713,-0.905305314159393
3.937401515151515,-8.370569311523441,1.58248267908096,0.160478377246857
3.938007575757576,-1.5351835693359401,-0.920312731075287,1.54719468584061
3.938613636363636,8.641254418945309,-1.06401390295029,-0.783159318065643
3.939219696969697,3.0584638916015603,-0.45567894201278697,-1.75074720869064
3.939825757575758,-7.62811325683594,2.1165720345497103,1.21907701005936
3.940431818181818,-4.36370163574219,-0.321557848262787,1.3795433186531099
3.941037878787879,7.29525344238281,-1.72024925451279,0.007197127246857039
3.941643939393939,5.35049758300781,-0.271262438106537,-0.843034806346893
3.94225,-7.20419479980469,2.23153297204971,-0.783159318065643
3.942856060606061,-4.08108933105469,0.315517347049713,0.167663435840607
3.943462121212121,6.43065139160156,-2.42198997716904,1.54000962724686
3.944068181818182,4.4906855712890605,0.19576637048721302,-0.136504044628143
3.944674242424242,-7.89875046386719,1.63038306970596,-1.27413832197189
3.945280303030303,-3.8535624755859397,1.02923316736221,0.9652049397468571
3.9458863636363644,7.37907912597656,-2.38845970373154,0.514941267871857
3.946492424242424,4.75892775878906,-0.32634788732528697,-1.05140150556564
3.9470984848484854,-6.30127243652344,1.48668189783096,-0.495756974315643
3.947704545454545,-6.98864304199219,1.20646461267471,0.536496443653107
3.9483106060606064,5.31696730957031,-1.56696800451279,0.6466673420906071
3.9489166666666673,8.23410109863281,-0.9610280631065371,-1.48011000165939
3.9495227272727274,-4.01642380371094,0.8903220345497129,-1.45376478681564
3.9501287878787883,-8.24602829589844,2.15489234704971,2.04775376787186
3.9507348484848483,1.6046870361328098,-1.50230247716904,0.682592635059357
3.9513409090909093,8.796930688476559,-1.47116722326279,-1.10888197431564
3.9519469696969702,-2.32554001464844,1.31424049158096,-1.45855482587814
3.9525530303030303,-8.03766159667969,2.38481422204971,0.538891463184357
3.9531590909090912,1.90645949707031,-1.88311058263779,1.38193833818436
3.953765151515152,7.42937453613281,-1.51667259435654,-0.387981095409393
3.9543712121212122,-2.18183884277344,0.916667249393463,-1.1735475016593901
3.954977272727273,-8.21728806152344,1.94652564783096,0.150898299121857
3.9555833333333332,2.82614699707031,-1.05203880529404,0.855034041309357
3.956189393939394,7.87484816894531,-1.07359398107529,-0.9100953532218929
3.956795454545455,-1.63098435058594,0.162236097049713,-0.5915577555656429
3.957401515151515,-8.57893601074219,2.1836325814247104,0.332919783496857
3.958007575757576,-1.22383103027344,-1.33944114904404,1.29571763505936
3.958613636363636,9.07714797363281,-1.62444847326279,-0.826269669628143
3.959219696969697,2.7926167236328103,0.334677503299713,-2.18185072431564
3.959825757575758,-8.81604294433594,1.68307349939346,1.07537583818436
3.960431818181818,-3.58053024902344,0.20055640954971302,2.45011704912186
3.961037878787879,7.30722854003906,-1.94777610998154,0.06946763505935699
3.961643939393939,4.77329787597656,-0.46525902013778697,-1.24779310712814
3.96225,-7.1323442138671895,2.4854050423622103,-0.148479142284393
3.962856060606061,-3.82482224121094,0.198161390018463,0.356869978809357
3.963462121212121,7.13239211425781,-2.4339650748252897,1.08495591630936
3.964068181818182,4.02605178222656,0.0784104134559631,-0.581977677440643
3.964674242424242,-7.9107255615234395,1.60882789392471,-1.2980885172843901
3.965280303030303,-3.52304978027344,0.578969495487213,1.43462876787186
3.965886363636364,7.55391555175781,-2.2639186881065396,0.512546248340607
3.966492424242424,4.87867873535156,-0.45567894201278697,-1.0969068766593901
3.967098484848485,-6.77069626464844,1.52979224939346,-0.30655043134689297
