Time (s),Accel X (m/s^2),Accel Y (m/s^2),Accel Z (m/s^2),CI Value
6.083375,0.758668465805054,-1.13924736042023,-0.825745852661133,1.193684415507224
6.083980326876514,0.0689028408050537,-0.19800468463897702,-0.6341442901611329,1.193684415507224
6.0845856537530265,0.116803231430054,0.657017288017273,0.9824938934326171,1.193684415507224
6.08519098062954,-0.153833975601196,1.27493232707977,1.71297485046387,1.193684415507224
6.085796307506054,-0.472371573257446,1.54317451457977,0.776522213745117,1.193684415507224
6.086401634382566,-0.5298520420074461,0.285789260673523,-0.5958239776611329,1.193684415507224
6.08700696125908,-0.13706883888244598,-0.420741501045227,-0.543133547973633,1.193684415507224
6.087612288135594,0.39223047752380397,-0.655453415107727,-0.250941165161133,1.193684415507224
6.088217615012106,0.214999032211304,-1.34521904010773,-0.607799075317383,1.193684415507224
6.08882294188862,-0.13227879981994597,-0.0830437471389771,-1.0532727081298798,1.193684415507224
6.0894282687651335,0.296429696273804,0.453440627861023,0.242432858276367,1.193684415507224
6.090033595641646,0.5287465908050539,0.45104560832977303,1.58364379577637,1.193684415507224
6.09063892251816,-0.120303702163696,1.31085762004852,1.05673949890137,1.193684415507224
6.0912442493946735,-0.47476659278869604,0.668992385673523,0.0149060028076174,1.193684415507224
6.091849576271187,-0.481951651382446,-0.32973075885772696,-0.844906008911133,1.193684415507224
6.0924549031477,-0.398125967788696,-0.49977714557647696,-0.102449954223633,1.193684415507224
6.093060230024213,0.535931649398804,-1.63980644245148,-0.234176028442383,1.193684415507224
6.093665556900727,-0.122698721694946,-0.46864189167022696,-1.08201294250488,1.193684415507224
6.09427088377724,0.131173348617554,0.374404983329773,-0.37308716125488295,1.193684415507224
6.094876210653753,0.40181055564880397,0.30973945598602304,1.48065795593262,1.193684415507224
6.095481537530267,0.104828133773804,1.54317451457977,1.5860388153076201,1.193684415507224
6.09608686440678,-0.182574209976196,0.558821487236023,0.263988034057617,1.193684415507224
6.096692191283293,-0.831624502944946,-0.039933395576477106,-0.820955813598633,1.193684415507224
6.097297518159807,-1.1070517490387002,-0.8111296846389769,-1.0221374542236301,1.193684415507224
6.0979028450363195,0.277269540023804,-2.00624443073273,-0.502418215942383,1.193684415507224
6.098508171912833,0.6461025478363039,-1.21588798542023,-0.763475344848633,1.193684415507224
6.099113498789347,0.485636239242554,-0.0543035127639771,-0.33955688781738297,1.193684415507224
6.099718825665859,0.480846200180054,0.853408889579773,1.2219958465576202,1.193684415507224
6.100324152542373,0.145543465805054,1.60305000286102,1.58364379577637,1.193684415507224
6.100929479418887,-0.172994131851196,1.1168610380172699,0.434034420776367,1.193684415507224
6.101534806295399,-0.845994620132446,0.417515334892273,-0.7371301300048829,1.193684415507224
6.102140133171913,-0.491531729507446,-0.602762985420227,-0.818560794067383,1.193684415507224
6.1027454600484266,0.47366114158630396,-1.58232597370148,-0.219805911254883,1.193684415507224
6.103350786924939,0.842494149398804,-1.39072441120148,-0.943101809692383,1.193684415507224
6.103956113801453,0.375465340805054,-0.162079391670227,-1.1179382354736298,1.193684415507224
6.1045614406779665,-0.0364780185699463,0.915679397392273,0.546600338745117,1.193684415507224
6.105166767554479,-0.0197128818511963,1.06656562786102,1.82793578796387,1.193684415507224
6.105772094430993,0.0377675868988037,1.29169746379852,0.989678952026367,1.193684415507224
6.106377421307506,-0.36459569435119604,0.546846389579773,-0.143165286254883,1.193684415507224
6.10698274818402,-0.38615087013244603,-0.384816208076477,-0.761080325317383,1.193684415507224
6.107588075060533,-0.0292929599761963,-0.542887497138977,-0.375482180786133,1.193684415507224
6.108193401937046,0.502401375961304,-1.11290214557648,-0.243756106567383,1.193684415507224
6.10879872881356,-0.110723624038696,-0.217164840888977,-0.964656985473633,1.193684415507224
6.109404055690073,0.00902735252380369,0.42949043254852304,0.0125109832763674,1.193684415507224
6.110009382566586,0.579042000961304,0.568401565361023,1.61717406921387,1.193684415507224
6.1106147094431,0.16709864158630403,1.31085762004852,1.2818713348388702,1.193684415507224
6.1112200363196125,-0.443631338882446,0.748028030204773,0.0747814910888675,1.193684415507224
6.111825363196126,-0.654393057632446,-0.363261032295227,-0.626959231567383,1.193684415507224
6.11243069007264,-0.5106918857574461,-0.602762985420227,-0.6556994659423829,1.193684415507224
6.113036016949152,0.406600594711304,-1.69489189167023,-0.43296264953613295,1.193684415507224
6.113641343825666,0.159913582992554,-0.849449997138977,-1.16104858703613,1.193684415507224
6.11424667070218,-0.0604282138824463,0.158853225517273,-0.44254272766113295,1.193684415507224
6.114851997578692,0.478451180648804,0.266629104423523,1.65309936218262,1.193684415507224
6.115457324455206,0.43294580955505396,1.57191474895477,1.6507043426513701,1.193684415507224
6.11606265133172,-0.25681981544494603,0.728867873954773,0.613660885620117,1.193684415507224
6.116667978208232,-1.07591649513245,0.125322952079773,-0.7347351104736329,1.193684415507224
6.117273305084746,-0.951375479507446,-0.720118942451477,-0.967052005004883,1.193684415507224
6.1178786319612595,0.308404793930054,-2.14755058307648,-0.648514407348633,1.193684415507224
6.118483958837772,0.466476082992554,-1.3931194307327301,-0.909571536254883,1.193684415507224
6.119089285714286,0.30361475486755396,-0.106993942451477,-0.5551086456298829,1.193684415507224
6.119694612590799,0.744298348617554,0.942024612236023,1.14296020202637,1.193684415507224
6.120299939467313,0.169493661117554,1.45216377239227,1.75129516296387,1.193684415507224
6.120905266343826,-0.340645499038696,1.00429512004852,0.8435827606201171,1.193684415507224
6.121510593220339,-0.860364737319946,0.37919502239227304,-0.571873782348633,1.193684415507224
6.122115920096853,-0.757378897476196,-0.518937301826477,-1.18020874328613,1.193684415507224
6.122721246973366,0.119198250961304,-1.48173515338898,-0.27010132141113297,1.193684415507224
6.123326573849879,0.823333993148804,-1.58711601276398,-0.5383435089111329,1.193684415507224
6.123931900726393,0.389835457992554,-0.33931083698272696,-0.761080325317383,1.193684415507224
6.1245372276029055,-0.0340829990386963,0.692942580986023,0.7429919403076171,1.193684415507224
6.125142554479419,-0.0987485263824463,1.15757637004852,1.8542810028076202,1.193684415507224
6.125747881355933,-0.204129385757446,1.39707832317352,1.1669103973388701,1.193684415507224
6.1263532082324454,-0.417286124038696,0.851013870048523,-0.229385989379883,1.193684415507224
6.126958535108959,-0.362200674819946,-0.351285934638977,-0.9957922393798829,1.193684415507224
6.127563861985473,-0.0364780185699463,-0.576417770576477,-0.464097903442383,1.193684415507224
6.128169188861985,0.47126612205505397,-1.19433280963898,-0.35153198547363296,1.193684415507224
6.128774515738499,0.344330086898804,-0.30817558307647697,-1.12751831359863,1.193684415507224
6.129379842615013,0.20302393455505402,0.515711135673523,-0.296446536254883,1.193684415507224
6.129985169491525,0.571856942367554,0.383985061454773,1.47347289733887,1.193684415507224
6.130590496368039,0.0712978603363037,1.21026679973602,1.1070349090576201,1.193684415507224
6.1311958232445525,-0.362200674819946,0.829458694267273,0.00293090515136745,1.193684415507224
6.131801150121065,-0.661578116226196,0.000781936454772948,-0.792215579223633,1.193684415507224
6.132406476997579,-0.572962393569946,-0.578812790107727,-0.44254272766113295,1.193684415507224
6.133011803874092,0.552696786117554,-1.74518730182648,-0.059339602661132605,1.193684415507224
6.133617130750605,0.356305184555054,-0.815919723701477,-1.07722290344238,1.193684415507224
6.134222457627119,-0.35501561622619604,0.283394241142273,-0.904781497192383,1.193684415507224
6.134827784503632,0.540721688461304,0.42949043254852304,1.1669103973388701,1.193684415507224
6.135433111380146,0.41139063377380397,1.24619209270477,1.92613158874512,1.193684415507224
6.136038438256659,-0.357410635757446,0.690547561454773,0.180162350463867,1.193684415507224
6.136643765133172,-0.711873526382446,0.142088088798523,-0.899991458129883,1.193684415507224
6.137249092009686,-0.903475088882446,-0.435111618232727,-1.06764282531738,1.193684415507224
6.1378544188861985,0.195838875961304,-1.84338310260773,-0.988607180786133,1.193684415507224
6.138459745762712,0.46168604393005397,-1.54400566120148,-0.6940197784423829,1.193684415507224
6.139065072639226,0.418575692367554,-0.152499313545227,-0.5766638214111329,1.193684415507224
6.1396703995157385,0.619757332992554,0.486970901298523,0.7190417449951171,1.193684415507224
6.140275726392252,-0.0412680576324463,1.29888252239227,1.85667602233887,1.193684415507224
6.140881053268766,-0.378965811538696,1.0402204130172699,0.869927975463867,1.193684415507224
6.141486380145278,-0.901080069351196,0.6833625028610231,-0.624564212036133,1.193684415507224
6.142091707021792,-0.786119131851196,-0.509357223701477,-0.8952014190673829,1.193684415507224
6.142697033898306,0.126383309555054,-1.6110662080764802,-0.306026614379883,1.193684415507224
6.143302360774818,1.1011562587738,-1.4961052705764801,-0.447332766723633,1.193684415507224
6.143907687651332,0.598202157211304,-0.39918632526397696,-1.20894897766113,1.193684415507224
6.1445130145278455,0.16709864158630403,0.5851667020797731,0.232852780151367,1.193684415507224
6.145118341404358,0.0712978603363037,1.18631660442352,1.8039855926513702,1.193684415507224
6.145723668280872,-0.27597997169494604,1.26535224895477,0.9609387176513671,1.193684415507224
6.146328995157385,-0.517876944351196,0.848618850517273,-0.169510501098633,1.193684415507224
6.146934322033898,-0.661578116226196,0.0343122098922729,-0.698809817504883,1.193684415507224
6.147539648910412,0.0641128017425537,-0.554862594795227,-0.507208255004883,1.193684415507224
6.148144975786925,0.643707528305054,-1.36677421588898,-0.387457278442383,1.193684415507224
6.148750302663439,0.181468758773804,-0.621923141670227,-1.4077355987548799,1.193684415507224
6.149355629539952,-0.0388730381011963,0.467810745048523,-0.523973391723633,1.193684415507224
6.149960956416465,0.315589852523804,0.383985061454773,1.24594604187012,1.193684415507224
6.150566283292979,0.219789071273804,1.1432062528610198,1.0256042449951202,1.193684415507224
6.1511716101694915,-0.261609854507446,0.999505080986023,0.36457885437011706,1.193684415507224
6.151776937046005,-0.491531729507446,0.0678424833297729,-0.607799075317383,1.193684415507224
6.152382263922519,-0.438841299819946,-0.360866012763977,-0.387457278442383,1.193684415507224
6.1529875907990315,0.186258797836304,-1.66615165729523,-0.119215090942383,1.193684415507224
6.153592917675545,0.662867684555054,-1.00752128620148,-0.8544860870361329,1.193684415507224
6.154198244552059,-0.0724033115386963,0.357639846611023,-0.298841555786133,1.193684415507224
6.154803571428571,0.5287465908050539,0.29057929973602303,1.12619506530762,1.193684415507224
6.155408898305085,0.440130868148804,1.01387519817352,1.6147790496826202,1.193684415507224
6.156014225181599,0.0329775478363037,0.657017288017273,0.551390377807617,1.193684415507224
6.156619552058111,-0.544222159194946,0.0965827177047729,-0.600614016723633,1.193684415507224
6.157224878934625,-1.0160410068512,-0.303385544013977,-0.902386477661133,1.193684415507224
6.1578302058111385,0.135963387680054,-1.56077079792023,-0.672464602661133,1.193684415507224
6.158435532687651,0.9478750087738039,-1.86972831745148,-0.591033938598633,1.193684415507224
6.159040859564165,0.497611336898804,-0.00640312213897705,-0.785030520629883,1.193684415507224
6.159646186440678,0.46168604393005397,0.570796584892273,0.6998815887451171,1.193684415507224
6.160251513317191,0.00902735252380369,1.30846260051727,1.63154418640137,1.193684415507224
6.160856840193705,-0.252029776382446,0.942024612236023,0.8986682098388671,1.193684415507224
6.161462167070218,-0.826834463882446,0.45823066692352304,-0.226990969848633,1.193684415507224
6.162067493946731,-0.872339834976196,-0.00640312213897705,-1.0532727081298798,1.193684415507224
6.162672820823245,-0.0101328037261963,-1.29731864948273,-0.502418215942383,1.193684415507224
6.163278147699758,0.943084969711304,-1.80027275104523,-0.41380249328613294,1.193684415507224
6.163883474576272,0.581437020492554,-0.588392868232727,-0.689229739379883,1.193684415507224
6.1644888014527845,0.0976430751800537,0.7049176786422731,0.09394164733886749,1.193684415507224
6.165094128329298,0.028187508773803698,1.19589668254852,1.46868285827637,1.193684415507224
6.165699455205811,-0.299930167007446,1.17913154582977,1.2004406707763702,1.193684415507224
6.1663047820823245,-0.48674169044494603,0.692942580986023,-0.162325442504883,1.193684415507224
6.166910108958838,-0.577752432632446,0.00557197551727295,-0.464097903442383,1.193684415507224
6.167515435835352,-0.199339346694946,-0.559652633857727,-0.38266723937988295,1.193684415507224
6.168120762711864,0.26289942283630396,-1.2733684541702301,-0.495233157348633,1.193684415507224
6.168726089588378,0.394625497055054,-0.617133102607727,-0.938311770629883,1.193684415507224
6.169331416464892,-0.0029477451324463103,0.49894599895477304,-0.356322024536133,1.193684415507224
6.169936743341404,0.552696786117554,0.283394241142273,1.0423693817138702,1.193684415507224
6.170542070217918,0.0593227626800537,1.11925605754852,1.18607055358887,1.193684415507224
6.1711473970944315,-0.34543553810119604,0.946814651298523,0.163397213745117,1.193684415507224
6.171752723970944,-0.525062002944946,-0.0566985322952271,-0.550318606567383,1.193684415507224
6.172358050847458,-0.915450186538696,-0.370446090888977,-0.686834719848633,1.193684415507224
6.172963377723971,0.159913582992554,-1.70926200885773,-0.334766848754883,1.193684415507224
6.173568704600484,0.488031258773804,-1.12727226276398,-0.6533044464111329,1.193684415507224
6.174174031476998,-0.0987485263824463,0.223518752861023,-0.650909426879883,1.193684415507224
6.174779358353511,0.959850106430054,0.257049026298523,1.19804565124512,1.193684415507224
6.175384685230024,0.296429696273804,1.05938056926727,1.8686511199951201,1.193684415507224
6.175990012106538,0.0521377040863037,0.953999709892273,0.635216061401367,1.193684415507224
6.176595338983051,-0.568172354507446,0.14448310832977299,-0.610194094848633,1.193684415507224
6.177200665859564,-1.22919774513245,-0.38002616901397696,-0.962261965942383,1.193684415507224
6.177805992736078,-0.199339346694946,-1.25899833698273,-0.722760012817383,1.193684415507224
6.178411319612591,1.00296045799255,-2.00863945026398,-0.8736462432861329,1.193684415507224
6.179016646489104,0.722743172836304,-0.17405448932647702,-0.603009036254883,1.193684415507224
6.1796219733656175,0.5263515712738039,0.616301955986023,0.884298092651367,1.193684415507224
6.180227300242131,0.112013192367554,1.1767365262985199,1.5644836395263702,1.193684415507224
6.180832627118645,0.0305825283050537,1.22703193645477,1.03278930358887,1.193684415507224
6.181437953995157,-0.735823721694946,0.716892776298523,-0.286866458129883,1.193684415507224
6.182043280871671,-1.0352011631012001,-0.104598922920227,-0.7538952667236329,1.193684415507224
6.182648607748185,0.035372567367553696,-1.23265312213898,-0.277286380004883,1.193684415507224
6.183253934624697,1.0053554775238,-1.60867118854523,-0.567083743286133,1.193684415507224
6.183859261501211,0.722743172836304,-0.583602829170227,-0.0665246612548825,1.193684415507224
6.1844645883777245,0.274874520492554,0.702522659111023,0.493909909057617,1.193684415507224
6.185069915254237,0.0784829189300537,1.1982917020797699,1.2986364715576202,1.193684415507224
6.185675242130751,-0.299930167007446,1.25577217082977,1.1022448699951202,1.193684415507224
6.186280569007264,-0.19215428810119597,0.695337600517273,0.0053259246826174505,1.193684415507224
6.186885895883777,-0.539432120132446,0.228308791923523,-0.219805911254883,1.193684415507224
6.187491222760292,-0.0747983310699463,-0.346495895576477,-0.29165649719238296,1.193684415507224
6.188096549636804,0.45210596580505397,-1.2350481416702301,-0.33237182922363295,1.193684415507224
6.188701876513317,0.344330086898804,-0.7129338838577269,-1.06045776672363,1.193684415507224
6.1893072033898315,0.21260401268005402,0.187593459892273,-0.397037356567383,1.193684415507224
6.189912530266344,0.519166512680054,0.233098830986023,1.1717004364013701,1.193684415507224
6.190517857142857,0.13835840721130402,0.994715041923523,0.9633337371826171,1.193684415507224
6.191123184019371,-0.149043936538696,0.965974807548523,0.39571410827636705,1.193684415507224
6.191728510895884,-0.637627920913696,0.34087470989227303,-0.155140383911133,1.193684415507224
6.192333837772397,-0.692713370132446,-0.152499313545227,-0.583848880004883,1.193684415507224
6.1929391646489105,-0.25681981544494603,-1.66136161823273,-0.720364993286133,1.193684415507224
6.193544491525424,0.41378565330505396,-1.48413017292023,-0.9742370635986329,1.193684415507224
6.194149818401937,-0.223289542007446,0.173223342704773,-0.624564212036133,1.193684415507224
6.19475514527845,0.38265039939880396,0.381590041923523,0.9417785614013671,1.193684415507224
6.195360472154964,0.289244637680054,0.872569045829773,1.44712768249512,1.193684415507224
6.195965799031478,0.43294580955505396,0.719287795829773,0.810052487182617,1.193684415507224
6.19657112590799,-0.814859366226196,0.463020705986023,-0.31321167297363295,1.193684415507224
6.197176452784504,-1.3465537021637002,0.0271271512985229,-0.926336672973633,1.193684415507224
6.1977817796610175,-0.108328604507446,-1.48892021198273,-0.418592532348633,1.193684415507224
6.19838710653753,0.679632821273804,-1.96313407917023,-0.720364993286133,1.193684415507224
6.198992433414044,0.897579598617554,-0.26027519245147696,-0.830535891723633,1.193684415507224
6.199597760290557,0.555091805648804,0.551636428642273,0.611265866088867,1.193684415507224
6.20020308716707,0.18386377830505402,1.00669013957977,1.8303308074951201,1.193684415507224
6.200808414043585,-0.280770010757446,1.30606758098602,0.989678952026367,1.193684415507224
6.201413740920097,-1.0591513584137,0.750423049736023,-0.346741946411133,1.193684415507224
6.20201906779661,-1.2483579013824502,-0.0016130830764770501,-0.5335534698486329,1.193684415507224
6.202624394673123,-0.208919424819946,-1.07458183307648,-0.43056763000488296,1.193684415507224
6.203229721549637,0.861654305648804,-2.03019462604523,-0.691624758911133,1.193684415507224
6.20383504842615,0.796988778305054,-0.6338982393264769,-0.703599856567383,1.193684415507224
6.204440375302664,0.385045418930054,0.633067092704773,-0.052154544067382604,1.193684415507224
6.205045702179177,-0.20173436622619598,1.17434150676727,0.9034582489013671,1.193684415507224
6.20565102905569,-0.508296866226196,1.45216377239227,1.22439086608887,1.193684415507224
6.2062563559322035,-0.357410635757446,0.6642023466110231,0.39810912780761704,1.193684415507224
6.206861682808717,-0.642417959976196,0.0678424833297729,0.0460412567138674,1.193684415507224
6.20746700968523,-0.5298520420074461,-0.5117522432327269,-0.0761047393798825,1.193684415507224
6.208072336561743,0.394625497055054,-1.48652519245148,-0.6149841339111329,1.193684415507224
6.208677663438257,0.7466933681488039,-0.947645797920227,-0.9933972198486329,1.193684415507224
6.209282990314771,-0.117908682632446,0.213938674736023,-0.284471438598633,1.193684415507224
6.209888317191283,0.32277491111755396,0.22591377239227298,1.08308471374512,1.193684415507224
6.210493644067797,0.0808779384613037,1.03303535442352,0.944173580932617,1.193684415507224
6.2110989709443105,-0.232869620132446,0.937234573173523,0.31667846374511704,1.193684415507224
6.211704297820823,-0.501111807632446,0.0965827177047729,-0.102449954223633,1.193684415507224
6.212309624697337,-0.716663565444946,-0.06627861042022709,-0.720364993286133,1.193684415507224
6.21291495157385,0.0928530361175537,-1.66375663776398,-0.763475344848633,1.193684415507224
6.213520278450363,0.873629403305054,-1.66375663776398,-0.9359167510986329,1.193684415507224
6.214125605326878,0.0233974697113037,0.28099922161102303,-0.583848880004883,1.193684415507224
6.21473093220339,0.488031258773804,0.374404983329773,0.857952877807617,1.193684415507224
6.215336259079903,0.35391016502380396,0.9228644559860231,1.6507043426513701,1.193684415507224
6.215941585956416,0.420970711898804,0.798323440361023,0.7837072723388671,1.193684415507224
6.21654691283293,-0.661578116226196,0.0127570341110229,-0.466492922973633,1.193684415507224
6.217152239709443,-1.5309702060699502,0.137298049736023,-0.564688723754883,1.193684415507224
6.217757566585957,-0.299930167007446,-1.12487724323273,-0.6772546417236329,1.193684415507224
6.21836289346247,0.993380379867554,-2.15473564167023,-0.780240481567383,1.193684415507224
6.218968220338983,0.808963875961304,-0.334520797920227,-0.722760012817383,1.193684415507224
6.2195735472154965,0.684422860336304,0.307344436454773,0.546600338745117,1.193684415507224
6.22017887409201,0.24373926658630402,0.934839553642273,1.53334838562012,1.193684415507224
6.220784200968523,-0.242449698257446,1.17434150676727,0.908248287963867,1.193684415507224
6.221389527845036,-0.663973135757446,0.434280471611023,-0.155140383911133,1.193684415507224
6.22199485472155,-1.4950449131012,0.101372756767273,-0.650909426879883,1.193684415507224
6.222600181598064,-0.48434667091369604,-0.815919723701477,-0.495233157348633,1.193684415507224
6.223205508474576,0.892789559555054,-1.87930839557648,-0.579058840942383,1.193684415507224
6.22381083535109,0.820938973617554,-0.9524358369827269,-0.871251223754883,1.193684415507224
6.2244161622276035,0.365885262680054,0.486970901298523,-0.119215090942383,1.193684415507224
6.225021489104116,0.231764168930054,0.934839553642273,0.994468991088867,1.193684415507224
6.22562681598063,-0.187364249038696,1.28930244426727,0.9609387176513671,1.193684415507224
6.226232142857143,-0.290350088882446,0.7647931669235231,0.29512328796386705,1.193684415507224
6.226837469733656,-0.6304428623199461,0.20435859661102299,-0.246151126098633,1.193684415507224
6.227442796610169,-0.604097647476196,-0.11657402057647699,-0.35153198547363296,1.193684415507224
6.228048123486683,0.298824715805054,-1.42664970417023,-0.358717044067383,1.193684415507224
6.228653450363196,0.777828622055054,-0.9332756807327269,-0.749105227661133,1.193684415507224
6.229258777239709,-0.07000829200744631,0.453440627861023,-0.507208255004883,1.193684415507224
6.229864104116223,0.519166512680054,0.326504592704773,1.1238000457763702,1.193684415507224
6.230469430992736,0.00423731346130369,0.965974807548523,0.984888912963867,1.193684415507224
6.23107475786925,-0.12509374122619601,0.9037042997360231,0.28793822937011704,1.193684415507224
6.231680084745763,-0.26639989356994603,-0.11657402057647699,-0.0162292510986326,1.193684415507224
6.232285411622276,-1.2315927646637002,0.125322952079773,-0.564688723754883,1.193684415507224
6.2328907384987895,-0.163414053726196,-1.18475273151398,-0.5766638214111329,1.193684415507224
6.233496065375303,0.808963875961304,-1.69968193073273,-0.919151614379883,1.193684415507224
6.234101392251816,-0.16101903419494598,0.520501174736023,-0.708389895629883,1.193684415507224
6.234706719128329,0.785013680648804,0.29057929973602303,0.7405969207763671,1.193684415507224
6.235312046004843,0.552696786117554,0.9228644559860231,1.57166869812012,1.193684415507224
6.235917372881357,0.231764168930054,1.01387519817352,0.884298092651367,1.193684415507224
6.236522699757869,-0.323880362319946,-0.147709274482727,-0.32997680969238297,1.193684415507224
6.237128026634383,-1.3705038974762,0.14448310832977299,-0.904781497192383,1.193684415507224
6.2377333535108965,-0.704688467788696,-1.23025810260773,-0.727550051879883,1.193684415507224
6.238338680387409,0.8472841884613039,-2.16192070026398,-0.959866946411133,1.193684415507224
6.238944007263923,0.943084969711304,-0.38721122760772697,-0.6556994659423829,1.193684415507224
6.239549334140436,0.729928231430054,0.206753616142273,0.412479244995117,1.193684415507224
6.240154661016949,0.236554207992554,0.937234573173523,1.31300658874512,1.193684415507224
6.240759987893462,-0.101143545913696,1.28690742473602,1.17409545593262,1.193684415507224
6.241365314769976,-0.407706045913696,0.312134475517273,0.0484362762451174,1.193684415507224
6.241970641646489,-1.3273935459137,0.228308791923523,-0.7538952667236329,1.193684415507224
6.242575968523002,-0.577752432632446,-0.35847099323272696,-0.7179699737548829,1.193684415507224
6.243181295399516,0.464081063461304,-1.81464286823273,-0.5383435089111329,1.193684415507224
6.243786622276029,1.1466616298675498,-0.8925603487014769,-0.0186242706298826,1.193684415507224
6.244391949152543,0.691607918930054,0.515711135673523,0.25919799499511703,1.193684415507224
6.244997276029056,0.260504403305054,0.678572463798523,1.0758996551513702,1.193684415507224
6.245602602905569,-0.412496084976196,1.15757637004852,1.2651061981201202,1.193684415507224
6.2462079297820825,-0.36459569435119604,0.652227248954773,0.36936889343261703,1.193684415507224
6.246813256658596,-0.807674307632446,0.0654474637985229,-0.0713147003173825,1.193684415507224
6.247418583535109,-0.723848624038696,0.0678424833297729,-0.246151126098633,1.193684415507224
6.248023910411622,0.370675301742554,-1.42664970417023,-0.476073001098633,1.193684415507224
6.248629237288136,0.9478750087738039,-1.09134696979523,-1.14188843078613,1.193684415507224
6.24923456416465,-0.0268979404449463,0.45823066692352304,-0.385062258911133,1.193684415507224
6.249839891041162,0.488031258773804,0.0846076200485229,0.826817623901367,1.193684415507224
6.250445217917676,0.298824715805054,0.812693557548523,0.994468991088867,1.193684415507224
6.2510505447941895,-0.21131444435119598,1.03064033489227,0.517860104370117,1.193684415507224
6.251655871670702,-0.16101903419494598,0.0103620145797729,0.0747814910888675,1.193684415507224
6.252261198547216,-1.0160410068512,0.242678909111023,-0.265311282348633,1.193684415507224
6.2528665254237294,-0.218499502944946,-1.05781669635773,-0.485653079223633,1.193684415507224
6.253471852300242,0.720348153305054,-2.07569999713898,-1.01255737609863,1.193684415507224
6.254077179176755,-0.237659659194946,0.292974319267273,-0.880831301879883,1.193684415507224
6.254682506053269,0.562276864242554,0.23070381145477298,0.697486569213867,1.193684415507224
6.255287832929782,0.670052743148804,0.5444513700485231,1.1022448699951202,1.193684415507224
6.255893159806295,0.255714364242554,0.896519241142273,0.714251705932617,1.193684415507224
6.256498486682809,-0.431656241226196,-0.06627861042022709,0.0771765106201175,1.193684415507224
6.257103813559322,-1.58366063575745,0.34087470989227303,-0.5359484893798829,1.193684415507224
6.257709140435836,-0.800489249038696,-0.775204391670227,-0.8544860870361329,1.193684415507224
6.258314467312349,0.672447762680054,-2.11162529010773,-0.8760412628173829,1.193684415507224
6.258919794188862,0.696397957992554,-0.490197067451477,-0.8952014190673829,1.193684415507224
6.2595251210653755,0.773038582992554,0.434280471611023,0.359788815307617,1.193684415507224
6.260130447941889,0.389835457992554,0.769583205986023,1.6291491668701201,1.193684415507224
6.260735774818402,-0.434051260757446,1.36833808879852,0.867532955932617,1.193684415507224
6.261341101694915,-0.592122549819946,0.28099922161102303,0.0747814910888675,1.193684415507224
6.261946428571429,-1.4543295810699501,0.0798175809860229,-0.368297122192383,1.193684415507224
6.262551755447943,-0.901080069351196,-0.360866012763977,-0.416197512817383,1.193684415507224
6.263157082324455,0.511981454086304,-1.89607353229523,-0.923941653442383,1.193684415507224
6.263762409200969,0.871234383773804,-1.00033622760773,-1.02932251281738,1.193684415507224
6.2643677360774825,0.399415536117554,0.508526077079773,-0.236571047973633,1.193684415507224
6.264973062953995,0.24373926658630402,0.786348342704773,0.872322994995117,1.193684415507224
6.265578389830508,-0.357410635757446,1.32043769817352,1.02081420593262,1.193684415507224
6.2661837167070225,-0.177784170913696,0.877359084892273,0.263988034057617,1.193684415507224
6.266789043583535,-0.663973135757446,0.218728713798523,-0.0210192901611326,1.193684415507224
6.267394370460048,-0.8891049716949461,0.26902412395477304,-0.346741946411133,1.193684415507224
6.267999697336562,0.0257924892425537,-1.0769768526077301,-0.5575036651611329,1.193684415507224
6.268605024213075,0.804173836898804,-1.25899833698273,-0.763475344848633,1.193684415507224
6.269210351089588,0.0832729579925537,0.47020576457977303,-0.5335534698486329,1.193684415507224
6.269815677966102,0.538326668930054,0.357639846611023,0.834002682495117,1.193684415507224
6.270421004842615,0.205418954086304,0.549241409111023,1.21481078796387,1.193684415507224
6.271026331719129,-0.0915634677886963,1.0402204130172699,0.460379635620117,1.193684415507224
6.271631658595642,0.121593270492554,-0.0998088838577271,0.352603756713867,1.193684415507224
6.272236985472155,-0.8100693271636961,0.18040840129852298,0.572945553588867,1.193684415507224
6.2728423123486685,-0.553802237319946,-0.890165329170227,-0.7730554229736329,1.193684415507224
6.273447639225182,0.717953133773804,-2.35831230182648,-1.3478601104736299,1.193684415507224
6.274052966101695,0.0257924892425537,0.27860420207977304,0.149027096557617,1.193684415507224
6.274658292978208,0.337145028305054,0.49894599895477304,0.644796139526367,1.193684415507224
6.275263619854722,0.365885262680054,0.520501174736023,1.1190100067138702,1.193684415507224
6.275868946731235,-0.0508481357574463,1.16236640911102,0.9992590301513671,1.193684415507224
6.276474273607748,0.107223153305054,-0.190819626045227,0.0652014129638675,1.193684415507224
6.277079600484262,-1.3465537021637002,0.254654006767273,-0.337161868286133,1.193684415507224
6.2776849273607755,-0.802884268569946,-0.523727340888977,-0.550318606567383,1.193684415507224
6.278290254237288,0.823333993148804,-2.32717704792023,-0.9933972198486329,1.193684415507224
6.278895581113801,0.753878426742554,-0.854240036201477,-0.883226321411133,1.193684415507224
6.2795009079903155,0.856864266586304,0.374404983329773,0.352603756713867,1.193684415507224
6.280106234866828,0.751483407211304,0.8653839872360231,1.30582153015137,1.193684415507224
6.280711561743341,-0.189759268569946,1.4162384794235199,0.893878170776367,1.193684415507224
6.281316888619855,-0.26639989356994603,0.237888870048523,0.192137448120117,1.193684415507224
6.281922215496368,-1.1166318271637001,0.257049026298523,-0.28926147766113297,1.193684415507224
6.282527542372881,-1.02801610450745,-0.12854911823272702,-0.705994876098633,1.193684415507224
6.283132869249395,0.258109383773804,-1.96073905963898,-0.919151614379883,1.193684415507224
6.283738196125908,1.0604409267425499,-1.17996269245148,-0.808980715942383,1.193684415507224
6.284343523002422,0.308404793930054,0.43907051067352304,-0.150350344848633,1.193684415507224
6.284948849878935,0.25092432518005403,0.798323440361023,1.1501452606201201,1.193684415507224
6.285554176755448,-0.223289542007446,1.42581855754852,1.29384643249512,1.193684415507224
6.2861595036319615,-0.584937491226196,1.06656562786102,0.374158932495117,1.193684415507224
6.286764830508475,-0.453211417007446,0.055867385673522896,-0.09526489562988251,1.193684415507224
6.287370157384988,-0.9082651279449461,0.381590041923523,-0.545528567504883,1.193684415507224
6.287975484261501,-0.144253897476196,-0.962015915107727,-0.612589114379883,1.193684415507224
6.288580811138015,0.852074227523804,-1.76913749713898,-0.983817141723633,1.193684415507224
6.289186138014529,0.0952480556488037,0.352849807548523,-0.44972778625488297,1.193684415507224
6.289791464891041,0.516771493148804,0.36003486614227304,0.869927975463867,1.193684415507224
6.290396791767555,0.241344247055054,0.513316116142273,0.716646725463867,1.193684415507224
6.2910021186440686,-0.17538915138244598,1.44976875286102,0.27835815124511704,1.193684415507224
6.291607445520581,-0.0963535068511963,-0.0471184541702271,0.103521725463867,1.193684415507224
6.292212772397094,-0.740613760757446,0.18998847942352298,-0.104844973754883,1.193684415507224
6.2928180992736085,-0.438841299819946,-0.502172165107727,-0.6964147979736329,1.193684415507224
6.293423426150121,0.665262704086304,-2.15952568073273,-1.12751831359863,1.193684415507224
6.294028753026634,0.46168604393005397,0.0750275419235229,-0.9359167510986329,1.193684415507224
6.294634079903148,0.543116707992554,0.549241409111023,0.49869994812011703,1.193684415507224
6.295239406779661,0.454500985336304,0.49894599895477304,1.4064123504638701,1.193684415507224
6.295844733656174,0.0928530361175537,1.32522773723602,0.6208459442138671,1.193684415507224
6.296450060532688,-0.117908682632446,0.00317695598602295,-0.08568481750488251,1.193684415507224
6.297055387409201,-1.3657138584137,-0.0950188447952271,-0.531158450317383,1.193684415507224
6.297660714285715,-1.3393686435699501,-0.195609665107727,-0.971842044067383,1.193684415507224
6.298266041162228,0.296429696273804,-2.19784599323273,-1.1562585479736298,1.193684415507224
6.298871368038741,0.950270028305054,-0.849449997138977,-0.612589114379883,1.193684415507224
6.2994766949152545,0.940689950180054,0.192383498954773,0.201717526245117,1.193684415507224
6.300082021791768,0.583832040023804,0.333689651298523,1.2052307098388702,1.193684415507224
6.300687348668281,-0.42686620216369603,1.53838447551727,0.987283932495117,1.193684415507224
6.301292675544794,-0.412496084976196,0.27860420207977304,0.117891842651367,1.193684415507224
6.301898002421308,-0.982510733413696,-0.0638835908889771,-0.09286987609863251,1.193684415507224
6.302503329297821,-1.1980624912262001,0.0199420927047729,-0.104844973754883,1.193684415507224
6.303108656174334,0.236554207992554,-1.83619804401398,-0.818560794067383,1.193684415507224
6.303713983050847,0.969430184555054,-1.34282402057648,-0.346741946411133,1.193684415507224
6.304319309927362,0.552696786117554,0.39117012004852303,0.33583861999511705,1.193684415507224
6.304924636803874,0.562276864242554,0.582771682548523,0.695091549682617,1.193684415507224
6.305529963680387,-0.26639989356994603,1.24619209270477,0.788497311401367,1.193684415507224
6.3061352905569015,-0.398125967788696,1.13362617473602,0.29751830749511704,1.193684415507224
6.306740617433414,-0.37657079200744603,-0.147709274482727,0.237642819213867,1.193684415507224
6.307345944309927,-0.891499991226196,0.326504592704773,-0.365902102661133,1.193684415507224
6.307951271186441,-0.268794913101196,-0.494987106513977,-0.859276126098633,1.193684415507224
6.308556598062954,0.971825204086304,-1.7906926729202302,-0.758685305786133,1.193684415507224
6.309161924939467,0.346725106430054,0.233098830986023,-0.35153198547363296,1.193684415507224
6.309767251815981,0.485636239242554,0.589956741142273,0.46516967468261705,1.193684415507224
6.310372578692494,0.274874520492554,0.515711135673523,0.869927975463867,1.193684415507224
6.310977905569008,-0.299930167007446,1.42581855754852,0.165792233276367,1.193684415507224
6.311583232445521,-0.14664891700744598,-0.0303533174514771,0.0675964324951175,1.193684415507224
6.312188559322034,-0.867549795913696,0.0774225614547729,0.144237057495117,1.193684415507224
6.3127938861985475,-0.640022940444946,-0.166869430732727,-0.741920169067383,1.193684415507224
6.313399213075061,0.598202157211304,-2.04935478229523,-1.01974243469238,1.193684415507224
6.314004539951574,0.200628915023804,-0.25788017292022697,-0.919151614379883,1.193684415507224
6.3146098668280874,0.447315926742554,0.482180862236023,0.36697387390136704,1.193684415507224
6.3152151937046,0.892789559555054,0.283394241142273,1.4998181121826202,1.193684415507224
6.315820520581115,-0.07000829200744631,1.3228327177047698,0.752572018432617,1.193684415507224
6.316425847457627,-0.0963535068511963,0.0702375028610229,0.290333248901367,1.193684415507224
6.31703117433414,-0.8891049716949461,-0.25548515338897704,-0.140770266723633,1.193684415507224
6.317636501210655,-1.22919774513245,-0.0543035127639771,-1.10117309875488,1.193684415507224
6.318241828087167,0.437735848617554,-2.28406669635773,-1.20415893859863,1.193684415507224
6.31884715496368,0.820938973617554,-0.902140426826477,-0.8736462432861329,1.193684415507224
6.3194524818401945,0.8472841884613039,0.465415725517273,0.232852780151367,1.193684415507224
6.320057808716707,0.9071596767425539,0.316924514579773,1.5429284637451202,1.193684415507224
6.32066313559322,-0.228079581069946,1.24619209270477,0.956148678588867,1.193684415507224
6.321268462469734,-0.321485342788696,0.6234870145797731,0.204112545776367,1.193684415507224
6.321873789346247,-0.771749014663696,0.13011299114227298,-0.140770266723633,1.193684415507224
6.32247911622276,-1.4663046787262002,0.0941876981735229,-0.31081665344238296,1.193684415507224
6.323084443099274,0.0329775478363037,-1.5559807588577301,-1.0532727081298798,1.193684415507224
6.323689769975787,0.871234383773804,-1.6110662080764802,-1.1682336456298799,1.193684415507224
6.324295096852301,0.583832040023804,0.18998847942352298,-0.08568481750488251,1.193684415507224
6.324900423728814,0.698792977523804,0.44865058879852304,0.9609387176513671,1.193684415507224
6.325505750605327,-0.153833975601196,1.1432062528610198,0.7238317840576171,1.193684415507224
6.3261110774818405,-0.759773917007446,1.08812080364227,0.45558959655761705,1.193684415507224
6.326716404358354,-0.244844717788696,-0.19800468463897702,0.5226501434326171,1.193684415507224
6.327321731234867,-0.743008780288696,0.0989777372360229,-0.00664917297363255,1.193684415507224
6.3279270581113805,-0.584937491226196,-0.384816208076477,-0.931126712036133,1.193684415507224
6.328532384987893,0.696397957992554,-1.52724052448273,-1.06045776672363,1.193684415507224
6.329137711864407,0.325169930648804,0.00796699504852295,-0.32997680969238297,1.193684415507224
6.32974303874092,0.509586434555054,0.594746780204773,0.493909909057617,1.193684415507224
6.330348365617433,0.315589852523804,0.19477851848602298,0.893878170776367,1.193684415507224
6.330953692493948,-0.0987485263824463,1.35875801067352,0.362183834838867,1.193684415507224
6.33155901937046,0.0808779384613037,0.182803420829773,0.292728268432617,1.193684415507224
6.332164346246973,-0.565777334976196,-0.272250290107727,0.5226501434326171,1.193684415507224
6.3327696731234875,-0.822044424819946,0.00317695598602295,-0.5575036651611329,1.193684415507224
6.333375,0.662867684555054,-2.32238700885773,-1.3478601104736299,1.193684415507224
6.333980326876513,0.337145028305054,-0.47822196979522696,0.09154662780761749,1.193684415507224
6.334585653753027,0.387440438461304,1.01627021770477,0.422059323120117,1.193684415507224
6.33519098062954,0.674842782211304,0.18040840129852298,0.8627429168701171,1.193684415507224
6.335796307506053,-0.204129385757446,1.1000959012985199,0.6998815887451171,1.193684415507224
6.336401634382567,-0.153833975601196,-0.0806487276077271,0.0316711395263674,1.193684415507224
6.33700696125908,-0.7693539951324461,-0.432716598701477,0.235247799682617,1.193684415507224
6.337612288135594,-1.4543295810699501,0.247468948173523,-0.6365393096923829,1.193684415507224
6.338217615012107,0.0952480556488037,-2.00384941120148,-1.2161340362548798,1.193684415507224
6.33882294188862,0.919134774398804,-1.24223320026398,-0.866461184692383,1.193684415507224
6.3394282687651335,0.641312508773804,0.436675491142273,0.216087643432617,1.193684415507224
6.340033595641647,0.818543954086304,0.223518752861023,1.3752770965576202,1.193684415507224
6.34063892251816,0.00423731346130369,1.08093574504852,0.9824938934326171,1.193684415507224
6.3412442493946735,-0.340645499038696,0.915679397392273,-0.00185913391113255,1.193684415507224
6.341849576271186,-0.642417959976196,-0.0590935518264771,0.0460412567138674,1.193684415507224
6.342454903147701,-1.31541844825745,0.357639846611023,-0.337161868286133,1.193684415507224
6.343060230024213,-0.0963535068511963,-1.30450370807648,-0.899991458129883,1.193684415507224
6.343665556900726,1.01254053611755,-1.64938652057648,-1.16104858703613,1.193684415507224
6.344270883777241,0.751483407211304,0.508526077079773,-0.238966067504883,1.193684415507224
6.344876210653753,0.725138192367554,0.5037360380172731,1.0423693817138702,1.193684415507224
6.345481537530266,0.035372567367553696,0.913284377861023,1.1070349090576201,1.193684415507224
6.3460868644067805,-0.498716788101196,1.41384345989227,0.331048580932617,1.193684415507224
6.346692191283293,-0.271189932632446,0.13490303020477298,0.216087643432617,1.193684415507224
6.347297518159806,-0.872339834976196,0.26902412395477304,-0.0329943878173826,1.193684415507224
6.34790284503632,-0.695108389663696,-0.061488571357727104,-0.8568811065673829,1.193684415507224
6.348508171912833,0.840099129867554,-1.72602714557648,-0.782635501098633,1.193684415507224
6.349113498789346,0.605387215805054,-0.19800468463897702,-0.5958239776611329,1.193684415507224
6.34971882566586,0.320379891586304,0.834248733329773,0.290333248901367,1.193684415507224
6.350324152542373,0.389835457992554,0.26902412395477304,1.10942992858887,1.193684415507224
6.350929479418886,-0.479556631851196,1.2198468778610199,0.206507565307617,1.193684415507224
6.3515348062954,-0.42447118263244604,0.36003486614227304,0.0652014129638675,1.193684415507224
6.352140133171913,-0.517876944351196,-0.130944137763977,0.170582272338867,1.193684415507224
6.3527454600484266,-1.10465672950745,0.336084670829773,-0.43296264953613295,1.193684415507224
6.353350786924939,0.502401375961304,-1.98229423542023,-0.880831301879883,1.193684415507224
6.353956113801453,0.48324121971130396,-0.744069137763977,-0.981422122192383,1.193684415507224
6.3545614406779665,0.346725106430054,0.8246686552047731,0.180162350463867,1.193684415507224
6.355166767554479,0.998170418930054,0.24507392864227298,1.25313110046387,1.193684415507224
6.355772094430993,0.27247950096130397,1.1000959012985199,0.716646725463867,1.193684415507224
6.356377421307506,-0.113118643569946,0.257049026298523,0.0532263153076174,1.193684415507224
6.356982748184019,-0.513086905288696,-0.425531540107727,0.44600951843261705,1.193684415507224
6.357588075060534,-1.3705038974762,0.367219924736023,-0.397037356567383,1.193684415507224
6.358193401937046,-0.261609854507446,-1.73321220417023,-1.2664294464111299,1.193684415507224
6.358798728813559,0.660472665023804,-1.53921562213898,-0.7754504425048829,1.193684415507224
6.3594040556900735,0.717953133773804,0.25225898723602297,0.25680297546386704,1.193684415507224
6.360009382566586,1.0101455165863,0.233098830986023,1.1453552215576202,1.193684415507224
6.360614709443099,-0.101143545913696,1.2198468778610199,0.948963619995117,1.193684415507224
6.361220036319613,-0.577752432632446,0.834248733329773,0.0556213348388674,1.193684415507224
6.361825363196126,-0.333460440444946,-0.171659469795227,0.0412512176513674,1.193684415507224
6.362430690072639,-1.2842831943512,0.285789260673523,-0.198250735473633,1.193684415507224
6.363036016949153,-0.36459569435119604,-0.885375290107727,-0.385062258911133,1.193684415507224
6.363641343825666,0.672447762680054,-1.65178154010773,-0.5958239776611329,1.193684415507224
6.36424667070218,0.7083730556488039,-0.0543035127639771,0.156212155151367,1.193684415507224
6.364851997578692,0.741903329086304,0.47978584270477304,1.2914514129638701,1.193684415507224
6.365457324455206,0.0689028408050537,0.953999709892273,1.04955444030762,1.193684415507224
6.36606265133172,-0.534642081069946,1.3779181669235199,0.165792233276367,1.193684415507224
6.366667978208232,-0.407706045913696,0.0367072294235229,0.0436462371826174,1.193684415507224
6.367273305084746,-0.745403799819946,0.211543655204773,0.577735592651367,1.193684415507224
6.3678786319612595,-0.754983877944946,0.058262405204772896,-0.562293704223633,1.193684415507224
6.368483958837772,0.562276864242554,-1.78350761432648,-1.1634436065673799,1.193684415507224
6.369089285714286,0.655682625961304,-0.22434989948272702,-0.768265383911133,1.193684415507224
6.369694612590799,0.636522469711304,0.807903518486023,0.5202551239013671,1.193684415507224
6.370299939467312,0.504796395492554,0.0606574247360229,0.9202233856201171,1.193684415507224
6.370905266343827,-0.283165030288696,1.09051582317352,-0.052154544067382604,1.193684415507224
6.371510593220339,-0.398125967788696,0.288184280204773,0.113101803588867,1.193684415507224
6.372115920096852,-0.410101065444946,-0.207584762763977,0.216087643432617,1.193684415507224
6.3727212469733665,-0.927425284194946,0.5037360380172731,-0.46170288391113296,1.193684415507224
6.373326573849879,0.485636239242554,-1.92720878620148,-1.21852905578613,1.193684415507224
6.373931900726392,0.641312508773804,-1.00991630573273,-1.35983520812988,1.193684415507224
6.374537227602906,0.24852930564880402,0.9228644559860231,0.0771765106201175,1.193684415507224
6.375142554479419,0.6868178798675539,0.106162795829773,1.46868285827637,1.193684415507224
6.375747881355932,0.0808779384613037,1.0019001005172699,0.807657467651367,1.193684415507224
6.376353208232446,-0.0292929599761963,0.314529495048523,0.0053259246826174505,1.193684415507224
6.376958535108959,-0.467581534194946,-0.506962204170227,0.187347409057617,1.193684415507224
6.377563861985472,-1.4112192295074502,0.44865058879852304,-0.648514407348633,1.193684415507224
6.378169188861985,-0.199339346694946,-1.53682060260773,-1.3095397979736298,1.193684415507224
6.378774515738499,0.650892586898804,-1.54640068073273,-0.804190676879883,1.193684415507224
6.379379842615013,0.677237801742554,0.42949043254852304,-0.121610110473633,1.193684415507224
6.379985169491525,0.979010262680054,0.0702375028610229,1.1190100067138702,1.193684415507224
6.380590496368039,0.205418954086304,0.858198928642273,0.9417785614013671,1.193684415507224
6.3811958232445525,-0.6711581943511961,1.06896064739227,-0.246151126098633,1.193684415507224
6.381801150121065,-0.46518651466369604,-0.0255632783889771,-0.00185913391113255,1.193684415507224
6.382406476997579,-0.980115713882446,0.628277053642273,0.115496823120117,1.193684415507224
6.383011803874092,-0.539432120132446,-0.878190231513977,-0.902386477661133,1.3979529617537256
6.383617130750605,0.631732430648804,-1.82182792682648,-1.4173156768798798,1.3979529617537256
6.38422245762712,0.849679207992554,-0.0040081026077270505,-0.31081665344238296,1.3979529617537256
6.384827784503632,0.734718270492554,0.467810745048523,0.865137936401367,1.3979529617537256
6.385433111380145,0.24373926658630402,0.846223830986023,1.0256042449951202,1.3979529617537256
6.3860384382566595,-0.41489110450744604,1.20068672161102,0.40768920593261704,1.3979529617537256
6.386643765133172,-0.13706883888244598,0.247468948173523,0.115496823120117,1.3979529617537256
6.387249092009685,-0.860364737319946,0.0702375028610229,0.49630492858886704,1.3979529617537256
6.387854418886199,-1.02801610450745,0.18998847942352298,-0.631749270629883,1.3979529617537256
6.388459745762712,0.24852930564880402,-1.37395927448273,-1.35504516906738,1.3979529617537256
6.389065072639225,0.622152352523804,-0.559652633857727,-0.603009036254883,1.3979529617537256
6.389670399515739,0.617362313461304,0.652227248954773,0.38613403015136705,1.3979529617537256
6.390275726392252,0.562276864242554,0.223518752861023,1.16930541687012,1.3979529617537256
6.390881053268766,-0.22089452247619598,1.0234552762985198,0.331048580932617,1.3979529617537256
6.391486380145278,-0.417286124038696,0.436675491142273,0.156212155151367,1.3979529617537256
6.392091707021792,-0.204129385757446,-0.6123430635452269,0.558575436401367,1.3979529617537256
6.392697033898306,-0.872339834976196,0.417515334892273,-0.109635012817383,1.3979529617537256
6.393302360774818,0.265294442367554,-1.74518730182648,-0.7730554229736329,1.3979529617537256
6.393907687651332,0.6077822353363039,-1.30689872760773,-0.277286380004883,1.3979529617537256
6.3945130145278455,0.191048836898804,1.01148017864227,0.27596313171386705,1.3979529617537256
6.395118341404358,0.543116707992554,0.0151520536422729,0.9609387176513671,1.3979529617537256
6.395723668280872,0.123988290023804,1.10967597942352,0.766942135620117,1.3979529617537256
6.396328995157385,-0.252029776382446,0.601931838798523,-0.26291626281738295,1.3979529617537256
6.396934322033898,-0.19215428810119597,-0.648268356513977,0.235247799682617,1.3979529617537256
6.397539648910413,-1.6794614170074502,0.43907051067352304,-0.205435794067383,1.3979529617537256
6.398144975786925,-0.48434667091369604,-1.34042900104523,-1.1347033721923798,1.3979529617537256
6.398750302663438,0.593412118148804,-1.75955741901398,-0.7970056182861329,1.3979529617537256
6.3993556295399525,0.761063485336304,0.19956855754852298,0.146632077026367,1.3979529617537256
6.399960956416465,1.1490566493988,0.146878127861023,1.17409545593262,1.3979529617537256
6.400566283292978,0.0305825283050537,0.8845441434860231,0.9034582489013671,1.3979529617537256
6.401171610169492,-0.417286124038696,0.870174026298523,-0.028204348754882598,1.3979529617537256
6.401776937046005,-0.568172354507446,-0.22913993854522702,0.163397213745117,1.3979529617537256
6.402382263922518,-1.1621371982574502,0.44865058879852304,-0.0689196807861325,1.3979529617537256
6.4029875907990315,-0.781329092788696,-0.463851852607727,-0.866461184692383,1.3979529617537256
6.403592917675545,0.555091805648804,-1.6326213838577301,-1.03411255187988,1.3979529617537256
6.404198244552058,0.775433602523804,-0.035143356513977105,-0.526368411254883,1.3979529617537256
6.404803571428571,0.979010262680054,0.554031448173523,1.00165404968262,1.3979529617537256
6.405408898305085,0.488031258773804,0.755213088798523,1.23636596374512,1.3979529617537256
6.406014225181599,-0.6496030185699461,1.3563629911422699,-0.0737097198486325,1.3979529617537256
6.406619552058111,-0.422076163101196,0.427095413017273,0.0819665496826175,1.3979529617537256
6.407224878934625,-0.723848624038696,-0.039933395576477106,0.34781371765136704,1.3979529617537256
6.4078302058111385,-0.781329092788696,0.321714553642273,-0.497628176879883,1.3979529617537256
6.408435532687651,0.236554207992554,-1.17996269245148,-1.3095397979736298,1.3979529617537256
6.409040859564165,0.581437020492554,-0.746464157295227,-0.543133547973633,1.3979529617537256
6.409646186440678,0.46168604393005397,0.800718459892273,0.481934811401367,1.3979529617537256
6.410251513317191,0.634127450180054,0.257049026298523,0.845977780151367,1.3979529617537256
6.410856840193706,-0.177784170913696,0.877359084892273,0.292728268432617,1.3979529617537256
6.411462167070218,-0.800489249038696,0.771978225517273,-0.234176028442383,1.3979529617537256
6.412067493946731,-0.309510245132446,-0.5716277315139769,0.261593014526367,1.3979529617537256
6.4126728208232455,-1.0519662998199502,0.30973945598602304,-0.547923587036133,1.3979529617537256
6.413278147699758,-0.0340829990386963,-1.61346122760773,-1.2281091339111299,1.3979529617537256
6.413883474576271,0.629337411117554,-1.6326213838577301,-0.902386477661133,1.3979529617537256
6.414488801452785,0.0305825283050537,0.915679397392273,0.206507565307617,1.3979529617537256
6.415094128329298,0.689212899398804,0.113347854423523,1.38246215515137,1.3979529617537256
6.415699455205811,0.104828133773804,0.8845441434860231,0.697486569213867,1.3979529617537256
6.4163047820823245,-0.194549307632446,0.870174026298523,-0.09047485656738251,1.3979529617537256
6.416910108958838,0.00902735252380369,-1.02189140338898,0.240037838745117,1.3979529617537256
6.417515435835352,-1.38247899513245,0.048682327079772894,-0.0737097198486325,1.3979529617537256
6.418120762711864,-0.584937491226196,-1.06260673542023,-1.14428345031738,1.3979529617537256
6.418726089588378,0.6269423915863039,-1.9703191377639802,-1.37660034484863,1.3979529617537256
6.419331416464892,0.600597176742554,0.367219924736023,-0.147955325317383,1.3979529617537256
6.419936743341404,1.15624170799255,0.0438922880172729,1.2052307098388702,1.3979529617537256
6.420542070217918,0.298824715805054,0.534871291923523,0.7813122528076171,1.3979529617537256
6.4211473970944315,-0.498716788101196,1.31085762004852,-0.29405151672363294,1.3979529617537256
6.421752723970944,-0.343040518569946,-0.336915817451477,0.244827877807617,1.3979529617537256
6.422358050847458,-0.9705356357574461,0.285789260673523,0.49869994812011703,1.3979529617537256
6.422963377723971,-0.647207999038696,-0.420741501045227,-0.6341442901611329,1.3979529617537256
6.423568704600484,0.454500985336304,-1.84098808307648,-1.28558960266113,1.3979529617537256
6.424174031476999,0.435340829086304,-0.241115036201477,-0.234176028442383,1.3979529617537256
6.424779358353511,1.1203164150237999,0.446255569267273,0.7214367645263671,1.3979529617537256
6.425384685230024,0.653287606430054,0.613906936454773,1.1118249481201201,1.3979529617537256
6.4259900121065385,-0.534642081069946,1.16715644817352,-0.011439212036132601,1.3979529617537256
6.426595338983051,-0.352620596694946,0.642647170829773,-0.265311282348633,1.3979529617537256
6.427200665859564,-0.680738272476196,0.0391022489547729,0.43882445983886703,1.3979529617537256
6.4278059927360784,-0.9705356357574461,0.36003486614227304,-0.39943237609863297,1.3979529617537256
6.428411319612591,0.18386377830505402,-1.03626152057648,-1.3526501495361298,1.3979529617537256
6.429016646489104,0.696397957992554,-0.789574508857727,-0.705994876098633,1.3979529617537256
6.4296219733656175,0.643707528305054,0.647437209892273,0.434034420776367,1.3979529617537256
6.430227300242131,0.8065688564300539,0.25944404582977304,0.776522213745117,1.3979529617537256
6.430832627118644,-0.0316879795074463,0.795928420829773,0.170582272338867,1.3979529617537256
6.431437953995157,-0.647207999038696,1.03064033489227,-0.183880618286133,1.3979529617537256
6.432043280871671,-0.182574209976196,-0.530912399482727,0.575340573120117,1.3979529617537256
6.432648607748185,-1.0352011631012001,0.0893976591110229,-0.100054934692383,1.3979529617537256
6.433253934624697,-0.249634756851196,-1.25899833698273,-1.12751831359863,1.3979529617537256
6.433859261501211,0.892789559555054,-1.6541765596389801,-1.1945788604736298,1.3979529617537256
6.4344645883777245,0.296429696273804,0.628277053642273,0.0436462371826174,1.3979529617537256
6.435069915254237,0.722743172836304,0.343269729423523,1.2100207489013701,1.3979529617537256
6.435675242130751,0.14793848533630402,0.671387405204773,0.927408444213867,1.3979529617537256
6.436280569007264,-0.371780752944946,0.910889358329773,-0.167115481567383,1.3979529617537256
6.436885895883777,-0.213709463882446,-0.564442672920227,0.08915160827636749,1.3979529617537256
6.437491222760292,-1.39205907325745,-0.0135881807327271,0.129866940307617,1.3979529617537256
6.438096549636804,-0.920240225601196,-0.806339645576477,-0.979027102661133,1.3979529617537256
6.438701876513317,0.696397957992554,-2.00863945026398,-1.68076782531738,1.3979529617537256
6.4393072033898315,0.897579598617554,0.0295221708297729,-0.47128296203613296,1.3979529617537256
6.439912530266344,1.1586367275237999,0.32889961223602304,1.31300658874512,1.3979529617537256
6.440517857142857,0.365885262680054,0.577981643486023,1.0591345184326202,1.3979529617537256
6.441123184019371,-0.369385733413696,1.05459053020477,-0.528763430786133,1.3979529617537256
6.441728510895884,-0.314300284194946,-0.286620407295227,-0.205435794067383,1.3979529617537256
6.442333837772397,-1.10465672950745,0.19477851848602298,0.35499877624511705,1.3979529617537256
6.4429391646489105,-0.922635245132446,-0.145314254951477,-0.43296264953613295,1.3979529617537256
6.443544491525424,0.229369149398804,-1.64699150104523,-1.28558960266113,1.3979529617537256
6.444149818401937,0.552696786117554,-0.420741501045227,-0.603009036254883,1.3979529617537256
6.44475514527845,0.799383797836304,0.443860549736023,0.826817623901367,1.3979529617537256
6.445360472154964,0.6077822353363039,0.714497756767273,1.03997436218262,1.3979529617537256
6.445965799031478,-0.331065420913696,1.15278633098602,0.172977291870117,1.3979529617537256
6.44657112590799,-0.580147452163696,0.697732620048523,-0.253336184692383,1.3979529617537256
6.447176452784504,-0.343040518569946,0.0343122098922729,0.5202551239013671,1.3979529617537256
6.4477817796610175,-0.905870108413696,0.25944404582977304,-0.028204348754882598,1.3979529617537256
6.44838710653753,-0.0221079013824463,-1.12727226276398,-1.34546509094238,1.3979529617537256
6.448992433414044,0.540721688461304,-1.12487724323273,-0.981422122192383,1.3979529617537256
6.449597760290557,0.36349024314880396,0.728867873954773,0.216087643432617,1.3979529617537256
6.45020308716707,0.622152352523804,0.374404983329773,0.8795080535888671,1.3979529617537256
6.450808414043584,0.0257924892425537,0.616301955986023,0.177767330932617,1.3979529617537256
6.451413740920097,-0.733428702163696,0.961184768486023,-0.5167883331298829,1.3979529617537256
6.45201906779661,-0.0580331943511963,-0.360866012763977,0.192137448120117,1.3979529617537256
6.4526243946731245,-0.857969717788696,0.197173538017273,-0.32279175109863295,1.3979529617537256
6.453229721549637,-0.302325186538696,-0.882980270576477,-1.20176391906738,1.3979529617537256
6.45383504842615,0.859259286117554,-1.61825126667023,-0.7970056182861329,1.3979529617537256
6.454440375302664,0.308404793930054,0.601931838798523,0.192137448120117,1.3979529617537256
6.455045702179177,0.8065688564300539,0.36003486614227304,1.21241576843262,1.3979529617537256
6.45565102905569,0.26289942283630396,0.738447952079773,0.834002682495117,1.3979529617537256
6.4562563559322035,-0.448421377944946,1.09291084270477,-0.0808947784423825,1.3979529617537256
6.456861682808717,-0.17059911231994598,-0.583602829170227,0.101126705932617,1.3979529617537256
6.45746700968523,-1.1453720615387002,0.000781936454772948,-0.0473645050048826,1.3979529617537256
6.458072336561743,-1.2124326084137,-0.578812790107727,-0.983817141723633,1.3979529617537256
6.458677663438257,0.485636239242554,-1.86014823932648,-1.62328735656738,1.3979529617537256
6.459282990314771,0.835309090805054,0.0774225614547729,-0.128795169067383,1.3979529617537256
6.459888317191283,1.0772060634612999,0.39117012004852303,1.22439086608887,1.3979529617537256
6.460493644067797,0.435340829086304,0.257049026298523,1.01602416687012,1.3979529617537256
6.4610989709443105,-0.39573094825744604,1.21745185832977,-0.138375247192383,1.3979529617537256
6.461704297820823,-0.527457022476196,-0.0830437471389771,-0.121610110473633,1.3979529617537256
6.462309624697337,-0.539432120132446,-0.0471184541702271,0.532230221557617,1.3979529617537256
6.46291495157385,-0.951375479507446,-0.0135881807327271,-0.610194094848633,1.3979529617537256
6.463520278450363,0.123988290023804,-1.46257499713898,-1.36702026672363,1.3979529617537256
6.464125605326878,0.725138192367554,-0.523727340888977,-0.550318606567383,1.3979529617537256
6.46473093220339,0.761063485336304,0.501341018486023,0.5418102996826171,1.3979529617537256
6.465336259079903,0.794593758773804,0.767188186454773,1.14296020202637,1.3979529617537256
6.465941585956417,-0.515481924819946,1.21026679973602,0.137051998901367,1.3979529617537256
6.46654691283293,-0.582542471694946,0.853408889579773,-0.41140747375488296,1.3979529617537256
6.467152239709443,-0.400520987319946,-0.22913993854522702,0.412479244995117,1.3979529617537256
6.467757566585957,-0.877129874038696,0.257049026298523,-0.0425744659423826,1.3979529617537256
6.46836289346247,-0.0508481357574463,-0.799154586982727,-1.13230835266113,1.3979529617537256
6.468968220338983,0.631732430648804,-1.12248222370148,-0.945496829223633,1.3979529617537256
6.4695735472154965,0.38265039939880396,0.580376663017273,0.0436462371826174,1.3979529617537256
6.47017887409201,0.48324121971130396,0.41991035442352304,0.905853268432617,1.3979529617537256
6.470784200968523,0.428155770492554,0.5851667020797731,0.46756469421386704,1.3979529617537256
6.471389527845036,-0.881919913101196,0.8438288114547731,-0.500023196411133,1.3979529617537256
6.47199485472155,-0.278374991226196,-0.336915817451477,0.158607174682617,1.3979529617537256
6.472600181598064,-0.606492667007446,-0.0758586885452271,0.129866940307617,1.3979529617537256
6.473205508474576,-0.371780752944946,-0.559652633857727,-0.9574719268798829,1.3979529617537256
6.47381083535109,0.641312508773804,-1.7356072237014801,-1.2233190948486299,1.3979529617537256
6.4744161622276035,0.296429696273804,0.386380080986023,-0.09286987609863251,1.3979529617537256
6.475021489104116,0.816148934555054,0.654622268486023,1.32737670593262,1.3979529617537256
6.47562681598063,0.404205575180054,0.42949043254852304,0.812447506713867,1.3979529617537256
6.476232142857143,-0.501111807632446,1.2030817411422698,-0.497628176879883,1.3979529617537256
6.476837469733656,-0.14664891700744598,-0.6937737276077269,0.0652014129638675,1.3979529617537256
6.477442796610169,-0.707083487319946,-0.207584762763977,0.0436462371826174,1.3979529617537256
6.478048123486683,-0.987300772476196,-0.46864189167022696,-1.4771911651611298,1.3979529617537256
6.478653450363196,0.6269423915863039,-2.03498466510773,-1.6735827667236298,1.3979529617537256
6.479258777239709,0.840099129867554,-0.26985527057647696,-0.624564212036133,1.3979529617537256
6.479864104116223,1.1394765712738,0.295369338798523,1.0902697723388701,1.3979529617537256
6.480469430992736,0.480846200180054,0.422305373954773,1.37048705749512,1.3979529617537256
6.48107475786925,-0.460396475601196,1.1599713895797699,-0.107239993286133,1.3979529617537256
6.481680084745763,-0.412496084976196,-0.293805465888977,-0.188670657348633,1.3979529617537256
6.482285411622276,-0.640022940444946,-0.11896904010772699,0.161002194213867,1.3979529617537256
6.4828907384987895,-1.1693222568512,0.0798175809860229,-0.37069214172363296,1.0539919117372933
6.483496065375303,0.14793848533630402,-1.46976005573273,-1.5322766143798798,1.0539919117372933
6.484101392251816,0.5862270595550539,-0.530912399482727,-0.27968139953613297,1.0539919117372933
6.484706719128329,1.05086084861755,0.472600784111023,0.989678952026367,1.0539919117372933
6.485312046004843,0.8257290126800539,0.5061310575485231,1.0854797332763702,1.0539919117372933
6.485917372881357,-0.343040518569946,1.01387519817352,0.141842037963867,1.0539919117372933
6.486522699757869,-0.42686620216369603,0.8031134794235231,-0.478468020629883,1.0539919117372933
6.487128026634383,-0.515481924819946,-0.0590935518264771,0.673536373901367,1.0539919117372933
6.4877333535108965,-0.946585440444946,0.187593459892273,-0.0665246612548825,1.0539919117372933
6.488338680387409,-0.323880362319946,-0.8518450166702269,-1.1083581573486299,1.0539919117372933
6.488944007263923,0.370675301742554,-0.983571090888977,-1.27840454406738,1.0539919117372933
6.489549334140436,0.41139063377380397,0.530081252861023,-0.124005130004883,1.0539919117372933
6.490154661016949,0.634127450180054,0.554031448173523,1.02081420593262,1.0539919117372933
6.490759987893464,0.0736928798675537,0.36961494426727304,0.546600338745117,1.0539919117372933
6.491365314769976,-0.503506827163696,0.9827399442672731,-0.540738528442383,1.0539919117372933
6.491970641646489,-0.31669530372619603,0.0654474637985229,0.175372311401367,1.0539919117372933
6.492575968523002,-0.716663565444946,0.13490303020477298,0.340628659057617,1.0539919117372933
6.493181295399516,-0.261609854507446,-0.602762985420227,-0.899991458129883,1.0539919117372933
6.493786622276029,0.614967293930054,-1.67333671588898,-1.5107214385986298,1.0539919117372933
6.494391949152543,0.47366114158630396,0.357639846611023,-0.416197512817383,1.0539919117372933
6.494997276029056,0.8664443447113039,0.40075019817352303,1.1621203582763702,1.0539919117372933
6.495602602905569,0.416180672836304,0.474995803642273,0.867532955932617,1.0539919117372933
6.4962079297820825,-0.49632176856994603,1.02585029582977,-0.35392700500488294,1.0539919117372933
6.496813256658596,-0.489136709976196,-0.23392997760772702,0.192137448120117,1.0539919117372933
6.497418583535109,-0.745403799819946,-0.250695114326477,0.30949340515136703,1.0539919117372933
6.498023910411622,-1.2459628818512,-0.566837692451477,-1.0317175323486298,1.0539919117372933
6.498629237288136,0.258109383773804,-1.80027275104523,-1.8484191925048798,1.0539919117372933
6.499234564164649,0.9454799892425539,-0.406371383857727,-0.550318606567383,1.0539919117372933
6.499839891041162,1.01254053611755,0.467810745048523,1.04955444030762,1.0539919117372933
6.500445217917676,0.842494149398804,0.44865058879852304,1.15972533874512,1.0539919117372933
6.5010505447941895,-0.30711522560119603,1.0617755887985199,-0.145560305786133,1.0539919117372933
6.501655871670702,-0.33585545997619604,0.0702375028610229,-0.454517825317383,1.0539919117372933
6.502261198547216,-0.6687631748199461,-0.104598922920227,0.546600338745117,1.0539919117372933
6.5028665254237294,-1.3202084873199502,0.24028388957977298,-0.191065676879883,1.0539919117372933
6.503471852300242,-0.103538565444946,-1.1584075166702301,-1.39336548156738,1.0539919117372933
6.504077179176755,0.380255379867554,-0.842264938545227,-1.1514685089111298,1.0539919117372933
6.504682506053269,0.940689950180054,0.5851667020797731,0.656771237182617,1.0539919117372933
6.505287832929782,0.775433602523804,0.700127639579773,1.4710778778076201,1.0539919117372933
6.505893159806295,-0.228079581069946,1.10728095989227,0.38852904968261703,1.0539919117372933
6.506498486682809,-0.525062002944946,0.898914260673523,-0.523973391723633,1.0539919117372933
6.507103813559322,-0.517876944351196,-0.15968437213897702,0.570550534057617,1.0539919117372933
6.507709140435836,-0.7286386631011961,0.288184280204773,0.120286862182617,1.0539919117372933
6.508314467312349,-0.539432120132446,-0.581207809638977,-1.0963830596923798,1.0539919117372933
6.508919794188862,0.289244637680054,-1.0554216768264801,-1.39815552062988,1.0539919117372933
6.5095251210653755,0.444920907211304,0.48936592082977304,-0.167115481567383,1.0539919117372933
6.510130447941889,0.864049325180054,0.436675491142273,1.4231774871826202,1.0539919117372933
6.510735774818402,0.428155770492554,0.26902412395477304,0.747781979370117,1.0539919117372933
6.511341101694915,-0.654393057632446,1.16236640911102,-0.586243899536133,1.0539919117372933
6.511946428571429,-0.508296866226196,0.216333694267273,-0.00664917297363255,1.0539919117372933
6.512551755447943,-0.881919913101196,0.0438922880172729,0.6591662567138671,1.0539919117372933
6.513157082324455,-0.618467764663696,-0.336915817451477,-0.684439700317383,1.0539919117372933
6.513762409200969,0.399415536117554,-1.8553582002639801,-1.1035681182861299,1.0539919117372933
6.5143677360774825,0.310799813461304,-0.15489433307647701,0.27596313171386705,1.0539919117372933
6.514973062953995,0.679632821273804,0.671387405204773,1.1669103973388701,1.0539919117372933
6.515578389830508,0.315589852523804,0.5061310575485231,0.989678952026367,1.0539919117372933
6.5161837167070225,-0.268794913101196,1.19350166301727,-0.164720462036133,1.0539919117372933
6.516789043583535,-0.213709463882446,-0.0782537080764771,-0.124005130004883,1.0539919117372933
6.517394370460048,-0.5705673740386961,-0.37763114948272697,0.434034420776367,1.0539919117372933
6.517999697336562,-1.27230809669495,-0.0279582979202271,-0.981422122192383,1.0539919117372933
6.518605024213075,0.0138173915863037,-1.82661796588898,-1.5658068878173799,1.0539919117372933
6.519210351089588,0.837704110336304,-0.626713180732727,-0.7970056182861329,1.0539919117372933
6.519815677966102,1.1777968837738,0.434280471611023,0.690301510620117,1.0539919117372933
6.520421004842615,0.935899911117554,0.053472366142272895,1.5046081512451202,1.0539919117372933
6.521026331719129,-0.40531102638244604,1.19589668254852,0.0268811004638674,1.0539919117372933
6.521631658595642,-0.48674169044494603,0.192383498954773,-0.6149841339111329,1.0539919117372933
6.522236985472155,-0.283165030288696,-0.415951461982727,0.41726928405761704,1.0539919117372933
6.5228423123486685,-1.0807065341949502,-0.0471184541702271,0.08915160827636749,1.0539919117372933
6.523447639225182,-0.264004874038696,-1.2134929658889801,-1.3789953643798798,1.0539919117372933
6.524052966101695,0.444920907211304,-1.11050712604523,-1.29516968078613,1.0539919117372933
6.524658292978208,0.794593758773804,0.314529495048523,0.362183834838867,1.0539919117372933
6.525263619854722,0.842494149398804,0.635462112236023,1.35611694030762,1.0539919117372933
6.525868946731235,-0.0795883701324463,0.788743362236023,0.161002194213867,1.0539919117372933
6.526474273607748,-0.412496084976196,0.6857575223922731,-0.44972778625488297,1.0539919117372933
6.527079600484262,-0.323880362319946,-0.262670211982727,0.618450924682617,1.0539919117372933
6.5276849273607755,-0.711873526382446,0.110952834892273,0.129866940307617,1.0539919117372933
6.528290254237288,-0.778934073257446,-0.504567184638977,-1.00297729797363,1.0539919117372933
6.528895581113801,0.16709864158630403,-0.756044235420227,-1.20415893859863,1.0539919117372933
6.5295009079903155,0.516771493148804,0.38877510051727304,-0.00664917297363255,1.0539919117372933
6.530106234866828,0.928714852523804,0.36961494426727304,1.1669103973388701,1.0539919117372933
6.530711561743341,0.408995614242554,0.314529495048523,0.5825256317138671,1.0539919117372933
6.531316888619855,-0.37657079200744603,0.951604690361023,-0.519183352661133,1.0539919117372933
6.531922215496368,-0.378965811538696,0.0989777372360229,-0.08568481750488251,1.0539919117372933
6.532527542372881,-0.640022940444946,-0.11417900104522699,0.47474975280761705,1.0539919117372933
6.533132869249395,-0.896290030288696,-0.241115036201477,-0.40182739562988296,1.0539919117372933
6.533738196125908,0.29163965721130397,-1.57993095417023,-1.46521606750488,1.0539919117372933
6.534343523002422,0.533536629867554,-0.0806487276077271,-0.550318606567383,1.0539919117372933
6.534948849878935,0.574251961898804,0.712102737236023,1.00644408874512,1.0539919117372933
6.535554176755448,0.614967293930054,0.24028388957977298,1.2004406707763702,1.0539919117372933
6.5361595036319615,-0.40531102638244604,0.877359084892273,-0.219805911254883,1.0539919117372933
6.536764830508475,-0.383755850601196,-0.00879814167022705,-0.34913696594238297,1.0539919117372933
6.537370157384988,-0.6711581943511961,-0.44708671588897697,0.7214367645263671,1.0539919117372933
6.537975484261501,-1.11423680763245,-0.06867362995147709,-0.6149841339111329,1.0539919117372933
6.538580811138015,-0.0724033115386963,-1.71884208698273,-1.3861804229736299,1.0539919117372933
6.539186138014529,0.7466933681488039,-0.722513961982727,-0.6365393096923829,1.0539919117372933
6.539791464891041,1.1346865322112998,0.30973945598602304,0.668746334838867,1.0539919117372933
6.540396791767554,0.928714852523804,0.197173538017273,1.65549438171387,1.0539919117372933
6.5410021186440686,0.0784829189300537,1.17913154582977,0.29751830749511704,1.0539919117372933
6.541607445520581,-0.26639989356994603,-0.032748336982727104,-0.425777590942383,1.0539919117372933
6.542212772397094,-0.328670401382446,-0.430321579170227,0.572945553588867,1.0539919117372933
6.5428180992736085,-1.0495712802887,0.33847969036102304,0.434034420776367,1.0539919117372933
6.543423426150121,-0.115513663101196,-0.976386032295227,-1.23050415344238,1.0539919117372933
6.544028753026634,0.36349024314880396,-0.942855758857727,-1.17062866516113,1.0539919117372933
6.544634079903148,0.734718270492554,0.27860420207977304,0.6040808074951171,1.0539919117372933
6.545239406779661,0.962245125961304,0.297764358329773,1.6411242645263702,1.0539919117372933
6.545844733656174,0.00902735252380369,0.872569045829773,0.675931393432617,1.0539919117372933
6.546450060532688,-0.472371573257446,0.9228644559860231,-0.729945071411133,1.0539919117372933
6.547055387409201,-0.31669530372619603,-0.19800468463897702,0.587315670776367,1.0539919117372933
6.547660714285715,-0.580147452163696,0.18998847942352298,0.6400061004638671,1.0539919117372933
6.548266041162228,-0.525062002944946,-0.277040329170227,-0.8736462432861329,1.0539919117372933
6.548871368038741,-0.0388730381011963,-0.796759567451477,-1.30235473937988,1.0539919117372933
6.5494766949152545,0.14314844627380402,0.12292793254852301,-0.0425744659423826,1.0539919117372933
6.550082021791768,1.1370815517425499,0.537266311454773,1.56208861999512,1.0539919117372933
6.550687348668281,0.519166512680054,0.491760940361023,1.0591345184326202,1.0539919117372933
6.551292675544794,-0.544222159194946,0.760003127861023,-0.686834719848633,1.0539919117372933
6.551898002421308,-0.651998038101196,0.38877510051727304,-0.267706301879883,1.0539919117372933
6.552503329297821,-0.453211417007446,-0.0471184541702271,0.644796139526367,1.0539919117372933
6.553108656174334,-0.417286124038696,-0.351285934638977,-0.358717044067383,1.0539919117372933
6.553713983050847,0.16230860252380402,-1.6158562471389801,-1.60652221984863,1.0539919117372933
6.554319309927362,0.47366114158630396,-0.24830009479522702,-0.612589114379883,1.0539919117372933
6.554924636803874,0.844889168930054,0.678572463798523,0.934593502807617,1.0539919117372933
6.555529963680387,0.909554696273804,0.431885452079773,1.1357751434326202,1.0539919117372933
6.5561352905569015,-0.182574209976196,0.870174026298523,0.0053259246826174505,1.0539919117372933
6.556740617433414,-0.259214834976196,-0.0495134737014771,-0.603009036254883,1.0539919117372933
6.557345944309927,-0.572962393569946,-0.33931083698272696,0.48911986999511703,1.0539919117372933
6.557951271186441,-1.1717172763824502,-0.26746025104522697,-0.6149841339111329,1.0539919117372933
6.558556598062954,0.13835840721130402,-1.56077079792023,-1.70471802062988,1.0539919117372933
6.559161924939467,0.832914071273804,-0.827894821357727,-0.9957922393798829,1.0539919117372933
6.559767251815981,1.2592275478363,0.427095413017273,0.824422604370117,1.0539919117372933
6.560372578692494,0.890394540023804,0.580376663017273,1.4830529754638702,1.0539919117372933
6.560977905569008,-0.237659659194946,0.839038772392273,0.0771765106201175,1.0539919117372933
6.561583232445521,-0.678343252944946,0.142088088798523,-0.38985229797363297,1.0539919117372933
6.562188559322034,-0.673553213882446,-0.346495895576477,0.42445434265136706,1.0539919117372933
6.5627938861985475,-1.01843602638245,-0.0016130830764770501,0.129866940307617,1.0539919117372933
6.563399213075061,-0.29514012794494604,-0.882980270576477,-0.878436282348633,1.0539919117372933
6.564004539951574,0.315589852523804,-1.02189140338898,-1.26403442687988,1.0539919117372933
6.5646098668280874,0.756273446273804,0.31931953411102304,0.182557369995117,1.0539919117372933
6.565215193704601,1.0388857509612999,0.542056350517273,1.4782629364013702,1.0539919117372933
6.565820520581115,0.231764168930054,0.819878616142273,0.493909909057617,1.0539919117372933
6.566425847457627,-0.520271963882446,1.02585029582977,-0.6533044464111329,1.0539919117372933
6.56703117433414,-0.30711522560119603,-0.00879814167022705,-0.167115481567383,1.0539919117372933
6.567636501210655,-0.735823721694946,0.0965827177047729,0.651981198120117,1.0539919117372933
6.568241828087167,-0.7286386631011961,-0.212374801826477,-0.682044680786133,1.0539919117372933
6.56884715496368,0.315589852523804,-0.9332756807327269,-1.9298498565673798,1.0539919117372933
6.5694524818401945,0.107223153305054,0.022337112236022902,-0.5167883331298829,1.0539919117372933
6.570057808716707,0.921529793930054,0.551636428642273,1.15254028015137,1.0539919117372933
6.57066313559322,0.286849618148804,0.372009963798523,0.975308834838867,1.0539919117372933
6.571268462469734,-0.431656241226196,0.867779006767273,-0.224595950317383,1.0539919117372933
6.571873789346247,-0.558592276382446,0.35045478801727303,-0.0617346221923826,1.0539919117372933
6.57247911622276,-0.596912588882446,-0.04472343463897711,0.6639562957763671,1.0539919117372933
6.573084443099274,-0.707083487319946,-0.13812919635772702,-0.157535403442383,1.0539919117372933
6.573689769975787,0.210208993148804,-1.54640068073273,-1.5538317901611298,1.0539919117372933
6.5742950968523,0.394625497055054,-0.372841110420227,-1.0221374542236301,1.0539919117372933
6.574900423728814,0.612572274398804,0.640252151298523,0.807657467651367,1.0539919117372933
6.575505750605327,0.897579598617554,0.573191604423523,1.31300658874512,1.0539919117372933
6.5761110774818405,-0.22089452247619598,0.956394729423523,0.019696041870117403,1.0539919117372933
6.576716404358354,-0.371780752944946,0.209148635673523,-0.5551086456298829,1.0539919117372933
6.577321731234867,-0.247239737319946,-0.28901542682647696,0.491514889526367,1.0539919117372933
6.5779270581113805,-1.0495712802887,-0.43750663776397697,-0.140770266723633,1.0539919117372933
6.578532384987893,-0.0604282138824463,-1.41227958698273,-1.38139038391113,1.0539919117372933
6.579137711864407,0.543116707992554,-1.0769768526077301,-1.13709839172363,1.0539919117372933
6.57974303874092,1.0915761806487998,0.427095413017273,0.671141354370117,1.0539919117372933
6.580348365617433,0.935899911117554,0.558821487236023,1.34893188171387,1.0539919117372933
6.580953692493948,-0.199339346694946,0.628277053642273,0.290333248901367,1.0539919117372933
6.58155901937046,-0.520271963882446,0.443860549736023,-0.48086304016113296,1.0539919117372933
6.582164346246973,-0.280770010757446,-0.26985527057647696,0.134656979370117,1.0539919117372933
6.5827696731234875,-0.8891049716949461,-0.0782537080764771,0.43882445983886703,1.0196065485395502
6.583375,-0.623257803726196,-0.897350387763977,-0.7946105987548829,1.0196065485395502
6.583980326876513,0.19823389549255402,-0.815919723701477,-1.45803100891113,1.0196065485395502
6.584585653753027,0.631732430648804,0.237888870048523,0.141842037963867,1.0196065485395502
6.58519098062954,0.895184579086304,0.405540237236023,1.3680920379638701,1.0196065485395502
6.585796307506053,0.35151514549255397,0.630672073173523,0.37894897155761703,1.0196065485395502
6.586401634382567,-0.30472020606994604,0.997110061454773,-0.583848880004883,1.0196065485395502
6.58700696125908,-0.577752432632446,0.146878127861023,0.137051998901367,1.0196065485395502
6.587612288135594,-0.481951651382446,0.0247321317672729,0.786102291870117,1.0196065485395502
6.588217615012107,-0.546617178726196,-0.207584762763977,-0.591033938598633,1.0196065485395502
6.58882294188862,0.169493661117554,-1.04584159870148,-1.4724011260986298,1.0196065485395502
6.5894282687651335,-0.0987485263824463,0.0103620145797729,-0.42338257141113295,1.0196065485395502
6.590033595641647,0.981405282211304,0.659412307548523,0.984888912963867,1.0196065485395502
6.59063892251816,0.564671883773804,0.297764358329773,1.04476440124512,1.0196065485395502
6.5912442493946735,-0.357410635757446,0.939629592704773,-0.36111206359863296,1.0196065485395502
6.591849576271186,-0.517876944351196,0.434280471611023,-0.250941165161133,1.0196065485395502
6.592454903147701,-0.477161612319946,-0.296200485420227,0.5442053192138671,1.0196065485395502
6.593060230024213,-0.7885141513824461,-0.104598922920227,-0.267706301879883,1.0196065485395502
6.593665556900726,-0.0532431552886963,-1.50329032917023,-1.0915930206298798,1.0196065485395502
6.594270883777241,0.41378565330505396,-0.6530583955764769,-0.938311770629883,1.0196065485395502
6.594876210653753,0.619757332992554,0.48936592082977304,0.726226803588867,1.0196065485395502
6.595481537530266,0.7658535243988039,0.29057929973602303,1.4231774871826202,1.0196065485395502
6.5960868644067805,-0.0268979404449463,0.831853713798523,0.261593014526367,1.0196065485395502
6.596692191283293,-0.398125967788696,0.304949416923523,-0.425777590942383,1.0196065485395502
6.597297518159806,-0.568172354507446,-0.535702438545227,0.28793822937011704,1.0196065485395502
6.59790284503632,-1.0256210849762002,-0.0758586885452271,-0.0401794464111326,1.0196065485395502
6.598508171912833,-0.18017919044494599,-1.42904472370148,-1.59933716125488,1.0196065485395502
6.599113498789346,0.614967293930054,-1.35958915729523,-1.08201294250488,1.0196065485395502
6.59971882566586,0.928714852523804,0.142088088798523,0.374158932495117,1.0196065485395502
6.600324152542373,0.9670351650238039,0.30973945598602304,1.2818713348388702,1.0196065485395502
6.600929479418886,0.22218409080505402,0.716892776298523,0.472354733276367,1.0196065485395502
6.6015348062954,-0.5490121982574461,0.417515334892273,-0.40182739562988296,1.0196065485395502
6.602140133171913,-0.503506827163696,-0.19321464557647702,0.374158932495117,1.0196065485395502
6.6027454600484266,-0.8292294834136961,0.0870026395797729,0.0963366668701175,1.0196065485395502
6.60335078692494,-0.469976553726196,-0.703353805732727,-0.8329309112548829,1.0196065485395502
6.603956113801453,0.116803231430054,-1.01470634479523,-1.3191198760986298,1.0196065485395502
6.6045614406779665,0.41378565330505396,0.137298049736023,0.206507565307617,1.0196065485395502
6.605166767554479,0.9071596767425539,0.496550979423523,1.4710778778076201,1.0196065485395502
6.605772094430993,0.514376473617554,0.671387405204773,0.668746334838867,1.0196065485395502
6.606377421307506,-0.541827139663696,1.02585029582977,-0.5575036651611329,1.0196065485395502
6.606982748184019,-0.438841299819946,0.173223342704773,-0.31081665344238296,1.0196065485395502
6.607588075060534,-0.40531102638244604,-0.25548515338897704,0.764547116088867,1.0196065485395502
6.608193401937046,-0.6903183506011961,-0.236324997138977,-0.394642337036133,1.0196065485395502
6.608798728813559,0.107223153305054,-0.973991012763977,-1.50353638000488,1.0196065485395502
6.6094040556900735,0.0665078212738037,-0.00640312213897705,-0.739525149536133,1.0196065485395502
6.610009382566586,0.914344735336304,0.422305373954773,1.2004406707763702,1.0196065485395502
6.610614709443099,0.758668465805054,0.209148635673523,1.31779662780762,1.0196065485395502
6.611220036319613,-0.273584952163696,1.0569855497360199,-0.365902102661133,1.0196065485395502
6.611825363196126,-0.778934073257446,0.446255569267273,-0.679649661254883,1.0196065485395502
6.612430690072639,-0.400520987319946,-0.04472343463897711,0.42684936218261704,1.0196065485395502
6.613036016949153,-0.759773917007446,-0.0950188447952271,0.194532467651367,1.0196065485395502
6.613641343825666,-0.0724033115386963,-1.51047538776398,-1.2831945831298799,1.0196065485395502
6.61424667070218,0.337145028305054,-0.705748825263977,-1.0915930206298798,1.0196065485395502
6.614851997578692,0.696397957992554,0.549241409111023,0.290333248901367,1.0196065485395502
6.615457324455206,0.919134774398804,0.6234870145797731,1.3369567840576202,1.0196065485395502
6.61606265133172,0.0617177822113037,0.831853713798523,0.28793822937011704,1.0196065485395502
6.616667978208233,-0.560987295913696,0.24986396770477298,-0.545528567504883,1.0196065485395502
6.617273305084746,-0.697503409194946,-0.32973075885772696,0.402899166870117,1.0196065485395502
6.6178786319612595,-1.1070517490387002,-0.186029586982727,-0.43056763000488296,1.0196065485395502
6.618483958837772,-0.213709463882446,-1.36916923542023,-1.4987463409423798,1.0196065485395502
6.619089285714287,0.614967293930054,-1.38832939167023,-1.01016235656738,1.0196065485395502
6.619694612590799,0.849679207992554,0.163643264579773,0.180162350463867,1.0196065485395502
6.620299939467312,0.928714852523804,0.41991035442352304,1.59322387390137,1.0196065485395502
6.620905266343826,0.123988290023804,0.870174026298523,0.7789172332763671,1.0196065485395502
6.621510593220339,-0.628047842788696,0.5851667020797731,-0.622169192504883,1.0196065485395502
6.622115920096852,-0.218499502944946,-0.22913993854522702,0.149027096557617,1.0196065485395502
6.6227212469733665,-0.6088876865386961,-0.06867362995147709,0.731016842651367,1.0196065485395502
6.623326573849879,-0.5490121982574461,-0.609948044013977,-0.5982189971923829,1.0196065485395502
6.623931900726392,0.205418954086304,-0.7536492158889769,-1.72627319641113,1.0196065485395502
6.624537227602906,0.478451180648804,0.046287307548522894,0.00772094421386745,1.0196065485395502
6.625142554479419,1.0101455165863,0.453440627861023,1.4495227020263701,1.0196065485395502
6.625747881355932,0.420970711898804,0.494155959892273,0.7429919403076171,1.0196065485395502
6.626353208232446,-0.568172354507446,0.898914260673523,-0.6173791534423829,1.0196065485395502
6.626958535108959,-0.534642081069946,0.146878127861023,-0.29165649719238296,1.0196065485395502
6.627563861985472,-0.489136709976196,0.18040840129852298,0.977703854370117,1.0196065485395502
6.628169188861985,-0.541827139663696,0.058262405204772896,-0.267706301879883,1.0196065485395502
6.628774515738499,0.0641128017425537,-1.18235771198273,-1.35025513000488,1.0196065485395502
6.629379842615013,-0.23526463966369598,-0.11417900104522699,-0.6149841339111329,1.0196065485395502
6.629985169491525,0.550301766586304,0.609116897392273,1.0519494598388701,1.0196065485395502
6.630590496368039,0.495216317367554,0.173223342704773,1.14775024108887,1.0196065485395502
6.6311958232445525,-0.19694432716369598,0.537266311454773,-0.521578372192383,1.0196065485395502
6.631801150121065,-0.5705673740386961,0.472600784111023,-0.41380249328613294,1.0196065485395502
6.632406476997579,-0.30472020606994604,-0.277040329170227,0.517860104370117,1.0196065485395502
6.633011803874092,-0.575357413101196,0.00557197551727295,-0.138375247192383,1.0196065485395502
6.633617130750605,-0.242449698257446,-1.05781669635773,-0.899991458129883,1.0196065485395502
6.63422245762712,0.0425576259613037,-0.923695602607727,-0.820955813598633,1.0196065485395502
6.634827784503632,0.555091805648804,0.412725295829773,0.568155514526367,1.0196065485395502
6.635433111380145,1.0053554775238,0.364824905204773,1.7991955535888702,1.0196065485395502
6.6360384382566595,0.289244637680054,0.748028030204773,0.36697387390136704,1.0196065485395502
6.636643765133172,-0.45560643653869604,0.441465530204773,-0.418592532348633,1.0196065485395502
6.637249092009685,-0.553802237319946,-0.5716277315139769,0.249617916870117,1.0196065485395502
6.637854418886199,-1.02322606544495,-0.25548515338897704,-0.011439212036132601,1.0196065485395502
6.638459745762712,-0.362200674819946,-1.17277763385773,-1.32151489562988,1.0196065485395502
6.639065072639225,0.591017098617554,-1.2733684541702301,-1.4388708526611298,1.0196065485395502
6.6396703995157385,0.775433602523804,0.242678909111023,0.117891842651367,1.0196065485395502
6.640275726392252,1.03649073143005,0.273814163017273,1.4878430145263701,1.0196065485395502
6.640881053268766,0.255714364242554,0.6043268583297731,0.7837072723388671,1.0196065485395502
6.641486380145279,-0.843599600601196,0.697732620048523,-0.643724368286133,1.0196065485395502
6.642091707021792,-0.517876944351196,-0.0566985322952271,0.08915160827636749,1.0196065485395502
6.642697033898306,-0.5106918857574461,-0.0183782197952271,0.8986682098388671,1.0196065485395502
6.643302360774818,-0.481951651382446,-0.49738212604522697,-0.622169192504883,1.0196065485395502
6.643907687651332,0.308404793930054,-1.13445732135773,-1.76459350891113,1.0196065485395502
6.6445130145278455,0.466476082992554,-0.032748336982727104,-0.188670657348633,1.0196065485395502
6.645118341404358,0.837704110336304,0.575586623954773,1.4016223114013702,1.0196065485395502
6.645723668280873,0.631732430648804,0.534871291923523,1.19086059265137,1.0196065485395502
6.646328995157385,-0.575357413101196,1.02824531536102,-0.605404055786133,1.0196065485395502
6.646934322033898,-0.393335928726196,0.228308791923523,-0.33237182922363295,1.0196065485395502
6.647539648910412,-0.139463858413696,-0.0303533174514771,0.927408444213867,1.0196065485395502
6.648144975786925,-0.8483896396636961,0.110952834892273,0.0460412567138674,1.0196065485395502
6.648750302663438,-0.103538565444946,-0.847054977607727,-1.44366089172363,1.0196065485395502
6.6493556295399525,-0.13227879981994597,-0.13812919635772702,-1.03890259094238,1.0196065485395502
6.649960956416465,0.650892586898804,0.534871291923523,0.853162838745117,1.0196065485395502
6.650566283292978,0.7466933681488039,0.156458205986023,1.14775024108887,1.0196065485395502
6.651171610169492,-0.105933584976196,0.616301955986023,-0.226990969848633,1.0196065485395502
6.651776937046005,-0.6088876865386961,0.575586623954773,-0.559898684692383,1.0196065485395502
6.652382263922518,-0.472371573257446,-0.039933395576477106,0.6040808074951171,1.0196065485395502
6.6529875907990315,-0.577752432632446,-0.142919235420227,0.196927487182617,1.0196065485395502
6.653592917675545,-0.26639989356994603,-1.41946464557648,-1.2065539581298799,1.0196065485395502
6.654198244552058,0.420970711898804,-1.0171013643264801,-1.2544543487548798,1.0196065485395502
6.654803571428572,0.617362313461304,0.587561721611023,0.5609704559326171,1.0196065485395502
6.655408898305085,0.9861953212738039,0.372009963798523,1.70818481140137,1.0196065485395502
6.656014225181599,0.186258797836304,0.518106155204773,0.48911986999511703,1.0196065485395502
6.656619552058111,-0.616072745132446,0.678572463798523,-0.5575036651611329,1.0196065485395502
6.657224878934625,-0.513086905288696,-0.607553024482727,0.129866940307617,1.0196065485395502
6.6578302058111385,-0.980115713882446,-0.310570602607727,0.0460412567138674,1.0196065485395502
6.658435532687651,-0.458001456069946,-0.839869919013977,-1.25205932922363,1.0196065485395502
6.659040859564165,0.38265039939880396,-1.45538993854523,-1.3957605010986298,1.0196065485395502
6.659646186440678,0.974220223617554,0.127717971611023,0.08915160827636749,1.0196065485395502
6.660251513317191,1.0053554775238,0.218728713798523,1.57166869812012,1.0196065485395502
6.660856840193706,0.219789071273804,0.6450421903610231,1.00644408874512,1.0196065485395502
6.661462167070218,-0.637627920913696,0.726472854423523,-0.38985229797363297,1.0196065485395502
6.662067493946731,-0.328670401382446,-0.33931083698272696,0.060411373901367395,1.0196065485395502
6.6626728208232455,-0.7310336826324461,-0.22434989948272702,0.644796139526367,1.0196065485395502
6.663278147699758,-0.867549795913696,-0.5740227510452269,-0.607799075317383,1.0196065485395502
6.663883474576271,0.102433114242554,-1.29971366901398,-1.0532727081298798,1.0196065485395502
6.664488801452785,0.650892586898804,-0.11178398151397699,0.184952389526367,1.0196065485395502
6.665094128329298,1.0317006923675498,0.666597366142273,1.3417468231201202,1.0196065485395502
6.665699455205811,0.476056161117554,0.374404983329773,1.00644408874512,1.0196065485395502
6.6663047820823245,-0.35501561622619604,1.09291084270477,-0.6173791534423829,1.0196065485395502
6.666910108958838,-0.532247061538696,0.333689651298523,-0.0761047393798825,1.0196065485395502
6.667515435835352,-0.36699071388244603,0.000781936454772948,0.910643307495117,1.0196065485395502
6.668120762711864,-0.898685049819946,0.12292793254852301,0.0795715301513675,1.0196065485395502
6.668726089588378,-0.297535147476196,-0.866215133857727,-1.26163940734863,1.0196065485395502
6.669331416464892,0.0114223720550537,-0.272250290107727,-0.971842044067383,1.0196065485395502
6.669936743341404,0.576646981430054,0.522896194267273,0.793287350463867,1.0196065485395502
6.670542070217918,0.763458504867554,0.254654006767273,1.25313110046387,1.0196065485395502
6.6711473970944315,-0.0915634677886963,0.697732620048523,0.0149060028076174,1.0196065485395502
6.671752723970944,-0.697503409194946,0.496550979423523,-0.519183352661133,1.0196065485395502
6.672358050847458,-0.422076163101196,-0.23872001667022702,0.453194577026367,1.0196065485395502
6.672963377723971,-0.699898428726196,-0.032748336982727104,0.129866940307617,1.0196065485395502
6.673568704600484,-0.12509374122619601,-1.16798759479523,-1.0365075714111298,1.0196065485395502
6.674174031476998,0.29403467674255396,-0.9524358369827269,-1.18020874328613,1.0196065485395502
6.674779358353511,0.440130868148804,0.34087470989227303,0.225667721557617,1.0196065485395502
6.675384685230024,0.921529793930054,0.539661330986023,1.5596936004638702,1.0196065485395502
6.6759900121065385,0.265294442367554,0.628277053642273,0.731016842651367,1.0196065485395502
6.676595338983051,-0.577752432632446,0.465415725517273,-0.43056763000488296,1.0196065485395502
6.677200665859564,-0.654393057632446,-0.363261032295227,0.247222897338867,1.0196065485395502
6.677805992736078,-0.965745596694946,-0.195609665107727,0.103521725463867,1.0196065485395502
6.678411319612591,-0.36699071388244603,-1.13445732135773,-1.17541870422363,1.0196065485395502
6.679016646489104,0.5263515712738039,-1.4362297822952301,-1.59454712219238,1.0196065485395502
6.6796219733656175,0.9454799892425539,0.115742873954773,0.168187252807617,1.0196065485395502
6.680227300242131,0.899974618148804,0.477390823173523,1.4878430145263701,1.0196065485395502
6.680832627118644,0.394625497055054,0.740842971611023,0.453194577026367,1.0196065485395502
6.681437953995157,-0.412496084976196,0.819878616142273,-0.466492922973633,1.0196065485395502
6.682043280871671,-0.479556631851196,0.0870026395797729,-0.0665246612548825,1.0196065485395502
6.682648607748185,-0.743008780288696,-0.18363456745147702,0.697486569213867,1.0196065485395502
6.683253934624697,-0.814859366226196,-0.451876754951477,-0.497628176879883,1.307236872542951
6.683859261501211,0.112013192367554,-1.19912284870148,-1.7166931182861298,1.307236872542951
6.6844645883777245,0.6461025478363039,-0.250695114326477,-0.325186770629883,1.307236872542951
6.685069915254237,0.9670351650238039,0.712102737236023,0.996864010620117,1.307236872542951
6.685675242130751,0.600597176742554,0.522896194267273,1.0471594207763701,1.307236872542951
6.686280569007264,-0.48434667091369604,1.05938056926727,-0.26052124328613296,1.307236872542951
6.686885895883777,-0.501111807632446,0.47978584270477304,-0.250941165161133,1.307236872542951
6.687491222760292,0.00184229393005369,-0.403976364326477,1.02799926452637,1.307236872542951
6.688096549636804,-0.704688467788696,-0.12136405963897699,0.0460412567138674,1.307236872542951
6.688701876513317,-0.15622899513244598,-0.765624313545227,-1.36223022766113,1.307236872542951
6.6893072033898315,0.0401626064300537,-0.26027519245147696,-1.00537231750488,1.307236872542951
6.689912530266344,0.794593758773804,0.573191604423523,0.793287350463867,1.307236872542951
6.690517857142857,0.864049325180054,0.30015937786102304,1.4782629364013702,1.307236872542951
6.691123184019371,0.0665078212738037,0.597141799736023,-0.025809329223632597,1.307236872542951
6.691728510895884,-0.656788077163696,0.657017288017273,-0.581453860473633,1.307236872542951
6.692333837772397,-0.40531102638244604,-0.0279582979202271,0.362183834838867,1.307236872542951
6.6929391646489105,-0.577752432632446,0.19956855754852298,0.115496823120117,1.307236872542951
6.693544491525424,-0.15143895606994598,-1.05063163776398,-1.21852905578613,1.307236872542951
6.694149818401938,0.289244637680054,-1.28773857135773,-0.943101809692383,1.307236872542951
6.69475514527845,0.466476082992554,0.38877510051727304,0.630426022338867,1.307236872542951
6.695360472154964,0.8257290126800539,0.518106155204773,1.20762572937012,1.307236872542951
6.695965799031477,0.14793848533630402,0.769583205986023,0.48672485046386704,1.307236872542951
6.69657112590799,-0.40531102638244604,0.676177444267273,-0.38985229797363297,1.307236872542951
6.697176452784504,-0.563382315444946,-0.300990524482727,0.105916744995117,1.307236872542951
6.6977817796610175,-0.913055167007446,-0.25788017292022697,-0.0832897979736325,1.307236872542951
6.69838710653753,-0.539432120132446,-0.775204391670227,-1.07243286437988,1.307236872542951
6.698992433414044,0.164703622055054,-1.3763542940139801,-1.6520275909423798,1.307236872542951
6.699597760290557,0.756273446273804,-0.16447441120147702,-0.107239993286133,1.307236872542951
6.70020308716707,1.2185122158050499,0.405540237236023,1.59561889343262,1.307236872542951
6.700808414043584,0.370675301742554,0.630672073173523,0.764547116088867,1.307236872542951
6.701413740920097,-0.716663565444946,1.06417060832977,-0.746710208129883,1.307236872542951
6.70201906779661,-0.740613760757446,-0.135734176826477,-0.0784997589111325,1.307236872542951
6.7026243946731245,-0.505901846694946,-0.145314254951477,0.855557858276367,1.307236872542951
6.703229721549637,-0.575357413101196,-0.365656051826477,-0.42338257141113295,1.307236872542951
6.70383504842615,0.121593270492554,-1.3715642549514802,-1.6424475128173799,1.307236872542951
6.704440375302664,0.820938973617554,-0.382421188545227,-0.725155032348633,1.307236872542951
6.705045702179177,1.0293056728363,0.472600784111023,0.829212643432617,1.307236872542951
6.70565102905569,0.830519051742554,0.719287795829773,1.24115600280762,1.307236872542951
6.7062563559322035,-0.184969229507446,0.846223830986023,-0.27968139953613297,1.307236872542951
6.706861682808717,-0.541827139663696,0.295369338798523,-0.509603274536133,1.307236872542951
6.70746700968523,-0.208919424819946,-0.15489433307647701,0.9226184051513671,1.307236872542951
6.708072336561743,-0.687923331069946,-0.039933395576477106,0.0412512176513674,1.307236872542951
6.708677663438257,-0.259214834976196,-0.741674118232727,-1.32390991516113,1.307236872542951
6.709282990314771,0.0641128017425537,-0.346495895576477,-1.15386352844238,1.307236872542951
6.709888317191283,0.516771493148804,0.640252151298523,0.35739379577636704,1.307236872542951
6.710493644067797,0.916739754867554,0.321714553642273,1.3034265106201202,1.307236872542951
6.7110989709443105,0.246134286117554,0.652227248954773,0.29751830749511704,1.307236872542951
6.711704297820823,-0.675948233413696,0.654622268486023,-0.5982189971923829,1.307236872542951
6.712309624697337,-0.26639989356994603,-0.13812919635772702,0.32625854187011705,1.307236872542951
6.71291495157385,-0.6496030185699461,0.048682327079772894,0.261593014526367,1.307236872542951
6.713520278450363,-0.297535147476196,-1.05302665729523,-0.844906008911133,1.307236872542951
6.714125605326878,0.33235498924255397,-0.9931511690139769,-1.50353638000488,1.307236872542951
6.71473093220339,0.29163965721130397,0.561216506767273,-0.152745364379883,1.307236872542951
6.715336259079903,0.9670351650238039,0.6258820341110231,1.77524535827637,1.307236872542951
6.715941585956417,0.29163965721130397,0.6258820341110231,0.857952877807617,1.307236872542951
6.71654691283293,-0.458001456069946,0.613906936454773,-0.5383435089111329,1.307236872542951
6.717152239709443,-0.381360831069946,-0.406371383857727,-0.0186242706298826,1.307236872542951
6.717757566585957,-0.980115713882446,-0.334520797920227,0.0220910614013674,1.307236872542951
6.71836289346247,-0.618467764663696,-0.882980270576477,-1.30235473937988,1.307236872542951
6.718968220338983,0.33235498924255397,-1.4146746065139801,-1.37181030578613,1.307236872542951
6.7195735472154965,1.0293056728363,-0.0566985322952271,-0.00425415344238255,1.307236872542951
6.72017887409201,1.16103174705505,0.45823066692352304,1.20762572937012,1.307236872542951
6.720784200968524,0.387440438461304,0.40075019817352303,1.1190100067138702,1.307236872542951
6.721389527845036,-0.738218741226196,0.779163284111023,-0.454517825317383,1.307236872542951
6.72199485472155,-0.623257803726196,0.00317695598602295,-0.210225833129883,1.307236872542951
6.722600181598063,-0.532247061538696,-0.171659469795227,0.5034899871826171,1.307236872542951
6.723205508474576,-0.628047842788696,-0.291410446357727,-0.250941165161133,1.307236872542951
6.72381083535109,0.0186074306488037,-1.4314397432327302,-1.61131225891113,1.307236872542951
6.7244161622276035,0.523956551742554,-0.430321579170227,-1.18260376281738,1.307236872542951
6.725021489104116,1.0676259853363,0.472600784111023,0.9633337371826171,1.307236872542951
6.72562681598063,0.485636239242554,0.436675491142273,1.27468627624512,1.307236872542951
6.726232142857143,-0.290350088882446,0.913284377861023,-0.167115481567383,1.307236872542951
6.726837469733656,-0.41489110450744604,0.441465530204773,-0.38266723937988295,1.307236872542951
6.72744279661017,-0.182574209976196,-0.245905075263977,0.824422604370117,1.307236872542951
6.728048123486683,-0.625652823257446,0.36961494426727304,0.206507565307617,1.307236872542951
6.728653450363196,-0.290350088882446,-0.760834274482727,-1.4388708526611298,1.307236872542951
6.729258777239709,0.0641128017425537,-0.557257614326477,-1.2448742706298799,1.307236872542951
6.729864104116223,0.641312508773804,0.752818069267273,0.632821041870117,1.307236872542951
6.730469430992736,0.818543954086304,0.233098830986023,1.5093981903076201,1.307236872542951
6.73107475786925,0.12877832908630402,0.642647170829773,0.31667846374511704,1.307236872542951
6.731680084745763,-0.620862784194946,0.692942580986023,-0.610194094848633,1.307236872542951
6.732285411622276,-0.544222159194946,-0.00879814167022705,0.35739379577636704,1.307236872542951
6.7328907384987895,-0.7909091709136961,0.0630524442672729,0.151422116088867,1.307236872542951
6.733496065375303,-0.302325186538696,-0.935670700263977,-0.792215579223633,1.307236872542951
6.734101392251816,0.107223153305054,-1.10571708698273,-1.2448742706298799,1.307236872542951
6.734706719128329,0.636522469711304,0.345664748954773,-0.135980227661133,1.307236872542951
6.735312046004843,0.993380379867554,0.592351760673523,1.5596936004638702,1.307236872542951
6.735917372881357,0.317984872055054,0.5037360380172731,0.891483151245117,1.307236872542951
6.736522699757869,-0.18017919044494599,0.609116897392273,-0.5383435089111329,1.307236872542951
6.737128026634383,-0.44602635841369603,-0.142919235420227,-0.344346926879883,1.307236872542951
6.7377333535108965,-1.0950766513824501,-0.0974138643264771,0.290333248901367,1.307236872542951
6.738338680387409,-0.766958975601196,-0.897350387763977,-0.682044680786133,1.307236872542951
6.738944007263923,0.672447762680054,-1.59909111042023,-1.58975708312988,1.307236872542951
6.739549334140436,0.6269423915863039,-0.23872001667022702,-0.128795169067383,1.307236872542951
6.740154661016949,1.0005654384613,0.297764358329773,1.36090697937012,1.307236872542951
6.740759987893462,0.485636239242554,0.680967483329773,0.9034582489013671,1.307236872542951
6.741365314769976,-0.553802237319946,0.9851349637985231,-0.591033938598633,1.307236872542951
6.741970641646489,-0.632837881851196,-0.0255632783889771,-0.128795169067383,1.307236872542951
6.742575968523003,-0.604097647476196,-0.16447441120147702,0.795682369995117,1.307236872542951
6.743181295399516,-0.714268545913696,-0.11657402057647699,-0.406617434692383,1.307236872542951
6.743786622276029,-0.115513663101196,-0.995546188545227,-1.28079956359863,1.307236872542951
6.744391949152543,0.5263515712738039,-0.5333074190139769,-0.765870364379883,1.307236872542951
6.744997276029056,0.739508309555054,0.6450421903610231,0.824422604370117,1.307236872542951
6.745602602905569,0.650892586898804,0.477390823173523,1.27947631530762,1.307236872542951
6.7462079297820825,-0.302325186538696,0.647437209892273,0.0101159637451174,1.307236872542951
6.746813256658596,-0.441236319351196,0.781558303642273,-0.528763430786133,1.307236872542951
6.747418583535109,-0.47476659278869604,-0.145314254951477,0.6400061004638671,1.307236872542951
6.748023910411622,-0.759773917007446,0.132508010673523,0.27596313171386705,1.307236872542951
6.748629237288136,-0.472371573257446,-0.782389450263977,-1.35983520812988,1.307236872542951
6.749234564164649,0.0617177822113037,-0.430321579170227,-1.23050415344238,1.307236872542951
6.749839891041162,0.564671883773804,0.633067092704773,0.532230221557617,1.307236872542951
6.750445217917676,0.9071596767425539,0.237888870048523,1.43275756530762,1.307236872542951
6.7510505447941895,0.298824715805054,0.43907051067352304,0.44600951843261705,1.307236872542951
6.751655871670702,-0.678343252944946,0.6642023466110231,-0.485653079223633,1.307236872542951
6.752261198547216,-0.493926749038696,0.000781936454772948,0.261593014526367,1.307236872542951
6.7528665254237294,-0.927425284194946,-0.0135881807327271,0.228062741088867,1.307236872542951
6.753471852300242,-0.26639989356994603,-0.830289840888977,-0.844906008911133,1.307236872542951
6.754077179176755,0.0138173915863037,-1.32605888385773,-1.12033325500488,1.307236872542951
6.754682506053269,0.289244637680054,0.154063186454773,0.184952389526367,1.307236872542951
6.755287832929782,0.909554696273804,0.46062568645477303,1.71297485046387,1.307236872542951
6.755893159806295,0.20302393455505402,0.829458694267273,1.0471594207763701,1.307236872542951
6.756498486682809,-0.228079581069946,0.748028030204773,-0.226990969848633,1.307236872542951
6.757103813559322,-0.43644628028869603,-0.202794723701477,-0.217410891723633,1.307236872542951
6.757709140435836,-1.0567563388824501,-0.13333915729522702,0.216087643432617,1.307236872542951
6.758314467312349,-0.714268545913696,-0.724908981513977,-0.959866946411133,1.307236872542951
6.758919794188862,0.36349024314880396,-1.56556083698273,-1.59454712219238,1.307236872542951
6.7595251210653755,0.792198739242554,-0.43990165729522696,-0.238966067504883,1.307236872542951
6.760130447941889,1.1035512783050498,0.501341018486023,1.19804565124512,1.307236872542951
6.760735774818402,0.6868178798675539,0.5061310575485231,1.19086059265137,1.307236872542951
6.761341101694915,-0.338250479507446,0.889334182548523,-0.215015872192383,1.307236872542951
6.761946428571429,-0.49632176856994603,0.18998847942352298,-0.09286987609863251,1.307236872542951
6.762551755447943,-0.479556631851196,-0.250695114326477,0.649586178588867,1.307236872542951
6.763157082324455,-0.637627920913696,-0.315360641670227,-0.193460696411133,1.307236872542951
6.763762409200969,-0.110723624038696,-1.17756767292023,-1.29037964172363,1.307236872542951
6.7643677360774825,0.464081063461304,-0.432716598701477,-0.670069583129883,1.307236872542951
6.764973062953995,0.974220223617554,0.678572463798523,1.0639245574951202,1.307236872542951
6.765578389830509,0.650892586898804,0.30973945598602304,1.42078246765137,1.307236872542951
6.7661837167070225,-0.338250479507446,0.786348342704773,0.0699914520263675,1.307236872542951
6.766789043583535,-0.553802237319946,0.642647170829773,-0.591033938598633,1.307236872542951
6.767394370460048,-0.280770010757446,-0.0854387666702271,0.402899166870117,1.307236872542951
6.767999697336562,-0.501111807632446,0.046287307548522894,0.472354733276367,1.307236872542951
6.768605024213075,-0.350225577163696,-0.688983688545227,-0.885621340942383,1.307236872542951
6.769210351089589,0.13835840721130402,-0.494987106513977,-1.20415893859863,1.307236872542951
6.769815677966102,0.454500985336304,0.551636428642273,0.29751830749511704,1.307236872542951
6.770421004842615,0.808963875961304,0.383985061454773,1.3297717254638701,1.307236872542951
6.771026331719128,0.260504403305054,0.587561721611023,0.5394152801513671,1.307236872542951
6.771631658595642,-0.766958975601196,0.834248733329773,-0.365902102661133,1.307236872542951
6.772236985472155,-0.525062002944946,-0.0806487276077271,0.261593014526367,1.307236872542951
6.7728423123486685,-0.814859366226196,0.110952834892273,0.340628659057617,1.307236872542951
6.773447639225182,-0.264004874038696,-0.856635055732727,-0.9550769073486329,1.307236872542951
6.774052966101695,0.229369149398804,-1.3979094697952301,-1.35983520812988,1.307236872542951
6.774658292978208,0.394625497055054,0.20435859661102299,-0.114425051879883,1.307236872542951
6.775263619854722,0.770643563461304,0.348059768486023,1.29624145202637,1.307236872542951
6.775868946731235,0.42336573143005396,0.453440627861023,0.9585436981201171,1.307236872542951
6.776474273607748,-0.467581534194946,0.609116897392273,-0.346741946411133,1.307236872542951
6.777079600484262,-0.625652823257446,-0.562047653388977,-0.397037356567383,1.307236872542951
6.7776849273607755,-0.747798819351196,-0.332125778388977,0.26877807312011703,1.307236872542951
6.778290254237288,-0.754983877944946,-0.748859176826477,-0.646119387817383,1.307236872542951
6.778895581113801,0.241344247055054,-1.52724052448273,-1.56820190734863,1.307236872542951
6.7795009079903155,0.476056161117554,-0.375236129951477,-0.32039673156738296,1.307236872542951
6.780106234866828,0.911949715805054,0.45823066692352304,1.10942992858887,1.307236872542951
6.780711561743341,0.602992196273804,0.6833625028610231,1.2770812957763702,1.307236872542951
6.781316888619855,-0.532247061538696,0.8031134794235231,-0.540738528442383,1.307236872542951
6.781922215496368,-0.752588858413696,-0.11657402057647699,-0.42338257141113295,1.307236872542951
6.782527542372881,-0.522666983413696,-0.21476982135772701,1.25792113952637,1.307236872542951
6.783132869249395,-0.905870108413696,-0.23872001667022702,0.0149060028076174,0.810381681766411
6.783738196125908,-0.13227879981994597,-1.32126884479523,-1.41971069641113,0.810381681766411
6.784343523002422,0.468871102523804,-0.641083297920227,-0.162325442504883,0.810381681766411
6.784948849878935,0.823333993148804,0.47020576457977303,1.0471594207763701,0.810381681766411
6.785554176755448,0.981405282211304,0.530081252861023,1.3201916473388702,0.810381681766411
6.7861595036319615,-0.17538915138244598,1.08812080364227,0.321468502807617,0.810381681766411
6.786764830508475,-0.299930167007446,0.527686233329773,-0.682044680786133,0.810381681766411
6.787370157384988,-0.489136709976196,-0.392001266670227,0.553785397338867,0.810381681766411
6.787975484261501,-0.805279288101196,0.37919502239227304,0.525045162963867,0.810381681766411
6.788580811138015,-0.292745108413696,-0.607553024482727,-0.830535891723633,0.810381681766411
6.789186138014529,0.0545327236175537,-0.605158004951477,-1.34067505187988,0.810381681766411
6.789791464891041,0.581437020492554,0.48936592082977304,0.33583861999511705,0.810381681766411
6.790396791767555,0.780223641586304,0.39117012004852303,1.5093981903076201,0.810381681766411
6.7910021186440686,0.234159188461304,0.594746780204773,0.350208737182617,0.810381681766411
6.791607445520581,-0.580147452163696,0.760003127861023,-0.6556994659423829,0.810381681766411
6.792212772397094,-0.35501561622619604,0.0127570341110229,0.28793822937011704,0.810381681766411
6.7928180992736085,-0.632837881851196,-0.06627861042022709,0.807657467651367,0.810381681766411
6.793423426150121,-0.580147452163696,-0.904535446357727,-0.991002200317383,0.810381681766411
6.794028753026634,0.0665078212738037,-1.44341484088898,-1.5274865753173799,0.810381681766411
6.794634079903148,0.6077822353363039,0.302554397392273,-0.191065676879883,0.810381681766411
6.795239406779661,0.7874087001800539,0.712102737236023,1.1788854949951202,0.810381681766411
6.795844733656175,0.277269540023804,0.48936592082977304,0.8795080535888671,0.810381681766411
6.796450060532688,-0.0819833896636963,0.719287795829773,-0.145560305786133,0.810381681766411
6.797055387409201,-0.568172354507446,-0.207584762763977,-0.171905520629883,0.810381681766411
6.797660714285714,-0.980115713882446,-0.200399704170227,0.117891842651367,0.810381681766411
6.798266041162228,-0.802884268569946,-0.542887497138977,-0.497628176879883,0.810381681766411
6.798871368038741,0.387440438461304,-1.5775359346389801,-1.35504516906738,0.810381681766411
6.7994766949152545,0.957455086898804,-0.432716598701477,-0.646119387817383,0.810381681766411
6.800082021791768,1.0604409267425499,0.362429885673523,1.10463988952637,0.810381681766411
6.800687348668281,0.7059780361175539,0.601931838798523,1.27947631530762,0.810381681766411
6.801292675544794,-0.704688467788696,0.913284377861023,-0.418592532348633,0.810381681766411
6.801898002421308,-0.48674169044494603,-0.147709274482727,-0.48325805969238295,0.810381681766411
6.802503329297821,-0.5106918857574461,-0.171659469795227,0.450799557495117,0.810381681766411
6.803108656174334,-0.723848624038696,-0.0758586885452271,-0.274891360473633,0.810381681766411
6.803713983050848,0.0377675868988037,-1.20391288776398,-1.20176391906738,0.810381681766411
6.804319309927362,0.43294580955505396,-0.562047653388977,-0.9335217315673829,0.810381681766411
6.804924636803874,0.9861953212738039,0.257049026298523,0.5992907684326171,0.810381681766411
6.805529963680387,0.873629403305054,0.594746780204773,1.46389281921387,0.810381681766411
6.8061352905569015,-0.110723624038696,0.987529983329773,0.132261959838867,0.810381681766411
6.806740617433414,-0.525062002944946,0.6642023466110231,-0.552713626098633,0.810381681766411
6.807345944309927,-0.311905264663696,-0.135734176826477,0.678326412963867,0.810381681766411
6.807951271186441,-0.628047842788696,0.295369338798523,0.441219479370117,0.810381681766411
6.808556598062954,-0.42447118263244604,-0.564442672920227,-0.907176516723633,0.810381681766411
6.809161924939467,-0.0747983310699463,-0.6937737276077269,-1.2113439971923798,0.810381681766411
6.809767251815981,0.349120125961304,0.5037360380172731,0.0556213348388674,0.810381681766411
6.810372578692494,0.7682485439300539,0.314529495048523,1.4614977996826202,0.810381681766411
6.810977905569008,0.380255379867554,0.352849807548523,0.43642944030761704,0.810381681766411
6.811583232445521,-0.357410635757446,0.618696975517273,-0.6940197784423829,0.810381681766411
6.812188559322034,-0.41489110450744604,0.12292793254852301,0.0436462371826174,0.810381681766411
6.8127938861985475,-0.558592276382446,-0.07106864948272709,0.637611080932617,0.810381681766411
6.813399213075061,-0.0747983310699463,-0.756044235420227,-0.579058840942383,0.810381681766411
6.814004539951574,0.325169930648804,-1.3332439424514801,-1.1394934112548798,0.810381681766411
6.8146098668280874,0.418575692367554,0.0343122098922729,-0.5335534698486329,0.810381681766411
6.815215193704601,0.720348153305054,0.554031448173523,1.20762572937012,0.810381681766411
6.815820520581115,0.41378565330505396,0.573191604423523,1.4231774871826202,0.810381681766411
6.816425847457627,-0.290350088882446,0.6833625028610231,-0.41380249328613294,0.810381681766411
6.81703117433414,-0.49632176856994603,-0.22913993854522702,-0.26052124328613296,0.810381681766411
6.817636501210655,-0.7310336826324461,-0.262670211982727,0.08436156921386749,0.810381681766411
6.818241828087167,-0.834019522476196,-0.679403610420227,-0.8928063995361329,0.810381681766411
6.81884715496368,0.306009774398804,-1.5176604463577301,-1.42210571594238,0.810381681766411
6.8194524818401945,0.614967293930054,-0.43990165729522696,-0.497628176879883,0.810381681766411
6.820057808716707,1.20414209861755,0.501341018486023,1.1405651824951202,0.810381681766411
6.82066313559322,0.780223641586304,0.427095413017273,1.50221313171387,0.810381681766411
6.821268462469734,-0.6088876865386961,0.649832229423523,-0.200645755004883,0.810381681766411
6.821873789346247,-0.587332510757446,0.182803420829773,-0.476073001098633,0.810381681766411
6.82247911622276,-0.268794913101196,-0.372841110420227,0.795682369995117,0.810381681766411
6.823084443099274,-0.5897275302886961,-0.200399704170227,-0.023414309692382597,0.810381681766411
6.823689769975787,-0.314300284194946,-1.0985320283889801,-1.3861804229736299,0.810381681766411
6.8242950968523,0.490426278305054,-0.6913787080764769,-1.03411255187988,0.810381681766411
6.824900423728814,0.6269423915863039,0.434280471611023,0.532230221557617,0.810381681766411
6.825505750605327,1.0245156337738,0.554031448173523,1.39922729187012,0.810381681766411
6.8261110774818405,0.26289942283630396,0.731262893486023,0.156212155151367,0.810381681766411
6.826716404358353,-0.508296866226196,0.736052932548523,-0.5575036651611329,0.810381681766411
6.827321731234867,-0.292745108413696,-0.18363456745147702,0.5825256317138671,0.810381681766411
6.8279270581113805,-0.666368155288696,0.12292793254852301,0.371763912963867,0.810381681766411
6.828532384987894,-0.661578116226196,-0.38960624713897696,-0.9766320831298829,0.810381681766411
6.829137711864407,-0.163414053726196,-0.641083297920227,-1.44845093078613,0.810381681766411
6.82974303874092,0.329959969711304,0.321714553642273,0.0244860809326174,0.810381681766411
6.830348365617433,0.804173836898804,0.36961494426727304,1.16930541687012,0.810381681766411
6.830953692493948,0.49282129783630396,0.542056350517273,0.628031002807617,0.810381681766411
6.83155901937046,-0.422076163101196,0.8438288114547731,-0.686834719848633,0.810381681766411
6.832164346246973,-0.450816397476196,0.13011299114227298,-0.140770266723633,0.810381681766411
6.8327696731234875,-0.831624502944946,-0.0183782197952271,0.616055905151367,0.810381681766411
6.833375,-0.43644628028869603,-0.509357223701477,-0.722760012817383,0.810381681766411
6.833980326876513,0.229369149398804,-1.5559807588577301,-1.24726929016113,0.810381681766411
6.834585653753027,0.404205575180054,0.151668166923523,-0.464097903442383,0.810381681766411
6.83519098062954,0.890394540023804,0.654622268486023,1.27229125671387,0.810381681766411
6.835796307506053,0.605387215805054,0.381590041923523,1.41359740905762,0.810381681766411
6.836401634382567,-0.29514012794494604,0.793533401298523,-0.00185913391113255,0.810381681766411
6.83700696125908,-0.616072745132446,-0.200399704170227,-0.47367798156738294,0.810381681766411
6.837612288135594,-0.637627920913696,-0.135734176826477,-0.0401794464111326,0.810381681766411
6.838217615012107,-0.841204581069946,-0.475826950263977,-0.435357669067383,0.810381681766411
6.83882294188862,0.0832729579925537,-1.44341484088898,-1.3742053253173798,0.810381681766411
6.8394282687651335,0.571856942367554,-0.444691696357727,-0.488048098754883,0.810381681766411
6.840033595641647,1.1754018642425499,0.336084670829773,1.2219958465576202,0.810381681766411
6.84063892251816,0.981405282211304,0.530081252861023,1.58364379577637,0.810381681766411
6.8412442493946735,-0.208919424819946,0.6450421903610231,-0.171905520629883,0.810381681766411
6.841849576271187,-0.390940909194946,0.20435859661102299,-0.447332766723633,0.810381681766411
6.842454903147701,-0.5298520420074461,-0.241115036201477,0.481934811401367,0.810381681766411
6.843060230024213,-0.594517569351196,-0.12854911823272702,-0.26052124328613296,0.810381681766411
6.843665556900726,-0.105933584976196,-1.03147148151398,-1.50353638000488,0.810381681766411
6.844270883777241,0.564671883773804,-0.688983688545227,-0.9742370635986329,0.810381681766411
6.844876210653753,0.8281240322113039,0.45823066692352304,0.5394152801513671,0.810381681766411
6.845481537530266,0.921529793930054,0.5037360380172731,1.2483410614013701,0.810381681766411
6.8460868644067805,0.253319344711304,0.8438288114547731,0.359788815307617,0.810381681766411
6.846692191283293,-0.635232901382446,0.839038772392273,-0.6748596221923829,0.810381681766411
6.847297518159806,-0.371780752944946,-0.17405448932647702,0.5010949676513671,0.810381681766411
6.84790284503632,-0.302325186538696,0.151668166923523,0.527440182495117,0.810381681766411
6.848508171912833,-0.48674169044494603,-0.466246872138977,-0.662884524536133,0.810381681766411
6.849113498789346,0.210208993148804,-0.839869919013977,-1.51311645812988,0.810381681766411
6.84971882566586,0.557486825180054,0.38877510051727304,-0.124005130004883,0.810381681766411
6.850324152542373,0.775433602523804,0.549241409111023,1.24594604187012,0.810381681766411
6.850929479418886,0.636522469711304,0.621091995048523,0.608870846557617,0.810381681766411
6.8515348062954,-0.48674169044494603,1.03782539348602,-0.650909426879883,0.810381681766411
6.852140133171913,-0.350225577163696,0.12053291301727301,-0.212620852661133,0.810381681766411
6.8527454600484266,-0.501111807632446,-0.17405448932647702,0.831607662963867,0.810381681766411
6.85335078692494,-0.340645499038696,-0.35847099323272696,-0.667674563598633,0.810381681766411
6.853956113801453,0.107223153305054,-1.40988456745148,-1.6568176300048798,0.810381681766411
6.8545614406779665,0.315589852523804,0.0750275419235229,-0.32997680969238297,0.810381681766411
6.855166767554479,0.974220223617554,0.549241409111023,1.62196410827637,0.810381681766411
6.855772094430993,0.641312508773804,0.522896194267273,1.3680920379638701,0.810381681766411
6.856377421307506,0.0329775478363037,0.913284377861023,-0.26291626281738295,0.810381681766411
6.856982748184019,-0.680738272476196,-0.21476982135772701,0.0436462371826174,0.810381681766411
6.857588075060534,-0.7310336826324461,-0.375236129951477,0.139447018432617,0.810381681766411
6.858193401937046,-0.7310336826324461,-0.559652633857727,-0.6580944854736329,0.810381681766411
6.858798728813559,0.236554207992554,-1.53203056354523,-1.4125256378173798,0.810381681766411
6.8594040556900735,0.684422860336304,-0.564442672920227,-0.7754504425048829,0.810381681766411
6.860009382566586,1.0987612392425499,0.168433303642273,1.0471594207763701,0.810381681766411
6.860614709443099,0.6461025478363039,0.530081252861023,1.53334838562012,0.810381681766411
6.861220036319613,-0.23047460060119598,0.827063674736023,-0.107239993286133,0.810381681766411
6.861825363196126,-0.513086905288696,0.33129463176727303,-0.763475344848633,0.810381681766411
6.862430690072639,-0.618467764663696,-0.212374801826477,0.40529418640136705,0.810381681766411
6.863036016949153,-0.580147452163696,-0.18363456745147702,0.187347409057617,0.810381681766411
6.863641343825666,-0.297535147476196,-0.6123430635452269,-0.950286868286133,0.810381681766411
