Time (s),Accel X (m/s^2),Accel Y (m/s^2),Accel Z (m/s^2)
3.45725,-0.11119046573638901,0.153012745857239,0.0249982970237735
3.4578560606060607,-0.0177847040176392,-0.170314890861511,0.183069586086273
3.458462121212121,-0.125560582923889,-0.029008738517761198,0.166304449367523
3.459068181818182,-0.266866735267639,-0.10085932445526101,0.233364996242523
3.4596742424242426,0.0229306280136108,-0.0864892072677612,0.242945074367523
3.460280303030303,-0.0153896844863892,0.00452153491973876,0.31719067983627297
3.4608863636363636,-0.0800552118301392,-0.0577489728927612,0.27887036733627296
3.4614924242424245,-0.230941442298889,-0.0936742658615112,0.0561335509300235
3.462098484848485,-0.254891637611389,-0.103254343986511,0.230969976711273
3.4627045454545455,0.0229306280136108,0.050026906013488796,0.132774175930023
3.463310606060606,-0.0513149774551392,0.0260767107009888,-0.0827775818824765
3.463916666666667,0.0205356084823608,-0.0936742658615112,0.25731519155502297
3.4645227272727275,-0.00580960636138916,-0.136784617424011,-0.0540373475074765
3.465128787878788,-0.147115758705139,-0.108044383049011,0.12319409780502301
3.4657348484848485,-0.187831090736389,-0.139179636955261,0.11600903921127301
3.4663409090909094,0.0109555303573608,-0.163129832267761,-0.0708024842262265
3.46694696969697,-0.0321548212051392,-0.0553539533615112,0.542322515773773
3.4675530303030304,-0.173460973548889,-0.254140574455261,0.113614019680023
3.468159090909091,-0.0776601922988892,0.016496632575988802,-0.11391283578872699
3.468765151515152,0.0492758428573608,0.174567921638489,0.401016363430023
3.4693712121212124,0.190581995201111,-0.0361937971115112,0.31958569936752296
3.469977272727273,0.0947812139511108,-0.0960692853927612,0.230969976711273
3.4705833333333334,-0.147115758705139,-0.158339793205261,0.101638922023773
3.471189393939394,-0.0848452508926392,-0.026613718986511197,0.211809820461273
3.471795454545455,-0.0585000360488892,-0.0816991682052612,0.147144293117523
3.4724015151515153,0.0157455694198608,0.0572119646072388,0.0992439024925235
3.473007575757576,0.113941370201111,0.009311573982238761,-0.0037419373512265503
3.4736136363636367,0.0564609014511108,-0.148759715080261,0.22378491811752302
3.4742196969696972,0.00377047176361084,-0.223005320549011,0.432151617336273
3.4748257575757577,0.233692346763611,0.009311573982238761,0.29084546499252295
3.4754318181818182,0.145076624107361,0.0548169450759888,0.137564214992523
3.476037878787879,-0.0776601922988892,0.045236866950988795,0.0369733946800235
3.4766439393939397,0.00616549129486084,-0.141574656486511,0.30761060171127297
3.47725,-0.0513149774551392,-0.218215281486511,0.101638922023773
3.4778560606060607,-0.0680801141738892,0.0404468278884888,0.207019781398773
3.478462121212121,-0.0345498407363892,-0.0218236799240112,0.183069586086273
3.479068181818182,0.0229306280136108,-0.0960692853927612,-0.0612224061012265
3.4796742424242426,0.145076624107361,-0.19187006664276102,0.113614019680023
3.480280303030303,0.164236780357361,-0.0912792463302612,0.336350836086273
3.4808863636363636,-0.216571325111389,-0.0361937971115112,-0.0061369568824765405
3.4814924242424246,0.0875961553573608,0.0620020036697388,0.180674566555023
3.482098484848485,0.312727991294861,-0.0721190900802612,0.381856207180023
3.4827045454545456,0.0229306280136108,-0.12720453929901102,0.008233160305023461
3.483310606060606,-0.211781286048889,-0.249350535392761,0.137564214992523
3.483916666666667,0.0157455694198608,-0.213425242424011,0.017813238430023498
3.4845227272727275,0.15705172176361099,0.0691870622634888,0.233364996242523
3.485128787878788,-0.0297598016738892,-0.258930613517761,0.221389898586273
3.4857348484848485,0.0301156866073608,-0.160734812736511,0.106428961086273
3.4863409090909094,0.0923861944198608,-0.0697240705490112,0.22857495718002302
3.48694696969697,0.0373007452011108,-0.040983836174011204,0.0872688048362735
3.4875530303030304,-0.14232571964263901,0.121877491950989,0.125589117336273
3.488159090909091,-0.00820462589263916,-0.261325633049011,0.156724371242523
3.488765151515152,-0.120770543861389,-0.045773875236511205,0.125589117336273
3.4893712121212124,-0.171065954017639,0.0667920427322388,0.326770757961273
3.489977272727273,-0.0225747430801392,-0.203845164299011,0.235760015773773
3.4905833333333334,-0.11119046573638901,-0.0960692853927612,-0.039667230319976494
3.491189393939394,-0.0153896844863892,0.0811621599197388,0.16869946889877302
3.491795454545455,-0.171065954017639,-0.0529589338302612,0.0824787657737735
3.4924015151515153,-0.113585485267639,-0.040983836174011204,0.017813238430023498
3.493007575757576,-0.00580960636138916,0.030866749763488802,0.245340093898773
3.4936136363636368,-0.214176305580139,-0.0984643049240112,0.36030103139877295
3.4942196969696973,0.0636459600448608,0.0356567888259888,0.25971021108627296
3.4948257575757578,-0.0345498407363892,-0.124809519767761,0.180674566555023
3.4954318181818183,-0.161485875892639,-0.0505639142990112,0.312400640773773
3.4960378787878787,-0.00820462589263916,0.0596069841384888,0.16869946889877302
3.4966439393939397,-0.192621129798889,-0.0026635236740112397,0.197439703273773
3.49725,-0.0656850946426392,0.0380518083572388,0.674048589992523
3.4978560606060607,-0.0489199579238892,-0.0673290510177612,0.362696050930023
3.498462121212121,-0.0824502313613892,0.117087452888489,0.336350836086273
3.499068181818182,0.0756210577011108,-0.00984858226776124,0.544717535305023
3.4996742424242426,0.0133505498886108,0.0763721208572388,0.25731519155502297
3.500280303030303,-0.183041051673889,0.0404468278884888,0.262105230617523
3.5008863636363636,-0.278841832923889,-0.251745554924011,-0.00134691781997655
3.5014924242424246,-0.199806188392639,-0.0984643049240112,0.0872688048362735
3.502098484848485,0.147471643638611,-0.0337987775802612,0.230969976711273
3.5027045454545456,0.195372034263611,0.0596069841384888,0.29084546499252295
3.503310606060606,0.0612509405136108,-0.0026635236740112397,0.15911939077377302
3.503916666666667,-0.0872402704238892,-0.108044383049011,0.247735113430023
3.5045227272727275,-0.147115758705139,-0.0026635236740112397,0.492027105617523
3.505128787878788,-0.0153896844863892,0.0620020036697388,0.372276129055023
3.5057348484848485,-0.0944253290176392,0.0069165544509887595,0.264500250148773
3.5063409090909095,-0.120770543861389,0.0763721208572388,0.0992439024925235
3.50694696969697,-0.0896352899551392,-0.0840941877365112,-0.0037419373512265503
3.5075530303030305,-0.132745641517639,-0.108044383049011,0.0800837462425235
3.508159090909091,-0.252496618080139,0.0883472185134888,0.101638922023773
3.5087651515151514,-0.0345498407363892,-0.045773875236511205,0.142354254055023
3.5093712121212124,-0.149510778236389,-0.112834422111511,0.113614019680023
3.509977272727273,-0.0944253290176392,-0.146364695549011,0.0202082579612735
3.5105833333333334,0.0516708623886108,-0.10085932445526101,0.286055425930023
3.511189393939394,-0.0944253290176392,-0.0649340314865112,0.22857495718002302
3.511795454545455,0.0277206670761108,0.160197804450989,0.336350836086273
3.5124015151515153,-0.144720739173889,0.0069165544509887595,0.331560797023773
3.513007575757576,-0.0728701532363892,-0.184685008049011,0.06331860952377351
3.5136136363636368,0.0373007452011108,-0.0529589338302612,0.16869946889877302
3.5142196969696973,-0.00341458683013916,0.016496632575988802,0.20941480093002302
3.5148257575757578,-0.0225747430801392,0.0596069841384888,0.202229742336273
3.5154318181818183,0.0133505498886108,-0.0816991682052612,0.197439703273773
3.5160378787878788,0.104361292076111,-0.110439402580261,0.0752937071800235
3.5166439393939397,0.0780160772323608,-0.203845164299011,0.41778150014877297
3.51725,0.0157455694198608,-0.0601439924240112,0.38904126577377296
3.5178560606060607,-0.161485875892639,0.114692433357239,0.192649664211273
3.518462121212121,-0.10879544620513901,-0.0840941877365112,0.12319409780502301
3.519068181818182,-0.166275914955139,-0.256535593986511,0.341140875148773
3.5196742424242426,0.0205356084823608,-0.151154734611511,0.283660406398773
3.520280303030303,0.0995712530136108,0.016496632575988802,0.0273933165550235
3.5208863636363636,-0.147115758705139,0.0596069841384888,0.21420483999252302
3.521492424242424,-0.209386266517639,-0.0505639142990112,0.211809820461273
3.522098484848485,-0.0632900751113892,-0.0314037580490112,0.202229742336273
3.5227045454545456,-0.0608950555801392,-0.10085932445526101,0.20941480093002302
3.523310606060606,-0.156695836830139,-0.165524851799011,0.046553472805023505
3.523916666666667,-0.0561050165176392,-0.0194286603927612,0.21420483999252302
3.5245227272727275,0.00377047176361084,-0.0505639142990112,0.27887036733627296
3.525128787878788,0.0205356084823608,-0.153549754142761,0.302820562648773
3.5257348484848485,0.0181405889511108,-0.29964594554901103,0.139959234523773
3.5263409090909095,0.0420907842636108,0.105112355232239,-0.0205070740699765
3.52694696969697,-0.11119046573638901,0.179357960700989,0.640518316555023
3.5275530303030305,-0.0968203485488892,0.00452153491973876,0.202229742336273
3.528159090909091,-0.0129946649551392,-0.000268504142761237,-0.0612224061012265
3.5287651515151515,0.0540658819198608,-0.223005320549011,0.276475347805023
3.5293712121212124,-0.0393398797988892,-0.151154734611511,0.226179937648773
3.529977272727273,-0.0225747430801392,-0.0649340314865112,0.216599859523773
3.5305833333333334,-0.159090856361389,-0.10085932445526101,0.0992439024925235
3.531189393939394,-0.168670934486389,-0.0984643049240112,0.211809820461273
3.531795454545455,0.0660409795761108,-0.213425242424011,0.293240484523773
3.5324015151515153,-0.00101956729888916,-0.124809519767761,0.125589117336273
3.533007575757576,-0.183041051673889,0.030866749763488802,0.286055425930023
3.5336136363636363,0.147471643638611,-0.029008738517761198,0.175884527492523
3.5342196969696973,0.0253256475448608,-0.158339793205261,0.20462476186752301
3.534825757575758,-0.132745641517639,-0.117624461174011,0.276475347805023
3.5354318181818183,0.00856051082611084,-0.110439402580261,0.0800837462425235
3.536037878787879,-0.00820462589263916,-0.0577489728927612,0.187859625148773
3.5366439393939397,0.231297327232361,-0.0936742658615112,0.216599859523773
3.5372500000000002,0.125916467857361,-0.0122436017990112,0.06331860952377351
3.5378560606060607,-0.156695836830139,-0.0218236799240112,0.06571362905502351
3.5384621212121212,-0.0561050165176392,-0.196660105705261,0.108823980617523
3.539068181818182,-0.0441299188613892,-0.0888842267990112,0.216599859523773
3.5396742424242427,0.130706506919861,-0.0840941877365112,0.42736157827377297
3.540280303030303,0.353443323326111,0.00212651538848876,0.0896638243675235
3.5408863636363637,0.0780160772323608,-0.225400340080261,-0.10912279672622699
3.541492424242424,0.0732260381698608,-0.194265086174011,0.0154182188987735
3.542098484848485,-0.130350621986389,0.191333058357239,0.36988110952377296
3.5427045454545456,0.0181405889511108,0.100322316169739,0.21899487905502302
3.543310606060606,0.269617639732361,-0.029008738517761198,0.108823980617523
3.543916666666667,0.133101526451111,-0.155944773674011,0.046553472805023505
3.5445227272727275,-0.104005407142639,-0.285275828361511,0.12319409780502301
3.545128787878788,-0.0345498407363892,-0.0864892072677612,0.0273933165550235
3.5457348484848485,0.0444858037948608,0.00452153491973876,0.21420483999252302
3.546340909090909,0.0253256475448608,-0.112834422111511,0.482447027492523
3.54694696969697,0.140286585044861,-0.249350535392761,0.0872688048362735
3.5475530303030305,0.142681604576111,-0.292460886955261,0.0609235899925235
3.548159090909091,0.0612509405136108,0.0883472185134888,0.0226032774925235
3.5487651515151515,-0.123165563392639,0.0907422380447388,0.0824787657737735
3.5493712121212124,-0.147115758705139,-0.0361937971115112,0.44891675405502296
3.549977272727273,-0.14232571964263901,-0.335571238517761,0.25731519155502297
3.5505833333333334,0.0253256475448608,-0.244560496330261,-0.0755925232887265
3.551189393939394,0.231297327232361,-0.136784617424011,0.0824787657737735
3.551795454545455,0.113941370201111,-0.256535593986511,0.20941480093002302
3.5524015151515154,-0.104005407142639,0.0524219255447388,0.211809820461273
3.553007575757576,0.0899911748886108,-0.170314890861511,0.053738531398773506
3.5536136363636364,-0.0177847040176392,-0.323596140861511,0.173489507961273
3.5542196969696973,-0.161485875892639,-0.0697240705490112,-0.0109269959449765
3.554825757575758,0.0277206670761108,0.153012745857239,0.11600903921127301
3.5554318181818183,-0.11119046573638901,-0.19187006664276102,0.175884527492523
3.556037878787879,-0.120770543861389,-0.0481688947677612,0.190254644680023
3.5566439393939397,-0.113585485267639,0.0691870622634888,0.20462476186752301
3.5572500000000002,-0.106400426673889,-0.249350535392761,0.0249982970237735
3.557856060606061,0.0588559209823608,-0.122414500236511,-0.0779875428199765
3.5584621212121212,0.0732260381698608,0.0763721208572388,0.48963208608627296
3.559068181818182,0.00616549129486084,-0.0816991682052612,0.712368902492523
3.5596742424242422,-0.0513149774551392,-0.292460886955261,0.190254644680023
3.560280303030303,-0.104005407142639,-0.148759715080261,-0.10912279672622699
3.560886363636364,-0.125560582923889,0.129062550544739,0.183069586086273
3.561492424242424,-0.214176305580139,0.186543019294739,0.424966558742523
3.562098484848485,-0.0752651727676392,-0.103254343986511,-0.0109269959449765
3.562704545454545,-0.168670934486389,-0.244560496330261,0.216599859523773
3.563310606060606,0.0780160772323608,0.136247609138489,0.106428961086273
3.563916666666667,0.00137545223236084,0.124272511482239,0.250130132961273
3.564522727272727,-0.163880895423889,0.119482472419739,0.15432935171127302
3.565128787878788,-0.14232571964263901,-0.0912792463302612,0.0393684142112735
3.565734848484848,-0.144720739173889,-0.263720652580261,0.11600903921127301
3.566340909090909,-0.0968203485488892,-0.0314037580490112,-0.152233148288727
3.56694696969697,-0.151905797767639,0.0596069841384888,0.266895269680023
3.56755303030303,-0.31955716495513903,-0.0026635236740112397,0.16390942983627302
3.568159090909091,-0.298001989173889,0.0620020036697388,0.053738531398773506
3.568765151515152,0.00616549129486084,-0.232585398674011,0.422571539211273
3.569371212121212,-0.221361364173889,-0.167919871330261,-0.0324821717262265
3.569977272727273,-0.317162145423889,-0.029008738517761198,0.0848737853050235
3.570583333333333,-0.149510778236389,-0.158339793205261,0.187859625148773
3.571189393939394,-0.115980504798889,-0.0697240705490112,0.14953931264877302
3.5717954545454553,-0.206991246986389,-0.117624461174011,0.355510992336273
3.5724015151515154,-0.168670934486389,0.0835571794509888,0.22857495718002302
3.5730075757575763,-0.0920303094863892,-0.122414500236511,0.326770757961273
3.5736136363636364,0.130706506919861,0.265578663825989,0.06810864858627351
3.5742196969696973,0.0253256475448608,-0.0984643049240112,0.28845044546127296
3.5748257575757583,-0.120770543861389,-0.122414500236511,0.0920588438987735
3.5754318181818183,0.0133505498886108,0.0739771013259888,0.113614019680023
3.5760378787878793,-0.156695836830139,-0.0721190900802612,0.132774175930023
3.5766439393939393,0.0253256475448608,0.220073292732239,0.446521734523773
3.5772500000000003,-0.0201797235488892,0.0572119646072388,0.0872688048362735
3.577856060606061,-0.104005407142639,-0.160734812736511,-0.20013353891372698
3.5784621212121213,0.0684359991073608,-0.0577489728927612,0.683628668117523
3.579068181818182,0.0205356084823608,0.191333058357239,0.00583814077377346
3.5796742424242423,0.0875961553573608,-0.0577489728927612,0.161514410305023
3.580280303030303,-0.118375524330139,-0.105649363517761,0.0992439024925235
3.580886363636364,-0.0345498407363892,-0.139179636955261,-0.0252971131324765
3.581492424242424,-0.0896352899551392,0.042841847419738795,0.31958569936752296
3.582098484848485,0.197767053794861,0.315874073982239,0.0944538634300235
3.582704545454545,-0.0800552118301392,-0.266115672111511,0.405806402492523
3.583310606060606,0.27919771785736097,0.186543019294739,-0.415685296726227
3.583916666666667,0.00137545223236084,-0.146364695549011,0.501607183742523
3.584522727272727,-0.424938024330139,-0.0361937971115112,0.365091070461273
3.585128787878788,0.0708310186386108,0.174567921638489,0.302820562648773
3.585734848484848,-0.472838414955139,-0.409816843986511,0.264500250148773
3.586340909090909,0.283987756919861,0.188938038825989,-0.34143969125747703
3.58694696969697,-0.286026891517639,0.0667920427322388,0.532742437648773
3.58755303030303,0.0660409795761108,-0.314016062736511,-0.513881097507477
3.588159090909091,0.0325107061386108,-0.146364695549011,0.16390942983627302
3.588765151515152,-0.353087438392639,0.34940434741973897,0.187859625148773
3.589371212121212,0.283987756919861,-0.158339793205261,0.048948492336273505
3.589977272727273,-0.31955716495513903,-0.139179636955261,0.008233160305023461
3.590583333333333,0.0923861944198608,-0.29964594554901103,-0.46119066781997703
3.591189393939394,-0.144720739173889,-0.337966258049011,0.29803052358627297
3.5917954545454553,-0.314767125892639,0.447600148200989,-0.274379144382477
3.592401515151515,-0.118375524330139,-0.268510691642761,0.326770757961273
3.5930075757575763,-0.149510778236389,-0.278090769767761,0.166304449367523
3.593613636363636,0.0420907842636108,0.102717335700989,-0.10672777719497699
3.5942196969696973,0.0253256475448608,-0.167919871330261,0.42017651968002295
3.5948257575757583,-0.0441299188613892,0.220073292732239,-0.0181120545387265
3.5954318181818183,-0.0417348993301392,-0.225400340080261,0.312400640773773
3.5960378787878793,0.0253256475448608,-0.115229441642761,0.044158453273773504
3.5966439393939393,0.152261682701111,0.22725835132598898,0.0561335509300235
3.5972500000000003,-0.206991246986389,-0.141574656486511,0.264500250148773
3.5978560606060612,-0.0321548212051392,0.0524219255447388,0.0561335509300235
3.5984621212121213,-0.118375524330139,-0.0553539533615112,0.422571539211273
3.599068181818182,-0.106400426673889,-0.0721190900802612,0.343535894680023
3.5996742424242423,0.116336389732361,-0.06253901195526121,0.171094488430023
3.600280303030303,-0.238126500892639,-0.170314890861511,0.0848737853050235
3.600886363636364,0.264827600669861,-0.141574656486511,0.15432935171127302
3.601492424242424,-0.147115758705139,0.291923878669739,-0.152233148288727
3.602098484848485,-0.0608950555801392,0.0069165544509887595,-0.157023187351227
3.602704545454545,0.0636459600448608,-0.251745554924011,0.444126714992523
3.603310606060606,-0.168670934486389,0.208098195075989,-0.224083734226227
3.603916666666667,0.374998499107361,0.0667920427322388,0.22857495718002302
3.604522727272727,-0.211781286048889,-0.0864892072677612,0.27887036733627296
3.605128787878788,0.0157455694198608,-0.0984643049240112,-0.286354242038727
3.605734848484848,-1.43803128604889,-1.28878901195526,0.14474927358627301
3.606340909090909,1.56771822566986,0.766137745857239,0.202229742336273
3.60694696969697,1.41683199520111,1.15652592945099,0.161514410305023
3.60755303030303,-2.35532376651764,-1.2360985822677601,-1.35453295297623
3.608159090909091,0.470799280357361,-0.867265574455261,1.39255444936752
3.608765151515152,-0.175855993080139,1.0774902849197399,-0.755778070163727
3.609371212121212,0.365418420982361,-0.129599558830261,0.139959234523773
3.609977272727273,0.272012659263611,0.251208546638489,0.252525152492523
3.610583333333333,-1.25840482120514,-1.9210741682052601,-1.2922624451637301
3.611189393939394,1.20607027645111,-1.30555414867401,1.33746900014877
3.6117954545454554,1.45515230770111,5.168183644294739,-0.506696038913727
3.612401515151515,-1.80207425479889,-2.20847651195526,0.475261968898773
3.6130075757575764,-1.53383206729889,-3.04673334789276,-0.832418695163727
3.613613636363636,1.47431246395111,3.02224614429474,-0.044457269382476496
3.6142196969696974,0.386973596763611,-0.625368601799011,0.872835211086273
3.6148257575757583,-0.171065954017639,1.1756860857009899,-0.664767327976227
3.6154318181818184,-1.41168607120514,-0.819365183830261,0.142354254055023
3.6160378787878793,-0.786585973548889,-3.84187983226776,-0.755778070163727
3.6166439393939394,3.7926913702011102,4.70833989429474,1.4452448790550199
3.6172500000000003,-0.721920446205139,1.4319531755447399,-0.243243890476227
3.6178560606060612,-3.56720364933014,-5.302841746330261,-1.7329460389137301
3.6184621212121213,1.52221285457611,1.81994633960724,2.53018872671127
3.6190681818181822,0.830052210044861,1.61876469898224,0.195044683742523
3.6196742424242423,-0.0201797235488892,-0.869660593986511,0.640518316555023
3.6202803030303032,-1.39013089542389,1.51098882007599,-1.16293139047623
3.620886363636364,-1.21289945011139,-5.58545405101776,-0.815653558444977
3.6214924242424242,2.90653414363861,2.59832768726349,0.777034429836273
3.622098484848485,3.3567978155136102,7.36681157398224,1.1841877501487699
3.6227045454545452,-5.66524075870514,-7.78887201976776,-1.2922624451637301
3.623310606060606,-0.458468297767639,-1.25525873851776,-1.28028734750748
3.623916666666667,3.1915414678573604,4.18143559741974,3.00919263296127
3.624522727272727,-0.906336950111389,0.100322316169739,-1.2491520936012301
3.625128787878788,0.796521936607361,1.78881108570099,1.88353345327377
3.625734848484848,-4.29289456729889,-5.489653269767761,-2.96638109750748
3.626340909090909,3.9866879522323604,-2.83836664867401,0.0705036681175235
3.62694696969697,4.9111654912948595,12.2047510271072,4.35998364858627
3.62755303030303,-6.56337308292389,-3.4634667463302597,-3.85732836313248
3.628159090909091,-2.5110000360488898,-9.88690912914276,0.137564214992523
3.628765151515152,3.84777681941986,7.79791508960724,0.592617925930023
3.629371212121212,1.63238375301361,0.735002491950989,0.518372320461273
3.629977272727273,-0.860831579017639,1.2571167497634899,0.42017651968002295
3.630583333333333,-2.76487210636139,-0.864870554924011,-2.4322917420387298
3.631189393939394,0.966568323326111,-9.81984858226776,-0.0516423279762265
3.631795454545455,3.97710787410736,10.6839136247635,1.76857251577377
3.632401515151515,-2.53495023136139,4.45446782398224,1.0045612853050199
3.633007575757576,-5.15989163761139,-13.3405272932053,-2.5376726014137296
3.633613636363636,3.6442001592636104,4.715524952888489,0.048948492336273505
3.634219696969697,3.6968905889511103,3.55394048023224,1.62966138296127
3.6348257575757583,-1.91224515323639,-0.838525340080261,-0.391735101413727
3.635431818181818,-3.0426943719863897,2.68933842945099,0.20462476186752301
3.6360378787878793,-1.6487930047988901,-10.0497704572678,-2.45624193735123
3.636643939393939,5.89312349910736,2.38517094898224,1.89311353139877
3.6372500000000003,1.56532320613861,12.2861816911697,1.45242993764877
3.6378560606060613,-6.95615628604889,-10.8928173322678,-2.3556511170387298
3.6384621212121213,0.660005823326111,-2.9676977033615097,0.5255573790550231
3.6390681818181823,3.8238266241073604,7.3716016130447395,0.41778150014877297
3.6396742424242423,-0.436913121986389,-2.47432367992401,0.760269293117523
3.6402803030303033,-2.5900356805801397,4.46644292163849,-0.128282952976227
3.640886363636364,-2.48225980167389,-7.06078608226776,-2.02753344125748
3.6414924242424243,3.8262216436386103,-5.70999506664276,-0.554596429538727
3.642098484848485,5.96497408504486,15.806860402107201,3.0834382384300203
3.6427045454545453,-6.5178677118301405,-3.4898119611740097,-0.573756585788727
3.643310606060606,-4.30007962589264,-10.387468211174001,-3.2897087342262297
3.643916666666667,5.87156832332611,6.31779301929474,3.0235627501487703
3.644522727272727,0.918667932701111,1.2523267107009899,-0.48035082406997703
3.645128787878788,-1.20810941104889,2.22709965991974,1.16742261343002
3.645734848484848,-4.99224027042389,-1.54505610179901,-1.94849779672623
3.646340909090909,2.7652279912948603,-12.2412133283615,-1.75929125375748
3.64694696969697,8.33843844051361,12.0227295427322,3.9216950743675203
3.64755303030303,-5.634105504798891,9.17744633960724,-1.14856127328873
3.648159090909091,-7.00645169620514,-17.694672801017802,-0.274379144382477
3.648765151515152,4.62376314754486,3.97546391773224,-0.6863225037574769
3.649371212121212,4.10164888973236,5.3693652849197395,2.6283845274925204
3.649977272727273,-1.75417386417389,-1.29357905101776,0.104033941555023
3.650583333333333,-4.05099759464264,4.47841801929474,-1.67786058969498
3.651189393939394,-0.415357946205139,-13.5417089338303,-1.15335131235123
3.651795454545455,7.20798922176361,3.10846684741974,0.353115972805023
3.652401515151515,-1.30151517276764,15.531433156013499,4.18035718374252
3.653007575757576,-8.46022855167389,-13.211196238517799,-3.2729435975074797
3.653613636363636,2.82031344051361,-3.8394848127365098,-0.564176507663727
3.654219696969697,6.2619565069198595,9.08404057788849,1.80210278921127
3.6548257575757583,-0.132745641517639,-2.5054589338302597,-0.41808031625747705
3.655431818181818,-5.34670316104889,4.90712651538849,1.20334790639877
3.6560378787878793,-2.9421035516738896,-6.21773920726776,-2.97596117563248
3.6566439393939394,7.033152795982359,-7.95891840648651,0.235760015773773
3.6572500000000003,3.6370151006698603,16.657092335700998,2.1685407774925203
3.6578560606060613,-7.636341832923891,-3.59040278148651,-0.9473796326637269
3.6584621212121213,-2.11582181339264,-11.1107641096115,-1.5485295350074801
3.6590681818181823,6.33620211238861,8.617011769294741,1.63445142202377
3.6596742424242423,1.23960054988861,-1.4540453596115102,0.5662727110862731
3.6602803030303033,-4.07973782901764,2.63185796070099,-0.839603753757477
3.660886363636364,-4.256969274330141,-0.405026804924011,-0.662372308444977
3.6614924242424243,4.008243128013611,-11.841245066642799,-2.74603930063248
3.662098484848485,7.78039888973236,10.7437891130447,3.91690503530502
3.6627045454545453,-5.368258336830141,7.57996831226349,-0.10433275766372699
3.663310606060606,-7.28906400089264,-14.631442820549001,-2.9208757264137297
3.663916666666667,5.23928316707611,2.9432104997634903,1.45242993764877
3.664522727272727,4.12799410457611,4.610144093513489,0.161514410305023
3.665128787878788,-2.26191800479889,-1.59295649242401,1.1626325743675199
3.665734848484848,-5.66524075870514,4.5574536638259895,-1.84311693735123
3.666340909090909,1.19409517879486,-13.1297655744553,-1.31142260141373
3.66694696969697,10.170628381919899,3.70003667163849,1.2823835509300199
3.66755303030303,-3.92885159854889,16.0200171403885,1.34704907827377
3.668159090909091,-9.875685094642641,-14.609887644767799,-0.693507562351227
3.668765151515152,3.5436093389511103,-2.9772777814865097,-1.61798510141373
3.669371212121212,6.09191012020111,8.77029301929474,1.68235181264877
3.669977272727273,-0.300397008705139,-2.4719286603927597,-0.0109269959449765
3.670583333333333,-5.23174222354889,4.84006596851349,-0.20013353891372698
3.671189393939394,-2.0846865594863897,-8.35409662914276,-1.22041185922623
3.671795454545455,8.45579439754486,-4.88610834789276,-0.178578363132477
3.672401515151515,0.777361780357361,17.0355054216385,3.45706128530502
3.673007575757576,-10.3858242547989,-6.80212397289276,-2.66939867563248
3.673613636363636,0.906692835044861,-9.81266352367401,-1.32579271860123
3.674219696969697,6.90382174129486,9.99893803882599,2.2523664610862704
3.6748257575757584,1.51742281551361,-1.39656489086151,-0.178578363132477
3.675431818181818,-5.5670449579238905,2.44504643726349,1.00935132436752
3.6760378787878794,-4.57071683292389,-1.16185297679901,-1.78563646860123
3.676643939393939,7.13613863582611,-11.4628319807053,-0.719852777194977
3.6772500000000004,4.62855318660736,12.535263722419701,2.0655549376487703
3.6778560606060613,-7.62436673526764,3.81739262866974,-0.267194085788727
3.6784621212121213,-3.5815737665176397,-13.2950219221115,-0.813258538913727
3.6790681818181823,6.034429651451109,6.48304936695099,0.932710699367523
3.6796742424242423,3.4166733037948602,1.30980717945099,1.25603833608627
3.6802803030303033,-4.38869534854889,-0.661293894767761,-0.21450365610122699
3.6808863636363642,-5.940668004798891,3.0102710466384903,-0.782123285007477
3.6814924242424243,3.5699545537948603,-11.376611277580299,-1.64912035531998
3.6820984848484852,9.13597994441986,5.55138676929474,2.43678296499252
3.6827045454545453,-5.07367093448639,10.8946753435135,1.05964673452377
3.6833106060606062,-7.57167630558014,-12.1525976057053,-2.48258715219498
3.683916666666667,3.85496187801361,-0.833735301017761,0.997376226711273
3.6845227272727272,5.24886324520111,6.36329839038849,-0.0947526795387265
3.685128787878788,-1.63442288761139,-2.3186474103927597,1.13149732046127
3.6857348484848482,-7.130992711830141,4.38501225757599,-1.38087816781998
3.686340909090909,1.17733004207611,-9.958759715080259,-1.5700847107887301
3.68694696969697,10.0101620733261,-1.4205150861740101,0.8464899962425231
3.68755303030303,-1.27037991886139,16.2307788591385,1.75420239858627
3.688159090909091,-11.0109243524551,-9.40072016429901,-0.497115960788727
3.688765151515152,1.48868258113861,-6.22492426586151,-2.46342699594498
3.689371212121212,7.03075777645111,6.904572804450989,3.2965949767112703
3.689977272727273,0.688746057701111,0.449995167732239,-1.91736254281998
3.690583333333333,-5.87121243839264,2.43546635913849,0.8249348204612731
3.691189393939394,-2.9397085321426397,-4.70887690258026,-1.57966478891373
3.691795454545455,9.26531099910736,-6.335095164299011,-0.137863031101227
3.692401515151515,1.0839242803573599,12.250256398201,3.02116773061752
3.693007575757576,-10.3091836297989,-0.450532176017761,-2.53288256235123
3.693613636363636,-0.331532262611389,-10.8497069807053,0.9255256407737731
3.694219696969697,6.992437463951109,7.3979468278884895,-0.49951098031997704
3.6948257575757584,3.2681820928573604,1.0391699724197399,1.20334790639877
3.695431818181818,-6.18735501651764,1.24274663257599,-0.0324821717262265
3.6960378787878794,-5.23174222354889,-0.24216547679901101,-1.35932299203873
3.696643939393939,6.18292086238861,-10.1048559064865,-0.240848870944977
3.6972500000000004,5.375799280357359,8.46612553882599,0.0920588438987735
3.6978560606060613,-6.618458532142641,5.766938527107239,1.7613874571800199
3.6984621212121214,-3.9911221063613898,-9.652197215080259,-2.3053557068824797
3.6990681818181823,5.41172457332611,1.4846436052322398,0.671653570461273
3.6996742424242424,4.05614351863861,2.87614995288849,0.49921216421127296
3.7002803030303033,-3.67018948917389,0.423649952888489,-0.0708024842262265
3.7008863636363643,-6.90586087589264,1.5349390153884899,0.044158453273773504
3.7014924242424243,3.96513277645111,-7.61643061351776,-2.4251066834449797
3.7020984848484852,8.77912203426361,1.41039799976349,2.59245923452377
3.7027045454545453,-3.99591214542389,9.91750737476349,-0.365389886569977
3.7033106060606062,-7.45911038761139,-6.65842280101776,-0.6096818787574769
3.703916666666667,1.83356539363861,-3.39161616039276,0.46807691030502296
3.7045227272727272,5.84043306941986,4.01617924976349,0.29803052358627297
3.705128787878788,-0.767425817298889,0.485920460700989,0.345930914211273
3.7057348484848482,-7.66029202823639,2.33008549976349,-1.67067553110123
3.706340909090909,1.5030526983261099,-7.53499994945526,-0.322279535007477
3.70694696969697,9.83532564754486,-1.3510595197677602,0.0585285704612735
3.70755303030303,-2.1541421258926396,10.458781788826,1.5817609923362699
3.708159090909091,-8.88414700870514,-2.9413524885177598,0.8057746642112731
3.708765151515152,-0.628514684486389,-6.47161127758026,-2.0754338318824797
3.709371212121212,7.09063326473236,2.17440923023224,1.4620100157737699
3.709977272727273,1.99163668270111,3.81020757007599,0.537532476711273
3.710583333333333,-6.52744778995514,1.8941919450759899,-0.28874926156997704
3.711189393939394,-2.28586820011139,-5.00585932445526,-1.21562182016373
3.711795454545455,7.3732455694198595,-4.43344965648651,-0.542621331882477
3.712401515151515,2.4035800420761104,7.39555180835724,2.70981519155502
3.713007575757576,-9.11885892276764,2.5911426286697403,-1.15814135141373
3.713613636363636,-1.42366116886139,-7.30268305492401,-0.446820550632477
3.714219696969697,7.19840914363861,0.531425831794739,0.041763433742523504
3.714825757575758,3.75437105770111,4.0664746599197406,-0.166603265476227
3.715431818181818,-5.87839749698639,1.8438965349197398,1.01174634389877
3.716037878787879,-5.2006069696426405,-1.63606684398651,-1.41440844125748
3.716643939393939,5.32071383113861,-6.69195307445526,-0.240848870944977
3.71725,5.39495943660736,4.13353520679474,0.305215582180023
3.7178560606060613,-5.8328921258926405,5.58970708179474,0.793799566555023
3.718462121212121,-4.343189977455141,-4.73522211742401,-1.05036547250748
3.7190681818181823,4.9782260381698595,-1.6216967267990101,-0.374969964694977
3.719674242424242,4.338755823326109,1.9540674333572399,1.45721997671127
3.7202803030303033,-2.8822280633926396,2.3516406755447403,-0.7701481873512269
3.7208863636363643,-6.79329495792389,-0.407421824455261,-0.10193773813247699
3.7214924242424243,3.31608248348236,-5.61419428539276,-1.17490648813248
3.7220984848484853,8.42944918270111,0.390119679450989,0.975821050930023
3.7227045454545453,-3.53367337589264,6.50220952320099,-0.00134691781997655
3.7233106060606063,-6.22328030948639,-0.922351023674011,-0.046852288913726496
3.723916666666667,0.707906213951111,-5.1759057111740105,-0.039667230319976494
3.7245227272727273,5.63446138973236,0.917023976325989,-0.7893083436012269
3.725128787878788,-0.448888219642639,3.72398686695099,1.13149732046127
3.7257348484848483,-7.30822415714264,0.878703663825989,-1.41680346078873
3.726340909090909,1.25157564754486,-6.59136225414276,-0.533041253757477
3.72694696969697,8.67374117488861,-1.17382807445526,-1.16532641000748
3.72755303030303,0.0157455694198608,6.66267583179474,1.53386060171127
3.728159090909091,-9.28890530948639,0.928999073982239,1.10754712514877
3.728765151515151,-0.638094762611389,-5.029809519767761,-1.98681810922623
3.729371212121212,6.35775728816986,-2.92698237133026,1.27998853139877
3.729977272727273,2.1137826787948604,6.66267583179474,-1.22280687875748
3.730583333333333,-5.76822659854889,1.7528857927322399,1.53865064077377
3.731189393939394,-2.68823148136139,-5.070524851799011,-2.02034838266373
3.731795454545455,7.76123873348236,-2.58449457836151,-0.042062249851226495
3.732401515151515,1.77608492488861,3.81739262866974,1.98651929311752
3.733007575757576,-8.57997952823639,3.58747075366974,-1.27789232797623
3.733613636363636,-2.3409536493301397,-3.99755610179901,1.2009528868675199
3.734219696969697,6.55654390926361,-2.6779003400802597,-1.67786058969498
3.734825757575758,4.4393466436386095,3.48687993335724,1.50991040639877
3.735431818181818,-4.99224027042389,4.16227544116974,-0.0037419373512265503
3.736037878787879,-5.06409085636139,-3.66225336742401,-1.22041185922623
3.736643939393939,4.54712252254486,-4.61307612133026,0.0249982970237735
3.7372500000000004,5.75181734676361,2.55042729663849,-0.245638910007477
3.7378560606060613,-5.6197353876113905,3.31683354663849,1.07641187124252
3.7384621212121214,-4.30486966495514,0.0811621599197388,-1.46709887094498
3.7390681818181823,4.82733980770111,-4.191552683830261,0.125589117336273
3.7396742424242424,3.7807162725448604,0.521845753669739,-0.147443109226227
3.7402803030303033,-2.2643130243301397,4.955026906013489,0.39862134389877296
3.7408863636363643,-7.38246976261139,-2.2228466291427598,-0.0157170350074765
3.7414924242424243,2.9688046514511104,-3.66704340648651,-1.61559008188248
3.7420984848484853,8.66895113582611,0.426044972419739,1.81886792593002
3.7427045454545453,-3.50253812198639,3.15397221851349,-1.88143724985123
3.7433106060606063,-6.06520902042389,1.6858252458572398,1.39973950796127
3.7439166666666672,0.748621545982361,-3.25749506664276,0.240550054836273
3.7445227272727273,4.95906588191986,-2.61323481273651,-0.9904899842262269
3.7451287878787882,0.408528772544861,5.47953618335724,0.9279206603050231
3.745734848484849,-6.99208157901764,0.893073781013489,-1.56050463266373
3.746340909090909,0.410923792076111,-6.82846918773651,-0.0708024842262265
3.74694696969697,8.79828219051361,1.4319531755447399,-1.60121996469498
3.74755303030303,-0.240521520423889,1.92772221851349,2.2260212462425204
3.748159090909091,-8.55363431339264,2.51689702320099,0.638123297023773
3.748765151515152,-0.786585973548889,-0.565493113517761,-0.956959710788727
3.749371212121212,5.53387056941986,-7.012885691642761,0.803379644680023
3.749977272727273,3.4502035772323603,6.578850148200989,-0.564176507663727
3.750583333333333,-5.820917028236391,3.9012183122634903,1.61768628530502
3.751189393939394,-3.16723538761139,-6.80212397289276,-2.6143132264137297
3.751795454545455,7.52652681941986,-0.407421824455261,0.702788824367523
3.752401515151515,1.33061129207611,1.9109570817947399,0.772244390773773
3.753007575757576,-7.33217435245514,1.7361206560134899,-0.923429437351227
3.753613636363636,-2.7433169305801397,1.06312016773224,1.57218091421127
3.754219696969697,6.2284262334823595,-5.57347895336151,-1.58924486703873
3.754825757575758,4.53993746395111,1.9373022966384899,0.9877961485862731
3.755431818181818,-5.341913121986391,7.503327687263489,0.11600903921127301
3.756037878787879,-4.93715482120514,-5.8872265119552605,-0.362994867038727
3.756643939393939,3.7998764287948603,-2.85273676586151,-0.5665715271949769
3.75725,5.31113375301361,2.4282813005447403,-0.0564323670387265
3.757856060606061,-4.87727933292389,0.117087452888489,0.937500738430023
3.758462121212121,-4.44617581729889,3.83655278491974,-0.6503972107887269
3.759068181818182,4.365101038169859,-4.550805613517761,0.190254644680023
3.759674242424242,4.00345308895111,-2.43600336742401,-0.0205070740699765
3.760280303030303,-2.30263333683014,7.110544484138489,0.992586187648773
3.7608863636363643,-6.84359036808014,-2.69227045726776,-1.1509562928199801
3.761492424242424,2.77001803035736,-4.67295160961151,-0.14504808969497698
3.7620984848484853,8.527644983482359,2.7037085466384903,0.714763922023773
3.762704545454545,-3.3157265985488897,-0.184685008049011,-1.7880314881324801
3.7633106060606063,-5.7131411493301405,3.27372319507599,2.13740552358627
3.7639166666666672,0.509119592857361,-0.194265086174011,-0.21450365610122699
3.7645227272727273,4.46090181941986,-6.8452343244552605,-0.7270378357887269
3.7651287878787882,0.940223108482361,6.645910695075989,0.851280035305023
3.7657348484848483,-7.011241735267641,1.84150151538849,-0.9880949646949769
3.7663409090909092,0.252852503013611,-7.87988276195526,-0.640817132663727
3.76694696969697,8.759961878013609,3.13241704273224,-0.844393792819977
3.7675530303030302,0.0492758428573608,0.148222706794739,1.59613110952377
3.768159090909091,-8.46741361026764,1.60918462085724,0.343535894680023
3.768765151515152,-1.16499905948639,3.07254155445099,-0.0564323670387265
3.769371212121212,4.98062105770111,-9.27138910961151,0.5902229063987731
3.769977272727273,3.76874117488861,5.10351811695099,-1.29465746469498
3.770583333333333,-5.29640775089264,6.36808842945099,1.49554028921127
3.771189393939394,-3.3516518915176396,-8.53372309398651,-2.25027025766373
3.771795454545455,7.94805025691986,1.15173589038849,0.520767339992523
3.772401515151515,1.28271090145111,1.91335210132599,0.915945562648773
3.773007575757576,-7.56209622745514,-1.4420702619552601,-1.10066088266373
3.773613636363636,-2.4271743524551397,4.775400441169739,2.1661457579612704
3.774219696969697,5.682361780357359,-5.60700922679901,-1.96047289438248
3.774825757575758,5.20575289363861,-1.5474511213302602,0.604593023586273
3.775431818181818,-4.83895902042389,10.298315480232201,0.755479254055023
3.776037878787879,-4.9611050165176405,-6.466821238517761,-1.27549730844498
3.776643939393939,4.008243128013611,-3.7628441877365097,0.20941480093002302
3.77725,5.76139742488861,4.65325444507599,0.7458991759300231
3.7778560606060614,-5.43292386417389,-3.21438471508026,-0.171393304538727
3.778462121212121,-4.83177396183014,4.995742238044739,-0.561781488132477
3.7790681818181824,4.98062105770111,-1.8516186017990102,0.640518316555023
3.779674242424242,3.81424654598236,-6.13630854320526,-0.921034417819977
3.7802803030303034,-1.94577542667389,8.80142827320099,1.31112378530502
3.7808863636363643,-7.14536282901764,-1.93065424633026,-0.556991449069977
3.7814924242424244,2.73409273738861,-6.59615229320526,-0.595311761569977
3.7820984848484853,8.48453463191986,5.807653859138489,1.15544751577377
3.7827045454545454,-3.70611478214264,-2.2827221174240098,-2.90171557016373
3.7833106060606063,-5.880792516517641,1.1685010271072398,2.24757642202377
3.7839166666666673,0.736646448326111,4.921496632575989,0.262105230617523
3.7845227272727273,3.9196274053573603,-9.54202631664276,-0.834813714694977
3.7851287878787883,0.820472131919861,4.9502368669509895,0.42975659780502296
3.7857348484848483,-6.49631253604889,4.85443608570099,-1.4120134217262301
3.7863409090909093,-0.633304723548889,-10.808991648674,-0.554596429538727
3.78694696969697,9.291656213951109,5.16578862476349,-0.573756585788727
3.7875530303030303,-0.187831090736389,0.859543507575989,1.88592847280502
3.788159090909091,-8.64704007511139,-2.4024730939865098,-0.8467888123512269
3.788765151515152,-0.0153896844863892,7.66618901538849,1.25843335561752
3.789371212121212,3.5412143194198604,-9.33844965648651,-0.7701481873512269
3.789977272727273,4.39384127254486,0.363774464607239,-1.50062914438248
3.790583333333333,-5.607760289955141,10.6623584489822,2.71939526968002
3.791189393939394,-3.97196195011139,-9.05583735179901,-3.5555559021949796
3.791795454545455,8.67853121395111,-1.0397069807052601,1.63445142202377
3.792401515151515,0.959383264732361,5.70945805835724,-0.877924066257477
3.793007575757576,-6.8172451532363905,-6.107568308830261,-0.152233148288727
3.793613636363636,-3.55043851261139,6.46149419116974,2.5014484923362703
3.794219696969697,5.45243990535736,-1.9450243635177602,-2.11135912485123
3.794825757575758,5.715892053794859,-7.80803217601776,0.980611089992523
3.795431818181818,-4.91080960636139,13.466926320076,-0.973724847507477
3.796037878787879,-5.39220853214264,-5.13279535961151,0.173489507961273
3.796643939393939,3.99387301082611,-6.69195307445526,-0.978514886569977
3.79725,5.77337252254486,7.78593999195099,0.954265875148773
3.797856060606061,-4.92757474308014,-5.33397700023651,0.11600903921127301
3.798462121212121,-4.56113675479889,3.84373784351349,-1.08389574594498
3.799068181818182,4.83931490535736,2.9671606950759903,1.92903882436752
3.799674242424242,3.8860971319198603,-10.0258202619553,-2.0490886170387297
3.800280303030303,-1.97212064151764,7.31412114429474,2.00807446889877
3.8008863636363643,-6.75257962589264,2.43067632007599,-0.6695573670387269
3.801492424242424,2.3197543584823603,-10.224606883049,-1.34255785531998
3.8020984848484853,8.27616793270111,6.34174321460724,1.3039387267112699
3.802704545454545,-2.7097866571426397,-0.821760203361511,-1.98442308969498
3.8033106060606063,-6.079579137611391,-2.52701410961151,2.42720288686752
3.8039166666666673,1.54376803035736,9.74267094898224,0.197439703273773
3.8045227272727273,3.5531894170761102,-10.4090233869553,-0.916244378757477
3.8051287878787883,0.909087854576111,1.00084965991974,-0.6120768982887269
3.805734848484849,-5.75864652042389,9.21097661304474,0.851280035305023
3.8063409090909093,-1.40689603214264,-11.891540476799001,-1.35932299203873
3.80694696969697,9.897596155357359,3.39107915210724,-0.48753588266372705
3.8075530303030303,0.255247522544861,3.74075200366974,2.15417066030502
3.808159090909091,-8.56081937198639,-5.92315180492401,-1.49104906625748
3.808765151515152,-1.32786038761139,9.074460499763491,2.1158503478050203
3.809371212121212,3.9555526983261102,-5.4752831525802605,-0.676742425632477
3.809977272727273,4.35073092098236,-6.01895258617401,-1.31860766000748
3.810583333333333,-4.57790189151764,13.493271534919701,0.834514898586273
3.811189393939394,-4.24020413761139,-8.04992914867401,-2.13770433969498
3.811795454545455,8.16599703426361,-3.76044916820526,0.760269293117523
3.812401515151515,1.86709566707611,8.782268116950991,0.820144781398773
3.813007575757576,-7.5692812860488905,-8.160100047111511,-0.923429437351227
3.813613636363636,-3.2989614618301397,5.8411841325759895,1.50272534780502
3.814219696969697,5.26083834285736,2.58156255054474,-0.573756585788727
3.814825757575758,5.84522310848236,-11.517917429924001,-0.9904899842262269
3.815431818181818,-3.8378408563613897,12.1975659685135,0.760269293117523
3.816037878787879,-5.90474271183014,-1.07084223461151,-0.396525140476227
3.816643939393939,4.298040491294859,-9.84858881664276,-1.4287785584449801
3.81725,5.37340426082611,9.366652882575991,1.37339429311752
3.817856060606061,-4.7814785516738905,-5.063339793205261,-1.05036547250748
3.818462121212121,-4.75034329776764,0.220073292732239,-0.293539300632477
3.819068181818182,4.12799410457611,7.97754155445099,2.2619465392112703
3.819674242424242,4.73393404598236,-11.3143407697678,-2.0826188904762297
3.820280303030303,-2.13977200870514,4.5909839372634895,0.599802984523773
3.8208863636363644,-7.21960843448639,6.55729497241974,-0.11630785531997699
3.821492424242424,1.78326998348236,-12.655551707267799,-0.839603753757477
3.8220984848484854,8.53722506160736,6.84948735523224,0.33874585561752296
3.822704545454545,-2.21641263370514,1.3768677263259899,-0.9689348084449769
3.8233106060606064,-6.378956579017641,-6.466821238517761,0.8105647032737731
3.8239166666666673,0.861187463951111,11.615576222419701,1.1243122618675199
3.8245227272727274,4.07530367488861,-7.94933832836151,0.147144293117523
3.8251287878787883,0.909087854576111,-3.37485102367401,-1.26352221078873
3.8257348484848483,-5.701166051673891,11.7089819841385,0.5854328673362731
3.8263409090909093,-2.16611722354889,-11.3957714338303,-1.6299601990699801
3.8269469696969702,9.61498385066986,1.3768677263259899,-0.283959222507477
3.8275530303030303,0.992913538169861,7.08898930835724,2.4918684142112704
3.8281590909090912,-9.39189114933014,-9.66896235179901,-2.24787523813248
3.828765151515152,-0.796166051673889,8.925969288825991,3.20558423452377
3.8293712121212122,3.71844576473236,-0.215820261955261,0.48005200796127295
3.829977272727273,4.46808687801361,-10.4209984846115,-2.92566576547623
3.8305833333333332,-4.18751370792389,12.8873315935135,1.75899243764877
3.831189393939394,-5.6532656610488905,-4.524460398674011,-2.2814055115699796
3.831795454545455,8.83181246395111,-7.352978465080261,0.836909918117523
3.832401515151515,2.04911715145111,11.4503198747635,0.31958569936752296
3.833007575757576,-7.76567288761139,-8.99117182445526,-1.21322680063248
3.833613636363636,-3.08819974308014,2.14327397632599,2.27631665639877
3.834219696969697,4.14715426082611,8.243388722419741,-0.6480021912574769
3.834825757575758,6.726590295982359,-13.793185984611501,-0.523461175632477
3.835431818181818,-3.8210757196426397,9.500773976325991,-0.133072992038727
3.836037878787879,-6.52984280948639,3.49166997241974,-0.295934320163727
3.836643939393939,3.85496187801361,-12.8711034650803,-0.8515788514137269
3.83725,5.30634371395111,9.927087452888491,1.38776441030502
3.837856060606061,-4.23780911808014,-2.85273676586151,-0.372574945163727
3.838462121212121,-4.76710843448639,-3.96642084789276,-1.57966478891373
3.839068181818182,3.89807222957611,11.445529835701,3.1361286681175202
3.839674242424242,4.70758883113861,-10.243767039299,-1.79521654672623
3.840280303030303,-1.75656888370514,-0.141574656486511,-0.0923576600074765
3.840886363636364,-7.50222073917389,9.93187749195099,0.8057746642112731
3.841492424242424,1.33779635066986,-13.050729929924,-1.44075365610123
3.842098484848485,9.26291597957611,4.75384526538849,0.6261481993675231
3.842704545454545,-2.18527737979889,5.35020512866974,-1.4886540467262301
3.843310606060606,-7.10943753604889,-11.122739207267799,1.10994214468002
3.8439166666666673,1.12703463191986,12.664594777107201,1.06922681264877
3.844522727272727,3.66575533504486,-3.21917475414276,0.5662727110862731
3.8451287878787883,1.19888521785736,-8.92171625804901,-1.38327318735123
3.845734848484848,-5.43292386417389,12.9424170427322,0.5854328673362731
3.8463409090909093,-3.02353421573639,-9.50610102367401,-0.899479242038727
3.8469469696969703,10.2209237920761,-1.63606684398651,-1.01923021860123
3.8475530303030303,1.40246187801361,10.1091089372635,2.5253986876487704
3.8481590909090913,-9.18112943058014,-10.986223093986501,-2.9735661561012297
3.848765151515152,-1.15781400089264,6.13577153491974,3.04511792593002
3.8493712121212122,3.1771713506698602,5.347810109138489,-0.166603265476227
3.849977272727273,5.08600191707611,-13.4985985822678,-2.31733080453873
3.8505833333333332,-4.21146390323639,10.8060596208572,1.52428052358627
3.851189393939394,-5.46884915714264,0.102717335700989,-2.67658373422623
3.851795454545455,8.32885836238861,-10.8042016096115,1.3207038634300199
3.852401515151515,2.57362642879486,13.2058691911697,-0.0755925232887265
3.853007575757576,-7.70819241886139,-7.98765864086151,-0.243243890476227
3.853613636363636,-3.9001113641738896,-2.17015619945526,0.173489507961273
3.854219696969697,4.57346773738861,12.7699756364822,1.23208814077377
3.854825757575758,6.34578219051361,-13.347712351799,-0.705482660007477
3.855431818181818,-2.3002383172988896,4.969397023200989,-1.41919848031998
3.856037878787879,-7.224398473548891,7.091384327888489,1.68235181264877
3.856643939393939,3.19872652645111,-13.2351464338303,-2.06106371469498
3.85725,6.59725924129486,7.90090092945099,2.24278638296127
3.857856060606061,-4.48449612979889,0.538610890388489,-1.3138176209449801
3.858462121212121,-4.90601956729889,-8.50019282054901,-1.46949389047623
3.859068181818182,2.51375094051361,12.1712207536697,3.64387280874252
3.859674242424242,5.46681002254486,-6.05248285961151,-1.6131950623512301
3.860280303030303,-1.20092435245514,-5.39864252758026,0.0106281798362735
3.8608863636363644,-7.32019925479889,12.4298828630447,-0.34862474985122704
3.861492424242424,0.849212366294861,-12.133437449455299,-0.545016351413727
3.8620984848484854,8.92282320613861,1.70977544116974,-0.0612224061012265
3.862704545454545,-1.05482816104889,8.78705815601349,0.264500250148773
3.8633106060606064,-7.46629544620514,-12.552565867424,0.111219000148773
3.8639166666666673,0.983333460044861,10.2552051286697,1.25364331655502
3.8645227272727274,3.6274350225448604,1.48703862476349,1.74941235952377
3.8651287878787883,1.14619478816986,-11.2137499494553,-3.08852709360123
3.8657348484848493,-5.07606595401764,10.4515967302322,2.1421955626487703
3.8663409090909093,-3.4785879266738897,-5.448937937736511,-2.1927897889137298
3.8669469696969703,10.1083578741074,-4.73522211742401,0.187859625148773
3.8675530303030303,1.81919527645111,11.7185620622635,2.49665845327377
3.8681590909090913,-9.09969876651764,-10.337172801017799,-3.7088371521949797
3.868765151515152,-1.59849759464264,1.66666508960724,3.5887873595237703
3.8693712121212123,3.2370468389511102,10.6168530778885,0.401016363430023
3.869977272727273,4.7914145147323595,-14.2027343244553,-1.20125170297623
3.8705833333333333,-3.43068753604889,6.964448292732239,-0.7893083436012269
3.871189393939394,-5.74906644229889,3.3359937028884903,-1.0144401795387301
3.871795454545455,7.96002535457611,-11.3047606916428,1.18179273061752
3.872401515151515,3.7831112920761103,12.461018116951,-0.10672777719497699
3.873007575757576,-8.438673375892641,-6.02374262523651,-0.28156420297622703
3.873613636363636,-3.45942777042389,-5.63335444164276,-0.25282396860122697
3.874219696969697,3.59150972957611,14.331528370857201,2.00567944936752
3.874825757575758,6.28351168270111,-10.291667429924,-0.9713298279762269
3.875431818181818,-1.5505972040176401,0.47873540210723897,-1.3736931092262301
3.876037878787879,-7.68663724308014,9.52951421070099,0.9063654845237731
3.876643939393939,3.13885103816986,-12.4615551252365,-1.53415941781998
3.87725,6.31943697566986,5.867529347419739,2.0655549376487703
3.877856060606061,-4.11326810245514,3.3359937028884903,-0.44921557016372704
3.878462121212121,-4.85093411808014,-10.636550242424,-1.61798510141373
3.879068181818182,2.5424911748886103,12.0634448747635,3.03553784780502
3.879674242424242,5.89072847957611,-2.13183588695526,-0.736617913913727
3.880280303030303,-0.714735387611389,-8.35888666820526,-1.38806322641373
3.880886363636364,-7.53814603214264,11.227583058357201,0.614173101711273
3.881492424242424,0.348653284263611,-8.976801707267759,-0.5665715271949769
3.882098484848485,9.02580904598236,-0.345151316642761,-0.137863031101227
3.882704545454545,-0.360272496986389,9.845656788825991,0.664468511867523
3.883310606060606,-7.41360501651764,-12.887868601799001,-1.27789232797623
3.8839166666666673,0.39894869441986097,6.71536626148224,1.00216626577377
3.884522727272727,3.7136557256698604,6.65070073413849,1.80928784780502
3.8851287878787883,1.72339449520111,-12.188522898674,-1.62756517953873
3.885734848484848,-4.7287881219863905,7.50811772632599,0.187859625148773
3.8863409090909093,-3.9767519891738896,-2.30427729320526,-1.91496752328873
3.8869469696969703,9.78742525691986,-5.89920160961151,0.8464899962425231
3.8875530303030303,2.7556479131698604,12.2933667497635,1.75420239858627
3.8881590909090913,-8.99431790714264,-9.23546381664276,-3.7926628357887298
3.8887651515151522,-1.95296048526764,-1.8564086408615101,2.9565022032737702
3.8893712121212123,3.34242769832611,13.1555737810135,1.7997077696800199
3.8899772727272732,4.3459408819198595,-12.049611765861501,-1.90299242563248
3.8905833333333333,-2.6594912469863896,2.39954106616974,-0.774938226413727
3.8911893939393942,-5.96461820011139,5.568151906013489,-0.875529046726227
3.891795454545455,6.90142672176361,-10.761091258049,0.9877961485862731
3.8924015151515152,4.64052828426361,10.0109131364822,1.07401685171127
3.893007575757576,-7.95248441104889,-3.22635981273651,-0.7318278748512269
3.893613636363636,-4.15398343448639,-8.24871576976776,-0.655187249851227
3.894219696969697,2.8682138311386103,14.252492726326,2.3721174376487704
3.894825757575758,6.69545504207611,-6.01895258617401,-0.813258538913727
3.895431818181818,-0.736290563392639,-4.04066645336151,-1.27789232797623
3.896037878787879,-7.88542386417389,9.800151417732241,0.27887036733627296
3.896643939393939,2.2502987920761104,-10.538354441642799,-0.904269281101227
3.89725,7.152903772544859,3.75991215991974,1.80689282827377
3.897856060606061,-3.7803603876113896,5.57054692554474,-0.451610589694977
3.898462121212121,-5.28443265323639,-12.2244481916428,-1.88622728891373
3.899068181818182,2.1401278936386103,9.99654301929474,2.46312817983627
3.899674242424242,5.742237268638609,2.19117436695099,0.22857495718002302
3.900280303030303,-0.0656850946426392,-9.89409418773651,-1.49104906625748
3.900886363636364,-7.61478665714264,9.22774174976349,0.537532476711273
3.901492424242424,-0.49918362979888903,-6.29198481273651,-1.04557543344498
3.902098484848485,8.89647799129486,-2.26116694164276,-0.207318597507477
3.902704545454545,0.434873987388611,10.8180347185135,1.19855786733627
3.903310606060606,-7.61239163761139,-11.728679148674,-1.55092455453873
3.9039166666666674,-0.274051793861389,3.27851323413849,0.463286871242523
3.904522727272727,4.01303316707611,9.225346730232241,2.58048413686752
3.9051287878787884,1.36174654598236,-10.6892406721115,-2.5712028748512297
3.905734848484848,-4.60664212589264,3.69285161304474,0.017813238430023498
3.9063409090909094,-4.230624059486391,0.00212651538848876,-1.20125170297623
3.9069469696969703,9.21980562801361,-6.18899897289276,0.43933667593002296
3.9075530303030304,3.52923922176361,11.0072412614822,2.2379963438987702
3.9081590909090913,-8.57758450870514,-6.60812739086151,-2.93285082406998
3.9087651515151522,-2.3313735712051398,-5.39385248851776,2.42001782827377
3.9093712121212123,2.09462252254486,14.2932080583572,0.891995367336273
3.9099772727272732,5.24886324520111,-8.57922846508026,-0.384550042819977
3.9105833333333333,-1.44042630558014,-1.6336718244552602,-1.6730705506324801
3.9111893939393942,-6.25681058292389,6.40880376148224,-1.50541918344498
3.911795454545455,5.79013765926361,-9.53484125804901,1.49314526968002
3.9124015151515152,5.39495943660736,8.95949956226349,-0.10672777719497699
3.913007575757576,-7.45192532901764,-1.0301269025802602,0.384251226711273
3.9136136363636362,-4.53239652042389,-10.2964574689865,-1.4718889100074801
3.914219696969697,2.7029574834823604,13.1100684099197,1.97693921499252
3.914825757575758,5.94341890926361,-2.35696772289276,0.286055425930023
3.915431818181818,0.686351038169861,-5.75071039867401,-2.3317009217262297
3.916037878787879,-7.976434606361391,8.267338917732241,0.9255256407737731
3.916643939393939,1.79524508113861,-7.93496821117401,-1.67067553110123
3.91725,6.90142672176361,1.7409106950759898,1.77575757436752
3.917856060606061,-3.68934964542389,6.79679692554474,-0.679137445163727
3.918462121212121,-4.83177396183014,-12.0711669416428,-1.63954027719498
3.919068181818182,0.889927698326111,7.65421391773224,2.11345532827377
3.919674242424242,5.955394006919859,5.03166753101349,1.10994214468002
3.920280303030303,0.461219202232361,-10.5431444807053,-1.07192064828873
3.920886363636364,-7.49264066104889,7.2255054216384895,-1.34974291391373
3.921492424242424,-1.40210599308014,-4.591520945549011,0.202229742336273
3.922098484848485,8.48213961238861,-3.12337397289276,-0.30072435922622703
3.922704545454545,1.87667574520111,10.2144897966385,1.77815259389877
3.923310606060606,-7.78483304386139,-10.186286570549,-2.10417406625748
3.923916666666667,-0.760240758705139,0.521845753669739,0.21899487905502302
3.924522727272727,3.59150972957611,10.2719702653885,3.30138501577377
3.925128787878788,1.89823092098236,-8.416367136955259,-1.83832689828873
3.9257348484848493,-4.28810452823639,1.3433374528884898,-0.7270378357887269
3.926340909090909,-4.73118314151764,0.730212452888489,-2.1616545350074796
3.9269469696969703,9.03538912410736,-6.22971430492401,1.16023755483627
3.92755303030303,3.5962997686386102,10.3581909685135,0.923130621242523
3.9281590909090913,-7.756092809486391,-4.943588816642761,-1.96286791391373
3.928765151515151,-3.44745267276764,-7.499074656486511,1.92664380483627
3.9293712121212123,2.5688363897323603,13.8573145036697,1.21292798452377
3.9299772727272733,4.47527193660736,-5.523183543205261,1.11233716421127
3.9305833333333333,-1.60568265323639,-3.41796137523651,-3.59148119516373
3.9311893939393943,-5.368258336830141,4.801745656013489,0.16869946889877302
3.931795454545455,4.2860653936386095,-6.70153315258026,0.29803052358627297
3.9324015151515153,6.393682581138609,7.32849126148224,0.36988110952377296
3.933007575757576,-6.898675817298891,-0.0242186994552612,0.954265875148773
3.9336136363636363,-4.8150088251113905,-10.425788523674,-2.7939396912574797
3.934219696969697,2.54009615535736,10.0875537614822,3.5193317931175203
3.934825757575758,5.38058931941986,1.83671147632599,-0.614471917819977
3.935431818181818,1.7641098272323599,-7.2643627424240105,-1.06473558969498
3.936037878787879,-7.82075833683014,6.43514897632599,-0.41808031625747705
3.936643939393939,0.779756799888611,-5.242966258049011,-1.3305827576637301
3.93725,7.02117769832611,0.521845753669739,2.50384351186752
3.937856060606061,-2.9852139032363896,7.10335942554474,-1.00486010141373
3.938462121212121,-5.22934720401764,-10.923952586174,-0.935404535007477
3.939068181818182,0.784546838951111,4.89275639820099,0.7075788634300231
3.939674242424242,5.9362338506698595,6.49741948413849,1.65840161733627
3.940280303030303,0.873162561607361,-8.33972651195526,-1.10784594125748
3.940886363636364,-6.48673245792389,4.40177739429474,-1.10066088266373
3.941492424242424,-2.10863675479889,-3.29581537914276,0.135169195461273
3.942098484848485,8.05343111629486,-2.4982738752365097,-0.794098382663727
3.942704545454545,2.34130953426361,8.80382329273224,2.59006421499252
3.943310606060606,-7.56449124698639,-7.65954096508026,-2.77956957406998
3.9439166666666674,-1.04764310245514,-1.9330492658615102,0.903970464992523
3.944522727272727,3.40948824520111,10.2887354021072,3.0044025938987704
3.9451287878787884,2.13533785457611,-4.96514399242401,-1.42398851938248
3.945734848484848,-3.6749795282363897,-1.5905614728927602,-1.17969652719498
3.9463409090909094,-4.889254430580141,0.550585988044739,-2.43947680063248
3.9469469696969703,8.16360201473236,-4.478955027580261,2.16375073843002
3.9475530303030304,4.6716635381698595,8.940339406013491,-0.0061369568824765405
3.9481590909090913,-7.22200345401764,-3.7556591291427597,-0.822838617038727
3.9487651515151523,-4.00309720401764,-7.18772211742401,1.4021345274925199
3.9493712121212123,2.2431137334823603,11.493430226326,1.4236897032737699
3.9499772727272733,4.331570764732359,-2.0959105939865097,1.5003303282737699
3.9505833333333333,-0.417752965736389,-4.03587641429901,-2.87297533578873
3.9511893939393943,-5.15270657901764,2.44265141773224,0.0297883360862735
3.951795454545455,3.6609652959823604,-4.04306147289276,-0.5306462342262269
3.9524015151515153,6.60444429988861,5.55857182788849,1.62247632436752
3.953007575757576,-6.2783657587051405,1.01042973804474,0.293240484523773
3.9536136363636363,-5.35149320011139,-9.09176264476776,-2.16644457406998
3.954219696969697,1.96050142879486,6.612380421638489,2.78885083608627
3.954825757575758,5.91228365535736,4.00420415210724,-0.137863031101227
3.955431818181818,1.47191744441986,-5.84411616039276,-0.9258244568824769
3.956037878787879,-6.70946927433014,3.3192285661697403,-1.12221605844498
3.956643939393939,0.137891565513611,-4.05264155101776,0.29803052358627297
3.95725,6.214056116294859,1.37447270679474,1.00216626577377
3.957856060606061,-2.0511562860488897,5.61844731616974,-0.255218988132477
3.958462121212121,-5.04732571964264,-8.73969477367401,-0.7318278748512269
3.959068181818182,0.760596643638611,3.20426762866974,0.190254644680023
3.959674242424242,4.48245699520111,5.77891362476349,1.39015942983627
3.960280303030303,1.95331637020111,-5.09208002758026,-0.475560785007477
3.960886363636364,-5.660450719642641,1.4032129411697398,-0.324674554538727
3.961492424242424,-3.1983706415176396,-2.7617260236740098,-1.20604174203873
3.962098484848485,6.94453707332611,-1.0612621564865101,0.386646246242523
3.962704545454545,3.63941012020111,7.29975102710724,1.29196362905502
3.963310606060606,-6.6112734735488905,-5.73873530101776,-2.5951530701637298
3.963916666666667,-2.02481107120514,-2.80723139476776,0.856070074367523
3.964522727272727,3.03586519832611,8.14519292163849,1.88353345327377
3.965128787878788,2.09222750301361,-1.9450243635177602,-0.42766039438247705
3.965734848484849,-3.30375150089264,-1.7749779767990101,-0.942589593601227
3.966340909090909,-4.9682900751113905,-1.6672020978927602,-1.6084050232887301
3.96694696969697,7.36366549129486,-2.51982905101776,1.29196362905502
3.96755303030303,5.28239351863861,7.77875493335724,0.293240484523773
3.968159090909091,-6.565768102455141,-3.13534907054901,-0.540226312351227
3.968765151515151,-4.55155667667389,-6.1602587385177605,0.0249982970237735
3.969371212121212,1.91739107723236,8.06855229663849,1.13149732046127
3.9699772727272733,3.68491549129486,0.955344288825989,1.86916333608627
3.970583333333333,-0.240521520423889,-3.03475825023651,-2.44666185922623
3.9711893939393943,-4.30726468448639,-0.855290476799011,-0.822838617038727
3.9717954545454552,2.3437045537948604,-2.04322016429901,-0.516276117038727
3.9724015151515153,6.3218319952011095,5.14662846851349,1.62247632436752
3.9730075757575762,-4.98505521183014,0.272763722419739,0.539927496242523
3.9736136363636363,-6.0723940790176405,-7.558950144767761,-2.3221208436012297
3.9742196969696972,1.82159029598236,4.70115483570099,1.86916333608627
3.974825757575758,4.7051938116073595,4.569428761482239,0.5878278868675231
3.9754318181818182,2.5424911748886103,-3.37485102367401,-0.00853197641372654
3.976037878787879,-5.899952672767641,0.330244191169739,-1.6898356873512301
3.9766439393939392,-0.571034215736389,-2.7114306135177597,-1.40243334360123
3.97725,6.57570406551361,1.41279301929474,3.45466626577377
3.977856060606061,-2.25952298526764,4.07605473804474,-0.28874926156997704
3.978462121212121,-4.64017239933014,-6.6392626447677605,-0.463585687351227
3.979068181818182,0.236087366294861,1.07509526538849,0.7051838438987731
3.979674242424242,4.50880221004486,5.508276417732239,1.35662915639877
3.980280303030303,1.90062594051361,-2.45037348461151,0.621358160305023
3.980886363636364,-5.16707669620514,-0.445742136955261,-2.00597826547623
3.981492424242424,-3.09777982120514,-3.7891894025802597,0.207019781398773
3.982098484848485,5.65841158504486,0.823618214607239,-0.224083734226227
3.982704545454546,3.9124423467636102,5.1562085466384895,1.80689282827377
3.983310606060606,-5.79457181339264,-3.96642084789276,-2.8107048279762297
3.983916666666667,-2.1373769891738896,-2.48390375804901,-0.11391283578872699
3.984522727272727,2.6119467412948603,5.208898976325989,2.63556958608627
3.985128787878788,1.70902437801361,1.41758305835724,-0.21450365610122699
3.985734848484848,-2.38166898136139,-2.81681147289276,-0.434845452976227
3.986340909090909,-4.81979886417389,-3.5496874494552597,-3.0933171326637297
3.9869469696969704,6.23800631160736,-0.946301218986511,1.6248713438987699
3.9875530303030304,5.854803186607359,6.93570805835724,-0.0923576600074765
3.9881590909090914,-6.08915921573639,-2.69945551586151,-0.0516423279762265
3.9887651515151514,-4.45336087589264,-5.58545405101776,-0.0684074646949765
3.9893712121212124,1.38569674129486,5.52983159351349,0.492027105617523
3.9899772727272733,3.5004989873886103,2.35403569507599,2.30026685171127
3.9905833333333334,0.341468225669861,-1.84443354320526,-2.8202849061012296
3.9911893939393943,-3.75641019229889,-3.9352855939865097,-0.535436273288727
3.9917954545454553,2.03953707332611,-0.388261668205261,-0.813258538913727
3.9924015151515153,6.46313814754486,5.9345898942947395,1.10036206655502
3.9930075757575763,-4.75034329776764,-0.955881297111511,0.803379644680023
3.9936136363636363,-5.480824254798891,-5.729155222892761,-2.0730388123512298
3.9942196969696973,1.50065767879486,2.14566899585724,2.01525952749252
3.994825757575758,3.5244491827011104,4.59816899585724,-0.14504808969497698
3.9954318181818183,2.91371920223236,-0.510407664299011,-0.12109789438247699
3.996037878787879,-4.75992337589264,-1.9929247541427602,-1.42159349985123
3.9966439393939392,-1.0715932977676401,-2.8742919416427597,-1.2491520936012301
3.99725,4.9782260381698595,2.67975835132599,1.37339429311752
3.997856060606061,-1.25361478214264,3.58986577320099,-0.7102726990699769
3.998462121212121,-4.69765286808014,-5.85369623851776,0.166304449367523
3.999068181818182,0.343863245201111,0.893073781013489,-0.882714105319977
3.999674242424242,3.82143160457611,3.9778589372634903,1.68953687124252
4.000280303030303,1.91260103816986,-0.0553539533615112,-0.271984124851227
4.000886363636364,-3.80910062198639,-1.28399897289276,-0.8683439881324769
4.001492424242424,-3.98872708683014,-4.34004389476776,-0.664767327976227
4.002098484848485,5.57937594051361,1.7313306169509899,-0.271984124851227
4.002704545454545,3.69210054988861,4.00899419116974,2.00807446889877
4.003310606060606,-5.41615872745514,-2.64437006664276,-3.2633635193824797
4.003916666666667,-2.0751064813613898,-2.86231684398651,1.61768628530502
4.004522727272727,1.6826791631698599,4.16706548023224,1.00695630483627
4.005128787878788,2.57123140926361,2.62467290210724,1.07401685171127
4.005734848484848,-2.60440579776764,-1.47799555492401,-0.935404535007477
4.006340909090909,-4.23541409854889,-5.38666742992401,-2.82986498422623
4.00694696969697,5.32789888973236,-0.613393504142761,1.94340894155502
4.00755303030303,5.49076021785736,7.70690434741974,-1.05515551156998
4.008159090909091,-5.2940127313613905,-3.71733881664276,2.5182136290550203
4.008765151515152,-4.5156313837051405,-3.9185204572677597,-0.722247796726227
4.009371212121212,1.69944429988861,3.18750249195099,1.94340894155502
4.009977272727273,1.98684664363861,3.2330078630447403,1.77815259389877
4.010583333333333,0.537859827232361,0.802063038825989,-2.1616545350074796
4.011189393939394,-2.87504300479889,-6.22252924633026,0.44891675405502296
4.011795454545455,1.52939791316986,-0.10085932445526101,-3.0166765076637296
4.012401515151515,5.8164828741073595,5.36457524585724,3.4235310118675204
4.013007575757576,-4.01267728214264,-0.725959422111511,-0.188158441257477
4.013613636363636,-5.39939359073639,-4.84539301586151,-1.34255785531998
4.014219696969697,1.38809176082611,1.2355615739822399,1.83323804311752
4.014825757575758,3.58911471004486,4.51434331226349,-0.6887175232887269
4.015431818181818,2.82031344051361,0.294318898200989,1.33267896108627
4.016037878787879,-4.50605130558014,-2.44797846508026,-3.0166765076637296
4.016643939393939,-1.1314687860488901,-3.61674799633026,0.492027105617523
4.017250000000001,4.777044397544859,3.78625737476349,0.9494758360862731
4.017856060606061,-1.59849759464264,1.9804126482009898,-1.02162523813248
4.018462121212121,-3.99830716495514,-5.06573481273651,0.712368902492523
4.019068181818183,0.425293909263611,1.2954370622634899,-1.33537279672623
4.019674242424243,3.2083066045761104,2.34685063648224,1.90748364858627
4.020280303030303,1.60364351863861,2.06423833179474,-0.037272210788726494
4.0208863636363645,-3.5743887079238896,-1.48997065258026,-0.758173089694977
4.021492424242425,-3.54564847354889,-5.13998041820526,-1.34974291391373
4.0220984848484855,5.30155367488861,2.49055180835724,0.575852789211273
4.022704545454545,3.52923922176361,3.3359937028884903,1.16023755483627
4.0233106060606065,-4.35995511417389,-2.71622065258026,-2.66700365610123
4.0239166666666675,-2.2212026727676397,-2.3952880353927597,1.71827710561752
4.0245227272727275,1.66830904598236,2.71568364429474,0.15911939077377302
4.0251287878787885,1.26594576473236,2.71568364429474,1.6033161681175199
4.0257348484848485,-1.95775052433014,0.0907422380447388,-1.57966478891373
4.0263409090909095,-2.9995840204238897,-7.12066157054901,-1.97723803110123
4.02694696969697,3.90525728816986,0.0787671403884888,0.36988110952377296
4.0275530303030305,5.8763583623886095,7.2255054216384895,-0.152233148288727
4.028159090909091,-5.3874184930801405,-3.92331049633026,1.39973950796127
4.028765151515152,-4.32881986026764,-2.33062250804901,-1.59642992563248
4.029371212121212,1.55095308895111,1.70019536304474,2.2092561095237704
4.029977272727273,1.65633394832611,3.72398686695099,0.896785406398773
4.030583333333333,0.468404260826111,2.41630620288849,-1.0743156678199801
4.031189393939394,-2.98760892276764,-7.173352000236511,-1.97963305063248
4.031795454545455,2.00600679988861,-1.08521235179901,-1.63714525766373
4.032401515151515,5.65362154598236,7.4051318864822395,2.89183667593002
4.033007575757576,-4.11805814151764,-1.8731737775802602,-0.545016351413727
4.033613636363636,-4.68807278995514,-4.38075922679901,-0.31030443735122704
4.034219696969697,1.05518404598236,1.17089604663849,1.11952222280502
4.034825757575758,2.7915732061386103,3.1994775896072403,-0.133072992038727
4.035431818181818,2.40837008113861,3.0198511247634903,1.2608283751487699
4.036037878787879,-2.6738613641738898,-3.07786860179901,-2.68616381235123
4.036643939393939,-1.32786038761139,-5.190275828361511,-0.659977288913727
4.03725,4.331570764732359,4.86641118335724,1.45961499624252
4.037856060606061,-0.733895543861389,1.8654517107009898,1.0812019103050199
4.038462121212121,-4.70723294620514,-4.478955027580261,-0.027692132663726502
4.039068181818182,1.03602388973236,0.885888722419739,-0.413290277194977
4.039674242424242,2.7819931280136103,0.996059620857239,1.9026936095237699
4.040280303030303,1.23960054988861,3.0030859880447403,-0.226478753757477
4.040886363636364,-3.20316068058014,-1.3821947736740101,-0.6288420350074769
4.041492424242424,-3.50972318058014,-6.42371088695526,-1.25633715219498
4.042098484848485,4.7315390264511095,3.03422124195099,0.772244390773773
4.042704545454545,3.0286801397323604,3.73596196460724,0.40820142202377296
4.043310606060606,-4.20188382511139,-3.56405756664276,-1.9077824646949801
4.043916666666667,-1.42126614933014,-1.31034418773651,1.3805793517112699
4.044522727272727,1.33779635066986,1.52535893726349,0.714763922023773
4.045128787878788,1.05997408504486,3.2425879411697403,1.83323804311752
4.045734848484848,-1.75896390323639,1.63552983570099,-0.698297601413727
4.046340909090909,-2.98760892276764,-8.71095453929901,-2.3843913514137296
4.04694696969697,4.65010836238861,0.344614308357239,0.0154182188987735
4.04755303030303,4.70998385066986,8.34397954273224,0.235760015773773
4.048159090909091,-4.75273831729889,-3.98318598461151,1.13628735952377
4.048765151515152,-3.6773745477676396,-2.84555170726776,-1.10066088266373
4.049371212121212,1.36893160457611,1.3816577653884898,0.463286871242523
4.049977272727273,1.39288179988861,2.49294682788849,2.08471509389877
4.050583333333333,-0.0489199579238892,4.27244633960724,-1.49823412485123
4.051189393939394,-1.90506009464264,-7.75534174633026,-1.62517016000748
4.051795454545455,2.01319185848236,-2.51982905101776,-0.7485930115699769
4.052401515151515,5.023731409263609,9.00260991382599,1.96017407827377
4.053007575757576,-3.99830716495514,-2.8479467267990097,0.46807691030502296
4.053613636363636,-4.50844632511139,-3.57363764476776,-1.32579271860123
4.054219696969697,1.57011324520111,1.4463232927322398,1.47398511343002
4.054825757575758,2.24550875301361,1.5780493669509899,-0.11391283578872699
4.055431818181818,1.82159029598236,4.622119191169739,0.9877961485862731
4.056037878787879,-2.69781155948639,-3.05870844554901,-2.4586369568824797
4.056643939393939,-0.537503942298889,-5.96386713695526,-0.523461175632477
4.05725,3.9627377569198603,6.21720219898224,1.88592847280502
4.057856060606062,-1.30630521183014,0.857148488044739,-1.08389574594498
4.058462121212121,-4.01267728214264,-4.66576655101776,0.211809820461273
4.059068181818182,1.08631929988861,2.21272954273224,-0.283959222507477
4.059674242424242,2.6454770147323603,-0.551122996330261,1.01174634389877
4.060280303030304,0.616895471763611,3.54436040210724,0.27887036733627296
4.060886363636364,-2.55171536808014,0.512265675544739,-0.813258538913727
4.061492424242424,-2.99718900089264,-8.09543451976776,-1.45991381235123
4.062098484848486,4.245350061607359,3.53717534351349,0.16390942983627302
4.062704545454546,2.51375094051361,3.5850757341384902,1.47398511343002
4.063310606060606,-3.3420718133926397,-3.79158442211151,-2.04429857797623
4.0639166666666675,-1.03566800479889,0.0356567888259888,0.9470808165550231
4.064522727272728,1.40725191707611,0.17217290210723898,0.233364996242523
4.0651287878787885,0.602525354576111,2.23907475757599,1.85718823843002
4.0657348484848495,-2.27868314151764,3.56112553882599,-0.724642816257477
4.0663409090909095,-2.1445620477676397,-9.25222895336151,-1.92694262094498
4.0669469696969704,3.71126070613861,-1.24567866039276,0.166304449367523
4.0675530303030305,5.44046480770111,9.13194096851349,-0.444425531101227
4.0681590909090914,-5.04493070011139,-5.036994578361511,1.55062573843002
4.068765151515152,-3.86658109073639,-1.2576537580490101,-1.99400316781998
4.0693712121212124,2.2502987920761104,1.01761479663849,1.77815259389877
4.069977272727273,0.224112268638611,1.3481274919509898,0.412991461086273
4.070583333333333,0.27919771785736097,6.193252003669739,0.044158453273773504
4.071189393939394,-1.67274320011139,-7.791267039299011,-1.51260424203873
4.071795454545455,2.24071871395111,-4.0239013166427595,-3.0502067811012297
4.072401515151515,5.12911226863861,9.57262456226349,3.94085523061752
4.073007575757576,-3.9671719110488897,-2.04561518383026,-0.899479242038727
4.073613636363636,-4.41504056339264,-4.66097651195526,-0.509091058444977
4.074219696969697,1.52700289363861,2.10734868335724,1.03090650014877
4.074825757575758,2.27424898738861,-0.0146386213302612,-0.322279535007477
4.075431818181818,0.355838342857361,5.06040776538849,1.97454419546127
4.076037878787879,-1.33744046573639,-1.51152582836151,-2.0562736756324798
4.076643939393939,-0.597379430580139,-8.32535639476776,-1.6299601990699801
4.07725,3.0574203741073602,6.45670415210724,0.6309382384300231
4.077856060606061,-0.302792028236389,1.8510815935134899,0.978216070461273
4.078462121212121,-5.29880277042389,-5.09208002758026,-0.657582269382477
4.079068181818182,2.06109224910736,2.47857671070099,-0.11151781625747699
4.079674242424242,2.4826156866073603,-1.28399897289276,1.31112378530502
4.080280303030303,-0.0824502313613892,3.71680180835724,-0.295934320163727
4.080886363636364,-1.96254056339264,1.3122021989822399,0.0752937071800235
4.081492424242424,-2.9397085321426397,-8.821125437736509,-2.09698900766373
4.082098484848485,4.92553560848236,3.47490483570099,0.992586187648773
4.082704545454545,1.69704928035736,4.02336430835724,-0.168998285007477
4.083310606060606,-3.6174990594863896,-5.25494135570526,-1.09587084360123
4.083916666666667,-0.724315465736389,1.1637109880447398,1.85718823843002
4.084522727272727,1.18451510066986,0.794877980232239,-0.700692620944977
4.085128787878788,0.365418420982361,0.964924366950989,2.5613239806175203
4.085734848484849,-2.67865140323639,5.60407719898224,-1.87904223031998
4.086340909090909,-1.20092435245514,-9.779133250236509,-0.779728265476227
4.08694696969697,3.36637789363861,-1.8132982892990102,-1.0527604920387301
4.08755303030303,4.990201135826109,10.006123097419701,-0.0779875428199765
4.088159090909091,-4.70483792667389,-5.31242182445526,2.24997144155502
4.088765151515151,-4.12045316104889,-0.991806590080261,-2.45624193735123
4.089371212121212,2.3532846319198604,0.742187550544739,2.8175910704612703
4.089977272727273,0.688746057701111,0.210493214607239,-0.372574945163727
4.090583333333333,-0.903941930580139,6.851882374763489,0.554297613430023
4.091189393939394,-1.44042630558014,-6.533881785392761,-1.63235521860123
4.091795454545455,2.74127779598236,-6.10277826976776,-2.75322435922623
4.092401515151515,4.02500826473236,9.807336476325991,3.2894099181175203
4.093007575757576,-3.46661282901764,-1.54984614086151,-0.964144769382477
4.093613636363636,-4.44857083683014,-5.05375971508026,-0.128282952976227
4.094219696969697,1.74734469051361,3.12044194507599,0.523162359523773
4.094825757575758,2.32214937801361,-1.1331127424240102,0.127984136867523
4.095431818181818,-0.578219274330139,5.06040776538849,1.68235181264877
4.096037878787879,-1.22726956729889,-0.223005320549011,-1.97005297250748
4.096643939393939,0.616895471763611,-9.37197992992401,-1.2491520936012301
4.09725,3.2370468389511102,7.050668995857239,0.132774175930023
4.097856060606061,-0.697970250892639,1.7959961442947399,1.37339429311752
4.098462121212121,-5.57662503604889,-6.43568598461151,-0.42766039438247705
4.099068181818182,1.80722017879486,3.4126343278884903,-0.128282952976227
4.099674242424242,2.9185092412948603,-0.948696238517761,1.4620100157737699
4.100280303030303,-0.274051793861389,3.03422124195099,-0.42047533578872703
4.100886363636365,-1.73980374698639,1.9468823747634898,0.712368902492523
4.101492424242424,-2.24994290714264,-9.12529291820526,-2.6981389100074797
4.102098484848485,3.7040756475448604,2.76597905445099,1.05006665639877
4.1027045454545465,2.10899263973236,5.72622319507599,0.973426031398773
4.103310606060607,-3.85939603214264,-6.05008784008026,-1.63475023813248
4.103916666666667,-0.635699743080139,1.3217822771072398,0.8273298399925231
4.104522727272727,1.91260103816986,0.655966847419739,-0.576151605319977
4.1051287878787885,0.135496545982361,-0.273300730705261,2.11345532827377
4.105734848484849,-2.3146084344863898,7.32849126148224,-0.346229730319977
4.1063409090909095,-2.48465482120514,-9.35760981273651,-2.14728441781998
4.1069469696969705,4.02261324520111,-4.01432123851776,-1.02402025766373
4.1075530303030305,6.18531588191986,10.7294189958572,1.73264722280502
4.1081590909090915,-5.32275296573639,-4.3041186017990105,-0.20971361703872698
4.1087651515151515,-3.3348867547988896,-2.28990717601776,-1.1341911561012301
4.1093712121212125,2.6526620733261104,1.71696049976349,2.83196118764877
4.109977272727273,0.0995712530136108,-0.349941355705261,-0.813258538913727
4.1105833333333335,-1.0500381219863901,6.68902104663849,2.35295728139877
4.111189393939394,-1.55538724308014,-4.5100902814865105,-2.9136906678199797
4.111795454545455,3.61785494441986,-8.687004343986509,-2.54725267953873
4.112401515151515,3.9866879522323604,10.784504445076,2.87986157827377
4.113007575757576,-3.89532132511139,0.411674855232239,-1.01204516000748
4.113613636363636,-5.03295560245514,-7.74576166820526,0.412991461086273
4.114219696969697,1.85751558895111,5.19931889820099,-0.34143969125747703
4.114825757575758,2.4826156866073603,-2.57012446117401,1.35662915639877
4.115431818181818,-0.743475621986389,4.928681691169739,0.451311773586273
4.116037878787879,-1.30870023136139,2.59353764820099,-0.559386468601227
4.116643939393939,1.01207369441986,-12.011291453361501,-1.41919848031998
4.11725,3.05981539363861,5.5418066911697395,0.104033941555023
4.117856060606061,-1.14583890323639,4.801745656013489,1.5051203673362699
4.118462121212121,-5.60297025089264,-6.86918451976776,-1.52218432016373
4.119068181818182,1.51502779598236,3.38149907398224,0.7482941954612731
4.119674242424242,3.60587984676361,-0.848105418205261,0.0273933165550235
4.120280303030303,-0.676415075111389,0.351799366950989,-0.34862474985122704
4.120886363636364,-2.7792422235488896,5.680717823982239,0.7075788634300231
4.121492424242424,-1.98649075870514,-9.70728266429901,-1.94131273813248
4.122098484848485,5.289578577232359,0.00452153491973876,0.9303156798362731
4.122704545454545,1.1653549444198599,8.22662358570099,-0.027692132663726502
4.123310606060606,-3.7109048212051396,-7.14940180492401,-0.425265374851227
4.123916666666667,-0.786585973548889,0.708657277107239,0.5662727110862731
4.124522727272727,1.9437362920761099,2.93842046070099,-0.772543206882477
4.125128787878788,0.430083948326111,-2.77370112133026,2.92297192983627
4.125734848484848,-3.8737661493301396,8.722392628669741,-2.10417406625748
4.126340909090909,-1.23205960636139,-8.30140619945526,-0.592916742038727
4.12694696969697,4.03698336238861,-6.054877879142761,-1.96047289438248
4.12755303030303,5.11474215145111,11.8215479021072,2.2523664610862704
4.128159090909091,-5.07606595401764,-4.10772700023651,0.913550543117523
4.128765151515152,-3.6510293329238896,-3.23593989086151,-1.87664721078873
4.129371212121212,2.9352743780136104,2.63185796070099,4.316873297023769
4.129977272727273,1.02165377254486,-2.18452631664276,-1.34734789438248
4.130583333333333,-1.59849759464264,6.31779301929474,2.48947339468002
4.131189393939394,-2.0751064813613898,-0.637343699455261,-2.5448576600074797
4.131795454545455,4.19744967098236,-11.8963305158615,-2.1784196717262296
4.132401515151515,4.36989107723236,10.0133081560135,1.61050122671127
4.133007575757576,-4.14200833683014,2.23667973804474,-0.243243890476227
4.133613636363636,-4.922784704017641,-8.82591547679901,0.5878278868675231
4.134219696969697,1.75931978816986,5.92261479663849,-0.315094476413727
4.134825757575758,2.94006441707611,-2.65395014476776,0.8872053282737731
4.135431818181818,-1.57694241886139,2.89291508960724,0.0800837462425235
4.136037878787879,-1.53862210636139,5.029272511482239,-0.0588273865699765
4.136643939393939,1.73776461238861,-11.8220849103928,-1.82395678110123
4.13725,3.34961275691986,3.82936772632599,0.36748608999252297
4.137856060606061,-0.786585973548889,7.07461919116974,1.60571118764877
4.138462121212121,-5.91671780948639,-8.60796869945526,-1.95328783578873
4.139068181818182,1.58208834285736,3.02464116382599,0.365091070461273
4.139674242424242,4.1327841436386095,0.876308644294739,0.7291340392112731
4.140280303030303,-0.587799352455139,-1.28399897289276,-0.161813226413727
4.140886363636364,-2.8391177118301396,6.74889653491974,0.714763922023773
4.141492424242424,-1.75177884464264,-9.69770258617401,-2.36283617563248
4.142098484848486,4.65250338191986,-2.39049799633026,0.800984625148773
4.142704545454545,1.93894625301361,11.481455128669701,0.894390386867523
4.143310606060606,-4.67130765323639,-7.77929194164276,-1.11982103891373
4.143916666666668,-0.357877477455139,-1.3079491682052602,-0.437240472507477
4.144522727272728,2.7149325811386102,5.134653370857239,0.0800837462425235
4.145128787878788,-0.389012731361389,-4.38075922679901,1.6799567931175199
4.145734848484848,-3.23669095401764,8.54755620288849,0.139959234523773
4.14634090909091,-2.16851224308014,-5.31960688304901,-1.56529467172623
4.1469469696969705,4.79620455379486,-10.2772973127365,-2.5951530701637298
4.14755303030303,5.70391695613861,12.041889698982201,2.7744807188987703
4.1481590909090915,-5.61015530948639,-1.85880366039276,-0.377364984226227
4.1487651515151525,-3.69892972354889,-6.32551508617401,-1.32579271860123
4.1493712121212125,2.47782564754486,5.4555859880447395,2.8367512267112702
4.1499772727272735,1.67549410457611,-3.08505366039276,-0.940194574069977
4.1505833333333335,-1.92661527042389,4.99334721851349,1.60571118764877
4.1511893939393945,-3.20316068058014,2.29895024585724,-2.3819963318824797
4.151795454545455,4.68363863582611,-13.9368871564865,-1.88383226938248
4.1524015151515155,5.203357874107359,9.20379155445099,1.87395337514877
4.153007575757576,-4.07255277042389,5.7286182146072395,-0.861158929538727
4.1536136363636365,-5.34670316104889,-11.7550243635178,-0.322279535007477
4.154219696969697,2.29819918270111,6.04476079273224,0.247735113430023
4.154825757575758,3.25620699520111,-0.711589304924011,1.02372144155502
4.155431818181818,-1.56496732120514,0.270368702888489,0.484842047023773
4.156037878787879,-2.61877591495514,7.896110890388489,0.240550054836273
4.156643939393939,1.84554049129486,-12.866313426017799,-2.5376726014137296
4.15725,4.30283053035736,1.19005620288849,-0.0851726014137265
4.157856060606061,-2.01523099308014,9.79775639820099,2.77208569936752
4.158462121212121,-5.59099515323639,-9.156428172111509,-2.0466935975074803
4.159068181818182,1.55574312801361,2.21991460132599,0.7099738829612731
4.159674242424242,4.4992221319198595,2.74921391773224,0.472866949367523
4.160280303030303,-0.475233434486389,-4.27537836742401,0.362696050930023
4.160886363636364,-4.37432523136139,8.28410405445099,0.8105647032737731
4.161492424242424,-0.676415075111389,-7.00809565258026,-1.5916398865699801
4.162098484848485,5.44525484676361,-5.736340281486511,0.221389898586273
4.162704545454545,1.51263277645111,12.3508472185135,-0.7078776795387269
4.163310606060606,-5.06409085636139,-6.866789500236511,0.47765698843002297
4.163916666666667,-0.468048375892639,-1.94023432445526,-0.992885003757477
4.164522727272727,3.3711679327011104,5.52983159351349,0.839304937648773
4.165128787878788,-0.482418493080139,-5.12561030101776,1.47877515249252
4.165734848484848,-3.60552396183014,7.75240971851349,-0.322279535007477
4.166340909090909,-2.2667080438613896,-3.26228510570526,-0.8707390076637269
4.16694696969697,4.96864596004486,-9.86535395336151,-2.8633952576637296
4.16755303030303,5.5434506475448595,10.439621632576,3.1864240782737703
4.168159090909091,-5.3874184930801405,-0.632553660392761,-0.7701481873512269
4.168765151515152,-3.5983389032363897,-6.593757273674011,-0.834813714694977
4.169371212121212,2.5353061162948602,4.97179204273224,2.47031323843002
4.169977272727273,1.87428072566986,-2.46953364086151,-0.995280023288727
4.170583333333333,-2.2571279657363896,3.85571294116974,2.6571247618675202
4.171189393939394,-3.41392239933014,4.61253911304474,-2.2047648865699796
4.171795454545455,5.42848971004486,-14.1069335432053,-1.34734789438248
4.172401515151515,5.61769625301361,6.89978276538849,0.26929028921127296
4.173007575757576,-4.6617275751113905,7.443452198982239,-0.6719523865699769
4.173613636363636,-5.641290563392641,-11.3694262189865,0.994981207180023
4.174219696969697,2.41795015926361,6.166906788825989,-0.30790941781997705
4.174825757575758,3.67533541316986,-0.457717234611511,1.53625562124252
4.175431818181818,-1.39492093448639,-1.13550776195526,-0.5282512146949769
4.176037878787879,-3.09777982120514,8.626591847419741,0.841699957180023
4.176643939393939,2.12575777645111,-11.010173289299,-1.64912035531998
4.17725,5.59374605770111,-0.333176218986511,-0.882714105319977
4.177856060606061,-2.7337368524551398,9.201396534919741,2.9301569884300203
4.178462121212121,-6.02928372745514,-8.198420359611509,-2.8202849061012296
4.179068181818182,1.11266451473236,1.17329106616974,1.4021345274925199
4.179674242424242,4.70040377254486,3.7647021989822402,0.642913336086273
4.180280303030303,0.267222620201111,-4.53643549633026,-0.5306462342262269
4.180886363636364,-5.480824254798891,7.443452198982239,0.460891851711273
4.181492424242424,-0.343507360267639,-5.79142573070526,-1.21801683969498
4.182098484848485,5.63206637020111,-6.43808100414276,0.135169195461273
4.182704545454545,1.33061129207611,12.4442529802322,-0.30072435922622703
4.183310606060606,-5.83049710636139,-6.893134715080261,0.616568121242523
4.183916666666667,-0.175855993080139,-2.10070063304901,-1.72097094125748
4.184522727272727,3.98189791316986,5.85555424976349,1.5817609923362699
4.185128787878789,0.106756311607361,-4.98190912914276,0.386646246242523
4.185734848484849,-4.041417516517639,7.46261235523224,0.501607183742523
4.186340909090909,-3.1121499383926396,-1.84443354320526,-0.739012933444977
4.1869469696969706,5.656016565513609,-10.8401269025803,-2.9999113709449796
4.187553030303031,5.61051119441986,9.46245366382599,3.89774487905502
4.188159090909091,-5.4999844110488905,1.20921635913849,-1.28747240610123
4.1887651515151525,-3.64623929386139,-7.93496821117401,0.135169195461273
4.1893712121212126,2.93287935848236,6.22199223804474,2.28350171499252
4.1899772727272735,1.7425546514511099,-2.5413842267990097,-0.755778070163727
4.190583333333333,-2.2906582391738897,1.57086430835724,2.2020710509300203
4.1911893939393945,-4.22104398136139,6.40161870288849,-1.99639818735123
4.191795454545455,4.8512900030136095,-13.9776024885178,-1.50062914438248
4.1924015151515155,6.82957613582611,4.909521534919739,0.281265386867523
4.193007575757576,-4.48449612979889,8.715207570075991,0.683628668117523
4.1936136363636365,-6.56816312198639,-11.1706395978928,-0.286354242038727
4.194219696969697,2.6981674444198602,4.689179738044739,-0.044457269382476496
4.194825757575758,4.305225549888609,0.720632374763489,1.69672192983627
4.195431818181818,-1.23205960636139,-1.68636225414276,-0.772543206882477
4.196037878787879,-4.1899087274551405,8.775083058357241,1.49075025014877
4.196643939393939,2.50417086238861,-9.77434321117401,-2.2814055115699796
4.19725,6.214056116294859,-3.03954828929901,-1.07192064828873
4.197856060606061,-3.20076566104889,11.2659033708572,1.89550855093002
4.198462121212121,-6.292735875892641,-7.0919213361740105,-1.94610277719498
4.199068181818182,1.34737642879486,-0.666083933830261,1.42129468374252
4.199674242424242,5.17940767879486,4.92389165210724,0.12319409780502301
4.200280303030303,0.0444858037948608,-5.60700922679901,0.0226032774925235
4.200886363636364,-5.78499173526764,7.67337407398224,0.30761060171127297
4.201492424242424,-0.329137243080139,-3.91133539867401,-1.49823412485123
4.202098484848485,5.69194185848236,-8.27027094554901,-0.5306462342262269
4.202704545454545,2.48740572566986,11.867053273201,1.25843335561752
4.203310606060606,-6.4316470087051405,-4.52206537914276,-0.0708024842262265
4.203916666666667,-0.530318883705139,-4.14365229320526,-1.33297777719498
4.204522727272727,4.48245699520111,6.52855473804474,1.88353345327377
4.205128787878788,-0.621329625892639,-4.39991938304901,-0.346229730319977
4.205734848484849,-3.2247158563613896,4.95263188648224,2.16135571889877
4.206340909090909,-3.9168765008926396,0.881098683357239,-1.9125725037574801
4.20694696969697,5.828457971763609,-12.372939402580299,-2.61910326547623
4.20755303030303,6.67868990535736,8.243388722419741,3.3995808165550203
4.208159090909091,-6.82203519229889,3.91558842945099,-2.29338060922623
4.208765151515151,-3.68216458683014,-9.367189890861509,0.14474927358627301
4.209371212121212,2.9113241827011103,5.75735844898224,1.72546216421127
4.209977272727273,2.0970175420761104,-1.5905614728927602,-0.377364984226227
4.210583333333333,-1.97451566104889,0.416464894294739,1.8643732970237699
4.211189393939394,-5.461664098548891,8.37511479663849,-2.03711351938248
4.211795454545455,5.24886324520111,-13.0651000471115,-0.638422113132477
4.212401515151515,7.31097506160736,2.39954106616974,-0.485140863132477
4.213007575757576,-5.09762112979889,10.389326222419701,0.424966558742523
4.213613636363636,-6.599298375892641,-10.813781687736501,0.180674566555023
4.214219696969697,2.47782564754486,3.53957036304474,-0.125887933444977
4.214825757575758,4.58065279598236,2.0115479021072398,1.77336255483627
4.215431818181818,-0.949447301673889,-3.11618891429901,-0.961749749851227
4.216037878787879,-5.56464993839264,9.20379155445099,1.11233716421127
4.216643939393939,2.04911715145111,-7.50865473461151,-2.64305346078873
4.21725,7.54808199520111,-5.24775629711151,-0.521066156101227
4.217856060606061,-2.69541653995514,11.443134816169701,1.63445142202377
4.218462121212121,-6.92023099308014,-6.67758295726776,-0.8683439881324769
4.219068181818182,1.03362887020111,-1.8516186017990102,1.65840161733627
4.219674242424242,5.4500448858261095,5.83160405445099,0.9686359923362731
4.220280303030303,0.863582483482361,-5.43217280101776,-0.446820550632477
4.220886363636364,-6.02449368839264,7.08898930835724,0.391436285305023
4.221492424242424,-1.05722318058014,-2.3952880353927597,-0.5522014100074769
4.222098484848485,5.82127291316986,-10.0018700666428,-1.44554369516373
4.222704545454545,2.41076510066986,10.976106007576,1.25843335561752
4.223310606060606,-6.04844388370514,-1.1666430158615102,-0.238453851413727
4.223916666666668,-1.55299222354889,-6.28958979320526,-1.11503099985123
4.224522727272727,5.21293795223236,6.59561528491974,1.48835523061752
4.225128787878788,0.317518030357361,-3.67662348461151,0.113614019680023
4.225734848484848,-4.00070218448639,3.63297612476349,1.1243122618675199
4.22634090909091,-4.26654935245514,2.96476567554474,-1.10784594125748
4.22694696969697,5.656016565513609,-12.6363915510178,-2.10656908578873
4.22755303030303,7.86661959285736,7.12970464038849,1.31351880483627
4.228159090909092,-6.14424466495514,5.07956792163849,-0.964144769382477
4.228765151515152,-4.5755068719863905,-9.91085932445526,-0.10433275766372699
4.229371212121212,2.94724947566986,5.69748296070099,1.0261164610862699
4.2299772727272735,2.6550570928573602,-0.972646433830261,0.539927496242523
4.230583333333334,-2.1709072626113897,-0.524777781486511,0.0585285704612735
4.2311893939393945,-6.26399564151764,8.09729253101349,-0.35820482797622705
4.2317954545454555,4.458506799888609,-12.1430175275803,-1.40482836313248
4.2324015151515155,9.03299410457611,0.620041554450989,-0.863553949069977
4.2330075757575765,-4.829378942298891,11.4503198747635,1.22490308218002
4.2336136363636365,-7.6890322626113905,-10.2126317853928,-0.35101976938247703
4.2342196969696975,2.4586654912948602,1.82952641773224,0.6309382384300231
4.234825757575758,4.84649996395111,3.74793706226349,1.2608283751487699
4.2354318181818185,-0.0944253290176392,-4.56038569164276,-0.5881267029762269
4.236037878787879,-6.48912747745514,9.40257817554474,0.7458991759300231
4.2366439393939395,1.05997408504486,-6.10517328929901,-1.25633715219498
4.23725,8.47255953426361,-7.34339838695526,-0.537831292819977
4.237856060606061,-2.42238431339264,12.108950245857201,1.28717358999252
4.238462121212121,-7.32498929386139,-4.93400873851776,-0.765358148288727
4.239068181818182,0.303147913169861,-3.3532958478927597,0.403411382961273
4.239674242424242,5.79732271785736,6.818352101325989,0.6477033751487731
4.240280303030303,1.23241549129486,-5.65969965648651,0.132774175930023
4.240886363636364,-6.53463284854889,5.97770024585724,-0.262404046726227
4.241492424242424,-1.49551175479889,-0.349941355705261,-0.322279535007477
4.242098484848485,6.666714807701109,-10.2701122541428,-1.97484301156998
4.242704545454545,3.1915414678573604,9.994147999763491,1.6200813048362699
4.243310606060606,-6.76215970401764,-0.294855906486511,-0.13546801156997698
4.243916666666667,-1.99128079776764,-6.90271479320526,-1.81916674203873
4.244522727272727,4.76985933895111,6.571665089607239,2.66670483999252
4.245128787878788,1.34977144832611,-2.56293940258026,-0.37017992563247704
4.245734848484848,-4.34798001651764,1.98280766773224,0.992586187648773
4.246340909090909,-5.3538882196426405,4.131140187263489,-0.913849359226227
4.24694696969697,5.981739221763609,-12.387309519767799,-1.53655443735123
4.24755303030303,7.66783297176361,5.39092046070099,0.880020269680023
4.248159090909091,-5.86163236026764,6.60040532398224,-1.28028734750748
4.248765151515152,-5.21258206729889,-10.2102367658615,0.235760015773773
4.249371212121212,3.22267672176361,4.75863530445099,1.54104566030502
4.249977272727273,3.2777621709823603,0.23204839038848898,0.640518316555023
4.250583333333333,-1.81883939151764,-1.6384618635177601,0.247735113430023
4.251189393939394,-6.05802396183014,8.969079640388491,-0.216898675632477
4.251795454545455,3.8525668584823602,-10.176706492424,-1.32339769906998
4.252401515151515,9.45451754207611,-2.09830561351776,-1.11503099985123
4.253007575757576,-3.92166653995514,10.9545508317947,1.30633374624252
4.253613636363636,-8.43388333683014,-8.461872508049009,-0.327069574069977
4.254219696969697,2.1401278936386103,0.763742726325989,0.0609235899925235
4.254825757575758,5.22012301082611,4.04252446460724,1.5003303282737699
4.255431818181818,0.0277206670761108,-4.20352778148651,-1.30663256235123
4.256037878787879,-6.78850491886139,8.19069829273224,1.28956860952377
4.256643939393939,0.727066370201111,-4.19394770336151,-1.20843676156998
4.25725,9.665279260826109,-7.74815668773651,-1.32579271860123
4.257856060606061,-2.17330228214264,10.506682179451,0.5710627501487731
4.258462121212121,-7.82075833683014,-4.44781977367401,-0.15462816781997699
4.259068181818182,0.209742151451111,-3.15211420726776,0.06810864858627351
4.259674242424242,5.50752535457611,6.82074712085724,0.9303156798362731
4.260280303030303,1.41443697566986,-5.26452143383026,0.0968488829612735
4.260886363636364,-6.68312405948639,5.18734380054474,-0.7677531678199769
4.261492424242424,-2.2140176141738896,0.0739771013259888,0.0226032774925235
4.262098484848485,6.30027681941986,-9.85816889476776,-3.26815355844498
4.262704545454545,4.42018648738861,7.69971928882599,2.8702815001487703
4.263310606060606,-7.35851956729889,1.0271948747634898,-0.49951098031997704
4.263916666666667,-2.7265517938613897,-6.68237299633026,-1.91975756235123
4.264522727272727,5.66799166316986,5.22326909351349,3.11936353139877
4.265128787878788,1.55813814754486,-1.38698481273651,-1.69462572641373
4.265734848484848,-3.6582143915176397,0.028471730232238802,2.55892896108627
4.266340909090909,-6.08436917667389,5.414870656013489,-2.01316332406998
4.266946969696971,5.921863733482359,-11.4939672346115,-0.813258538913727
4.26755303030303,8.07259127254486,3.7551221208572403,0.5710627501487731
4.268159090909091,-5.91192777042389,7.74761967945099,-1.89341234750748
4.268765151515153,-5.89755765323639,-10.6700805158615,1.52907056264877
4.269371212121213,3.02628512020111,4.935866749763489,-0.693507562351227
4.269977272727273,3.8765170537948603,0.35898442554473897,2.17333081655502
4.270583333333333,-1.81883939151764,-1.9378393049240101,-0.734222894382477
4.271189393939395,-6.52744778995514,8.20985844898224,0.31719067983627297
4.2717954545454555,2.41795015926361,-9.345634715080259,-0.760568109226227
4.272401515151515,10.3191195928574,-1.89233393383026,-1.25873217172623
4.2730075757575765,-3.27740628604889,10.1162939958572,2.5780891173362703
4.273613636363637,-9.17873441104889,-6.86199946117401,-2.48977221078873
4.2742196969696975,2.45387545223236,-0.448137156486511,1.05725171499252
4.2748257575757584,4.98541109676361,4.322741749763489,1.52428052358627
4.2754318181818185,0.312727991294861,-3.79637446117401,-1.00486010141373
4.276037878787879,-6.70946927433014,6.88301762866974,1.53625562124252
4.2766439393939395,-0.283631871986389,-2.50306391429901,-1.85988207406998
4.27725,10.2855893194199,-8.423552195549009,-0.19534349985122698
4.277856060606061,-1.16020902042389,9.404973195075991,0.614173101711273
4.278462121212121,-8.62548489933014,-2.34978266429901,-0.31988451547622704
4.279068181818182,-0.0417348993301392,-4.09335688304901,1.7015119688987699
4.279674242424242,5.81408785457611,6.57406010913849,0.891995367336273
4.280280303030303,2.56404635066986,-4.45500483226776,0.42736157827377297
4.280886363636364,-6.49391751651764,4.1383252458572395,-0.904269281101227
4.281492424242424,-2.9253384149551396,0.720632374763489,0.293240484523773
4.282098484848485,6.90861178035736,-9.70728266429901,-1.97484301156998
4.282704545454545,4.511197229576109,7.31412114429474,1.2823835509300199
4.283310606060606,-6.838800329017641,1.60678960132599,0.48005200796127295
4.283916666666667,-3.73964505558014,-6.70153315258026,-2.02274340219498
4.284522727272727,5.59374605770111,4.85204106616974,2.81280103139877
4.285128787878788,2.4634555303573604,-0.852895457267761,-1.12700609750748
4.285734848484848,-4.14679837589264,0.545795948982239,1.25843335561752
4.286340909090909,-6.5250527704238905,4.74666020679474,-0.7917033631324769
4.28694696969697,5.29915865535736,-11.527497508049,-1.51978930063248
4.28755303030303,9.79461031551361,3.15397221851349,0.724344000148773
4.288159090909091,-6.1586147821426405,8.49486577320099,-1.37608812875748
4.288765151515152,-6.59450833683014,-10.205446726799,1.5649958556175199
4.289371212121212,3.5004989873886103,3.95390874195099,-0.231268792819977
4.289977272727273,3.59869478816986,1.29783208179474,1.1243122618675199
4.290583333333333,-1.29912015323639,-2.45276850414276,0.31719067983627297
4.291189393939394,-6.96813138370514,8.48049565601349,-0.48753588266372705
4.291795454545455,1.97726656551361,-8.57922846508026,-0.13546801156997698
4.292401515151515,11.2076718389511,-2.44797846508026,-1.64912035531998
4.293007575757576,-2.9133633172988898,9.824101613044741,1.08359692983627
4.293613636363636,-10.0385464227676,-6.70871821117401,-1.37129808969498
4.294219696969697,1.87907076473236,-0.268510691642761,0.815354742336273
4.294825757575758,5.59135103816986,4.337111866950989,1.69672192983627
4.295431818181818,1.17733004207611,-3.76044916820526,-1.37129808969498
4.296037878787879,-7.20284329776764,6.485444386482239,1.23448316030502
4.296643939393939,-1.30151517276764,-2.00489985179901,-1.54134447641373
4.29725,10.4891659795761,-8.737299754142759,-0.6264470154762269
4.297856060606061,-0.125560582923889,9.268457081794741,0.31000562124252296
4.298462121212121,-9.04221829776764,-1.4540453596115102,-0.0899626404762265
4.299068181818182,-0.381827672767639,-4.58912592601776,0.180674566555023
4.299674242424242,5.9889242803573595,5.8483691911697395,0.403411382961273
4.300280303030303,2.8322885381698604,-4.02869135570526,0.39862134389877296
4.300886363636364,-6.43643704776764,4.31316167163849,-0.705482660007477
4.301492424242424,-4.54676663761139,1.8343164567947399,-0.0660124451637265
4.302098484848485,7.61035250301361,-10.284482371330299,-1.89820238656998
4.302704545454545,5.61290621395111,5.21847905445099,1.43087476186752
4.303310606060606,-7.31540921573639,3.52759526538849,-0.978514886569977
4.303916666666667,-3.8713711297988898,-6.74224848461151,-0.41089525766372703
4.304522727272727,5.02133638973236,4.18622563648224,2.01525952749252
4.305128787878788,2.87300387020111,-0.503222605705261,-0.717457757663727
4.305734848484849,-3.8474209344863897,-0.606208445549011,2.01765454702377
4.306340909090909,-6.831615270423891,5.30469975757599,-1.40961840219498
4.30694696969697,5.44046480770111,-10.447343699455299,-0.973724847507477
4.30755303030303,9.88083101863861,2.1815942888259903,0.671653570461273
4.308159090909091,-5.31556790714264,8.30805424976349,-0.10912279672622699
4.308765151515152,-7.42797513370514,-9.63782709789276,0.961450933742523
4.309371212121212,3.05263033504486,2.46899663257599,-0.0133220154762265
4.309977272727274,4.39384127254486,1.6978003435134899,2.03681470327377
4.310583333333334,-1.16499905948639,-1.89712397289276,-0.451610589694977
4.311189393939394,-6.479547399330141,7.44584721851349,0.563877691555023
4.311795454545454,1.08631929988861,-7.19730219554901,-1.5485295350074801
4.312401515151516,11.6339853155136,-3.53771235179901,-1.34255785531998
4.3130075757575765,-2.47267972354889,9.285222218513491,1.85718823843002
4.313613636363636,-10.6492764032364,-5.31242182445526,-1.85030199594498
4.3142196969696975,2.02995699520111,-1.38698481273651,1.33267896108627
4.3148257575757585,5.47878512020111,4.40896245288849,0.9303156798362731
4.3154318181818185,1.44796724910736,-3.7197338361740098,-1.02881029672623
4.3160378787878795,-7.19565823917389,6.219597218513489,0.583037847805023
4.3166439393939395,-2.34813870792389,-1.04449701976776,-0.9066643006324769
4.3172500000000005,10.934639612388601,-8.39720698070526,0.00344312124252345
4.317856060606061,0.142681604576111,7.6446338396072395,-1.05515551156998
4.3184621212121215,-8.69015042667389,-1.1546679182052602,0.374671148586273
4.319068181818182,-1.10272855167389,-4.03348139476776,0.20462476186752301
4.3196742424242425,5.53147554988861,5.60647221851349,-0.0851726014137265
4.320280303030303,3.42625338191986,-3.18564448070526,0.8656501524925231
4.320886363636364,-7.00166165714264,3.11804692554474,-1.21562182016373
4.321492424242424,-4.496471227455141,1.07509526538849,0.877625250148773
4.322098484848485,7.04991793270111,-9.022307078361509,-2.5185124451637297
4.322704545454545,6.36015230770111,5.340625050544739,1.25603833608627
4.323310606060606,-7.36570462589264,3.10367680835724,0.901575445461273
4.323916666666667,-5.03295560245514,-6.394970652580261,-2.48977221078873
4.324522727272727,5.44525484676361,3.36473393726349,3.1672639220237704
4.325128787878788,2.9951498662948604,0.533820851325989,-0.621656976413727
4.325734848484849,-3.2558511102676397,0.117087452888489,1.08359692983627
4.326340909090909,-7.916559118080141,4.835275929450989,-0.29114428110122703
4.32694696969697,5.742237268638609,-10.1048559064865,-1.50062914438248
4.32755303030303,10.529881311607399,0.998454640388489,0.238155035305023
4.328159090909091,-5.87121243839264,8.602641652107241,-1.46230883188248
4.328765151515151,-7.43995023136139,-9.067812449455259,1.97214917593002
4.329371212121212,2.95922457332611,2.83782964038849,-0.813258538913727
4.329977272727273,5.109952112388609,1.58044438648224,1.91466870718002
4.330583333333333,-0.693180211830139,-2.28032709789276,-0.324674554538727
4.331189393939394,-6.85556546573639,6.78242680835724,-0.0660124451637265
4.331795454545455,0.202557092857361,-6.541066843986511,-0.8276286561012269
4.332401515151515,11.4471737920761,-3.06589350414276,-1.15574633188248
4.333007575757576,-1.86913480167389,8.408645070075991,2.06794995718002
4.333613636363636,-10.433724645423899,-4.77354242992401,-2.38918139047623
4.334219696969697,1.51742281551361,-1.6504369611740102,1.51949048452377
4.334825757575758,5.98652926082611,4.80414067554474,0.597407964992523
4.335431818181818,1.9221811162948599,-3.02278315258026,-0.0827775818824765
4.336037878787879,-7.66747708683014,5.10351811695099,0.7291340392112731
4.336643939393939,-2.9828188837051397,-1.04449701976776,-1.7281559998512301
4.33725,11.0927109014511,-7.05120600414276,0.33874585561752296
4.337856060606061,0.933038049888611,6.818352101325989,-0.322279535007477
4.338462121212121,-8.79313626651764,-1.16903803539276,0.40820142202377296
4.339068181818182,-1.79488919620514,-3.4562816877365097,1.06204175405502
4.339674242424242,5.648831506919859,4.66043950366974,0.674048589992523
4.340280303030303,4.02021822566986,-2.9605126447677597,1.1841877501487699
4.340886363636364,-6.2783657587051405,3.4293994646072403,-1.30663256235123
4.341492424242424,-5.04493070011139,0.114692433357239,0.6453083556175231
4.342098484848485,6.752935510826109,-7.817612254142761,-2.11375414438248
4.342704545454545,7.32774019832611,4.569428761482239,1.1841877501487699
4.343310606060606,-6.6448037469863905,2.52168706226349,0.21899487905502302
4.343916666666667,-5.308382848548891,-4.32327875804901,-2.11375414438248
4.344522727272727,4.80099459285736,2.17440923023224,3.02595776968002
4.345128787878788,3.6274350225448604,0.0524219255447388,-1.40482836313248
4.345734848484848,-3.5743887079238896,0.804458058357239,2.14698560171127
4.346340909090909,-7.88542386417389,4.58140385913849,-0.875529046726227
4.34694696969697,4.99259615535736,-9.57316157054901,-1.90299242563248
4.34755303030303,10.9609848272324,1.01042973804474,-0.0540373475074765
4.348159090909091,-5.09283109073639,7.92724614429474,-1.18688158578873
4.348765151515151,-8.42190823917389,-8.303801218986509,1.89550855093002
4.349371212121212,2.8059433233261104,2.4546265153884903,-1.2491520936012301
4.349977272727273,4.98301607723236,0.900258839607239,2.08471509389877
4.350583333333333,0.0301156866073608,-1.42291010570526,-0.5282512146949769
4.351189393939395,-6.9705264032363905,6.62914555835724,-0.19534349985122698
4.351795454545455,-0.0369448602676392,-6.481191355705261,-0.525856195163727
4.352401515151515,11.0519955694199,-2.88866205883026,-0.8898991639137269
4.353007575757577,-0.712340368080139,7.66858403491974,1.41171460561752
4.353613636363637,-9.85173489933014,-4.44063471508026,-1.97963305063248
4.354219696969697,0.588155237388611,-1.37021967601776,1.14826245718002
4.3548257575757585,6.19729097957611,3.5587305192947403,1.00935132436752
4.355431818181819,2.01798189754486,-2.3258324689865097,0.044158453273773504
4.3560378787878795,-7.08069730167389,5.11309819507599,0.5303474181175231
4.356643939393939,-3.42589749698639,-1.15227289867401,-1.6730705506324801
4.3572500000000005,9.87843599910736,-7.099106394767761,0.207019781398773
4.3578560606060615,2.9544345342636102,6.399223683357239,-0.6072868592262269
4.3584621212121215,-9.08532864933014,-0.706799265861511,0.238155035305023
4.3590681818181825,-2.34813870792389,-3.25270502758026,-0.14504808969497698
4.3596742424242425,5.8763583623886095,4.01138921070099,0.195044683742523
4.3602803030303035,3.55797945613861,-2.41923823070526,1.03569653921127
4.360886363636364,-5.08325101261139,3.16355229663849,-0.6863225037574769
4.3614924242424244,-5.80894193058014,-0.0769091291427612,0.384251226711273
4.362098484848485,6.15657564754486,-7.49428461742401,-2.10417406625748
4.3627045454545454,8.00553072566986,4.56463872241974,1.59373608999252
4.363310606060606,-7.29864407901764,2.67257329273224,-0.231268792819977
4.363916666666667,-5.761041539955141,-5.55910883617401,-1.53894945688248
4.364522727272727,4.484852014732359,2.58156255054474,1.99130933218002
4.365128787878788,3.2514169561386104,0.737397511482239,-0.736617913913727
4.365734848484848,-2.0751064813613898,0.655966847419739,1.8044978087425199
4.366340909090909,-7.77285794620514,4.0257593278884904,-1.4335685975074801
4.36694696969697,3.7663461553573603,-9.07978754711151,-1.70181078500748
4.36755303030303,11.2364120733261,0.586511281013489,0.8488850157737731
4.368159090909091,-4.5156313837051405,7.649423878669739,-1.28028734750748
4.368765151515152,-8.83864163761139,-7.57332026195526,1.11473218374252
4.369371212121212,2.38202486629486,1.77683598804474,-0.164208245944977
4.369977272727273,4.95188082332611,1.29304204273224,1.7997077696800199
4.370583333333333,0.300752893638611,-1.38698481273651,-0.595311761569977
4.371189393939394,-6.96334134464264,6.11661137866974,-0.197738519382477
4.371795454545455,-1.20571439151764,-5.602219187736511,-0.873134027194977
4.372401515151515,11.4471737920761,-3.01320307445526,-0.142653070163727
4.373007575757576,0.374998499107361,7.51530278491974,1.0859919493675199
4.373613636363636,-10.3043935907364,-3.79158442211151,-2.8514201600074798
4.374219696969697,0.15705172176361099,-2.18452631664276,1.9242487853050199
4.374825757575758,5.66799166316986,4.27963139820099,0.472866949367523
4.375431818181818,2.57123140926361,-2.43360834789276,0.250130132961273
4.376037878787879,-6.53463284854889,4.32513676929474,0.535137457180023
4.376643939393939,-3.9001113641738896,-0.833735301017761,-1.54134447641373
4.37725,9.46170260066986,-6.84283930492401,0.535137457180023
4.377856060606061,3.93399752254486,6.33695317554474,-1.05755053110123
4.378462121212121,-9.07814359073639,-1.1594579572677601,0.681233648586273
4.379068181818182,-3.17442044620514,-2.96530268383026,-0.386945062351227
4.379674242424242,5.48118013973236,3.6353711442947403,0.235760015773773
4.380280303030303,3.43822847957611,-2.3090673322677597,0.635728277492523
4.380886363636364,-4.60664212589264,3.02224614429474,-0.27916918344497704
4.381492424242424,-6.48673245792389,-0.172709910392761,0.343535894680023
4.382098484848485,5.79732271785736,-6.6129174299240105,-2.51611742563248
4.382704545454545,8.80786226863861,4.16946049976349,2.07992505483627
4.383310606060606,-6.41009183292389,2.71568364429474,-1.31621264047623
4.383916666666667,-6.172984899330141,-5.66448969554901,-0.904269281101227
4.384522727272727,3.63462008113861,2.72286870288849,2.01046948843002
4.385128787878788,4.159129358482359,0.845173390388489,-0.8060734803199769
4.385734848484848,-1.72303861026764,0.696682179450989,1.97693921499252
4.386340909090909,-7.61478665714264,4.37303715991974,-1.09826586313248
4.38694696969697,2.80354830379486,-9.40790522289276,-1.52457933969498
4.38755303030303,10.4652157842636,0.739792531013489,-0.365389886569977
4.388159090909091,-3.0019790399551396,7.66858403491974,0.559087652492523
4.388765151515152,-8.96797269229889,-6.77098871898651,0.36988110952377296
4.389371212121212,2.4131601202011104,0.984084523200989,-0.7078776795387269
4.389977272727273,5.09318697566986,1.2786719255447399,1.74222730093002
4.390583333333333,0.307937952232361,-1.35345453929901,-0.33904467172622704
4.391189393939394,-6.92262601261139,5.71903813648224,0.6692585509300231
4.391795454545456,-2.1780923212051397,-4.950773875236511,-1.40482836313248
4.392401515151515,11.2651523077011,-3.09463373851776,-0.492325921726227
4.393007575757576,1.59406344051361,7.4913525896072395,0.894390386867523
4.393613636363636,-10.6085610712051,-3.57363764476776,-1.98681810922623
4.394219696969698,-0.697970250892639,-2.40007807445526,1.63205640249252
4.394825757575758,5.66799166316986,4.16946049976349,0.839304937648773
4.395431818181818,2.5592563116073603,-2.2659569807052597,0.135169195461273
4.3960378787878795,-5.547884801673891,4.4377026872634895,-0.28874926156997704
4.39664393939394,-4.64017239933014,-1.02294184398651,-0.935404535007477
4.39725,9.03059908504486,-6.48837641429901,-0.166603265476227
4.3978560606060615,4.2525351202011095,5.759753468513489,-0.14983812875747698
4.3984621212121215,-9.00868802433014,-0.833735301017761,0.37946118764877296
4.3990681818181825,-3.4953530633926397,-2.74735590648651,0.0872688048362735
4.3996742424242425,5.34705904598236,3.6784814958572403,1.17700269155502
4.4002803030303035,4.54233248348236,-2.4982738752365097,0.999771246242523
4.400886363636364,-4.55874173526764,3.3527588396072403,-0.346229730319977
4.4014924242424245,-7.3034341180801405,0.814038136482239,-0.152233148288727
4.402098484848485,5.41890963191986,-7.60924555492401,-1.63714525766373
4.4027045454545455,8.84857760066986,3.01266606616974,0.951870855617523
4.403310606060606,-5.36586331729889,3.19229253101349,-1.16772142953873
4.403916666666667,-6.745394567298891,-4.73522211742401,-0.12349291391372699
4.404522727272727,3.20351656551361,2.09058354663849,1.51230542593002
4.405128787878788,4.56628267879486,0.811643116950989,-0.535436273288727
4.405734848484848,-1.87392484073639,-0.30922602367401103,1.31830884389877
4.406340909090909,-7.89979398136139,4.66043950366974,-1.60121996469498
4.40694696969697,2.1664731084823603,-8.32535639476776,-0.834813714694977
4.40755303030303,11.7417611944199,-0.141574656486511,-0.743802972507477
4.408159090909091,-2.5828506219863896,7.23987553882599,1.24645825796127
4.408765151515152,-9.78706937198639,-6.3662304182052605,0.29803052358627297
4.409371212121212,2.04911715145111,0.529030812263489,-1.11982103891373
4.409977272727273,5.03331148738861,1.36249760913849,2.2691315978050204
4.410583333333333,1.05518404598236,-0.575073191642761,-0.880319085788727
4.411189393939394,-6.83640530948639,5.00771733570099,0.923130621242523
4.411795454545455,-2.74810696964264,-4.54601557445526,-1.93891771860123
4.412401515151515,11.0376254522324,-3.7197338361740098,-0.0061369568824765405
4.413007575757576,1.74494967098236,6.95486821460724,0.733924078273773
4.413613636363636,-9.83736478214264,-2.50785395336151,-2.2957756287574798
4.414219696969697,-1.59849759464264,-2.25398188304901,1.58894605093002
4.414825757575758,5.68715181941986,3.67369145679474,0.34832593374252296
4.415431818181818,3.43583346004486,-2.6084447736740097,0.774639410305023
4.416037878787879,-5.787386754798891,4.87359624195099,-0.564176507663727
4.416643939393939,-5.15989163761139,-0.572678172111511,-0.454005609226227
4.41725,8.15162691707611,-6.466821238517761,-0.315094476413727
4.417856060606061,6.15657564754486,5.40529057788849,-0.511486077976227
4.418462121212121,-8.29018216495514,-0.500827586174011,-0.231268792819977
4.419068181818182,-4.95391995792389,-2.86950190258026,-0.374969964694977
4.419674242424242,5.58656099910736,3.35754887866974,1.3805793517112699
4.420280303030303,4.278880335044859,-2.0168749494552602,-0.14025805063247698
4.420886363636364,-4.19948880558014,2.64143803882599,0.06810864858627351
4.421492424242424,-7.50701077823639,0.572141163825989,0.16390942983627302
4.422098484848485,5.50752535457611,-7.09671137523651,-1.87425219125748
4.422704545454545,9.52636812801361,3.11804692554474,0.978216070461273
4.423310606060606,-5.0880410516738905,3.22342778491974,-0.5881267029762269
4.423916666666667,-6.90107083683014,-4.565175730705261,-0.406105218601227
4.424522727272727,2.36525972957611,2.1121387224197403,1.21771802358627
4.425128787878788,5.23928316707611,0.117087452888489,0.0824787657737735
4.425734848484849,-1.28235501651764,0.239233448982239,-0.125887933444977
4.426340909090909,-7.310619176673891,4.955026906013489,0.48723706655502297
4.42694696969697,1.21804537410736,-7.54218500804901,-1.3305827576637301
4.42755303030303,10.9274545537949,-0.824155222892761,-1.25633715219498
4.428159090909091,-0.264471715736389,6.87583257007599,2.2379963438987702
4.428765151515152,-10.8504580438614,-5.29326166820526,-1.7497111756324801
4.429371212121212,1.43838717098236,-0.599023386955261,1.43326978139877
4.429977272727273,5.8691733037948595,2.64862309741974,1.09796704702377
4.430583333333333,1.13661471004486,-1.4588353986740101,-0.760568109226227
4.431189393939394,-6.7908999383926405,5.01969243335724,1.31591382436752
4.431795454545454,-3.95519681339264,-3.4898119611740097,-2.32930590219498
4.432401515151515,11.1956967412949,-5.1160302228927605,1.05006665639877
4.433007575757577,3.1316659795761104,8.310449269294741,-0.221688714694977
4.433613636363636,-10.539105504798899,-2.79525629711151,-1.36650805063248
4.434219696969697,-1.79249417667389,-3.34611078929901,0.9470808165550231
4.434825757575759,6.20687105770111,4.789770558357239,0.8656501524925231
4.435431818181819,3.36637789363861,-2.59646967601776,0.695603765773773
4.436037878787879,-5.43292386417389,4.42572758960724,-1.06473558969498
4.436643939393939,-5.72990628604889,-0.153549754142761,0.20941480093002302
4.437250000000001,7.88098971004486,-6.51232660961151,-1.20604174203873
4.4378560606060615,6.1158603155136095,4.801745656013489,0.614173101711273
4.438462121212121,-8.64704007511139,0.529030812263489,-0.614471917819977
4.4390681818181825,-5.03774564151764,-3.0371532697677597,-1.4934440857887301
4.439674242424243,5.895518518638609,2.75879399585724,2.3984626524925203
4.4402803030303035,4.93511568660736,-0.989411570549011,-0.856368890476227
4.4408863636363645,-3.6510293329238896,1.84150151538849,0.542322515773773
4.4414924242424245,-8.24228177433014,1.3768677263259899,-0.451610589694977
4.4420984848484855,5.23449312801361,-7.20209223461151,-1.71618090219498
4.4427045454545455,9.485652795982359,3.02943120288849,1.36620923452377
4.4433106060606065,-4.7287881219863905,4.097609913825989,-1.25873217172623
4.443916666666667,-7.41839505558014,-5.54473871898651,-0.039667230319976494
4.4445227272727275,2.3389145147323602,2.50252690601349,0.800984625148773
4.445128787878788,5.2776034795761095,0.133852589607239,0.860860113430023
4.445734848484849,-1.74459378604889,0.488315480232239,0.312400640773773
4.446340909090909,-7.557306188392641,4.71791997241974,-0.159418206882477
4.44694696969697,0.873162561607361,-8.06908930492401,-2.12812426156998
4.44755303030303,11.2867074834824,-0.440952097892761,-1.06234057016373
4.448159090909091,-0.290816930580139,6.990793507575989,2.17333081655502
4.448765151515151,-11.0372695672989,-5.077709910392761,-1.77366137094498
4.449371212121212,1.06476412410736,-0.541542918205261,1.23448316030502
4.449977272727273,5.895518518638609,2.3612207536697403,0.6093830626487731
