Time (s),Accel X (m/s^2),Accel Y (m/s^2),Accel Z (m/s^2),CI Value
1.261875,-0.210967353630066,0.219327281570435,-0.117216559410095,0.7213675173008582
1.2624806935190793,-0.007390693473815949,0.049280894851684603,0.004929436683655,0.7213675173008582
1.2630863870381588,-0.15827692394256598,-0.07286510124206541,0.07917504215240499,0.7213675173008582
1.263692080557238,-0.294793037223816,0.145081676101685,-0.196252203941345,0.7213675173008582
1.2642977740763175,-0.052896064567566,0.09957630500793459,-0.040575934410095,0.7213675173008582
1.2649034675953967,-0.00260065441131595,-0.130345569992065,0.30430687808990503,0.7213675173008582
1.2655091611144762,-0.19899225597381598,-0.12316051139831499,-0.124401618003845,0.7213675173008582
1.2661148546335554,-0.155881904411316,-0.0489149059295654,0.167790764808655,0.7213675173008582
1.266720548152635,-0.000205634880065948,0.219327281570435,0.20611107730865502,0.7213675173008582
1.2673262416717141,0.18900090808868403,0.252857555007935,0.045644768714905,0.7213675173008582
1.2679319351907936,-0.110376533317566,-0.07526012077331541,0.098335198402405,0.7213675173008582
1.2685376287098729,-0.237312568473816,0.0109605823516846,0.105520256996155,0.7213675173008582
1.2691433222289523,-0.105586494255066,0.00856556282043457,0.19174096012115502,0.7213675173008582
1.2697490157480316,0.0668549119949341,-0.10400035514831499,0.07678002262115499,0.7213675173008582
1.270354709267111,0.13152043933868401,-0.127950550460815,0.222876214027405,0.7213675173008582
1.2709604027861903,-0.127141670036316,0.0708360706329346,-0.10045142269134501,0.7213675173008582
1.2715660963052695,0.038114677619934,-0.0560999645233154,-0.196252203941345,0.7213675173008582
1.272171789824349,-0.0864263380050659,-0.230936390304565,-0.040575934410095,0.7213675173008582
1.2727774833434282,0.042904716682434,-0.269256702804565,-0.023810797691345,0.7213675173008582
1.2733831768625077,-0.000205634880065948,-0.0273597301483154,-0.239362555503845,0.7213675173008582
1.273988870381587,-0.00499567394256595,-0.0896302379608154,-0.023810797691345,0.7213675173008582
1.2745945639006664,-0.23012750988006597,-0.0129896129608154,0.270776604652405,0.7213675173008582
1.2752002574197456,-0.00978571300506595,-0.0417298473358154,-0.054946051597595004,0.7213675173008582
1.275805950938825,0.0908051073074341,-0.00101451530456543,0.20132103824615502,0.7213675173008582
1.2764116444579043,-0.17025202159881597,0.0612559925079346,0.117495354652405,0.7213675173008582
1.2770173379769836,0.14589055652618402,0.12113148078918501,0.105520256996155,0.7213675173008582
1.277623031496063,-0.0816362989425659,0.216932262039185,0.450403069496155,0.7213675173008582
1.2782287250151423,0.0165595018386841,0.0157506214141846,0.29472679996490503,0.7213675173008582
1.2788344185342218,0.112360283088684,-0.017779652023315398,-0.050156012535095,0.7213675173008582
1.279440112053301,-0.115166572380066,-0.0632850231170654,0.071989983558655,0.7213675173008582
1.2800458055723805,-0.131931709098816,0.0828111682891846,0.270776604652405,0.7213675173008582
1.2806514990914597,-0.050501045036316,-0.0273597301483154,0.07917504215240499,0.7213675173008582
1.2812571926105392,0.0860150682449341,-0.00819957389831543,0.040854729652405,0.7213675173008582
1.2818628861296184,0.0860150682449341,0.11394642219543501,0.270776604652405,0.7213675173008582
1.2824685796486979,-0.19899225597381598,0.13071155891418498,0.127075432777405,0.7213675173008582
1.2830742731677771,-0.040920966911316,-0.0393348278045654,-0.078896246910095,0.7213675173008582
1.2836799666868566,-0.0121807325363159,0.09718128547668459,-0.007045660972595,0.7213675173008582
1.2842856602059358,-0.316348213005066,0.106761363601685,0.009719475746155,0.7213675173008582
1.2848913537250153,-0.107981513786316,-0.0896302379608154,0.122285393714905,0.7213675173008582
1.2854970472440945,-0.0912163770675659,0.00856556282043457,0.012114495277405,0.7213675173008582
1.286102740763174,-0.215757392692566,0.0756261096954346,-0.17230200862884498,0.7213675173008582
1.2867084342822532,-0.117561591911316,-0.0129896129608154,0.124680413246155,0.7213675173008582
1.2873141278013325,-0.0720562208175659,-0.12076549186706499,0.148630608558655,0.7213675173008582
1.287919821320412,0.0884100877761841,-0.16387584342956502,0.163000725746155,0.7213675173008582
1.2885255148394912,-0.0217608106613159,-0.180640980148315,0.028879631996154998,0.7213675173008582
1.2891312083585706,-0.0936113965988159,0.0468858753204346,0.040854729652405,0.7213675173008582
1.2897369018776499,-0.100796455192566,-0.139925648117065,-0.002255621910095,0.7213675173008582
1.2903425953967294,-0.00499567394256595,-0.00101451530456543,-0.050156012535095,0.7213675173008582
1.2909482889158086,-0.057686103630066,0.0732310901641846,0.129470452308655,0.7213675173008582
1.291553982434888,-0.0217608106613159,-0.0441248668670654,0.13186547183990502,0.7213675173008582
1.2921596759539673,-0.045711005973816,0.0349107776641846,0.265986565589905,0.7213675173008582
1.2927653694730468,-0.0864263380050659,0.0588609729766846,-0.007045660972595,0.7213675173008582
1.293371062992126,0.100385185432434,0.157056773757935,-0.057341071128845005,0.7213675173008582
1.2939767565112055,0.121940361213684,0.0109605823516846,0.067199944496155,0.7213675173008582
1.2945824500302847,0.00458440418243405,0.142686656570435,0.139050530433655,0.7213675173008582
1.2951881435493642,-0.0864263380050659,-0.0249647106170654,0.07917504215240499,0.7213675173008582
1.2957938370684434,-0.0241558301925659,-0.0345447887420654,0.18695092105865502,0.7213675173008582
1.2963995305875229,-0.23970758800506597,-0.10879039421081499,0.28275170230865504,0.7213675173008582
1.2970052241066021,-0.127141670036316,-0.15908580436706501,-0.062131110191345,0.7213675173008582
1.2976109176256814,-0.043315986442566,-0.0345447887420654,0.014509514808655,0.7213675173008582
1.2982166111447608,0.105175224494934,-0.0632850231170654,-0.016625739097595002,0.7213675173008582
1.29882230466384,0.14110051746368402,-0.0872352184295654,-0.019020758628845003,0.7213675173008582
1.2994279981829195,-0.100796455192566,0.267227672195435,0.15102562808990502,0.7213675173008582
1.3000336917019988,-0.016970771598815902,0.24088245735168498,-0.009440680503845,0.7213675173008582
1.3006393852210782,-0.0744512403488159,-0.00101451530456543,0.22527123355865503,0.7213675173008582
1.3012450787401575,-0.23970758800506597,-0.017779652023315398,0.179765862464905,0.7213675173008582
1.301850772259237,0.054879814338683996,-0.151900745773315,0.21090111637115502,0.7213675173008582
1.3024564657783162,0.344677177619934,0.0516759143829346,0.539018792152405,0.7213675173008582
1.3030621592973957,-0.033735908317566,0.128316539382935,0.675534905433655,0.7213675173008582
1.303667852816475,-0.0265508497238159,-0.00101451530456543,0.764150628089905,0.7213675173008582
1.3042735463355544,0.117150322151184,-0.185431019210815,0.25401146793365503,0.7213675173008582
1.3048792398546336,0.0764349901199341,-0.07286510124206541,-0.234572516441345,0.7213675173008582
1.305484933373713,-0.00978571300506595,-0.11597545280456499,0.019299553871155,0.7213675173008582
1.3060906268927923,-0.0313408887863159,-0.0513099254608154,0.08157006168365499,0.7213675173008582
1.3066963204118718,-0.15348688488006598,-0.0153846324920654,-0.016625739097595002,0.7213675173008582
1.307302013930951,-0.0265508497238159,-0.10879039421081499,0.050434807777405,0.7213675173008582
1.3079077074500303,-0.000205634880065948,-0.101605335617065,0.117495354652405,0.7213675173008582
1.3085134009691097,-0.19899225597381598,-0.0393348278045654,0.014509514808655,0.7213675173008582
1.309119094488189,0.0069794237136840504,-0.127950550460815,0.028879631996154998,0.7213675173008582
1.3097247880072684,0.17463079090118402,-0.135135609054565,-0.047760993003845,0.7213675173008582
1.3103304815263477,-0.055291084098816,0.12113148078918501,-0.064526129722595,0.7213675173008582
1.3109361750454271,-0.13911676769256598,0.0828111682891846,0.306701897621155,0.7213675173008582
1.3115418685645064,-0.048106025505066,0.11873646125793501,0.134260491371155,0.7213675173008582
1.3121475620835858,0.00458440418243405,0.00377552375793457,0.060014885902404995,0.7213675173008582
1.312753255602665,0.105175224494934,-0.12076549186706499,0.100730217933655,0.7213675173008582
1.3133589491217446,-0.17983209972381597,-0.0608900035858154,0.050434807777405,0.7213675173008582
1.3139646426408238,-0.246892646598816,-0.0560999645233154,0.105520256996155,0.7213675173008582
1.3145703361599033,-0.0864263380050659,0.0876012073516846,0.316281975746155,0.7213675173008582
1.3151760296789825,0.0213495409011841,0.0684410511016846,0.299516839027405,0.7213675173008582
1.315781723198062,-0.0193657911300659,0.0828111682891846,0.14144554996490502,0.7213675173008582
1.3163874167171412,-0.016970771598815902,0.106761363601685,0.134260491371155,0.7213675173008582
1.3169931102362207,-0.0744512403488159,-0.0441248668670654,0.036064690589904996,0.7213675173008582
1.3175988037553,0.057274833869934,-0.0201746715545654,0.27317162418365504,0.7213675173008582
1.3182044972743794,0.047694755744934,-0.185431019210815,0.112705315589905,0.7213675173008582
1.3188101907934586,-0.196597236442566,-0.0393348278045654,0.050434807777405,0.7213675173008582
1.319415884312538,0.059669853401184,-0.07047008171081541,0.385737542152405,0.7213675173008582
1.3200215778316173,0.181815849494934,-0.185431019210815,-0.10045142269134501,0.7213675173008582
1.3206272713506966,0.00937444324493405,0.09718128547668459,-0.165116950035095,0.7213675173008582
1.321232964869776,-0.0193657911300659,0.17621693000793498,-0.040575934410095,0.7213675173008582
1.3218386583888553,-0.206177314567566,0.00856556282043457,-0.10284644222259501,0.7213675173008582
1.3224443519079347,-0.25168268566131596,-0.19261607780456502,0.040854729652405,0.7213675173008582
1.323050045427014,0.109965263557434,0.183401988601685,-0.033390875816345,0.7213675173008582
1.3236557389460935,0.011769462776184101,0.0732310901641846,0.062409905433654995,0.7213675173008582
1.3242614324651727,-0.0936113965988159,0.0325157581329346,0.107915276527405,0.7213675173008582
1.3248671259842522,-0.17983209972381597,-0.07765514030456541,0.064804924964905,0.7213675173008582
1.3254728195033314,-0.131931709098816,-0.19261607780456502,-0.007045660972595,0.7213675173008582
1.3260785130224109,-0.131931709098816,0.0684410511016846,-0.083686285972595,0.7213675173008582
1.32668420654149,-0.0648711622238159,-0.0297547496795654,0.17258080387115501,0.7213675173008582
1.3272899000605696,0.014164482307434102,0.250462535476685,0.258801506996155,0.7213675173008582
1.3278955935796488,-0.24449762706756598,0.0708360706329346,0.098335198402405,0.7213675173008582
1.328501287098728,0.047694755744934,-0.144715687179565,0.14144554996490502,0.7213675173008582
1.3291069806178075,0.133915458869934,-0.07765514030456541,0.088755120277405,0.7213675173008582
1.3297126741368868,-0.220547431755066,0.0349107776641846,0.055224846839905,0.7213675173008582
1.3303183676559662,0.054879814338683996,-0.0872352184295654,0.112705315589905,0.7213675173008582
1.3309240611750455,-0.0768462598800659,-0.130345569992065,0.289936760902405,0.7213675173008582
1.331529754694125,-0.0672661817550659,0.00138050422668457,0.19174096012115502,0.7213675173008582
1.3321354482132042,-0.050501045036316,0.0373057971954346,-0.069316168785095,0.7213675173008582
1.3327411417322836,-0.232522529411316,0.104366344070435,0.14144554996490502,0.7213675173008582
1.3333468352513629,-0.15348688488006598,-0.07526012077331541,0.213296135902405,0.7213675173008582
1.3339525287704423,-0.172647041130066,-0.0560999645233154,0.016904534339905,0.7213675173008582
1.3345582222895216,-0.048106025505066,0.0420958362579346,-0.019020758628845003,0.7213675173008582
1.3351639158086008,0.038114677619934,-0.07047008171081541,0.040854729652405,0.7213675173008582
1.3357696093276803,-0.122351630973816,-0.139925648117065,0.112705315589905,0.7213675173008582
1.3363753028467595,-0.117561591911316,-0.08005015983581541,0.050434807777405,0.7213675173008582
1.336980996365839,-0.052896064567566,0.0373057971954346,0.069594964027405,0.7213675173008582
1.3375866898849182,-0.165461982536316,0.09478626594543459,-0.009440680503845,0.7213675173008582
1.3381923834039977,-0.0768462598800659,0.0660460315704346,-0.033390875816345,0.7213675173008582
1.338798076923077,-0.100796455192566,-0.12076549186706499,0.060014885902404995,0.7213675173008582
1.3394037704421564,-0.0265508497238159,-0.08484019889831541,0.009719475746155,0.7213675173008582
1.3400094639612357,0.126730400276184,0.0612559925079346,-0.033390875816345,0.7213675173008582
1.3406151574803151,-0.048106025505066,0.09957630500793459,0.062409905433654995,0.7213675173008582
1.3412208509993944,-0.246892646598816,0.13071155891418498,0.18695092105865502,0.7213675173008582
1.3418265445184738,-0.0313408887863159,-0.16387584342956502,0.124680413246155,0.7213675173008582
1.342432238037553,-0.0313408887863159,-0.144715687179565,-0.078896246910095,0.7213675173008582
1.3430379315566323,0.00458440418243405,-0.147110706710815,-0.110031500816345,0.7213675173008582
1.3436436250757118,0.12912541980743403,-0.0321497692108154,0.033669671058654996,0.7213675173008582
1.344249318594791,0.181815849494934,-0.0297547496795654,0.285146721839905,0.7213675173008582
1.3448550121138705,0.00937444324493405,0.0373057971954346,0.203716057777405,0.7213675173008582
1.3454607056329497,-0.0792412794113159,0.104366344070435,0.203716057777405,0.7213675173008582
1.3460663991520292,0.026139579963684097,0.0373057971954346,0.349812249183655,0.7213675173008582
1.3466720926711084,-0.0912163770675659,0.104366344070435,0.060014885902404995,0.7213675173008582
1.347277786190188,-0.06966120128631591,-0.0105945934295654,0.07678002262115499,0.7213675173008582
1.3478834797092671,-0.038525947380066,0.0923912464141846,0.122285393714905,0.7213675173008582
1.3484891732283466,-0.172647041130066,0.0660460315704346,0.012114495277405,0.7213675173008582
1.3490948667474258,-0.045711005973816,-0.0417298473358154,-0.016625739097595002,0.7213675173008582
1.349700560266505,0.050089775276184,0.178611949539185,0.060014885902404995,0.7213675173008582
1.3503062537855846,0.0069794237136840504,0.00617054328918457,0.064804924964905,0.7213675173008582
1.3509119473046638,-0.100796455192566,0.0444908557891846,-0.040575934410095,0.7213675173008582
1.3515176408237433,-0.187017158317566,-0.0129896129608154,0.021694573402405,0.7213675173008582
1.3521233343428225,-0.060081123161316,-0.0513099254608154,-0.076501227378845,0.7213675173008582
1.352729027861902,-0.00978571300506595,0.0301207386016846,0.000139397621155003,0.7213675173008582
1.3533347213809812,0.0836200487136841,-0.00340953483581543,0.208506096839905,0.7213675173008582
1.3539404149000607,-0.242102607536316,-0.00580455436706543,0.15581566715240502,0.7213675173008582
1.35454610841914,-0.0792412794113159,-0.11597545280456499,0.234851311683655,0.7213675173008582
1.3551518019382194,0.00458440418243405,0.0852061878204346,0.20611107730865502,0.7213675173008582
1.3557574954572986,0.107570244026184,0.137896617507935,0.057619866371155,0.7213675173008582
1.356363188976378,0.253666435432434,0.0444908557891846,-0.035785895347595,0.7213675173008582
1.3569688824954573,0.062064872932434,-0.0153846324920654,0.026484612464904998,0.7213675173008582
1.3575745760145366,-0.13911676769256598,-0.017779652023315398,-0.026205817222595,0.7213675173008582
1.358180269533616,-0.14869684581756598,-0.08244517936706541,0.170185784339905,0.7213675173008582
1.3587859630526953,0.0740399705886841,-0.16387584342956502,0.048039788246155,0.7213675173008582
1.3593916565717747,-0.0217608106613159,0.09478626594543459,-0.174697028160095,0.7213675173008582
1.359997350090854,0.042904716682434,0.12113148078918501,0.067199944496155,0.7213675173008582
1.3606030436099334,-0.033735908317566,0.11634144172668501,0.004929436683655,0.7213675173008582
1.3612087371290127,0.109965263557434,-0.0273597301483154,-0.042970953941345,0.7213675173008582
1.3618144306480922,-0.215757392692566,-0.156690784835815,0.249221428871155,0.7213675173008582
1.3624201241671712,-0.17504206066131597,0.111551402664185,-0.004650641441345,0.7213675173008582
1.363025817686251,0.035719658088684,0.0756261096954346,0.31388695621490503,0.7213675173008582
1.36363151120533,-0.016970771598815902,0.0109605823516846,0.040854729652405,0.7213675173008582
1.3642372047244091,-0.0720562208175659,-0.00101451530456543,-0.292052985191345,0.7213675173008582
1.364842898243489,-0.06966120128631591,0.109156383132935,0.069594964027405,0.7213675173008582
1.365448591762568,-0.0145757520675659,-0.0345447887420654,0.048039788246155,0.7213675173008582
1.366054285281647,-0.016970771598815902,-0.0273597301483154,-0.004650641441345,0.7213675173008582
1.366659978800727,-0.0145757520675659,0.104366344070435,-0.002255621910095,0.7213675173008582
1.367265672319806,-0.062476142692566,-0.07526012077331541,0.18695092105865502,0.7213675173008582
1.3678713658388861,0.026139579963684097,-0.180640980148315,0.127075432777405,0.7213675173008582
1.3684770593579652,-0.00978571300506595,-0.06568004264831541,-0.057341071128845005,0.7213675173008582
1.3690827528770442,0.059669853401184,0.0277257190704346,-0.035785895347595,0.7213675173008582
1.369688446396124,0.057274833869934,0.0660460315704346,0.062409905433654995,0.7213675173008582
1.370294139915203,0.035719658088684,0.0612559925079346,0.031274651527404995,0.7213675173008582
1.3708998334342821,-0.062476142692566,-0.0584949840545654,0.129470452308655,0.7213675173008582
1.371505526953362,-0.040920966911316,-0.15908580436706501,-0.129191657066345,0.7213675173008582
1.372111220472441,0.0237445604324341,0.0564659534454346,-0.064526129722595,0.7213675173008582
1.37271691399152,-0.0313408887863159,0.0684410511016846,-0.064526129722595,0.7213675173008582
1.3733226075106,-0.131931709098816,0.0732310901641846,0.093545159339905,0.7213675173008582
1.373928301029679,-0.119956611442566,0.0804161487579346,-0.002255621910095,0.7213675173008582
1.374533994548758,-0.0265508497238159,0.0756261096954346,0.062409905433654995,0.7213675173008582
1.3751396880678382,-0.23970758800506597,0.00138050422668457,0.25401146793365503,0.7213675173008582
1.3757453815869172,-0.151091865348816,-0.12076549186706499,0.091150139808655,0.7213675173008582
1.3763510751059962,-0.187017158317566,-0.00340953483581543,0.055224846839905,0.7213675173008582
1.376956768625076,0.14589055652618402,-0.00340953483581543,0.000139397621155003,0.7213675173008582
1.3775624621441551,0.23929631824493403,0.0756261096954346,-0.050156012535095,0.7213675173008582
1.3781681556632341,0.038114677619934,-0.149505726242065,0.153420647621155,0.7213675173008582
1.378773849182314,0.050089775276184,-0.235726429367065,-0.019020758628845003,0.7213675173008582
1.379379542701393,-0.12953668956756598,0.0277257190704346,-0.184277106285095,0.7213675173008582
1.379985236220472,0.0955951463699341,-0.137530628585815,-0.105241461753845,0.7213675173008582
1.380590929739552,0.0788300096511841,0.0540709339141846,-0.15793189144134498,0.7213675173008582
1.381196623258631,-0.060081123161316,0.137896617507935,0.024089592933654997,0.7213675173008582
1.38180231677771,-0.112771552848816,-0.0992103160858154,0.14623558902740502,0.7213675173008582
1.3824080102967902,0.117150322151184,0.0373057971954346,0.345022210121155,0.7213675173008582
1.3830137038158692,0.028534599494934098,0.0923912464141846,0.189345940589905,0.7213675173008582
1.383619397334949,0.100385185432434,0.145081676101685,0.139050530433655,0.7213675173008582
1.3842250908540281,0.18900090808868403,0.12113148078918501,0.340232171058655,0.7213675173008582
1.3848307843731071,-0.0648711622238159,0.183401988601685,0.07678002262115499,0.7213675173008582
1.385436477892187,-0.0864263380050659,0.164241832351685,0.007324456214905,0.7213675173008582
1.386042171411266,0.0309296190261841,-0.0249647106170654,0.112705315589905,0.7213675173008582
1.386647864930345,-0.172647041130066,-0.0560999645233154,0.311491936683655,0.7213675173008582
1.387253558449425,-0.182227119255066,-0.0465198863983154,0.083965081214905,0.7213675173008582
1.387859251968504,-0.0864263380050659,0.049280894851684603,0.057619866371155,0.7213675173008582
1.388464945487583,-0.06966120128631591,-0.0393348278045654,0.23724633121490502,0.7213675173008582
1.3890706390066632,0.124335380744934,-0.0129896129608154,0.048039788246155,0.7213675173008582
1.3896763325257422,-0.0672661817550659,-0.12076549186706499,0.028879631996154998,0.7213675173008582
1.390282026044821,0.028534599494934098,-0.149505726242065,0.007324456214905,0.7213675173008582
1.3908877195639011,0.0668549119949341,0.0397008167266846,-0.22738745784759498,0.7213675173008582
1.3914934130829801,0.121940361213684,0.0133556018829346,-0.169906989097595,0.7213675173008582
1.3920991066020592,0.0836200487136841,0.00856556282043457,-0.196252203941345,0.7213675173008582
1.392704800121139,0.153075615119934,-0.0441248668670654,-0.088476325035095,0.7213675173008582
1.393310493640218,-0.0984014356613159,0.00138050422668457,0.594104241371155,0.7213675173008582
1.393916187159297,-0.28042292003631597,0.161846812820435,0.031274651527404995,0.7213675173008582
1.394521880678377,-0.155881904411316,0.0420958362579346,-0.074106207847595,0.7213675173008582
1.395127574197456,-0.0241558301925659,0.0109605823516846,0.153420647621155,0.7213675173008582
1.395733267716535,-0.033735908317566,0.0540709339141846,0.227666253089905,0.7213675173008582
1.3963389612356152,-0.20857233409881598,-0.0105945934295654,0.234851311683655,0.7213675173008582
1.396944654754694,-0.000205634880065948,-0.19261607780456502,0.014509514808655,0.7213675173008582
1.397550348273773,0.0740399705886841,0.0444908557891846,0.083965081214905,0.7213675173008582
1.3981560417928531,-0.112771552848816,-0.0608900035858154,0.184555901527405,0.7213675173008582
1.3987617353119322,0.014164482307434102,-0.144715687179565,0.17258080387115501,0.7213675173008582
1.399367428831012,0.109965263557434,-0.0201746715545654,-0.011835700035095,0.7213675173008582
1.399973122350091,-0.0672661817550659,-0.0153846324920654,-0.076501227378845,0.7213675173008582
1.40057881586917,-0.048106025505066,-0.12076549186706499,-0.112426520347595,0.7213675173008582
1.40118450938825,-0.119956611442566,-0.230936390304565,0.103125237464905,0.7213675173008582
1.401790202907329,-0.0720562208175659,0.250462535476685,-0.122006598472595,0.7213675173008582
1.402395896426408,-0.172647041130066,0.0253306995391846,0.064804924964905,0.7213675173008582
1.4030015899454882,-0.297188056755066,-0.0129896129608154,0.119890374183655,0.7213675173008582
1.403607283464567,0.059669853401184,0.0588609729766846,-0.019020758628845003,0.7213675173008582
1.404212976983646,-0.045711005973816,-0.125555530929565,0.007324456214905,0.7213675173008582
1.4048186705027261,-0.268447822380066,-0.15908580436706501,-0.090871344566345,0.7213675173008582
1.4054243640218052,-0.0265508497238159,-0.0465198863983154,-0.081291266441345,0.7213675173008582
1.4060300575408842,0.014164482307434102,-0.0896302379608154,0.060014885902404995,0.7213675173008582
1.406635751059964,0.0213495409011841,0.0540709339141846,0.167790764808655,0.7213675173008582
1.407241444579043,-0.007390693473815949,-0.180640980148315,-0.019020758628845003,0.7213675173008582
1.4078471380981221,0.126730400276184,-0.235726429367065,0.184555901527405,0.7213675173008582
1.408452831617202,0.0812250291824341,0.224117320632935,0.060014885902404995,0.7213675173008582
1.409058525136281,0.167445732307434,-0.11358043327331499,-0.22738745784759498,0.7213675173008582
1.40966421865536,0.0069794237136840504,-0.0321497692108154,0.124680413246155,0.7213675173008582
1.41026991217444,0.035719658088684,-0.0417298473358154,0.143840569496155,0.7213675173008582
1.410875605693519,0.186605888557434,-0.0225696910858154,-0.004650641441345,0.7213675173008582
1.411481299212598,-0.052896064567566,0.19058704719543498,0.21090111637115502,0.7213675173008582
1.4120869927316781,0.0764349901199341,-0.180640980148315,0.031274651527404995,0.7213675173008582
1.4126926862507572,0.0692499315261841,-0.00819957389831543,0.028879631996154998,0.7213675173008582
1.4132983797698362,-0.131931709098816,0.0660460315704346,0.028879631996154998,0.7213675173008582
1.413904073288916,-0.14390680675506598,-0.23333140983581502,-0.095661383628845,0.7213675173008582
1.4145097668079951,-0.055291084098816,-0.12076549186706499,0.08157006168365499,0.7213675173008582
1.415115460327075,-0.136721748161316,0.00617054328918457,0.028879631996154998,0.7213675173008582
1.415721153846154,0.16984075183868402,0.11394642219543501,0.064804924964905,0.7213675173008582
1.416326847365233,0.16505071277618402,0.0181456409454346,0.22048119449615503,0.7213675173008582
1.416932540884313,-0.16306696300506598,-0.154295765304565,0.0025344171524050003,0.7213675173008582
1.417538234403392,0.107570244026184,0.0756261096954346,-0.22259741878509498,0.7213675173008582
1.418143927922471,0.19618596668243402,0.0756261096954346,0.031274651527404995,0.7213675173008582
1.4187496214415511,-0.13911676769256598,0.0325157581329346,0.074385003089905,0.7213675173008582
1.4193553149606302,-0.0121807325363159,0.0612559925079346,0.045644768714905,0.7213675173008582
1.4199610084797092,0.00458440418243405,-0.127950550460815,0.16539574527740503,0.7213675173008582
1.420566701998789,-0.0768462598800659,-0.0441248668670654,-0.220202399253845,0.7213675173008582
1.4211723955178681,0.057274833869934,0.0349107776641846,-0.050156012535095,0.7213675173008582
1.4217780890369471,-0.23970758800506597,-0.00580455436706543,-0.040575934410095,0.7213675173008582
1.422383782556027,-0.13911676769256598,0.0205406604766846,-0.306423102378845,0.7213675173008582
1.422989476075106,0.00937444324493405,0.0804161487579346,0.368972405433655,0.7213675173008582
1.423595169594185,0.035719658088684,0.17621693000793498,0.802470940589905,0.7213675173008582
1.424200863113265,-0.016970771598815902,0.00856556282043457,0.148630608558655,0.7213675173008582
1.424806556632344,-0.117561591911316,-0.137530628585815,-0.083686285972595,0.7213675173008582
1.425412250151423,-0.13911676769256598,-0.0944202770233154,0.208506096839905,0.7213675173008582
1.4260179436705032,-0.033735908317566,-0.180640980148315,0.213296135902405,0.7213675173008582
1.4266236371895822,0.177025810432434,-0.190221058273315,0.028879631996154998,0.7213675173008582
1.427229330708661,-0.206177314567566,-0.00340953483581543,-0.117216559410095,0.7213675173008582
1.4278350242277411,-0.19420221691131598,-0.0968152965545654,0.083965081214905,0.7213675173008582
1.4284407177468201,-0.112771552848816,0.0349107776641846,0.230061272621155,0.7213675173008582
1.4290464112658992,-0.007390693473815949,0.161846812820435,-0.050156012535095,0.7213675173008582
1.429652104784979,-0.055291084098816,-0.0608900035858154,-0.095661383628845,0.7213675173008582
1.430257798304058,0.0908051073074341,0.101971324539185,-0.064526129722595,0.7213675173008582
1.430863491823137,0.0692499315261841,0.106761363601685,0.026484612464904998,0.7213675173008582
1.431469185342217,-0.0864263380050659,0.0349107776641846,0.426452874183655,0.7213675173008582
1.432074878861296,0.045299736213684,-0.10879039421081499,0.052829827308655,0.7213675173008582
1.4326805723803762,-0.057686103630066,-0.06807506217956541,-0.064526129722595,0.7213675173008582
1.4332862658994552,-0.103191474723816,0.0732310901641846,-0.09805640316009501,0.7213675173008582
1.433891959418534,0.042904716682434,-0.101605335617065,0.083965081214905,0.7213675173008582
1.434497652937614,0.217741142463684,-0.017779652023315398,0.095940178871155,0.7213675173008582
1.4351033464566931,-0.17504206066131597,0.049280894851684603,-0.126796637535095,0.7213675173008582
1.4357090399757721,0.057274833869934,0.0277257190704346,-0.179487067222595,0.7213675173008582
1.436314733494852,0.0716449510574341,-0.08005015983581541,-0.042970953941345,0.7213675173008582
1.436920427013931,0.040509697151184,-0.0297547496795654,0.112705315589905,0.7213675173008582
1.43752612053301,0.014164482307434102,0.207352183914185,0.040854729652405,0.7213675173008582
1.43813181405209,0.054879814338683996,-0.07765514030456541,0.222876214027405,0.7213675173008582
1.438737507571169,-0.131931709098816,0.137896617507935,-0.014230719566345,0.7213675173008582
1.439343201090248,-0.24449762706756598,0.250462535476685,-0.030995856285095002,0.7213675173008582
1.4399488946093282,-0.0984014356613159,-0.12076549186706499,-0.028600836753845,0.7213675173008582
1.440554588128407,-0.16306696300506598,-0.0273597301483154,0.34262719058990504,0.7213675173008582
1.441160281647486,0.00458440418243405,0.00138050422668457,0.31388695621490503,0.7213675173008582
1.4417659751665661,-0.18941217784881598,-0.166270862960815,-0.086081305503845,0.7213675173008582
1.4423716686856451,0.0213495409011841,-0.142320667648315,-0.028600836753845,0.7213675173008582
1.4429773622047242,0.18421086902618403,0.0804161487579346,-0.033390875816345,0.7213675173008582
1.443583055723804,0.050089775276184,-0.08484019889831541,0.004929436683655,0.7213675173008582
1.444188749242883,-0.016970771598815902,-0.11837047233581499,0.091150139808655,0.7213675173008582
1.4447944427619621,-0.038525947380066,-0.0608900035858154,-0.023810797691345,0.7213675173008582
1.445400136281042,-0.0912163770675659,-0.07765514030456541,-0.057341071128845005,0.7213675173008582
1.446005829800121,-0.15827692394256598,-0.0105945934295654,0.000139397621155003,0.7213675173008582
1.4466115233192,-0.0672661817550659,-0.0105945934295654,0.050434807777405,0.7213675173008582
1.44721721683828,-0.12953668956756598,0.11394642219543501,0.071989983558655,0.7213675173008582
1.447822910357359,-0.18941217784881598,-0.017779652023315398,0.115100335121155,0.7213675173008582
1.4484286038764391,0.172235771369934,-0.199801136398315,0.028879631996154998,0.7213675173008582
1.4490342973955181,-0.00499567394256595,-0.0632850231170654,-0.081291266441345,0.7213675173008582
1.4496399909145972,-0.06966120128631591,-0.0632850231170654,-0.052551032066345,0.7213675173008582
1.450245684433677,0.167445732307434,0.00377552375793457,0.16539574527740503,0.7213675173008582
1.450851377952756,0.0309296190261841,0.0253306995391846,0.098335198402405,0.7213675173008582
1.4514570714718351,0.033324638557434,0.0780211292266846,-0.117216559410095,0.7213675173008582
1.452062764990915,-0.335508369255066,-0.185431019210815,-0.083686285972595,0.7213675173008582
1.452668458509994,-0.007390693473815949,-0.230936390304565,0.23245629215240501,0.7213675173008582
1.453274152029073,0.00937444324493405,-0.166270862960815,0.467168206214905,0.7213675173008582
1.453879845548153,-0.182227119255066,-0.0632850231170654,0.285146721839905,0.7213675173008582
1.454485539067232,0.040509697151184,-0.0417298473358154,-0.040575934410095,0.7213675173008582
1.455091232586311,-0.13432672863006598,-0.08005015983581541,-0.069316168785095,0.7213675173008582
1.4556969261053911,-0.0960064161300659,0.00377552375793457,0.016904534339905,0.7213675173008582
1.4563026196244702,-0.052896064567566,-0.0537049449920654,-0.064526129722595,0.7213675173008582
1.4569083131435492,-0.16306696300506598,0.142686656570435,-0.234572516441345,0.7213675173008582
1.457514006662629,-0.055291084098816,0.145081676101685,-0.016625739097595002,0.7213675173008582
1.4581197001817081,-0.0816362989425659,0.0181456409454346,0.297121819496155,0.7213675173008582
1.4587253937007871,-0.016970771598815902,-0.22375133171081502,0.117495354652405,0.7213675173008582
1.459331087219867,0.0860150682449341,-0.00340953483581543,0.227666253089905,0.7213675173008582
1.459936780738946,-0.0744512403488159,0.0181456409454346,0.22048119449615503,0.7213675173008582
1.460542474258025,0.193790947151184,-0.08484019889831541,0.112705315589905,0.7213675173008582
1.461148167777105,0.217741142463684,-0.00580455436706543,0.153420647621155,0.7213675173008582
1.461753861296184,-0.060081123161316,0.0420958362579346,0.115100335121155,0.7213675173008582
1.462359554815263,0.047694755744934,0.0229356800079346,0.050434807777405,0.7213675173008582
1.4629652483343432,0.00937444324493405,-0.0105945934295654,0.004929436683655,0.7213675173008582
1.4635709418534222,-0.033735908317566,-0.0345447887420654,-0.155536871910095,0.7213675173008582
1.464176635372502,-0.0289458692550659,-0.00580455436706543,0.043249749183655,0.7213675173008582
1.464782328891581,-0.18941217784881598,-0.0129896129608154,0.134260491371155,0.7213675173008582
1.4653880224106601,-0.0792412794113159,-0.154295765304565,0.071989983558655,0.7213675173008582
1.46599371592974,0.14110051746368402,-0.0249647106170654,-0.13398169612884497,0.7213675173008582
1.466599409448819,-0.0672661817550659,-0.0129896129608154,0.038459710121155,0.7213675173008582
1.467205102967898,-0.050501045036316,-0.0105945934295654,0.100730217933655,0.7213675173008582
1.467810796486978,0.16505071277618402,0.0229356800079346,-0.064526129722595,0.7213675173008582
1.468416490006057,-0.0145757520675659,-0.0225696910858154,0.048039788246155,0.7213675173008582
1.469022183525136,0.107570244026184,-0.0273597301483154,0.297121819496155,0.7213675173008582
1.4696278770442162,0.13631047840118402,-0.11358043327331499,-0.131586676597595,0.7213675173008582
1.4702335705632952,-0.18941217784881598,0.183401988601685,0.0025344171524050003,0.7213675173008582
1.470839264082374,-0.105586494255066,0.11873646125793501,0.014509514808655,0.7213675173008582
1.471444957601454,0.0668549119949341,0.0397008167266846,-0.028600836753845,0.7213675173008582
1.4720506511205331,0.0979901659011841,0.0684410511016846,0.29472679996490503,0.7213675173008582
1.4726563446396121,-0.060081123161316,0.365423472976685,0.110310296058655,0.7213675173008582
1.473262038158692,-0.122351630973816,0.17621693000793498,-0.023810797691345,0.7213675173008582
1.473867731677771,-0.0912163770675659,-0.0249647106170654,-0.045365973472595,0.7213675173008582
1.47447342519685,0.047694755744934,0.09957630500793459,0.115100335121155,0.7213675173008582
1.47507911871593,0.0764349901199341,0.0373057971954346,-0.007045660972595,0.7213675173008582
1.475684812235009,-0.0912163770675659,0.00138050422668457,0.052829827308655,0.7213675173008582
1.476290505754088,0.138705497932434,-0.154295765304565,0.13665551090240502,0.7213675173008582
1.4768961992731682,-0.007390693473815949,-0.0153846324920654,0.16060570621490503,0.7213675173008582
1.477501892792247,-0.0792412794113159,0.0157506214141846,0.019299553871155,0.7213675173008582
1.478107586311326,0.105175224494934,0.0301207386016846,0.08157006168365499,0.7213675173008582
1.4787132798304061,0.172235771369934,-0.127950550460815,-0.050156012535095,0.7213675173008582
1.4793189733494851,0.17463079090118402,0.0133556018829346,-0.129191657066345,0.7213675173008582
1.479924666868565,0.241691337776184,-0.07047008171081541,-0.019020758628845003,0.7213675173008582
1.480530360387644,0.241691337776184,-0.195011097335815,0.129470452308655,0.7213675173008582
1.481136053906723,0.28719670886993404,0.128316539382935,-0.16272193050384498,0.7213675173008582
1.481741747425803,0.35665227527618404,-0.0465198863983154,-0.042970953941345,0.7213675173008582
1.482347440944882,0.117150322151184,0.0373057971954346,-0.033390875816345,0.7213675173008582
1.482953134463961,0.112360283088684,0.0923912464141846,0.095940178871155,0.7213675173008582
1.4835588279830412,0.342282158088684,-0.08244517936706541,0.25401146793365503,0.7213675173008582
1.48416452150212,0.584179130744934,0.09478626594543459,-0.078896246910095,0.7213675173008582
1.484770215021199,0.49795842761993403,0.178611949539185,-0.122006598472595,0.7213675173008582
1.4853759085402791,0.19139592761993401,0.291177867507935,-0.251337653160095,0.7213675173008582
1.4859816020593581,0.232111259651184,0.0349107776641846,0.095940178871155,0.7213675173008582
1.4865872955784372,0.203371025276184,0.0612559925079346,0.16539574527740503,0.7213675173008582
1.487192989097517,0.380602470588684,0.315128062820435,0.038459710121155,0.7213675173008582
1.487798682616596,0.430897880744934,0.0397008167266846,-0.112426520347595,0.7213675173008582
1.4884043761356751,0.39736760730743403,0.0468858753204346,-0.313608160972595,0.7213675173008582
1.489010069654755,0.363837333869934,0.178611949539185,-0.064526129722595,0.7213675173008582
1.489615763173834,0.409342704963684,0.111551402664185,-0.052551032066345,0.7213675173008582
1.490221456692913,0.35665227527618404,0.0540709339141846,-0.220202399253845,0.7213675173008582
1.490827150211993,0.232111259651184,-0.0105945934295654,-0.18667212581634499,0.7213675173008582
1.491432843731072,0.0309296190261841,0.0468858753204346,0.14144554996490502,0.7213675173008582
1.492038537250151,0.339887138557434,-0.0608900035858154,-0.169906989097595,0.7213675173008582
1.4926442307692311,0.392577568244934,-0.0129896129608154,-0.026205817222595,0.7213675173008582
1.4932499242883102,0.37820745105743403,0.125921519851685,0.23724633121490502,0.7213675173008582
1.4938556178073892,0.227321220588684,0.133106578445435,-0.13398169612884497,0.7213675173008582
1.494461311326469,-0.0121807325363159,0.0157506214141846,-0.095661383628845,0.7213675173008582
1.495067004845548,0.311146904182434,0.142686656570435,-0.076501227378845,0.7213675173008582
1.4956726983646271,0.217741142463684,-0.101605335617065,0.14623558902740502,0.7213675173008582
1.496278391883707,0.349467216682434,-0.24291148796081502,0.22048119449615503,0.7213675173008582
1.496884085402786,0.054879814338683996,0.0229356800079346,0.048039788246155,0.7213675173008582
1.497489778921866,0.107570244026184,0.0468858753204346,0.040854729652405,0.7213675173008582
1.498095472440945,0.18421086902618403,-0.08244517936706541,0.088755120277405,0.7213675173008582
1.498701165960024,-0.187017158317566,-0.0632850231170654,0.033669671058654996,0.7213675173008582
1.4993068594791041,0.0979901659011841,-0.154295765304565,0.20611107730865502,0.7213675173008582
1.4999125529981832,0.0979901659011841,-0.0920252574920654,-0.090871344566345,0.7213675173008582
1.5005182465172622,0.042904716682434,0.0684410511016846,-0.124401618003845,0.7213675173008582
1.501123940036342,-0.033735908317566,-0.11837047233581499,0.000139397621155003,0.7213675173008582
1.501729633555421,0.0309296190261841,0.0756261096954346,0.014509514808655,0.7213675173008582
1.5023353270745001,0.24887639636993403,0.0325157581329346,0.163000725746155,0.7213675173008582
1.50294102059358,-0.06966120128631591,-0.154295765304565,0.086360100746155,0.7213675173008582
1.503546714112659,-0.033735908317566,-0.0608900035858154,0.048039788246155,0.7213675173008582
1.504152407631738,-0.13911676769256598,0.0468858753204346,0.153420647621155,0.7213675173008582
1.504758101150818,-0.160671943473816,-0.0489149059295654,0.048039788246155,0.7213675173008582
1.505363794669897,0.0932001268386841,-0.00580455436706543,0.004929436683655,0.7213675173008582
1.505969488188976,-0.0217608106613159,-0.0129896129608154,0.19174096012115502,0.7213675173008582
1.5065751817080562,-0.0936113965988159,0.0133556018829346,0.234851311683655,0.7213675173008582
1.5071808752271352,0.0932001268386841,-0.0944202770233154,0.08157006168365499,0.7213675173008582
1.507786568746214,-0.0672661817550659,-0.0201746715545654,-0.18667212581634499,0.7213675173008582
1.508392262265294,-0.00499567394256595,0.0420958362579346,0.13186547183990502,0.7213675173008582
1.5089979557843731,0.13631047840118402,0.111551402664185,0.040854729652405,0.7213675173008582
1.5096036493034521,-0.165461982536316,0.279202769851685,-0.14835181331634498,0.7213675173008582
1.510209342822532,0.028534599494934098,-0.0608900035858154,0.27317162418365504,0.7213675173008582
1.510815036341611,0.157865654182434,0.11394642219543501,0.091150139808655,0.7213675173008582
1.51142072986069,0.0692499315261841,-0.0944202770233154,0.088755120277405,0.7213675173008582
1.51202642337977,0.026139579963684097,-0.12076549186706499,0.24682640933990502,0.7213675173008582
1.512632116898849,-0.0121807325363159,0.293572887039185,-0.062131110191345,0.7213675173008582
1.5132378104179292,-0.007390693473815949,-0.08005015983581541,0.47435326480865503,0.7213675173008582
1.5138435039370082,0.20576604480743402,-0.0537049449920654,0.505488518714905,0.7213675173008582
1.514449197456087,0.0716449510574341,-0.08244517936706541,-0.045365973472595,0.7213675173008582
1.515054890975167,-0.131931709098816,0.0732310901641846,0.024089592933654997,0.7213675173008582
1.5156605844942461,0.13152043933868401,0.00138050422668457,0.033669671058654996,0.7213675173008582
1.5162662780133251,0.351862236213684,-0.17824596061706502,0.105520256996155,0.7213675173008582
1.516871971532405,0.0309296190261841,-0.147110706710815,-0.14835181331634498,0.7213675173008582
1.517477665051484,-0.060081123161316,-0.0992103160858154,-0.007045660972595,0.7213675173008582
1.518083358570563,0.014164482307434102,0.17621693000793498,-0.011835700035095,0.7213675173008582
1.518689052089643,0.0309296190261841,0.0923912464141846,-0.122006598472595,0.7213675173008582
1.519294745608722,0.280011650276184,0.238487437820435,-0.023810797691345,0.7213675173008582
1.519900439127801,-0.048106025505066,-0.11118541374206499,-0.047760993003845,0.7213675173008582
1.5205061326468812,0.15547063465118402,0.00138050422668457,0.036064690589904996,0.7213675173008582
1.52111182616596,0.0740399705886841,0.18579700813293498,0.048039788246155,0.7213675173008582
1.5217175196850392,-0.0193657911300659,-0.17824596061706502,0.095940178871155,0.7213675173008582
1.5223232132041191,0.330307060432434,0.0588609729766846,-0.004650641441345,0.7213675173008582
1.5229289067231981,-0.0792412794113159,-0.0225696910858154,-0.196252203941345,0.7213675173008582
1.5235346002422772,-0.007390693473815949,-0.0920252574920654,0.033669671058654996,0.7213675173008582
1.524140293761357,0.217741142463684,-0.101605335617065,0.16060570621490503,0.7213675173008582
1.524745987280436,-0.0960064161300659,-0.0393348278045654,-0.21780737972259498,0.7213675173008582
1.525351680799515,-0.155881904411316,-0.0584949840545654,0.107915276527405,0.7213675173008582
1.525957374318595,-0.172647041130066,-0.125555530929565,0.055224846839905,0.7213675173008582
1.526563067837674,-0.0936113965988159,0.0229356800079346,-0.179487067222595,0.7213675173008582
1.527168761356753,-0.0648711622238159,0.0588609729766846,0.127075432777405,0.7213675173008582
1.527774454875833,-0.050501045036316,0.0899962268829346,-0.069316168785095,0.7213675173008582
1.5283801483949122,-0.20857233409881598,0.0349107776641846,-0.13877173519134497,0.7213675173008582
1.5289858419139921,-0.20378229503631598,0.0373057971954346,-0.071711188316345,0.7213675173008582
1.5295915354330711,-0.0840313184738159,-0.0537049449920654,0.074385003089905,0.7213675173008582
1.5301972289521502,-0.30197809581756596,0.0660460315704346,0.009719475746155,0.7213675173008582
1.53080292247123,-0.0720562208175659,0.00617054328918457,0.100730217933655,0.7213675173008582
1.531408615990309,-0.045711005973816,0.0229356800079346,0.297121819496155,0.7213675173008582
1.532014309509388,-0.201387275505066,-0.0225696910858154,-0.17709204769134498,0.7213675173008582
1.532620003028468,-0.107981513786316,-0.07047008171081541,0.112705315589905,0.7213675173008582
1.533225696547547,-0.103191474723816,0.00856556282043457,0.107915276527405,0.7213675173008582
1.533831390066626,-0.0720562208175659,0.101971324539185,-0.035785895347595,0.7213675173008582
1.534437083585706,-0.06966120128631591,-0.0992103160858154,0.083965081214905,0.7213675173008582
1.5350427771047852,-0.0241558301925659,-0.0872352184295654,0.163000725746155,0.7213675173008582
1.535648470623864,-0.0217608106613159,-0.00340953483581543,0.098335198402405,0.7213675173008582
1.5362541641429441,-0.06966120128631591,-0.321947132492065,0.095940178871155,0.7213675173008582
1.5368598576620232,-0.00260065441131595,-0.137530628585815,-0.014230719566345,0.7213675173008582
1.5374655511811022,0.0069794237136840504,0.0325157581329346,-0.189067145347595,0.7213675173008582
1.538071244700182,-0.112771552848816,-0.00580455436706543,0.110310296058655,0.7213675173008582
1.538676938219261,0.038114677619934,0.09957630500793459,0.122285393714905,0.7213675173008582
1.5392826317383401,-0.131931709098816,0.11873646125793501,-0.009440680503845,0.7213675173008582
1.53988832525742,-0.016970771598815902,-0.0417298473358154,-0.20343726253509498,0.7213675173008582
1.540494018776499,-0.016970771598815902,-0.0105945934295654,-0.016625739097595002,0.7213675173008582
1.541099712295578,-0.141511787223816,0.0468858753204346,-0.007045660972595,0.7213675173008582
1.5417054058146582,-0.0217608106613159,-0.16387584342956502,0.301911858558655,0.7213675173008582
1.542311099333737,-0.124746650505066,-0.156690784835815,0.711460198402405,0.7213675173008582
1.542916792852816,0.059669853401184,-0.11597545280456499,0.637214592933655,0.7213675173008582
1.5435224863718962,0.0932001268386841,-0.0632850231170654,0.653979729652405,0.7213675173008582
1.5441281798909752,0.0237445604324341,0.0588609729766846,0.045644768714905,0.7213675173008582
1.544733873410055,-0.182227119255066,-0.240516468429565,0.028879631996154998,0.7213675173008582
1.545339566929134,-0.110376533317566,-0.127950550460815,0.107915276527405,0.7213675173008582
1.5459452604482131,0.0932001268386841,0.0684410511016846,-0.057341071128845005,0.7213675173008582
1.546550953967293,0.20576604480743402,-0.0968152965545654,0.20132103824615502,0.7213675173008582
1.547156647486372,0.107570244026184,0.049280894851684603,-0.009440680503845,0.7213675173008582
1.547762341005451,-0.0313408887863159,0.0732310901641846,0.019299553871155,0.7213675173008582
1.5483680345245312,-0.119956611442566,-0.0896302379608154,-0.21301734066009498,0.7213675173008582
1.54897372804361,-0.0265508497238159,-0.274046741867065,-0.189067145347595,0.7213675173008582
1.549579421562689,0.22971624011993402,-0.0249647106170654,0.055224846839905,0.7213675173008582
1.5501851150817691,-0.0672661817550659,0.111551402664185,-0.064526129722595,0.7213675173008582
1.5507908086008482,-0.0840313184738159,-0.0153846324920654,0.163000725746155,0.7213675173008582
1.551396502119927,-0.050501045036316,0.0277257190704346,0.119890374183655,0.7213675173008582
1.552002195639007,-0.16306696300506598,0.111551402664185,-0.110031500816345,0.7213675173008582
1.5526078891580861,0.289591728401184,0.0420958362579346,0.306701897621155,0.7213675173008582
1.5532135826771651,0.00458440418243405,-0.08005015983581541,0.23724633121490502,0.7213675173008582
1.553819276196245,0.0955951463699341,-0.0441248668670654,0.14623558902740502,0.7213675173008582
1.554424969715324,0.0668549119949341,0.101971324539185,0.14144554996490502,0.7213675173008582
1.555030663234403,-0.050501045036316,-0.144715687179565,-0.002255621910095,0.7213675173008582
1.555636356753483,-0.12953668956756598,-0.0225696910858154,-0.107636481285095,0.7213675173008582
1.556242050272562,-0.201387275505066,0.19058704719543498,-0.114821539878845,0.7213675173008582
1.556847743791641,0.26803655261993403,-0.07765514030456541,0.16060570621490503,0.7213675173008582
1.5574534373107212,-0.050501045036316,-0.0201746715545654,0.119890374183655,0.7213675173008582
1.5580591308298,-0.0960064161300659,-0.17345592155456502,0.048039788246155,0.7213675173008582
1.5586648243488792,0.19618596668243402,-0.0465198863983154,0.083965081214905,0.7213675173008582
1.5592705178679591,-0.0912163770675659,0.0373057971954346,0.069594964027405,0.7213675173008582
1.5598762113870381,-0.045711005973816,0.0828111682891846,0.148630608558655,0.7213675173008582
1.560481904906118,0.172235771369934,-0.151900745773315,0.265986565589905,0.7213675173008582
1.561087598425197,-0.17983209972381597,0.00856556282043457,-0.107636481285095,0.7213675173008582
1.561693291944276,-0.043315986442566,-0.0105945934295654,0.213296135902405,0.9264878024154853
1.562298985463356,0.22971624011993402,-0.06568004264831541,0.119890374183655,0.9264878024154853
1.562904678982435,-0.045711005973816,-0.10879039421081499,-0.054946051597595004,0.9264878024154853
1.563510372501514,-0.0193657911300659,0.0205406604766846,0.14144554996490502,0.9264878024154853
1.5641160660205942,0.100385185432434,0.0229356800079346,0.167790764808655,0.9264878024154853
1.564721759539673,0.133915458869934,0.0109605823516846,0.139050530433655,0.9264878024154853
1.5653274530587522,-0.117561591911316,0.0780211292266846,0.19174096012115502,0.9264878024154853
1.5659331465778321,-0.050501045036316,-0.0920252574920654,0.088755120277405,0.9264878024154853
1.5665388400969111,0.18900090808868403,-0.147110706710815,0.000139397621155003,0.9264878024154853
1.5671445336159902,-0.155881904411316,-0.269256702804565,-0.110031500816345,0.9264878024154853
1.56775022713507,-0.18462213878631598,-0.175850941085815,-0.22738745784759498,0.9264878024154853
1.568355920654149,-0.050501045036316,0.12352650032043501,-0.021415778160095003,0.9264878024154853
1.568961614173228,-0.0840313184738159,0.101971324539185,0.122285393714905,0.9264878024154853
1.569567307692308,-0.00499567394256595,-0.199801136398315,0.103125237464905,0.9264878024154853
1.570173001211387,0.14589055652618402,-0.0632850231170654,-0.131586676597595,0.9264878024154853
1.570778694730466,-0.036130927848816004,-0.06568004264831541,0.062409905433654995,0.9264878024154853
1.571384388249546,0.112360283088684,0.0612559925079346,-0.126796637535095,0.9264878024154853
1.5719900817686252,-0.0121807325363159,0.178611949539185,0.124680413246155,0.9264878024154853
1.572595775287704,-0.17983209972381597,-0.07047008171081541,-0.045365973472595,0.9264878024154853
1.5732014688067841,0.0955951463699341,-0.10400035514831499,0.038459710121155,0.9264878024154853
1.5738071623258632,0.0237445604324341,0.0876012073516846,0.45279808902740504,0.9264878024154853
1.5744128558449422,-0.043315986442566,-0.0417298473358154,-0.078896246910095,0.9264878024154853
1.575018549364022,0.045299736213684,-0.135135609054565,-0.042970953941345,0.9264878024154853
1.575624242883101,0.0764349901199341,0.09718128547668459,-0.10045142269134501,0.9264878024154853
1.5762299364021801,-0.0121807325363159,0.109156383132935,-0.174697028160095,0.9264878024154853
1.57683562992126,-0.0888213575363159,-0.0584949840545654,0.091150139808655,0.9264878024154853
1.577441323440339,-0.18462213878631598,0.13550159797668498,-0.011835700035095,0.9264878024154853
1.578047016959419,-0.0840313184738159,0.0373057971954346,0.115100335121155,0.9264878024154853
1.5786527104784982,0.16505071277618402,0.0229356800079346,0.174975823402405,0.9264878024154853
1.579258403997577,0.0764349901199341,-0.0225696910858154,-0.002255621910095,0.9264878024154853
1.5798640975166571,-0.112771552848816,-0.0920252574920654,-0.117216559410095,0.9264878024154853
1.5804697910357361,-0.0193657911300659,0.0804161487579346,0.050434807777405,0.9264878024154853
1.5810754845548152,-0.060081123161316,-0.10639537467956499,0.16060570621490503,0.9264878024154853
1.581681178073895,-0.0193657911300659,-0.0369398082733154,0.007324456214905,0.9264878024154853
1.582286871592974,0.17942082996368403,0.0756261096954346,-0.023810797691345,0.9264878024154853
1.5828925651120531,0.033324638557434,0.0684410511016846,-0.093266364097595,0.9264878024154853
1.583498258631133,0.20097600574493402,-0.08484019889831541,0.14623558902740502,0.9264878024154853
1.584103952150212,0.20097600574493402,0.0301207386016846,0.107915276527405,0.9264878024154853
1.584709645669291,-0.0936113965988159,-0.0608900035858154,0.24682640933990502,0.9264878024154853
1.5853153391883712,-0.191807197380066,-0.07765514030456541,0.083965081214905,0.9264878024154853
1.58592103270745,-0.112771552848816,-0.17824596061706502,-0.030995856285095002,0.9264878024154853
1.586526726226529,-0.107981513786316,-0.0321497692108154,-0.040575934410095,0.9264878024154853
1.5871324197456091,-0.17025202159881597,0.207352183914185,0.033669671058654996,0.9264878024154853
1.5877381132646882,-0.00260065441131595,-0.11358043327331499,0.251616448402405,0.9264878024154853
1.588343806783767,-0.00260065441131595,0.11394642219543501,0.239641350746155,0.9264878024154853
1.588949500302847,-0.160671943473816,0.09478626594543459,0.261196526527405,0.9264878024154853
1.5895551938219261,-0.0888213575363159,-0.195011097335815,0.14623558902740502,0.9264878024154853
1.5901608873410051,0.124335380744934,-0.0872352184295654,0.13186547183990502,0.9264878024154853
1.590766580860085,0.047694755744934,-0.0129896129608154,0.26359154605865504,0.9264878024154853
1.591372274379164,-0.00260065441131595,0.11634144172668501,0.400107659339905,0.9264878024154853
1.5919779678982442,0.042904716682434,-0.07526012077331541,0.117495354652405,0.9264878024154853
1.592583661417323,-0.124746650505066,-0.0584949840545654,0.038459710121155,0.9264878024154853
1.593189354936402,-0.06966120128631591,-0.0225696910858154,-0.011835700035095,0.9264878024154853
1.5937950484554821,0.212951103401184,-0.11358043327331499,0.18216088199615502,0.9264878024154853
1.5944007419745612,0.102780204963684,0.19537708625793498,0.25401146793365503,0.9264878024154853
1.59500643549364,0.0165595018386841,-0.0273597301483154,0.036064690589904996,0.9264878024154853
1.59561212901272,0.0069794237136840504,-0.0560999645233154,0.297121819496155,0.9264878024154853
1.5962178225317991,-0.0888213575363159,0.0205406604766846,0.107915276527405,0.9264878024154853
1.5968235160508781,0.033324638557434,0.159451793289185,0.009719475746155,0.9264878024154853
1.597429209569958,-0.141511787223816,0.0780211292266846,0.019299553871155,0.9264878024154853
1.598034903089037,-0.045711005973816,0.0205406604766846,-0.030995856285095002,0.9264878024154853
1.598640596608116,0.15068059558868402,-0.0201746715545654,0.17258080387115501,0.9264878024154853
1.599246290127196,-0.0720562208175659,0.0301207386016846,0.23724633121490502,0.9264878024154853
1.599851983646275,-0.22773249034881599,0.13071155891418498,0.127075432777405,0.9264878024154853
1.600457677165354,-0.00978571300506595,-0.00580455436706543,-0.114821539878845,0.9264878024154853
1.6010633706844342,-0.00978571300506595,-0.08244517936706541,0.17258080387115501,0.9264878024154853
1.601669064203513,-0.0888213575363159,-0.00819957389831543,0.665954827308655,0.9264878024154853
1.6022747577225922,0.0692499315261841,-0.0369398082733154,0.194135979652405,0.9264878024154853
1.602880451241672,-0.0840313184738159,-0.139925648117065,0.436032952308655,0.9264878024154853
1.6034861447607511,0.0189545213699341,0.0684410511016846,0.680324944496155,0.9264878024154853
1.6040918382798302,0.050089775276184,0.00617054328918457,0.18695092105865502,0.9264878024154853
1.60469753179891,-0.062476142692566,-0.0417298473358154,0.069594964027405,0.9264878024154853
1.605303225317989,-0.0193657911300659,0.0349107776641846,-0.042970953941345,0.9264878024154853
1.605908918837068,0.0213495409011841,-0.0417298473358154,-0.124401618003845,0.9264878024154853
1.606514612356148,0.198580986213684,0.0780211292266846,-0.011835700035095,0.9264878024154853
1.607120305875227,0.133915458869934,0.09957630500793459,0.239641350746155,0.9264878024154853
1.607725999394306,0.0740399705886841,0.0756261096954346,0.033669671058654996,0.9264878024154853
1.608331692913386,0.011769462776184101,-0.0560999645233154,0.004929436683655,0.9264878024154853
1.6089373864324652,0.054879814338683996,-0.17345592155456502,-0.076501227378845,0.9264878024154853
1.609543079951545,-0.0888213575363159,-0.0489149059295654,-0.145956793785095,0.9264878024154853
1.6101487734706241,-0.21815241222381598,-0.16866588249206502,-0.064526129722595,0.9264878024154853
1.6107544669897031,-0.038525947380066,-0.166270862960815,-0.064526129722595,0.9264878024154853
1.611360160508783,-0.18462213878631598,-0.10879039421081499,0.08157006168365499,0.9264878024154853
1.611965854027862,-0.040920966911316,0.0684410511016846,0.25401146793365503,0.9264878024154853
1.612571547546941,0.24887639636993403,0.0828111682891846,0.21569115543365502,0.9264878024154853
1.613177241066021,0.0189545213699341,-0.16387584342956502,0.15102562808990502,0.9264878024154853
1.6137829345851,-0.050501045036316,-0.10879039421081499,-0.165116950035095,0.9264878024154853
1.614388628104179,-0.115166572380066,0.18100696907043498,0.083965081214905,0.9264878024154853
1.614994321623259,-0.062476142692566,-0.0632850231170654,0.050434807777405,0.9264878024154853
1.6156000151423382,0.105175224494934,-0.00819957389831543,0.129470452308655,0.9264878024154853
1.616205708661417,0.0165595018386841,0.0708360706329346,0.122285393714905,0.9264878024154853
1.6168114021804971,-0.0265508497238159,-0.0872352184295654,0.045644768714905,0.9264878024154853
1.6174170956995761,-0.055291084098816,0.09718128547668459,0.050434807777405,0.9264878024154853
1.6180227892186552,0.054879814338683996,-0.11837047233581499,-0.165116950035095,0.9264878024154853
1.618628482737735,-0.055291084098816,0.0732310901641846,-0.062131110191345,0.9264878024154853
1.619234176256814,0.00937444324493405,0.0468858753204346,0.27317162418365504,0.9264878024154853
1.6198398697758931,-0.000205634880065948,-0.264466663742065,0.045644768714905,0.9264878024154853
1.620445563294973,-0.062476142692566,0.0468858753204346,-0.296843024253845,0.9264878024154853
1.621051256814052,0.22013616199493402,0.0516759143829346,0.17258080387115501,0.9264878024154853
1.621656950333131,-0.016970771598815902,0.0253306995391846,0.13665551090240502,0.9264878024154853
1.6222626438522112,-0.0960064161300659,0.0205406604766846,0.057619866371155,0.9264878024154853
1.62286833737129,-0.14390680675506598,0.0133556018829346,-0.090871344566345,0.9264878024154853
1.623474030890369,0.038114677619934,-0.185431019210815,0.088755120277405,0.9264878024154853
1.6240797244094491,0.0165595018386841,-0.10639537467956499,-0.090871344566345,0.9264878024154853
1.6246854179285282,-0.060081123161316,0.0229356800079346,-0.035785895347595,0.9264878024154853
1.625291111447607,0.138705497932434,0.0373057971954346,0.277961663246155,0.9264878024154853
1.625896804966687,-0.0768462598800659,0.228907359695435,0.074385003089905,0.9264878024154853
1.6265024984857661,-0.15827692394256598,-0.0273597301483154,0.021694573402405,0.9264878024154853
1.627108192004846,-0.297188056755066,0.147476695632935,-0.021415778160095003,0.9264878024154853
1.627713885523925,0.105175224494934,0.106761363601685,-0.184277106285095,0.9264878024154853
1.628319579043004,-0.0313408887863159,0.0660460315704346,-0.016625739097595002,0.9264878024154853
1.6289252725620842,-0.0289458692550659,0.0373057971954346,-0.141166754722595,0.9264878024154853
1.629530966081163,-0.040920966911316,-0.0321497692108154,0.012114495277405,0.9264878024154853
1.630136659600242,-0.033735908317566,-0.0297547496795654,0.21090111637115502,0.9264878024154853
1.6307423531193221,0.0069794237136840504,-0.13274058952331502,-0.014230719566345,0.9264878024154853
1.6313480466384012,-0.155881904411316,-0.017779652023315398,0.117495354652405,0.9264878024154853
1.63195374015748,0.263246513557434,-0.0297547496795654,0.026484612464904998,0.9264878024154853
1.63255943367656,0.102780204963684,-0.0992103160858154,0.335442131996155,0.9264878024154853
1.633165127195639,-0.0960064161300659,0.0636510120391846,0.689905022621155,0.9264878024154853
1.6337708207147181,0.026139579963684097,-0.195011097335815,0.596499260902405,0.9264878024154853
1.634376514233798,-0.21815241222381598,-0.190221058273315,-0.141166754722595,0.9264878024154853
1.634982207752877,-0.119956611442566,0.0444908557891846,-0.160326910972595,0.9264878024154853
1.635587901271956,-0.105586494255066,0.133106578445435,0.14623558902740502,0.9264878024154853
1.636193594791036,0.045299736213684,-0.0537049449920654,-0.083686285972595,0.9264878024154853
1.636799288310115,0.181815849494934,-0.288416859054565,-0.15314185237884498,0.9264878024154853
1.637404981829194,0.0764349901199341,-0.0489149059295654,-0.035785895347595,0.9264878024154853
1.6380106753482742,-0.19420221691131598,-0.12076549186706499,0.32346703433990504,0.9264878024154853
1.638616368867353,-0.27084284191131597,-0.197406116867065,-0.002255621910095,0.9264878024154853
1.6392220623864322,0.21534612293243402,-0.06568004264831541,-0.050156012535095,0.9264878024154853
1.639827755905512,-0.036130927848816004,0.00377552375793457,0.265986565589905,0.9264878024154853
1.6404334494245911,-0.333113349723816,0.0588609729766846,-0.016625739097595002,0.9264878024154853
1.641039142943671,0.13152043933868401,0.0325157581329346,0.083965081214905,0.9264878024154853
1.64164483646275,-0.0145757520675659,-0.154295765304565,0.117495354652405,0.9264878024154853
1.642250529981829,-0.14390680675506598,-0.16387584342956502,-0.220202399253845,0.9264878024154853
1.642856223500909,0.014164482307434102,-0.07765514030456541,0.031274651527404995,0.9264878024154853
1.643461917019988,-0.0936113965988159,0.147476695632935,-0.016625739097595002,0.9264878024154853
1.644067610539067,-0.0888213575363159,0.11873646125793501,0.016904534339905,0.9264878024154853
1.6446733040581472,-0.103191474723816,0.00138050422668457,0.117495354652405,0.9264878024154853
1.645278997577226,-0.242102607536316,-0.00819957389831543,0.139050530433655,0.9264878024154853
1.6458846910963052,0.0237445604324341,-0.08005015983581541,0.28275170230865504,0.9264878024154853
1.646490384615385,0.117150322151184,0.11634144172668501,-0.007045660972595,0.9264878024154853
1.6470960781344641,-0.151091865348816,-0.0872352184295654,0.019299553871155,0.9264878024154853
1.6477017716535431,0.17942082996368403,-0.151900745773315,0.18216088199615502,0.9264878024154853
1.648307465172623,-0.127141670036316,0.197772105789185,-0.119611578941345,0.9264878024154853
1.648913158691702,0.114755302619934,-0.00580455436706543,-0.105241461753845,0.9264878024154853
1.649518852210781,0.167445732307434,-0.18303599967956502,0.390527581214905,0.9264878024154853
1.650124545729861,-0.141511787223816,0.0732310901641846,-0.014230719566345,0.9264878024154853
1.65073023924894,0.0237445604324341,-0.101605335617065,0.105520256996155,0.9264878024154853
1.651335932768019,0.035719658088684,0.0852061878204346,0.18216088199615502,0.9264878024154853
1.651941626287099,0.00458440418243405,0.0588609729766846,0.026484612464904998,0.9264878024154853
1.6525473198061782,-0.0648711622238159,0.0301207386016846,0.189345940589905,0.9264878024154853
1.653153013325257,-0.050501045036316,0.0852061878204346,0.012114495277405,0.9264878024154853
1.6537587068443371,-0.060081123161316,-0.07526012077331541,0.043249749183655,0.9264878024154853
1.6543644003634161,-0.055291084098816,0.13550159797668498,-0.112426520347595,0.9264878024154853
1.6549700938824952,-0.06966120128631591,-0.0321497692108154,0.071989983558655,0.9264878024154853
1.655575787401575,-0.048106025505066,-0.257281605148315,0.13665551090240502,0.9264878024154853
1.656181480920654,0.0979901659011841,-0.0345447887420654,-0.09805640316009501,0.9264878024154853
1.6567871744397331,-0.0241558301925659,0.0420958362579346,0.026484612464904998,0.9264878024154853
1.657392867958813,-0.146301826286316,0.0109605823516846,-0.081291266441345,0.9264878024154853
1.657998561477892,0.050089775276184,0.12352650032043501,-0.086081305503845,0.9264878024154853
1.658604254996972,-0.266052802848816,-0.00819957389831543,0.13186547183990502,0.9264878024154853
1.6592099485160512,-0.107981513786316,-0.147110706710815,0.095940178871155,0.9264878024154853
1.65981564203513,-0.045711005973816,-0.0632850231170654,0.153420647621155,0.9264878024154853
1.6604213355542101,-0.0193657911300659,0.0157506214141846,-0.066921149253845,0.9264878024154853
1.6610270290732891,0.0189545213699341,-0.154295765304565,-0.076501227378845,0.9264878024154853
1.6616327225923682,-0.15348688488006598,-0.0968152965545654,0.064804924964905,0.959169848663235
1.662238416111448,0.112360283088684,-0.101605335617065,0.218086174964905,0.959169848663235
1.662844109630527,0.057274833869934,-0.12076549186706499,0.014509514808655,0.959169848663235
1.663449803149606,0.038114677619934,0.00617054328918457,-0.184277106285095,0.959169848663235
1.664055496668686,-0.040920966911316,0.0325157581329346,0.685114983558655,0.959169848663235
1.664661190187765,-0.136721748161316,0.00377552375793457,0.249221428871155,0.959169848663235
1.665266883706844,-0.048106025505066,0.0588609729766846,0.057619866371155,0.959169848663235
1.6658725772259242,0.198580986213684,-0.11597545280456499,0.222876214027405,0.959169848663235
1.666478270745003,-0.00260065441131595,0.09478626594543459,-0.282472907066345,0.959169848663235
1.667083964264082,-0.0145757520675659,0.0540709339141846,-0.062131110191345,0.959169848663235
1.6676896577831621,0.107570244026184,-0.257281605148315,0.036064690589904996,0.959169848663235
1.6682953513022412,0.126730400276184,-0.0441248668670654,-0.179487067222595,0.959169848663235
1.66890104482132,-0.06966120128631591,0.125921519851685,-0.009440680503845,0.959169848663235
1.6695067383404,0.167445732307434,0.0780211292266846,0.057619866371155,0.959169848663235
1.670112431859479,0.0740399705886841,0.111551402664185,0.112705315589905,0.959169848663235
1.6707181253785581,-0.20378229503631598,0.09718128547668459,0.074385003089905,0.959169848663235
1.671323818897638,0.100385185432434,-0.07286510124206541,0.067199944496155,0.959169848663235
1.671929512416717,-0.0265508497238159,-0.07047008171081541,0.14144554996490502,0.959169848663235
1.672535205935796,-0.0768462598800659,-0.0944202770233154,-0.066921149253845,0.959169848663235
1.673140899454876,-0.0217608106613159,-0.00819957389831543,0.26359154605865504,0.959169848663235
1.673746592973955,0.0884100877761841,-0.08005015983581541,0.105520256996155,0.959169848663235
1.6743522864930351,-0.0193657911300659,0.192982066726685,-0.191462164878845,0.959169848663235
1.6749579800121142,0.0309296190261841,0.09957630500793459,-0.10284644222259501,0.959169848663235
1.675563673531193,-0.0816362989425659,-0.00580455436706543,0.038459710121155,0.959169848663235
1.676169367050273,-0.119956611442566,0.111551402664185,0.20132103824615502,0.959169848663235
1.676775060569352,-0.050501045036316,-0.0249647106170654,0.048039788246155,0.959169848663235
1.6773807540884311,-0.30197809581756596,-0.0920252574920654,0.074385003089905,0.959169848663235
1.677986447607511,-0.187017158317566,0.0229356800079346,0.07917504215240499,0.959169848663235
1.67859214112659,-0.13911676769256598,0.0468858753204346,0.052829827308655,0.959169848663235
1.679197834645669,-0.0912163770675659,-0.00340953483581543,0.13665551090240502,0.959169848663235
1.679803528164749,-0.033735908317566,0.154661754226685,-0.15793189144134498,0.959169848663235
1.680409221683828,-0.20857233409881598,-0.0560999645233154,-0.057341071128845005,0.959169848663235
1.681014915202907,-0.0888213575363159,0.0301207386016846,-0.023810797691345,0.959169848663235
1.6816206087219872,0.0788300096511841,0.0277257190704346,-0.160326910972595,0.959169848663235
1.682226302241066,-0.06966120128631591,0.16663685188293498,0.13665551090240502,0.959169848663235
1.6828319957601452,0.00937444324493405,0.0373057971954346,0.285146721839905,0.959169848663235
1.683437689279225,-0.043315986442566,0.104366344070435,0.16060570621490503,0.959169848663235
1.6840433827983041,-0.0193657911300659,0.173821910476685,-0.126796637535095,0.959169848663235
1.6846490763173831,0.0884100877761841,-0.06807506217956541,0.033669671058654996,0.959169848663235
1.685254769836463,-0.052896064567566,-0.130345569992065,0.306701897621155,0.959169848663235
1.685860463355542,0.121940361213684,-0.0537049449920654,-0.035785895347595,0.959169848663235
1.686466156874621,-0.0648711622238159,0.188192027664185,0.028879631996154998,0.959169848663235
1.687071850393701,0.143495536994934,0.12352650032043501,0.23245629215240501,0.959169848663235
1.68767754391278,-0.055291084098816,-0.149505726242065,0.139050530433655,0.959169848663235
1.688283237431859,-0.172647041130066,-0.30039195671081503,0.000139397621155003,0.959169848663235
1.688888930950939,0.193790947151184,0.0181456409454346,0.004929436683655,0.959169848663235
1.6894946244700182,0.026139579963684097,0.09478626594543459,-0.054946051597595004,0.959169848663235
1.690100317989098,-0.124746650505066,0.16663685188293498,-0.059736090660095005,0.959169848663235
1.6907060115081771,-0.115166572380066,-0.0417298473358154,0.024089592933654997,0.959169848663235
1.6913117050272561,-0.0193657911300659,-0.00101451530456543,0.057619866371155,0.959169848663235
1.691917398546336,0.042904716682434,0.0636510120391846,0.416872796058655,0.959169848663235
1.692523092065415,0.0692499315261841,-0.0489149059295654,0.45279808902740504,0.959169848663235
1.693128785584494,0.062064872932434,0.0828111682891846,0.012114495277405,0.959169848663235
1.693734479103574,0.033324638557434,-0.00819957389831543,0.268381585121155,0.959169848663235
1.694340172622653,-0.220547431755066,-0.0920252574920654,0.26359154605865504,0.959169848663235
1.694945866141732,-0.20857233409881598,-0.06807506217956541,0.019299553871155,0.959169848663235
1.695551559660812,0.033324638557434,-0.0632850231170654,0.014509514808655,0.959169848663235
1.6961572531798912,0.040509697151184,-0.101605335617065,-0.028600836753845,0.959169848663235
1.69676294669897,-0.122351630973816,-0.18782603874206502,0.07917504215240499,0.959169848663235
1.6973686402180501,0.035719658088684,0.00856556282043457,-0.141166754722595,0.959169848663235
1.6979743337371291,-0.0720562208175659,0.0109605823516846,-0.011835700035095,0.959169848663235
1.6985800272562082,-0.0792412794113159,-0.0584949840545654,0.012114495277405,0.959169848663235
1.699185720775288,0.00458440418243405,-0.135135609054565,-0.026205817222595,0.959169848663235
1.699791414294367,0.16505071277618402,-0.139925648117065,0.124680413246155,0.959169848663235
1.700397107813446,0.181815849494934,-0.0920252574920654,-0.047760993003845,0.959169848663235
1.701002801332526,-0.048106025505066,-0.125555530929565,0.0025344171524050003,0.959169848663235
1.701608494851605,0.028534599494934098,0.0780211292266846,-0.13398169612884497,0.959169848663235
1.702214188370684,-0.206177314567566,-0.0393348278045654,-0.19864722347259497,0.959169848663235
1.7028198818897642,-0.0241558301925659,-0.0369398082733154,0.016904534339905,0.959169848663235
1.703425575408843,-0.055291084098816,0.0756261096954346,0.004929436683655,0.959169848663235
1.704031268927922,-0.00978571300506595,-0.0560999645233154,-0.124401618003845,0.959169848663235
1.7046369624470021,0.047694755744934,-0.08005015983581541,0.031274651527404995,0.959169848663235
1.7052426559660812,-0.16306696300506598,-0.12076549186706499,0.129470452308655,0.959169848663235
1.70584834948516,-0.0744512403488159,-0.127950550460815,0.050434807777405,0.959169848663235
1.70645404300424,0.035719658088684,0.0325157581329346,-0.119611578941345,0.959169848663235
1.707059736523319,-0.15348688488006598,0.049280894851684603,0.289936760902405,0.959169848663235
1.707665430042399,-0.117561591911316,-0.00580455436706543,0.134260491371155,0.959169848663235
1.708271123561478,-0.15348688488006598,0.0420958362579346,-0.15314185237884498,0.959169848663235
1.708876817080557,-0.172647041130066,0.157056773757935,-0.035785895347595,0.959169848663235
1.7094825105996372,0.045299736213684,-0.06807506217956541,-0.17230200862884498,0.959169848663235
1.710088204118716,-0.0816362989425659,0.0397008167266846,0.07678002262115499,0.959169848663235
1.710693897637795,-0.18941217784881598,0.0109605823516846,0.189345940589905,0.959169848663235
1.7112995911568751,-0.136721748161316,-0.139925648117065,0.069594964027405,0.959169848663235
1.7119052846759542,-0.127141670036316,0.0325157581329346,-0.09805640316009501,0.959169848663235
1.712510978195033,-0.13432672863006598,-0.0297547496795654,0.048039788246155,0.959169848663235
1.713116671714113,0.133915458869934,0.137896617507935,0.083965081214905,0.959169848663235
1.713722365233192,0.25845647449493403,0.0229356800079346,0.19653099918365502,0.959169848663235
1.7143280587522711,0.172235771369934,0.11394642219543501,-0.038180914878845,0.959169848663235
1.714933752271351,0.0716449510574341,0.09957630500793459,0.098335198402405,0.959169848663235
1.71553944579043,-0.13432672863006598,-0.130345569992065,0.24203637027740502,0.959169848663235
1.716145139309509,-0.0840313184738159,0.19537708625793498,-0.105241461753845,0.959169848663235
1.716750832828589,0.133915458869934,-0.00340953483581543,0.143840569496155,0.959169848663235
1.717356526347668,0.0069794237136840504,0.00617054328918457,0.31388695621490503,0.959169848663235
1.717962219866747,-0.0888213575363159,-0.0105945934295654,0.129470452308655,0.959169848663235
1.7185679133858272,0.057274833869934,-0.144715687179565,0.13186547183990502,0.959169848663235
1.719173606904906,0.126730400276184,-0.0896302379608154,-0.129191657066345,0.959169848663235
1.7197793004239852,-0.172647041130066,-0.0944202770233154,-0.16751196956634498,0.959169848663235
1.720384993943065,-0.117561591911316,0.0133556018829346,0.24203637027740502,0.959169848663235
1.7209906874621441,0.0860150682449341,-0.127950550460815,0.167790764808655,0.959169848663235
1.721596380981224,-0.0864263380050659,-0.144715687179565,-0.189067145347595,0.959169848663235
1.722202074500303,-0.12953668956756598,-0.00819957389831543,-0.306423102378845,0.959169848663235
1.722807768019382,0.105175224494934,0.0205406604766846,-0.136376715660095,0.959169848663235
1.723413461538462,-0.100796455192566,0.0229356800079346,0.649189690589905,0.959169848663235
1.724019155057541,-0.0984014356613159,0.0684410511016846,0.397712639808655,0.959169848663235
1.72462484857662,-0.0313408887863159,0.0828111682891846,-0.141166754722595,0.959169848663235
1.7252305420957001,-0.21336237316131598,0.0157506214141846,0.19174096012115502,0.959169848663235
1.725836235614779,-0.0313408887863159,-0.278836780929565,0.292331780433655,0.959169848663235
1.7264419291338582,-0.0864263380050659,-0.06807506217956541,0.055224846839905,0.959169848663235
1.727047622652938,-0.0265508497238159,0.0516759143829346,0.024089592933654997,0.959169848663235
1.7276533161720171,-0.100796455192566,-0.0872352184295654,0.100730217933655,0.959169848663235
1.7282590096910961,-0.24449762706756598,0.0852061878204346,0.16060570621490503,0.959169848663235
1.728864703210176,0.105175224494934,0.00377552375793457,0.198926018714905,0.959169848663235
1.729470396729255,0.198580986213684,0.00377552375793457,0.275566643714905,0.959169848663235
1.730076090248334,-0.036130927848816004,-0.11118541374206499,0.270776604652405,0.959169848663235
1.7306817837674142,-0.048106025505066,0.0109605823516846,-0.076501227378845,0.959169848663235
1.731287477286493,0.050089775276184,0.178611949539185,0.112705315589905,0.959169848663235
1.731893170805572,-0.016970771598815902,-0.0608900035858154,0.007324456214905,0.959169848663235
1.732498864324652,-0.220547431755066,0.0468858753204346,0.033669671058654996,0.959169848663235
1.7331045578437312,-0.117561591911316,-0.127950550460815,0.050434807777405,0.959169848663235
1.73371025136281,-0.062476142692566,-0.28123180046081503,-0.210622321128845,0.959169848663235
1.7343159448818901,-0.246892646598816,-0.0297547496795654,-0.054946051597595004,0.959169848663235
1.7349216384009691,-0.16785700206756599,0.252857555007935,0.167790764808655,0.959169848663235
1.7355273319200482,-0.15348688488006598,0.104366344070435,0.026484612464904998,0.959169848663235
1.736133025439128,-0.18462213878631598,-0.0896302379608154,0.031274651527404995,0.959169848663235
1.736738718958207,-0.062476142692566,-0.0129896129608154,0.095940178871155,0.959169848663235
1.737344412477286,-0.0648711622238159,-0.0537049449920654,-0.014230719566345,0.959169848663235
1.737950105996366,-0.141511787223816,0.0420958362579346,0.129470452308655,0.959169848663235
1.738555799515445,0.057274833869934,-0.101605335617065,-0.026205817222595,0.959169848663235
1.739161493034525,0.047694755744934,0.154661754226685,-0.112426520347595,0.959169848663235
1.7397671865536042,-0.151091865348816,0.00377552375793457,0.014509514808655,0.959169848663235
1.740372880072683,-0.00499567394256595,-0.18782603874206502,0.040854729652405,0.959169848663235
1.7409785735917631,0.148285576057434,-0.0249647106170654,0.012114495277405,0.959169848663235
1.7415842671108421,-0.06966120128631591,-0.0920252574920654,0.110310296058655,0.959169848663235
1.7421899606299212,-0.105586494255066,-0.07047008171081541,0.16539574527740503,0.959169848663235
1.742795654149001,0.0884100877761841,-0.0513099254608154,0.129470452308655,0.959169848663235
1.74340134766808,0.153075615119934,-0.0968152965545654,0.18695092105865502,0.959169848663235
1.744007041187159,-0.0265508497238159,0.049280894851684603,0.045644768714905,0.959169848663235
1.744612734706239,-0.0672661817550659,0.0157506214141846,-0.13877173519134497,0.959169848663235
1.745218428225318,0.0740399705886841,0.0157506214141846,-0.136376715660095,0.959169848663235
1.745824121744397,0.014164482307434102,0.00617054328918457,-0.150746832847595,0.959169848663235
1.7464298152634772,0.0309296190261841,-0.13274058952331502,-0.174697028160095,0.959169848663235
1.747035508782556,-0.151091865348816,-0.130345569992065,-0.124401618003845,0.959169848663235
1.747641202301635,-0.117561591911316,-0.13274058952331502,0.134260491371155,0.959169848663235
1.7482468958207151,0.052484794807434,0.0852061878204346,0.014509514808655,0.959169848663235
1.7488525893397942,0.00458440418243405,-0.10879039421081499,-0.107636481285095,0.959169848663235
1.749458282858873,0.208161064338684,-0.08005015983581541,0.021694573402405,0.959169848663235
1.750063976377953,0.105175224494934,0.137896617507935,-0.042970953941345,0.959169848663235
1.750669669897032,0.014164482307434102,0.0349107776641846,-0.066921149253845,0.959169848663235
1.7512753634161111,-0.00499567394256595,0.0828111682891846,0.014509514808655,0.959169848663235
1.751881056935191,-0.115166572380066,0.11873646125793501,-0.33516333675384496,0.959169848663235
1.75248675045427,-0.177437080192566,-0.12076549186706499,-0.050156012535095,0.959169848663235
1.753092443973349,-0.033735908317566,-0.0273597301483154,-0.165116950035095,0.959169848663235
1.753698137492429,-0.141511787223816,0.11394642219543501,0.409687737464905,0.959169848663235
1.754303831011508,-0.182227119255066,-0.151900745773315,0.234851311683655,0.959169848663235
1.754909524530587,0.026139579963684097,-0.175850941085815,-0.32558325862884496,0.959169848663235
1.7555152180496671,-0.14869684581756598,0.0109605823516846,0.20132103824615502,0.959169848663235
1.756120911568746,0.00458440418243405,-0.00101451530456543,-0.313608160972595,0.959169848663235
1.756726605087826,0.059669853401184,-0.16387584342956502,0.08157006168365499,0.959169848663235
1.757332298606905,0.047694755744934,-0.07765514030456541,0.074385003089905,0.959169848663235
1.7579379921259841,0.124335380744934,-0.0105945934295654,0.045644768714905,0.959169848663235
1.758543685645064,-0.0648711622238159,0.0109605823516846,0.21090111637115502,0.959169848663235
1.759149379164143,-0.050501045036316,0.00856556282043457,0.325862053871155,0.959169848663235
1.759755072683222,0.0644598924636841,-0.135135609054565,0.167790764808655,0.959169848663235
1.760360766202302,-0.13911676769256598,-0.0608900035858154,-0.064526129722595,0.959169848663235
1.7609664597213812,0.011769462776184101,0.0564659534454346,0.026484612464904998,0.959169848663235
1.76157215324046,0.18421086902618403,-0.19261607780456502,0.100730217933655,1.235461243957378
1.7621778467595401,-0.00260065441131595,-0.0441248668670654,-0.095661383628845,1.235461243957378
1.762783540278619,0.042904716682434,0.125921519851685,-0.21301734066009498,1.235461243957378
1.7633892337976982,-0.045711005973816,-0.08005015983581541,0.091150139808655,1.235461243957378
1.763994927316778,0.014164482307434102,0.0468858753204346,0.19174096012115502,1.235461243957378
1.7646006208358571,-0.16306696300506598,-0.017779652023315398,0.067199944496155,1.235461243957378
1.7652063143549361,-0.23491754894256597,-0.0297547496795654,0.139050530433655,1.235461243957378
1.765812007874016,0.052484794807434,-0.135135609054565,0.091150139808655,1.235461243957378
1.766417701393095,-0.16785700206756599,0.0181456409454346,-0.136376715660095,1.235461243957378
1.767023394912174,-0.119956611442566,0.0516759143829346,-0.016625739097595002,1.235461243957378
1.7676290884312542,-0.13911676769256598,-0.166270862960815,0.19653099918365502,1.235461243957378
1.768234781950333,-0.0792412794113159,0.0397008167266846,-0.004650641441345,1.235461243957378
1.7688404754694131,-0.107981513786316,-0.00819957389831543,0.040854729652405,1.235461243957378
1.769446168988492,-0.0768462598800659,-0.0560999645233154,0.088755120277405,1.235461243957378
1.7700518625075712,-0.0289458692550659,-0.0584949840545654,0.134260491371155,1.235461243957378
1.77065755602665,0.119545341682434,-0.06807506217956541,0.038459710121155,1.235461243957378
1.7712632495457301,0.177025810432434,0.0852061878204346,-0.076501227378845,1.235461243957378
1.7718689430648091,-0.033735908317566,-0.135135609054565,-0.023810797691345,1.235461243957378
1.772474636583889,0.198580986213684,-0.0297547496795654,-0.205832282066345,1.235461243957378
1.773080330102968,-0.15348688488006598,0.19537708625793498,-0.014230719566345,1.235461243957378
1.773686023622047,-0.290002998161316,0.0181456409454346,-0.13398169612884497,1.235461243957378
1.7742917171411272,-0.127141670036316,0.0133556018829346,0.071989983558655,1.235461243957378
1.774897410660206,-0.043315986442566,0.188192027664185,0.057619866371155,1.235461243957378
1.775503104179285,-0.20378229503631598,0.137896617507935,0.124680413246155,1.235461243957378
1.776108797698365,-0.220547431755066,-0.06568004264831541,0.067199944496155,1.235461243957378
1.7767144912174442,0.100385185432434,-0.0968152965545654,-0.076501227378845,1.235461243957378
1.777320184736523,-0.0241558301925659,0.0804161487579346,0.179765862464905,1.235461243957378
1.777925878255603,-0.191807197380066,0.049280894851684603,-0.083686285972595,1.235461243957378
1.7785315717746821,-0.0912163770675659,-0.0297547496795654,0.004929436683655,1.235461243957378
1.7791372652937611,-0.033735908317566,0.0253306995391846,-0.16751196956634498,1.235461243957378
1.779742958812841,-0.060081123161316,-0.101605335617065,-0.038180914878845,1.235461243957378
1.78034865233192,-0.055291084098816,-0.175850941085815,0.07678002262115499,1.235461243957378
1.780954345850999,-0.0720562208175659,-0.00101451530456543,-0.126796637535095,1.235461243957378
1.781560039370079,-0.0241558301925659,0.0301207386016846,0.000139397621155003,1.235461243957378
1.782165732889158,-0.124746650505066,0.0301207386016846,-0.25612769222259496,1.235461243957378
1.782771426408237,-0.045711005973816,0.109156383132935,-0.251337653160095,1.235461243957378
1.7833771199273172,-0.0984014356613159,-0.0129896129608154,0.5677590265274051,1.235461243957378
1.783982813446396,-0.0289458692550659,-0.0537049449920654,0.744990471839905,1.235461243957378
1.7845885069654752,0.17463079090118402,-0.139925648117065,0.050434807777405,1.235461243957378
1.7851942004845551,-0.0313408887863159,0.0780211292266846,-0.19864722347259497,1.235461243957378
1.7857998940036341,0.062064872932434,-0.0129896129608154,0.048039788246155,1.235461243957378
1.786405587522714,0.0213495409011841,-0.154295765304565,0.174975823402405,1.235461243957378
1.787011281041793,-0.14390680675506598,-0.0249647106170654,-0.145956793785095,1.235461243957378
1.787616974560872,0.253666435432434,-0.283626819992065,0.163000725746155,1.235461243957378
1.7882226680799511,0.028534599494934098,-0.142320667648315,0.13186547183990502,1.235461243957378
1.788828361599031,-0.0145757520675659,0.0109605823516846,-0.18667212581634499,1.235461243957378
1.78943405511811,0.0740399705886841,0.00856556282043457,0.20132103824615502,1.235461243957378
1.7900397486371902,-0.0984014356613159,0.0109605823516846,0.174975823402405,1.235461243957378
1.790645442156269,-0.0744512403488159,-0.21896129264831501,0.20132103824615502,1.235461243957378
1.7912511356753482,-0.033735908317566,-0.00580455436706543,-0.030995856285095002,1.235461243957378
1.7918568291944281,0.0189545213699341,0.233697398757935,0.17258080387115501,1.235461243957378
1.7924625227135071,-0.038525947380066,0.0373057971954346,0.261196526527405,1.235461243957378
1.793068216232586,0.057274833869934,0.104366344070435,0.07678002262115499,1.235461243957378
1.793673909751666,-0.112771552848816,0.0588609729766846,0.13186547183990502,1.235461243957378
1.794279603270745,-0.13432672863006598,-0.147110706710815,-0.107636481285095,1.235461243957378
1.7948852967898241,-0.210967353630066,0.049280894851684603,0.124680413246155,1.235461243957378
1.7954909903089042,-0.0912163770675659,0.0373057971954346,0.112705315589905,1.235461243957378
1.796096683827983,-0.182227119255066,0.0444908557891846,0.074385003089905,1.235461243957378
1.796702377347062,-0.12953668956756598,0.0397008167266846,0.143840569496155,1.235461243957378
1.797308070866142,-0.062476142692566,-0.0465198863983154,0.119890374183655,1.235461243957378
1.7979137643852212,0.0165595018386841,-0.0537049449920654,0.014509514808655,1.235461243957378
1.7985194579043,0.18900090808868403,-0.10639537467956499,0.074385003089905,1.235461243957378
1.7991251514233801,-0.18941217784881598,0.0756261096954346,0.021694573402405,1.235461243957378
1.799730844942459,0.181815849494934,-0.0345447887420654,-0.009440680503845,1.235461243957378
1.8003365384615382,0.0668549119949341,-0.10639537467956499,0.045644768714905,1.235461243957378
1.800942231980618,-0.220547431755066,0.0780211292266846,-0.002255621910095,1.235461243957378
1.8015479254996971,-0.0145757520675659,0.0181456409454346,-0.016625739097595002,1.235461243957378
1.8021536190187761,-0.052896064567566,0.262437633132935,0.127075432777405,1.235461243957378
1.802759312537856,-0.050501045036316,-0.0944202770233154,-0.026205817222595,1.235461243957378
1.803365006056935,0.0069794237136840504,-0.0896302379608154,-0.023810797691345,1.235461243957378
1.803970699576015,0.0836200487136841,0.0540709339141846,0.268381585121155,1.235461243957378
1.8045763930950942,0.052484794807434,-0.0441248668670654,0.103125237464905,1.235461243957378
1.805182086614173,0.16505071277618402,-0.0105945934295654,0.024089592933654997,1.235461243957378
1.8057877801332531,-0.00260065441131595,-0.305181995773315,0.112705315589905,1.235461243957378
1.806393473652332,-0.0816362989425659,-0.0584949840545654,-0.129191657066345,1.235461243957378
1.8069991671714112,0.0165595018386841,0.0444908557891846,-0.033390875816345,1.235461243957378
1.807604860690491,-0.0840313184738159,0.0516759143829346,0.127075432777405,1.235461243957378
1.80821055420957,0.0884100877761841,0.11634144172668501,-0.13877173519134497,1.235461243957378
1.8088162477286491,-0.0888213575363159,0.14029163703918499,0.07678002262115499,1.235461243957378
1.809421941247729,-0.18462213878631598,0.0349107776641846,0.064804924964905,1.235461243957378
1.810027634766808,0.0860150682449341,0.128316539382935,-0.062131110191345,1.235461243957378
1.810633328285887,0.117150322151184,-0.00340953483581543,-0.019020758628845003,1.235461243957378
1.8112390218049672,0.052484794807434,-0.0393348278045654,-0.047760993003845,1.235461243957378
1.811844715324046,0.0069794237136840504,0.09957630500793459,0.16060570621490503,1.235461243957378
1.812450408843125,0.047694755744934,-0.0393348278045654,-0.028600836753845,1.235461243957378
1.813056102362205,0.143495536994934,-0.10400035514831499,0.24682640933990502,1.235461243957378
1.8136617958812842,-0.000205634880065948,0.0181456409454346,0.376157464027405,1.235461243957378
1.814267489400363,-0.0720562208175659,0.18579700813293498,0.016904534339905,1.235461243957378
1.814873182919443,-0.0241558301925659,0.00377552375793457,0.139050530433655,1.235461243957378
1.8154788764385221,0.057274833869934,-0.144715687179565,-0.021415778160095003,1.235461243957378
1.8160845699576011,0.0932001268386841,-0.314762073898315,-0.196252203941345,1.235461243957378
1.816690263476681,0.011769462776184101,-0.13274058952331502,-0.20343726253509498,1.235461243957378
1.81729595699576,0.011769462776184101,0.09478626594543459,-0.129191657066345,1.235461243957378
1.817901650514839,0.057274833869934,0.0660460315704346,-0.110031500816345,1.235461243957378
1.818507344033919,-0.110376533317566,-0.0393348278045654,0.012114495277405,1.235461243957378
1.819113037552998,-0.0193657911300659,0.0780211292266846,0.234851311683655,1.235461243957378
1.819718731072078,0.17942082996368403,-0.161480823898315,0.35460228824615503,1.235461243957378
1.8203244245911572,0.057274833869934,-0.317157093429565,0.012114495277405,1.235461243957378
1.820930118110236,-0.21336237316131598,-0.0297547496795654,0.007324456214905,1.235461243957378
1.821535811629316,-0.0289458692550659,0.17142689094543498,0.23724633121490502,1.235461243957378
1.8221415051483951,-0.131931709098816,0.18100696907043498,-0.009440680503845,1.235461243957378
1.8227471986674741,-0.18941217784881598,-0.08484019889831541,0.179765862464905,1.235461243957378
1.823352892186554,-0.0816362989425659,-0.0968152965545654,0.153420647621155,1.235461243957378
1.823958585705633,-0.040920966911316,-0.12316051139831499,-0.110031500816345,1.235461243957378
1.824564279224712,0.21534612293243402,0.0205406604766846,0.112705315589905,1.235461243957378
1.825169972743792,0.13152043933868401,-0.00819957389831543,0.311491936683655,1.235461243957378
1.8257756662628712,0.0860150682449341,0.0444908557891846,0.064804924964905,1.235461243957378
1.82638135978195,-0.040920966911316,-0.161480823898315,0.321072014808655,1.235461243957378
1.8269870533010302,-0.00978571300506595,-0.23812144889831502,0.07917504215240499,1.235461243957378
1.827592746820109,-0.00978571300506595,-0.0489149059295654,0.052829827308655,1.235461243957378
1.8281984403391882,0.0812250291824341,0.00377552375793457,0.103125237464905,1.235461243957378
1.8288041338582681,-0.0241558301925659,0.147476695632935,-0.033390875816345,1.235461243957378
1.8294098273773471,-0.0217608106613159,-0.166270862960815,0.163000725746155,1.235461243957378
1.830015520896426,-0.036130927848816004,-0.0201746715545654,-0.13877173519134497,1.235461243957378
1.830621214415506,-0.16306696300506598,0.212142222976685,0.110310296058655,1.235461243957378
1.831226907934585,-0.0984014356613159,0.0876012073516846,0.17737084293365502,1.235461243957378
1.8318326014536641,0.0189545213699341,-0.07765514030456541,0.040854729652405,1.235461243957378
1.8324382949727442,-0.107981513786316,-0.0441248668670654,0.088755120277405,1.235461243957378
1.833043988491823,-0.115166572380066,0.11394642219543501,0.103125237464905,1.235461243957378
1.833649682010902,0.14110051746368402,-0.17345592155456502,-0.122006598472595,1.235461243957378
1.834255375529982,-0.007390693473815949,-0.101605335617065,0.064804924964905,1.235461243957378
1.8348610690490612,0.059669853401184,0.0181456409454346,0.083965081214905,1.235461243957378
1.83546676256814,0.102780204963684,-0.08484019889831541,0.148630608558655,1.235461243957378
1.8360724560872201,-0.122351630973816,-0.0369398082733154,0.105520256996155,1.235461243957378
1.836678149606299,-0.18462213878631598,-0.240516468429565,0.012114495277405,1.235461243957378
1.837283843125379,-0.0145757520675659,0.0540709339141846,-0.038180914878845,1.235461243957378
1.837889536644458,0.167445732307434,0.17142689094543498,0.119890374183655,1.235461243957378
1.838495230163537,0.0884100877761841,-0.07765514030456541,0.13665551090240502,1.235461243957378
1.8391009236826172,0.038114677619934,0.11394642219543501,-0.076501227378845,1.235461243957378
1.839706617201696,-0.13432672863006598,-0.0153846324920654,0.158210686683655,1.235461243957378
1.840312310720775,-0.007390693473815949,-0.07526012077331541,0.07678002262115499,1.235461243957378
1.840918004239855,0.0908051073074341,-0.125555530929565,0.17737084293365502,1.235461243957378
1.8415236977589342,-0.112771552848816,-0.0560999645233154,-0.004650641441345,1.235461243957378
1.842129391278013,-0.00978571300506595,-0.0249647106170654,0.074385003089905,1.235461243957378
1.8427350847970931,-0.043315986442566,-0.11597545280456499,0.100730217933655,1.235461243957378
1.843340778316172,-0.055291084098816,0.0157506214141846,0.026484612464904998,1.235461243957378
1.8439464718352512,-0.0912163770675659,0.0301207386016846,-0.10284644222259501,1.235461243957378
1.844552165354331,0.0237445604324341,-0.149505726242065,0.040854729652405,1.235461243957378
1.84515785887341,-0.100796455192566,-0.0513099254608154,0.07917504215240499,1.235461243957378
1.8457635523924891,-0.24449762706756598,-0.0632850231170654,-0.059736090660095005,1.235461243957378
1.846369245911569,0.0237445604324341,-0.0201746715545654,0.14623558902740502,1.235461243957378
1.846974939430648,-0.033735908317566,0.0301207386016846,-0.016625739097595002,1.235461243957378
1.847580632949727,-0.050501045036316,0.0301207386016846,0.004929436683655,1.235461243957378
1.8481863264688072,-0.141511787223816,0.145081676101685,0.239641350746155,1.235461243957378
1.848792019987886,-0.19420221691131598,-0.06807506217956541,0.28275170230865504,1.235461243957378
1.8493977135069652,0.105175224494934,-0.0944202770233154,0.038459710121155,1.235461243957378
1.850003407026045,-0.016970771598815902,0.0588609729766846,0.139050530433655,1.235461243957378
1.8506091005451242,-0.12953668956756598,-0.10400035514831499,0.091150139808655,1.235461243957378
1.851214794064203,0.0932001268386841,-0.151900745773315,0.019299553871155,1.235461243957378
1.851820487583283,0.0213495409011841,0.17621693000793498,-0.122006598472595,1.235461243957378
1.8524261811023621,-0.0193657911300659,0.0109605823516846,0.134260491371155,1.235461243957378
1.853031874621442,0.124335380744934,-0.0345447887420654,0.050434807777405,1.235461243957378
1.853637568140521,0.047694755744934,-0.127950550460815,-0.052551032066345,1.235461243957378
1.8542432616596,0.040509697151184,-0.180640980148315,-0.059736090660095005,1.235461243957378
1.8548489551786802,-0.0313408887863159,0.0229356800079346,-0.270497809410095,1.235461243957378
1.855454648697759,-0.256472724723816,-0.374637562179565,-0.050156012535095,1.235461243957378
1.8560603422168382,-0.23012750988006597,-0.147110706710815,-0.15314185237884498,1.235461243957378
1.856666035735918,-0.131931709098816,0.14029163703918499,-0.071711188316345,1.235461243957378
1.8572717292549972,0.040509697151184,0.0229356800079346,-0.002255621910095,1.235461243957378
1.857877422774076,0.0021893846511840498,-0.0441248668670654,-0.004650641441345,1.235461243957378
1.858483116293156,0.0189545213699341,-0.0896302379608154,0.007324456214905,1.235461243957378
1.8590888098122351,-0.16306696300506598,-0.0249647106170654,-0.10045142269134501,1.235461243957378
1.8596945033313141,-0.107981513786316,0.0444908557891846,0.107915276527405,1.235461243957378
1.860300196850394,0.047694755744934,0.0756261096954346,0.055224846839905,1.235461243957378
1.860905890369473,-0.196597236442566,-0.07047008171081541,-0.045365973472595,1.235461243957378
1.861511583888552,-0.17983209972381597,-0.0944202770233154,0.091150139808655,0.6245892468035515
1.862117277407632,-0.146301826286316,-0.16866588249206502,0.270776604652405,0.6245892468035515
1.8627229709267112,-0.14390680675506598,-0.00580455436706543,0.20611107730865502,0.6245892468035515
1.86332866444579,0.014164482307434102,-0.0489149059295654,0.194135979652405,0.6245892468035515
1.8639343579648702,-0.323533271598816,0.0612559925079346,0.15581566715240502,0.6245892468035515
1.864540051483949,-0.057686103630066,0.0420958362579346,0.134260491371155,0.6245892468035515
1.8651457450030282,0.114755302619934,0.0444908557891846,0.36418236637115503,0.6245892468035515
1.8657514385221081,-0.254077705192566,0.0325157581329346,0.050434807777405,0.6245892468035515
1.8663571320411871,-0.0720562208175659,-0.16387584342956502,0.14144554996490502,0.6245892468035515
1.866962825560267,0.0309296190261841,-0.12076549186706499,0.012114495277405,0.6245892468035515
1.867568519079346,0.0644598924636841,-0.0129896129608154,0.052829827308655,0.6245892468035515
1.868174212598425,0.054879814338683996,-0.0297547496795654,0.170185784339905,0.6245892468035515
1.868779906117504,0.047694755744934,-0.0417298473358154,-0.066921149253845,0.6245892468035515
1.8693855996365842,0.143495536994934,0.0109605823516846,0.22048119449615503,0.6245892468035515
1.869991293155663,0.181815849494934,0.00856556282043457,0.239641350746155,0.6245892468035515
1.8705969866747432,-0.0241558301925659,0.0444908557891846,0.045644768714905,0.6245892468035515
1.871202680193822,-0.110376533317566,0.0660460315704346,0.119890374183655,0.6245892468035515
1.8718083737129012,-0.18941217784881598,-0.0393348278045654,0.21569115543365502,0.6245892468035515
1.8724140672319811,-0.0816362989425659,-0.161480823898315,-0.019020758628845003,0.6245892468035515
1.8730197607510601,-0.131931709098816,-0.0321497692108154,-0.320793219566345,0.6245892468035515
1.873625454270139,0.0740399705886841,0.17621693000793498,0.426452874183655,0.6245892468035515
1.874231147789219,0.057274833869934,-0.0920252574920654,0.6276345148086551,0.6245892468035515
1.874836841308298,-0.043315986442566,0.0564659534454346,0.074385003089905,0.6245892468035515
1.875442534827377,-0.201387275505066,0.104366344070435,-0.021415778160095003,0.6245892468035515
1.8760482283464572,-0.107981513786316,-0.00819957389831543,0.110310296058655,0.6245892468035515
1.876653921865536,-0.0121807325363159,-0.07047008171081541,0.119890374183655,0.6245892468035515
1.877259615384615,-0.0648711622238159,-0.08484019889831541,0.124680413246155,0.6245892468035515
1.877865308903695,0.052484794807434,0.0732310901641846,0.268381585121155,0.6245892468035515
1.8784710024227742,0.062064872932434,-0.0896302379608154,0.352207268714905,0.6245892468035515
1.879076695941853,-0.0145757520675659,-0.00101451530456543,0.230061272621155,0.6245892468035515
1.8796823894609331,0.00458440418243405,-0.08484019889831541,-0.026205817222595,0.6245892468035515
1.880288082980012,0.162655693244934,-0.0273597301483154,0.112705315589905,0.6245892468035515
1.8808937764990912,-0.0121807325363159,0.101971324539185,0.380947503089905,0.6245892468035515
1.881499470018171,-0.007390693473815949,0.0588609729766846,0.062409905433654995,0.6245892468035515
1.88210516353725,-0.033735908317566,0.0660460315704346,0.095940178871155,0.6245892468035515
1.8827108570563291,-0.141511787223816,-0.08484019889831541,0.184555901527405,0.6245892468035515
1.883316550575409,-0.045711005973816,0.00617054328918457,0.045644768714905,0.6245892468035515
1.883922244094488,-0.191807197380066,0.0444908557891846,0.095940178871155,0.6245892468035515
1.884527937613568,-0.0121807325363159,-0.151900745773315,0.174975823402405,0.6245892468035515
1.8851336311326472,-0.0648711622238159,-0.0513099254608154,-0.011835700035095,0.6245892468035515
1.885739324651726,-0.0744512403488159,-0.07526012077331541,-0.076501227378845,0.6245892468035515
1.8863450181708061,0.114755302619934,0.0660460315704346,0.000139397621155003,0.6245892468035515
1.886950711689885,-0.13911676769256598,-0.00580455436706543,0.004929436683655,0.6245892468035515
1.8875564052089642,0.0908051073074341,-0.137530628585815,-0.054946051597595004,0.6245892468035515
1.888162098728044,-0.191807197380066,0.0420958362579346,-0.038180914878845,0.6245892468035515
1.888767792247123,-0.182227119255066,-0.171060902023315,0.064804924964905,0.6245892468035515
1.8893734857662021,0.0740399705886841,-0.07047008171081541,-0.083686285972595,0.6245892468035515
1.889979179285282,0.059669853401184,0.188192027664185,-0.038180914878845,0.6245892468035515
1.890584872804361,-0.13432672863006598,-0.204591175460815,-0.035785895347595,0.6245892468035515
1.89119056632344,-0.0145757520675659,0.0540709339141846,-0.004650641441345,0.6245892468035515
1.8917962598425202,-0.0289458692550659,0.173821910476685,0.086360100746155,0.6245892468035515
1.892401953361599,0.050089775276184,-0.226146351242065,0.170185784339905,0.6245892468035515
1.8930076468806782,0.21055608386993402,0.0349107776641846,-0.042970953941345,0.6245892468035515
1.893613340399758,0.057274833869934,0.152266734695435,0.100730217933655,0.6245892468035515
1.8942190339188372,-0.0193657911300659,0.0828111682891846,0.17258080387115501,0.6245892468035515
1.894824727437916,0.0213495409011841,-0.0608900035858154,0.012114495277405,0.6245892468035515
1.895430420956996,-0.052896064567566,-0.07765514030456541,0.15581566715240502,0.6245892468035515
1.8960361144760751,-0.127141670036316,0.0804161487579346,-0.054946051597595004,0.6245892468035515
1.8966418079951541,0.047694755744934,-0.151900745773315,-0.059736090660095005,0.6245892468035515
1.897247501514234,-0.17504206066131597,-0.139925648117065,-0.112426520347595,0.6245892468035515
1.897853195033313,0.057274833869934,-0.08005015983581541,-0.270497809410095,0.6245892468035515
1.898458888552392,0.0716449510574341,-0.135135609054565,0.040854729652405,0.6245892468035515
1.899064582071472,-0.052896064567566,0.13071155891418498,-0.124401618003845,0.6245892468035515
1.8996702755905512,-0.0720562208175659,-0.127950550460815,-0.136376715660095,0.6245892468035515
1.900275969109631,-0.285212959098816,0.0349107776641846,-0.038180914878845,0.6245892468035515
1.9008816626287102,-0.0960064161300659,0.104366344070435,-0.196252203941345,0.6245892468035515
1.901487356147789,0.014164482307434102,-0.11118541374206499,-0.155536871910095,0.6245892468035515
1.902093049666869,0.0189545213699341,0.161846812820435,-0.093266364097595,0.6245892468035515
1.9026987431859481,0.00458440418243405,0.178611949539185,-0.112426520347595,0.6245892468035515
1.9033044367050271,0.0955951463699341,-0.130345569992065,0.328257073402405,0.6245892468035515
1.903910130224107,-0.206177314567566,-0.0225696910858154,0.366577385902405,0.6245892468035515
1.904515823743186,-0.206177314567566,-0.08244517936706541,-0.040575934410095,0.6245892468035515
1.905121517262265,-0.112771552848816,-0.0297547496795654,0.000139397621155003,0.6245892468035515
1.905727210781345,-0.0984014356613159,0.0373057971954346,0.016904534339905,0.6245892468035515
1.9063329043004242,0.038114677619934,-0.235726429367065,0.050434807777405,0.6245892468035515
1.906938597819503,-0.0888213575363159,-0.08484019889831541,-0.028600836753845,0.6245892468035515
1.9075442913385832,-0.0241558301925659,-0.07286510124206541,0.21569115543365502,0.6245892468035515
1.908149984857662,0.0237445604324341,0.13550159797668498,0.139050530433655,0.6245892468035515
1.9087556783767412,-0.0217608106613159,0.14029163703918499,-0.021415778160095003,0.6245892468035515
1.9093613718958211,-0.127141670036316,0.0109605823516846,0.122285393714905,0.6245892468035515
1.9099670654149001,-0.0217608106613159,-0.10400035514831499,0.103125237464905,0.6245892468035515
1.910572758933979,-0.0840313184738159,-0.11597545280456499,0.21569115543365502,0.6245892468035515
1.911178452453059,-0.165461982536316,-0.154295765304565,0.321072014808655,0.6245892468035515
1.911784145972138,0.0165595018386841,-0.230936390304565,0.014509514808655,0.6245892468035515
1.912389839491217,0.0860150682449341,-0.0872352184295654,-0.105241461753845,0.6245892468035515
1.9129955330102972,-0.007390693473815949,-0.07286510124206541,0.13186547183990502,0.6245892468035515
1.913601226529376,-0.000205634880065948,-0.00340953483581543,0.105520256996155,0.6245892468035515
1.914206920048455,0.13152043933868401,-0.0608900035858154,0.13665551090240502,0.6245892468035515
1.914812613567535,-0.060081123161316,-0.204591175460815,0.069594964027405,0.6245892468035515
1.9154183070866142,-0.16785700206756599,-0.0968152965545654,-0.224992438316345,0.6245892468035515
1.916024000605693,-0.0720562208175659,-0.0105945934295654,-0.19385718441009497,0.6245892468035515
1.9166296941247731,-0.127141670036316,-0.23812144889831502,0.361787346839905,0.6245892468035515
1.917235387643852,-0.0217608106613159,-0.0920252574920654,0.052829827308655,0.6245892468035515
1.917841081162932,-0.115166572380066,-0.0105945934295654,-0.064526129722595,0.6245892468035515
1.918446774682011,0.0764349901199341,-0.0560999645233154,0.194135979652405,0.6245892468035515
1.91905246820109,0.114755302619934,0.0660460315704346,0.16539574527740503,0.6245892468035515
1.9196581617201702,-0.151091865348816,-0.166270862960815,-0.040575934410095,0.6245892468035515
1.920263855239249,-0.12953668956756598,-0.00819957389831543,-0.248942633628845,0.6245892468035515
1.920869548758328,-0.18941217784881598,0.0540709339141846,0.14144554996490502,0.6245892468035515
1.921475242277408,-0.0672661817550659,-0.171060902023315,0.203716057777405,0.6245892468035515
1.9220809357964872,-0.0720562208175659,-0.0608900035858154,-0.165116950035095,0.6245892468035515
1.922686629315566,0.0908051073074341,0.0684410511016846,0.026484612464904998,0.6245892468035515
1.9232923228346461,0.208161064338684,0.0373057971954346,0.301911858558655,0.6245892468035515
1.923898016353725,0.0237445604324341,0.183401988601685,0.08157006168365499,0.6245892468035515
1.9245037098728042,-0.112771552848816,0.0612559925079346,-0.016625739097595002,0.6245892468035515
1.925109403391884,0.062064872932434,-0.149505726242065,0.083965081214905,0.6245892468035515
1.925715096910963,-0.000205634880065948,-0.199801136398315,0.127075432777405,0.6245892468035515
1.9263207904300421,-0.119956611442566,-0.10879039421081499,0.107915276527405,0.6245892468035515
1.926926483949122,0.0644598924636841,0.147476695632935,0.07678002262115499,0.6245892468035515
1.927532177468201,0.0884100877761841,0.0636510120391846,0.064804924964905,0.6245892468035515
1.92813787098728,-0.043315986442566,-0.197406116867065,0.184555901527405,0.6245892468035515
1.9287435645063602,0.0237445604324341,-0.0537049449920654,0.13665551090240502,0.6245892468035515
1.929349258025439,0.026139579963684097,0.0516759143829346,-0.054946051597595004,0.6245892468035515
1.9299549515445182,-0.136721748161316,-0.144715687179565,-0.035785895347595,0.6245892468035515
1.930560645063598,-0.048106025505066,0.0804161487579346,-0.038180914878845,0.6245892468035515
1.9311663385826772,0.143495536994934,0.0420958362579346,-0.014230719566345,0.6245892468035515
1.931772032101756,-0.055291084098816,-0.283626819992065,-0.019020758628845003,0.6245892468035515
1.932377725620836,0.033324638557434,0.0157506214141846,-0.299238043785095,0.6245892468035515
1.9329834191399151,-0.038525947380066,0.0516759143829346,0.400107659339905,0.6245892468035515
1.9335891126589941,-0.297188056755066,-0.017779652023315398,0.816841057777405,0.6245892468035515
1.934194806178074,0.0836200487136841,-0.0393348278045654,0.500698479652405,0.6245892468035515
1.934800499697153,-0.0960064161300659,-0.161480823898315,0.15102562808990502,0.6245892468035515
1.9354061932162332,-0.0888213575363159,-0.235726429367065,-0.165116950035095,0.6245892468035515
1.936011886735312,-0.00260065441131595,0.0756261096954346,-0.030995856285095002,0.6245892468035515
1.9366175802543912,-0.172647041130066,0.0540709339141846,0.103125237464905,0.6245892468035515
1.937223273773471,-0.160671943473816,-0.214171253585815,0.239641350746155,0.6245892468035515
1.9378289672925502,-0.33071833019256597,-0.00580455436706543,0.112705315589905,0.6245892468035515
1.938434660811629,0.050089775276184,-0.08005015983581541,0.028879631996154998,0.6245892468035515
1.939040354330709,-0.038525947380066,-0.0201746715545654,0.16539574527740503,0.6245892468035515
1.9396460478497881,-0.299583076286316,0.13071155891418498,0.028879631996154998,0.6245892468035515
1.9402517413688671,-0.22294245128631598,-0.0513099254608154,0.110310296058655,0.6245892468035515
1.940857434887947,-0.18462213878631598,0.0181456409454346,0.088755120277405,0.6245892468035515
1.941463128407026,0.177025810432434,0.0277257190704346,0.13665551090240502,0.6245892468035515
1.942068821926105,-0.043315986442566,-0.0369398082733154,0.036064690589904996,0.6245892468035515
1.942674515445185,-0.0648711622238159,-0.0944202770233154,0.069594964027405,0.6245892468035515
1.9432802089642642,-0.0289458692550659,-0.06807506217956541,0.21569115543365502,0.6245892468035515
1.943885902483343,-0.040920966911316,0.128316539382935,0.139050530433655,0.6245892468035515
1.9444915960024232,0.102780204963684,-0.139925648117065,0.158210686683655,0.6245892468035515
1.945097289521502,-0.0744512403488159,-0.137530628585815,0.021694573402405,0.6245892468035515
1.9457029830405812,-0.124746650505066,-0.00340953483581543,-0.030995856285095002,0.6245892468035515
1.946308676559661,-0.15827692394256598,-0.0153846324920654,0.127075432777405,0.6245892468035515
1.9469143700787401,-0.17025202159881597,0.173821910476685,0.153420647621155,0.6245892468035515
1.94752006359782,0.0979901659011841,-0.0441248668670654,0.28275170230865504,0.6245892468035515
1.948125757116899,-0.0720562208175659,0.0468858753204346,0.297121819496155,0.6245892468035515
1.948731450635978,-0.0816362989425659,0.209747203445435,0.026484612464904998,0.6245892468035515
1.949337144155058,0.050089775276184,-0.11597545280456499,0.110310296058655,0.6245892468035515
1.9499428376741372,-0.016970771598815902,0.207352183914185,-0.071711188316345,0.6245892468035515
1.950548531193216,-0.290002998161316,0.0229356800079346,0.17737084293365502,0.6245892468035515
1.9511542247122962,-0.14869684581756598,-0.147110706710815,-0.014230719566345,0.6245892468035515
1.951759918231375,-0.0289458692550659,0.125921519851685,-0.201042243003845,0.6245892468035515
1.9523656117504542,-0.0768462598800659,-0.0584949840545654,0.129470452308655,0.6245892468035515
1.952971305269534,-0.043315986442566,0.12352650032043501,0.299516839027405,0.6245892468035515
1.9535769987886131,-0.364248603630066,-0.0105945934295654,0.25401146793365503,0.6245892468035515
1.954182692307692,0.0021893846511840498,-0.0105945934295654,-0.052551032066345,0.6245892468035515
1.954788385826772,-0.040920966911316,0.101971324539185,0.074385003089905,0.6245892468035515
1.955394079345851,-0.13911676769256598,-0.00819957389831543,0.256406487464905,0.6245892468035515
1.95599977286493,-0.0936113965988159,-0.11597545280456499,0.031274651527404995,0.6245892468035515
1.9566054663840102,0.014164482307434102,-0.07765514030456541,0.004929436683655,0.6245892468035515
1.957211159903089,-0.0720562208175659,0.125921519851685,0.091150139808655,0.6245892468035515
1.957816853422168,-0.275632880973816,-0.0560999645233154,-0.069316168785095,0.6245892468035515
1.958422546941248,-0.146301826286316,-0.11358043327331499,0.19653099918365502,0.6245892468035515
1.9590282404603272,0.0740399705886841,-0.10879039421081499,0.004929436683655,0.6245892468035515
1.959633933979406,0.18421086902618403,-0.11358043327331499,-0.066921149253845,0.6245892468035515
1.9602396274984861,0.109965263557434,0.11634144172668501,0.163000725746155,0.6245892468035515
1.960845321017565,0.045299736213684,-0.0393348278045654,0.107915276527405,0.6245892468035515
1.9614510145366442,0.054879814338683996,-0.149505726242065,0.31388695621490503,0.8841580666441515
1.962056708055724,0.014164482307434102,-0.0417298473358154,0.016904534339905,0.8841580666441515
1.962662401574803,-0.0145757520675659,-0.216566273117065,-0.299238043785095,0.8841580666441515
1.9632680950938821,0.038114677619934,-0.154295765304565,0.26359154605865504,0.8841580666441515
1.963873788612962,0.126730400276184,-0.0489149059295654,0.828816155433655,0.8841580666441515
1.964479482132041,0.126730400276184,0.0157506214141846,0.321072014808655,0.8841580666441515
1.965085175651121,0.057274833869934,0.11873646125793501,0.07917504215240499,0.8841580666441515
1.9656908691702002,-0.0217608106613159,0.14029163703918499,0.064804924964905,0.8841580666441515
1.966296562689279,0.033324638557434,-0.0896302379608154,0.16539574527740503,0.8841580666441515
1.9669022562083591,-0.151091865348816,0.0660460315704346,0.163000725746155,0.8841580666441515
1.967507949727438,-0.20857233409881598,0.14029163703918499,0.016904534339905,0.8841580666441515
1.9681136432465172,-0.100796455192566,-0.00101451530456543,0.163000725746155,0.8841580666441515
1.968719336765597,-0.117561591911316,-0.0944202770233154,-0.047760993003845,0.8841580666441515
1.969325030284676,0.0644598924636841,-0.0872352184295654,0.004929436683655,0.8841580666441515
1.9699307238037551,0.045299736213684,0.0756261096954346,0.148630608558655,0.8841580666441515
1.970536417322835,0.011769462776184101,0.0780211292266846,-0.004650641441345,0.8841580666441515
1.971142110841914,0.00937444324493405,-0.0920252574920654,-0.069316168785095,0.8841580666441515
1.971747804360993,0.0908051073074341,0.0444908557891846,-0.071711188316345,0.8841580666441515
1.9723534978800732,-0.15827692394256598,0.133106578445435,-0.047760993003845,0.8841580666441515
1.972959191399152,-0.033735908317566,-0.0513099254608154,-0.086081305503845,0.8841580666441515
1.9735648849182312,-0.19899225597381598,-0.0417298473358154,-0.093266364097595,0.8841580666441515
1.974170578437311,-0.177437080192566,-0.0489149059295654,0.306701897621155,0.8841580666441515
1.9747762719563902,-0.0984014356613159,-0.0321497692108154,0.122285393714905,0.8841580666441515
1.975381965475469,0.0069794237136840504,-0.07765514030456541,0.112705315589905,0.8841580666441515
1.975987658994549,0.047694755744934,0.0780211292266846,0.174975823402405,0.8841580666441515
1.976593352513628,-0.232522529411316,0.0540709339141846,0.064804924964905,0.8841580666441515
1.9771990460327071,0.0836200487136841,-0.10879039421081499,0.016904534339905,0.8841580666441515
1.977804739551787,0.0860150682449341,0.204957164382935,-0.007045660972595,0.8841580666441515
1.978410433070866,0.198580986213684,0.159451793289185,0.052829827308655,0.8841580666441515
1.979016126589945,-0.0960064161300659,0.111551402664185,0.08157006168365499,0.8841580666441515
1.979621820109025,-0.0768462598800659,0.109156383132935,0.016904534339905,0.8841580666441515
1.9802275136281042,0.014164482307434102,-0.0465198863983154,0.038459710121155,0.8841580666441515
1.980833207147184,-0.105586494255066,0.11634144172668501,0.13665551090240502,0.8841580666441515
1.9814389006662632,-0.045711005973816,-0.0872352184295654,0.16060570621490503,0.8841580666441515
1.982044594185342,-0.062476142692566,-0.00580455436706543,0.110310296058655,0.8841580666441515
1.982650287704422,0.119545341682434,0.17621693000793498,-0.081291266441345,0.8841580666441515
1.983255981223501,-0.0289458692550659,-0.0944202770233154,0.139050530433655,0.8841580666441515
1.9838616747425801,-0.122351630973816,-0.0225696910858154,-0.021415778160095003,0.8841580666441515
1.98446736826166,-0.0121807325363159,0.0756261096954346,-0.10284644222259501,0.8841580666441515
1.985073061780739,0.0165595018386841,0.133106578445435,0.019299553871155,0.8841580666441515
1.985678755299818,0.042904716682434,-0.130345569992065,0.127075432777405,0.8841580666441515
1.986284448818898,-0.00978571300506595,-0.221356312179565,0.13186547183990502,0.8841580666441515
1.9868901423379772,-0.13432672863006598,-0.08244517936706541,-0.074106207847595,0.8841580666441515
1.987495835857056,-0.107981513786316,-0.07765514030456541,0.043249749183655,0.8841580666441515
1.9881015293761362,0.112360283088684,0.19058704719543498,0.234851311683655,0.8841580666441515
1.988707222895215,-0.048106025505066,0.0325157581329346,0.0025344171524050003,0.8841580666441515
1.9893129164142942,-0.177437080192566,-0.0608900035858154,-0.042970953941345,0.8841580666441515
1.989918609933374,0.047694755744934,-0.0225696910858154,0.203716057777405,0.8841580666441515
1.9905243034524531,-0.00260065441131595,-0.00580455436706543,0.17258080387115501,0.8841580666441515
1.991129996971532,-0.0265508497238159,0.00856556282043457,0.13665551090240502,0.8841580666441515
1.991735690490612,-0.0792412794113159,-0.0321497692108154,0.026484612464904998,0.8841580666441515
1.992341384009691,-0.043315986442566,-0.0393348278045654,-0.112426520347595,0.8841580666441515
1.99294707752877,0.011769462776184101,-0.0249647106170654,0.184555901527405,0.8841580666441515
1.9935527710478502,0.00937444324493405,-0.10400035514831499,-0.086081305503845,0.8841580666441515
1.994158464566929,0.16984075183868402,-0.16387584342956502,-0.141166754722595,0.8841580666441515
1.994764158086008,-0.016970771598815902,0.00377552375793457,0.098335198402405,0.8841580666441515
1.995369851605088,-0.172647041130066,0.0157506214141846,0.117495354652405,0.8841580666441515
1.9959755451241672,-0.0672661817550659,-0.0608900035858154,0.083965081214905,0.8841580666441515
1.996581238643246,0.133915458869934,0.0804161487579346,-0.007045660972595,0.8841580666441515
1.9971869321623261,-0.038525947380066,-0.0153846324920654,0.20132103824615502,0.8841580666441515
1.997792625681405,-0.172647041130066,0.00377552375793457,-0.064526129722595,0.8841580666441515
1.998398319200485,-0.23012750988006597,-0.0537049449920654,-0.110031500816345,0.8841580666441515
1.999004012719564,-0.177437080192566,0.0876012073516846,-0.011835700035095,0.8841580666441515
1.999609706238643,0.059669853401184,0.0468858753204346,-0.042970953941345,0.8841580666441515
2.0002153997577232,0.035719658088684,-0.0369398082733154,0.13665551090240502,0.8841580666441515
2.000821093276802,0.167445732307434,0.23609241828918498,0.18216088199615502,0.8841580666441515
2.0014267867958813,-0.00260065441131595,-0.00580455436706543,0.163000725746155,0.8841580666441515
2.002032480314961,-0.127141670036316,0.12352650032043501,-0.047760993003845,0.8841580666441515
2.00263817383404,0.0021893846511840498,-0.0560999645233154,-0.007045660972595,0.8841580666441515
2.003243867353119,-0.007390693473815949,-0.195011097335815,0.07678002262115499,0.8841580666441515
2.003849560872199,-0.14869684581756598,0.0899962268829346,0.098335198402405,0.8841580666441515
2.004455254391278,-0.00499567394256595,0.12352650032043501,0.129470452308655,0.8841580666441515
2.005060947910357,0.114755302619934,0.157056773757935,0.174975823402405,0.8841580666441515
2.0056666414294373,0.011769462776184101,0.0660460315704346,0.22527123355865503,0.8841580666441515
2.006272334948516,-0.182227119255066,-0.130345569992065,0.024089592933654997,0.8841580666441515
2.006878028467595,-0.110376533317566,-0.0537049449920654,-0.112426520347595,0.8841580666441515
2.007483721986675,0.011769462776184101,-0.00340953483581543,-0.042970953941345,0.8841580666441515
2.0080894155057543,-0.160671943473816,0.0181456409454346,0.021694573402405,0.8841580666441515
2.008695109024833,0.0716449510574341,0.0612559925079346,0.067199944496155,0.8841580666441515
2.009300802543913,-0.0864263380050659,0.0444908557891846,0.218086174964905,0.8841580666441515
2.009906496062992,-0.18462213878631598,-0.0345447887420654,0.048039788246155,0.8841580666441515
2.0105121895820712,-0.062476142692566,-0.24291148796081502,0.095940178871155,0.8841580666441515
2.011117883101151,0.026139579963684097,-0.0225696910858154,-0.059736090660095005,0.8841580666441515
2.01172357662023,-0.000205634880065948,-0.0129896129608154,0.033669671058654996,0.8841580666441515
2.0123292701393103,0.20097600574493402,0.149871715164185,0.15102562808990502,0.8841580666441515
2.012934963658389,-0.00499567394256595,0.0397008167266846,0.285146721839905,0.8841580666441515
2.013540657177468,-0.048106025505066,0.00138050422668457,0.13665551090240502,0.8841580666441515
2.014146350696547,0.028534599494934098,0.049280894851684603,-0.088476325035095,0.8841580666441515
2.0147520442156273,-0.057686103630066,-0.209381214523315,0.086360100746155,0.8841580666441515
2.015357737734706,0.057274833869934,0.0349107776641846,-0.145956793785095,0.8841580666441515
2.015963431253786,-0.17025202159881597,0.0157506214141846,0.103125237464905,0.8841580666441515
2.016569124772865,-0.0145757520675659,-0.0608900035858154,-0.009440680503845,0.8841580666441515
2.0171748182919442,-0.177437080192566,-0.12076549186706499,-0.023810797691345,0.8841580666441515
2.017780511811024,-0.0672661817550659,0.19058704719543498,0.122285393714905,0.8841580666441515
2.018386205330103,-0.060081123161316,0.0899962268829346,0.13665551090240502,0.8841580666441515
2.018991898849182,0.014164482307434102,0.0349107776641846,0.103125237464905,0.8841580666441515
2.019597592368262,-0.16306696300506598,0.173821910476685,0.103125237464905,0.8841580666441515
2.020203285887341,-0.23491754894256597,0.0109605823516846,0.158210686683655,0.8841580666441515
2.02080897940642,-0.060081123161316,0.0636510120391846,-0.026205817222595,0.8841580666441515
2.0214146729255003,-0.0648711622238159,-0.0297547496795654,-0.035785895347595,0.8841580666441515
2.022020366444579,-0.040920966911316,-0.202196155929565,0.105520256996155,0.8841580666441515
2.022626059963658,-0.000205634880065948,-0.11837047233581499,0.404897698402405,0.8841580666441515
2.023231753482738,0.0069794237136840504,-0.08484019889831541,-0.14835181331634498,0.8841580666441515
2.0238374470018172,-0.0888213575363159,-0.379427601242065,-0.258522711753845,0.8841580666441515
