Time (s),Accel X (m/s^2),Accel Y (m/s^2),Accel Z (m/s^2),CI Value
5.866125,0.196233118629456,0.0215179407119751,-0.0583083409309386,0.6783696140228603
5.86673069351908,-0.0576389516830444,-0.112603153038025,0.22430396375656098,0.6783696140228603
5.867336387038159,0.047741907691955604,-0.0215924108505249,0.200353768444061,0.6783696140228603
5.867942080557238,-0.0576389516830444,-0.0263824499130249,-0.0343581456184386,0.6783696140228603
5.868547774076317,-0.033688756370544394,-0.148528446006775,0.28417945203781103,0.6783696140228603
5.869153467595397,-0.0169236196517944,0.0263079797744751,0.12371314344406101,0.6783696140228603
5.869759161114477,0.00702657566070558,-0.0455426061630249,0.018332284069061403,0.6783696140228603
5.870364854633555,-0.21331522121429403,-0.0982330358505249,0.20274878797531098,0.6783696140228603
5.870970548152635,-0.23487039699554402,0.0143328821182251,0.305734627819061,0.6783696140228603
5.871576241671715,-0.0720090688705444,-0.131763309288025,0.360820077037811,0.6783696140228603
5.872181935190794,-0.0696140493392944,-0.134158328819275,0.118923104381561,0.6783696140228603
5.872787628709873,0.06690206394195561,-0.0072222936630249,0.24825415906906098,0.6783696140228603
5.873393322228952,-0.06003397121429439,-0.103023074913025,0.329684823131561,0.6783696140228603
5.873999015748032,-0.17978494777679402,0.0191229211807251,0.162033455944061,0.6783696140228603
5.874604709267111,0.0860622201919556,0.150848995399475,0.22909400281906098,0.6783696140228603
5.87521040278619,0.00702657566070558,0.0598382532119751,0.171613534069061,0.6783696140228603
5.87581609630527,-0.246845494651794,0.0071478235244751,0.166823495006561,0.6783696140228603
5.87642178982435,-0.0744040884017944,0.0430731164932251,0.44225074110031104,0.6783696140228603
5.877027483343428,-0.033688756370544394,-0.08146789913177489,0.775158455944061,0.6783696140228603
5.877633176862508,-0.0935642446517944,-0.143738406944275,0.39195533094406104,0.6783696140228603
5.878238870381587,-0.0528489126205444,0.148453975868225,0.12131812391281101,0.6783696140228603
5.878844563900667,0.00942159519195558,0.0742083703994751,0.190773690319061,0.6783696140228603
5.879450257419746,0.0237917123794556,-0.146133426475525,0.154848397350311,0.6783696140228603
5.880055950938825,0.06929708347320561,-0.0072222936630249,0.0566525965690614,0.6783696140228603
5.880661644457905,-0.0049485219955444195,-0.126973270225525,0.0997629481315614,0.6783696140228603
5.8812673379769835,-0.17020486965179402,-0.0335675085067749,0.19316870985031098,0.6783696140228603
5.881873031496063,-0.036083775901794395,-0.0982330358505249,-0.027173087024688597,0.6783696140228603
5.882478725015143,0.0309767709732056,-0.28264953975677504,0.0662326746940614,0.6783696140228603
5.883084418534222,0.00702657566070558,-0.0862579381942749,0.0806027918815614,0.6783696140228603
5.883690112053301,0.05971700534820561,-0.253909305381775,0.308129647350311,0.6783696140228603
5.884295805572381,-0.0672190298080444,0.0406780969619751,0.16442847547531098,0.6783696140228603
5.88490149909146,0.121987513160706,0.0215179407119751,0.0255173426628114,0.6783696140228603
5.88550719261054,-0.062428990745544394,-0.124578250694275,0.267414315319061,0.6783696140228603
5.886112886129618,-0.256425572776794,-3.72350692748983e-05,0.0925778895378114,0.6783696140228603
5.886718579648698,-0.0576389516830444,-0.129368289756775,0.0877878504753114,0.6783696140228603
5.887324273167778,0.06929708347320561,-0.0766778600692749,0.37279517469406104,0.6783696140228603
5.8879299666868565,0.07408712253570561,0.0574432336807251,0.257834237194061,0.6783696140228603
5.888535660205936,0.208208216285706,-0.194033817100525,0.0638376551628114,0.6783696140228603
5.889141353725015,-0.00734354152679442,-0.136553348350525,-0.00801293077468863,0.6783696140228603
5.889747047244095,-0.24924051418304402,0.0071478235244751,0.13329322156906098,0.6783696140228603
5.890352740763174,0.0956422983169556,0.0550482141494751,0.195563729381561,0.6783696140228603
5.890958434282253,0.16988790378570598,0.0574432336807251,0.16442847547531098,0.6783696140228603
5.891564127801333,-0.0049485219955444195,0.011937862586975101,0.219513924694061,0.6783696140228603
5.892169821320413,-0.16062479152679401,0.0095428430557251,0.0686276942253114,0.6783696140228603
5.892775514839491,0.0142116342544556,-0.124578250694275,0.408720467662811,0.6783696140228603
5.893381208358571,0.0213966928482056,-0.0120123327255249,0.39195533094406104,0.6783696140228603
5.89398690187765,-0.119909459495544,0.112528682899475,0.200353768444061,0.6783696140228603
5.8945925953967295,-0.033688756370544394,-0.287439578819275,0.150058358287811,0.6783696140228603
5.895198288915809,0.0788771615982056,-0.239539188194275,-0.0415432042121886,0.6783696140228603
5.895803982434888,-0.0791941274642944,-3.72350692748983e-05,0.111738045787811,0.6783696140228603
5.896409675953968,-0.0744040884017944,-0.028777469444274898,0.0734177332878114,0.6783696140228603
5.8970153694730465,-0.12469949855804399,-0.0670977819442749,0.200353768444061,0.6783696140228603
5.897621062992126,-0.16062479152679401,-0.0742828405380249,0.408720467662811,0.6783696140228603
5.898226756511206,0.0237917123794556,0.0789984094619751,-0.00322289171218863,0.6783696140228603
5.898832450030285,-0.0887742055892944,-0.138948367881775,-0.0726784581184386,0.6783696140228603
5.899438143549364,0.0237917123794556,0.0526531946182251,0.212328866100311,0.6783696140228603
5.900043837068444,0.0956422983169556,0.0598382532119751,0.276994393444061,0.6783696140228603
5.900649530587523,0.11480245456695601,-0.0910479772567749,0.0734177332878114,0.6783696140228603
5.9012552241066025,0.0453468881607056,-0.160503543663025,0.30333960828781104,0.6783696140228603
5.901860917625681,0.057321985816955606,-0.206008914756775,0.29375953016281103,0.6783696140228603
5.902466611144761,0.17467794284820598,-0.141343387413025,-0.23074974718093902,0.6783696140228603
5.903072304663841,0.162702845191956,-0.126973270225525,0.159638436412811,0.6783696140228603
5.9036779981829195,-0.112724400901794,0.148453975868225,0.18837867078781098,0.6783696140228603
5.904283691701999,-0.0959592641830444,-0.28983459835052505,0.0566525965690614,0.6783696140228603
5.904889385221078,-0.0528489126205444,-0.150923465538025,0.257834237194061,0.6783696140228603
5.905495078740158,-0.0265036977767944,0.016727901649475102,-0.0247780674934386,0.6783696140228603
5.906100772259237,-0.0767991079330444,-0.232354129600525,0.0207273036003114,0.6783696140228603
5.906706465778316,-0.0887742055892944,-0.143738406944275,0.47338599500656103,0.6783696140228603
5.907312159297396,0.0429518686294556,-0.148528446006775,0.245859139537811,0.6783696140228603
5.9079178528164755,-0.103144322776794,-0.167688602256775,0.0853928309440614,0.6783696140228603
5.908523546335554,0.00942159519195558,-0.110208133506775,0.104552987194061,0.6783696140228603
5.909129239854634,0.0812721811294556,0.0334930383682251,0.135688241100311,0.6783696140228603
5.909734933373713,-0.117514439964294,-0.177268680381775,0.190773690319061,0.6783696140228603
5.9103406268927925,-0.0744040884017944,-0.103023074913025,-0.0247780674934386,0.6783696140228603
5.910946320411872,0.272873743629456,-0.131763309288025,0.28178443250656104,0.6783696140228603
5.911552013930951,0.0836672006607056,-0.112603153038025,0.365610116100311,0.6783696140228603
5.912157707450031,-0.105539342308044,-0.148528446006775,0.0255173426628114,0.6783696140228603
5.9127634009691095,0.057321985816955606,-0.179663699913025,-0.103813712024689,0.6783696140228603
5.913369094488189,-0.0312937368392944,-0.0790728796005249,-0.005617911243438629,0.6783696140228603
5.913974788007269,-0.186970006370544,-0.18205871944427499,0.140478280162811,0.6783696140228603
5.914580481526348,0.136357630348206,-0.34971008663177505,-0.0367531651496886,0.6783696140228603
5.915186175045427,0.0860622201919556,-0.110208133506775,0.130898202037811,0.6783696140228603
5.915791868564507,-0.0983542837142944,-0.227564090538025,-0.029568106555938597,0.6783696140228603
5.916397562083586,0.00463155612945558,-0.18205871944427499,-0.0559133213996886,0.6783696140228603
5.9170032556026655,0.162702845191956,-0.009617313194274899,0.31291968641281104,0.6783696140228603
5.917608949121744,0.363884485816956,-0.035962528038024896,0.162033455944061,0.6783696140228603
5.918214642640824,-0.0672190298080444,0.0502581750869751,0.116528084850311,0.6783696140228603
5.918820336159904,0.0333717905044556,0.0598382532119751,0.114133065319061,0.6783696140228603
5.9194260296789825,-0.036083775901794395,-0.0024322546005249,0.20753882703781099,0.6783696140228603
5.920031723198062,-0.127094518089294,-0.0718878210067749,0.22430396375656098,0.6783696140228603
5.920637416717141,0.050136927223205605,-0.0838629186630249,0.336869881725311,0.6783696140228603
5.921243110236221,-0.12948953762054402,-0.179663699913025,0.17879859266281098,0.6783696140228603
5.9218488037553,-0.0528489126205444,0.011937862586975101,-0.120578848743439,0.6783696140228603
5.922454497274379,0.0908522592544556,-0.229959110069275,0.039887459850311405,0.6783696140228603
5.923060190793459,0.19862813816070599,0.0574432336807251,0.23388404188156098,0.6783696140228603
5.9236658843125385,-0.0696140493392944,0.225094600868225,0.181193612194061,0.6783696140228603
5.924271577831617,0.0309767709732056,-0.229959110069275,0.0255173426628114,0.6783696140228603
5.924877271350697,0.0309767709732056,-0.158108524131775,0.209933846569061,0.6783696140228603
5.925482964869776,-0.218105260276794,0.0095428430557251,0.12850318250656098,0.6783696140228603
5.9260886583888555,-0.0720090688705444,-0.035962528038024896,0.18358863172531098,0.6783696140228603
5.926694351907935,0.00942159519195558,-0.0838629186630249,0.0470725184440614,0.6783696140228603
5.927300045427014,0.11240743503570601,-0.0503326452255249,0.22909400281906098,0.6783696140228603
5.927905738946094,0.157912806129456,0.0406780969619751,0.104552987194061,0.6783696140228603
5.928511432465172,-0.13427957668304402,0.011937862586975101,0.13329322156906098,0.6783696140228603
5.929117125984252,-0.06003397121429439,-0.0263824499130249,0.296154549694061,0.6783696140228603
5.929722819503332,-0.040873814964294396,-0.08146789913177489,0.0518625575065614,0.6783696140228603
5.930328513022411,-0.0672190298080444,-0.0766778600692749,0.104552987194061,0.6783696140228603
5.93093420654149,0.15551778659820598,0.0789984094619751,-0.0559133213996886,0.6783696140228603
5.93153990006057,-0.0528489126205444,0.0861834680557251,0.288969491100311,0.6783696140228603
5.932145593579649,0.0333717905044556,-0.009617313194274899,0.200353768444061,0.6783696140228603
5.9327512870987285,-0.16062479152679401,-0.318574832725525,0.126108162975311,0.6783696140228603
5.933356980617807,-0.0983542837142944,-0.210798953819275,0.0853928309440614,0.6783696140228603
5.933962674136887,0.0405568490982056,-0.0575177038192749,0.159638436412811,0.6783696140228603
5.934568367655967,-0.043268834495544396,0.100553585243225,0.221908944225311,0.6783696140228603
5.935174061175045,0.047741907691955604,0.117318721961975,0.6410373621940609,0.6783696140228603
5.935779754694125,0.06690206394195561,-0.0311724889755249,0.25543921766281097,0.6783696140228603
5.936385448213205,-0.127094518089294,-0.009617313194274899,0.17879859266281098,0.6783696140228603
5.936991141732284,-0.0193186391830444,-0.227564090538025,0.614692147350311,0.6783696140228603
5.937596835251363,0.0788771615982056,-0.0910479772567749,0.27459937391281103,0.6783696140228603
5.938202528770442,-0.136674596214294,0.0550482141494751,0.18837867078781098,0.6783696140228603
5.938808222289522,-0.0241086782455444,-0.146133426475525,0.0782077723503114,0.6783696140228603
5.9394139158086015,0.0142116342544556,-0.0311724889755249,0.14287329969406098,0.6783696140228603
5.94001960932768,0.0453468881607056,-0.0311724889755249,0.0734177332878114,0.6783696140228603
5.94062530284676,-0.0696140493392944,-0.009617313194274899,0.288969491100311,0.6783696140228603
5.941230996365839,-0.17499490871429402,-0.0575177038192749,0.154848397350311,0.6783696140228603
5.941836689884918,-0.0217136587142944,-0.194033817100525,0.0207273036003114,0.6783696140228603
5.942442383403998,0.19383809909820598,0.136478878211975,0.0111472254753114,0.6783696140228603
5.943048076923077,0.0357668100357056,0.0694183313369751,0.231489022350311,0.6783696140228603
5.943653770442157,-0.12948953762054402,-0.110208133506775,0.126108162975311,0.6783696140228603
5.944259463961236,-0.18936502590179402,-0.0886529577255249,-0.027173087024688597,0.6783696140228603
5.944865157480315,-0.0935642446517944,0.0215179407119751,-0.0822585362434386,0.6783696140228603
5.945470850999395,-0.0312937368392944,0.136478878211975,0.0446774989128114,0.6783696140228603
5.946076544518474,-0.141464635276794,-0.136553348350525,0.0949729090690614,0.6783696140228603
5.946682238037553,-0.19415506496429402,-0.119788211631775,0.140478280162811,0.6783696140228603
5.947287931556633,-0.0648240102767944,-0.0503326452255249,0.23388404188156098,0.6783696140228603
5.947893625075712,-0.0839841665267944,-0.0982330358505249,0.0135422450065614,0.6783696140228603
5.948499318594791,-0.242055455589294,0.0143328821182251,0.0734177332878114,0.6783696140228603
5.94910501211387,-0.0887742055892944,0.0502581750869751,0.0327024012565614,0.6783696140228603
5.94971070563295,0.0213966928482056,0.0694183313369751,0.217118905162811,0.6783696140228603
5.95031639915203,0.208208216285706,-0.009617313194274899,0.339264901256561,0.6783696140228603
5.950922092671108,0.263293665504456,-0.0790728796005249,0.257834237194061,0.6783696140228603
5.951527786190188,-0.0217136587142944,-0.0431475866317749,0.0542575770378114,0.6783696140228603
5.952133479709268,0.0812721811294556,-0.112603153038025,-0.158899161243439,0.6783696140228603
5.952739173228347,0.0884572397232056,-0.0886529577255249,-0.07028343858718859,0.6783696140228603
5.953344866747426,0.0261867319107056,-0.0048272741317749,0.0853928309440614,0.6783696140228603
5.953950560266505,0.20581319675445597,-0.265884403038025,0.14766333875656099,0.6783696140228603
5.954556253785585,0.0956422983169556,-0.165293582725525,-0.120578848743439,0.6783696140228603
5.955161947304664,-0.103144322776794,0.0837884485244751,0.039887459850311405,0.6783696140228603
5.955767640823743,-0.172599889183044,-0.177268680381775,0.245859139537811,0.6783696140228603
5.956373334342823,-0.136674596214294,0.124503780555725,-0.187639395618439,0.6783696140228603
5.956979027861903,0.157912806129456,0.0574432336807251,0.17400855360031098,0.6783696140228603
5.957584721380981,0.0142116342544556,-0.191638797569275,0.300944588756561,0.6783696140228603
5.958190414900061,-0.0720090688705444,-0.0239874303817749,-0.0559133213996886,0.6783696140228603
5.95879610841914,-0.0815891469955444,-0.196428836631775,0.154848397350311,0.6783696140228603
5.95940180193822,-0.107934361839294,-0.0766778600692749,0.035097420787811404,0.6783696140228603
5.960007495457299,-0.0672190298080444,0.0239129602432251,0.035097420787811404,0.6783696140228603
5.960613188976378,-0.0959592641830444,-0.0239874303817749,0.250649178600311,0.6783696140228603
5.961218882495458,0.050136927223205605,-0.035962528038024896,0.35363501844406103,0.6783696140228603
5.9618245760145365,0.0884572397232056,-0.0383575475692749,0.24825415906906098,0.6783696140228603
5.962430269533616,0.0285817514419556,-0.0024322546005249,0.162033455944061,0.6783696140228603
5.963035963052696,-0.0672190298080444,-0.0503326452255249,0.24346412000656098,0.6783696140228603
5.963641656571775,0.0190016733169556,0.0263079797744751,0.109343026256561,0.6783696140228603
5.964247350090854,0.153122767066956,0.17719421024322501,0.25543921766281097,0.6783696140228603
5.964853043609934,0.0621120248794556,-0.0263824499130249,0.39435035047531103,0.6783696140228603
5.965458737129013,-0.000158482933044421,-0.146133426475525,0.33447486219406103,0.6783696140228603
5.9660644306480926,0.0980373178482056,-0.0766778600692749,0.6003220301628109,0.6783696140228603
5.966670124167171,-0.242055455589294,-0.136553348350525,0.36321509656906104,0.6783696140228603
5.967275817686251,-0.100749303245544,-0.165293582725525,0.118923104381561,0.6783696140228603
5.96788151120533,0.0884572397232056,-0.201218875694275,0.126108162975311,0.6783696140228603
5.9684872047244095,0.07408712253570561,0.0287029993057251,0.00875220594406137,0.6783696140228603
5.969092898243489,0.105222376441956,0.0885784875869751,0.154848397350311,0.6783696140228603
5.969698591762568,0.00463155612945558,-0.0431475866317749,0.166823495006561,0.6783696140228603
5.970304285281648,0.0956422983169556,-0.0335675085067749,0.0925778895378114,0.6783696140228603
5.970909978800727,-0.115119420433044,-0.028777469444274898,0.23388404188156098,0.6783696140228603
5.971515672319806,-0.0288987173080444,-0.0910479772567749,0.36321509656906104,0.6783696140228603
5.972121365838886,0.050136927223205605,-0.174873660850525,0.20753882703781099,0.6783696140228603
5.9727270593579656,-0.0265036977767944,-0.08146789913177489,0.245859139537811,0.6783696140228603
5.973332752877044,0.050136927223205605,0.0358880578994751,0.027912362194061402,0.6783696140228603
5.973938446396124,-0.163019811058044,0.0574432336807251,-0.0607033604621886,0.6783696140228603
5.974544139915203,-0.13427957668304402,-0.239539188194275,-0.0343581456184386,0.6783696140228603
5.9751498334342825,-0.0935642446517944,-0.105418094444275,0.00396216688156137,0.6783696140228603
5.975755526953362,0.0285817514419556,-0.0383575475692749,0.16921851453781098,0.6783696140228603
5.976361220472441,0.172282923316956,-0.0383575475692749,0.28178443250656104,0.6783696140228603
5.976966913991521,-0.19894510402679402,-0.0599127233505249,0.195563729381561,0.6783696140228603
5.9775726075106,0.0309767709732056,-0.0335675085067749,0.152453377819061,0.6783696140228603
5.978178301029679,0.16988790378570598,-0.0168023717880249,0.16921851453781098,0.6783696140228603
5.978783994548758,-0.0863791860580444,-0.107813113975525,0.260229256725311,0.6783696140228603
5.9793896880678385,-0.00255350246429442,-0.0694928014755249,0.106948006725311,0.6783696140228603
5.979995381586917,0.06690206394195561,0.016727901649475102,0.109343026256561,0.6783696140228603
5.980601075105996,0.0980373178482056,0.138873897743225,0.288969491100311,0.6783696140228603
5.981206768625076,-0.0935642446517944,-0.103023074913025,0.336869881725311,0.6783696140228603
5.9818124621441555,0.0261867319107056,-0.0191973913192749,0.236279061412811,0.6783696140228603
5.982418155663234,0.057321985816955606,-0.189243778038025,0.12371314344406101,0.6783696140228603
5.983023849182314,-0.0312937368392944,0.0430731164932251,0.0997629481315614,0.6783696140228603
5.983629542701394,-0.0839841665267944,-0.0024322546005249,0.22909400281906098,0.6783696140228603
5.9842352362204725,-0.06003397121429439,-0.28983459835052505,0.176403573131561,0.6783696140228603
5.984840929739552,0.12917257175445598,-0.0263824499130249,-0.0247780674934386,0.6783696140228603
5.985446623258631,0.19383809909820598,0.0215179407119751,-0.103813712024689,0.6783696140228603
5.986052316777711,0.057321985816955606,-0.227564090538025,0.0734177332878114,0.6783696140228603
5.98665801029679,-0.00973856105804442,-0.103023074913025,0.030307381725311403,0.6783696140228603
5.987263703815869,0.0142116342544556,-0.0048272741317749,-0.017593008899688598,0.6783696140228603
5.987869397334949,0.00942159519195558,-0.0383575475692749,0.0710227137565614,0.6783696140228603
5.9884750908540285,-0.0217136587142944,0.0861834680557251,0.0446774989128114,0.6783696140228603
5.989080784373107,-0.103144322776794,0.0358880578994751,0.25543921766281097,0.6783696140228603
5.989686477892187,-0.206130162620544,-0.0886529577255249,0.190773690319061,0.6783696140228603
5.990292171411267,-0.0241086782455444,-0.129368289756775,0.447040780162811,0.6783696140228603
5.9908978649303455,0.102827356910706,0.0239129602432251,0.226698983287811,0.6783696140228603
5.991503558449425,-0.0863791860580444,-0.148528446006775,0.0734177332878114,0.6783696140228603
5.992109251968504,-0.036083775901794395,-0.0527276647567749,0.0901828700065614,0.6783696140228603
5.992714945487584,0.100432337379456,-0.153318485069275,0.260229256725311,0.6783696140228603
5.993320639006663,0.0405568490982056,-0.0503326452255249,-0.0607033604621886,0.6783696140228603
5.993926332525742,-0.0552439321517944,0.004752803993225099,-0.0128029698371886,0.6783696140228603
5.994532026044821,-0.0911692251205444,0.0334930383682251,0.20274878797531098,0.6783696140228603
5.9951377195639015,-0.122304479026794,0.184379268836975,0.0566525965690614,0.6783696140228603
5.99574341308298,-0.127094518089294,0.0263079797744751,0.0422824793815614,0.6783696140228603
5.996349106602059,-0.136674596214294,-0.206008914756775,-0.182849356555939,0.6783696140228603
5.99695480012114,0.054926966285705606,-0.0024322546005249,0.185983651256561,0.6783696140228603
5.9975604936402185,0.07408712253570561,0.0526531946182251,0.13808326063156098,0.6783696140228603
5.998166187159297,0.07169210300445561,-0.0072222936630249,0.159638436412811,0.6783696140228603
5.998771880678377,0.12917257175445598,-0.0694928014755249,0.13329322156906098,0.6783696140228603
5.999377574197457,-0.127094518089294,-0.198823856163025,-0.120578848743439,0.6783696140228603
5.9999832677165355,-0.110329381370544,0.0143328821182251,-0.10620873155593899,0.6783696140228603
6.000588961235615,0.0621120248794556,-0.0838629186630249,0.22430396375656098,0.6783696140228603
6.001194654754694,0.0333717905044556,-0.0072222936630249,0.315314705944061,0.6783696140228603
6.001800348273774,0.0190016733169556,-0.0024322546005249,0.0925778895378114,0.6783696140228603
6.002406041792853,-0.0145286001205444,-0.0048272741317749,0.106948006725311,0.6783696140228603
6.003011735311932,-0.117514439964294,0.0071478235244751,0.300944588756561,0.6783696140228603
6.003617428831013,0.00702657566070558,-0.0790728796005249,0.20274878797531098,0.6783696140228603
6.0042231223500915,0.208208216285706,-0.122183231163025,0.269809334850311,0.6783696140228603
6.00482881586917,-0.0863791860580444,-0.162898563194275,0.260229256725311,0.6783696140228603
6.00543450938825,-0.0456638540267944,0.0909735071182251,0.0422824793815614,0.6783696140228603
6.00604020290733,0.119592493629456,-0.0120123327255249,0.154848397350311,0.6783696140228603
6.0066458964264084,0.119592493629456,-0.0886529577255249,0.0662326746940614,0.6783696140228603
6.007251589945488,-0.131884557151794,-0.114998172569275,0.126108162975311,0.6783696140228603
6.007857283464567,-0.210920201683044,-0.177268680381775,0.39195533094406104,0.6783696140228603
6.008462976983647,-0.0983542837142944,0.0454681360244751,0.200353768444061,0.6783696140228603
6.009068670502726,-0.0959592641830444,-0.162898563194275,-0.0319631260871886,0.6783696140228603
6.009674364021805,-0.0528489126205444,-0.0431475866317749,0.00156714735031137,0.6783696140228603
6.010280057540884,-0.0935642446517944,0.011937862586975101,0.0806027918815614,0.6783696140228603
6.0108857510599645,-0.0552439321517944,-0.162898563194275,0.140478280162811,0.6783696140228603
6.011491444579043,-0.0241086782455444,-0.146133426475525,-0.0128029698371886,0.6783696140228603
6.012097138098122,0.126777552223206,-0.179663699913025,-0.11099877061843899,0.6783696140228603
6.012702831617203,0.057321985816955606,0.0263079797744751,-0.0343581456184386,0.6783696140228603
6.0133085251362814,0.18425802097320598,0.0334930383682251,0.0470725184440614,0.6783696140228603
6.01391421865536,0.06450704441070561,-0.0958380163192749,0.0255173426628114,0.6783696140228603
6.01451991217444,0.06690206394195561,0.0478631555557251,-0.11578880968093899,0.6783696140228603
6.01512560569352,0.0860622201919556,-0.0168023717880249,0.205143807506561,0.6783696140228603
6.015731299212598,0.0166066537857056,0.0406780969619751,0.12131812391281101,0.6783696140228603
6.016336992731678,-0.17499490871429402,-0.0311724889755249,0.17879859266281098,0.6783696140228603
6.016942686250757,-0.364201451683044,0.0598382532119751,0.219513924694061,0.6783696140228603
6.017548379769837,0.0836672006607056,0.110133663368225,0.205143807506561,0.6783696140228603
6.018154073288916,0.0860622201919556,-0.08146789913177489,0.260229256725311,0.6783696140228603
6.018759766807995,-0.0983542837142944,-0.0191973913192749,0.25543921766281097,0.6783696140228603
6.019365460327076,-0.0288987173080444,-0.028777469444274898,0.46141089735031104,0.6783696140228603
6.019971153846154,-0.0744040884017944,-0.136553348350525,0.17400855360031098,0.6783696140228603
6.020576847365233,0.05971700534820561,-0.141343387413025,0.279389412975311,0.6783696140228603
6.021182540884313,-0.0672190298080444,-0.08146789913177489,0.32249976453781104,0.6783696140228603
6.021788234403393,-0.0959592641830444,-0.179663699913025,0.0327024012565614,0.6783696140228603
6.022393927922471,0.12917257175445598,0.0694183313369751,-0.132553946399689,0.6783696140228603
6.022999621441551,-0.0456638540267944,0.0933685266494751,-0.0319631260871886,0.6783696140228603
6.02360531496063,-0.222895299339294,-0.035962528038024896,0.0111472254753114,0.6783696140228603
6.02421100847971,-0.0935642446517944,0.0071478235244751,0.265019295787811,0.6783696140228603
6.024816701998789,-0.0456638540267944,-0.0120123327255249,0.34165992078781104,0.6783696140228603
6.025422395517868,-0.122304479026794,-0.170083621788025,0.231489022350311,0.6783696140228603
6.026028089036947,-0.136674596214294,-0.119788211631775,0.260229256725311,0.6783696140228603
6.026633782556027,-0.117514439964294,-0.129368289756775,0.17400855360031098,0.6783696140228603
6.027239476075106,-0.16541483058929402,-0.122183231163025,0.674567635631561,0.6783696140228603
6.027845169594185,-0.17499490871429402,-0.24193420772552499,0.346449959850311,0.6783696140228603
6.028450863113266,0.00223653659820558,-0.26109436397552505,-0.132553946399689,0.6783696140228603
6.029056556632344,-0.16541483058929402,-0.134158328819275,0.126108162975311,0.6783696140228603
6.029662250151423,-0.17499490871429402,-0.119788211631775,0.154848397350311,0.6783696140228603
6.030267943670503,0.047741907691955604,-0.0718878210067749,0.111738045787811,0.6783696140228603
6.030873637189583,-0.000158482933044421,0.0550482141494751,0.265019295787811,0.6783696140228603
6.031479330708661,-0.117514439964294,0.0694183313369751,0.28417945203781103,0.6783696140228603
6.032085024227741,0.07408712253570561,-0.201218875694275,0.226698983287811,0.6783696140228603
6.03269071774682,-0.17978494777679402,-0.244329227256775,0.209933846569061,0.6783696140228603
6.0332964112658996,-0.040873814964294396,-0.0455426061630249,0.253044198131561,0.6783696140228603
6.033902104784979,0.11480245456695601,0.0694183313369751,0.0542575770378114,0.6783696140228603
6.034507798304058,0.11001241550445601,-0.0982330358505249,-0.07028343858718859,0.6783696140228603
6.035113491823137,0.057321985816955606,-0.009617313194274899,0.231489022350311,0.6783696140228603
6.035719185342217,0.0261867319107056,-0.035962528038024896,0.219513924694061,0.6783696140228603
6.036324878861296,-0.0672190298080444,-0.220379031944275,0.159638436412811,0.6783696140228603
6.036930572380376,-0.163019811058044,-0.0958380163192749,-0.0247780674934386,0.6783696140228603
6.037536265899456,-0.107934361839294,-0.009617313194274899,0.16921851453781098,0.6783696140228603
6.038141959418534,-0.191760045433044,-0.0886529577255249,0.13808326063156098,0.6783696140228603
6.038747652937614,0.06929708347320561,-0.114998172569275,0.22430396375656098,0.6783696140228603
6.039353346456693,0.00702657566070558,-0.0527276647567749,0.300944588756561,0.6783696140228603
6.0399590399757725,0.0261867319107056,-0.105418094444275,0.19316870985031098,0.6783696140228603
6.040564733494852,-0.033688756370544394,-0.0575177038192749,0.32249976453781104,0.6783696140228603
6.041170427013931,0.0309767709732056,-0.0335675085067749,0.245859139537811,0.6783696140228603
6.04177612053301,-0.036083775901794395,-0.0982330358505249,0.298549569225311,0.6783696140228603
6.04238181405209,-0.127094518089294,-0.0670977819442749,0.22909400281906098,0.6783696140228603
6.042987507571169,-0.0312937368392944,-0.0623077428817749,0.18837867078781098,0.6783696140228603
6.043593201090248,-0.0169236196517944,-0.0311724889755249,0.0901828700065614,0.6783696140228603
6.044198894609329,-0.0720090688705444,-0.0647027624130249,-0.00322289171218863,0.6783696140228603
6.044804588128407,-0.275585729026794,-0.146133426475525,0.320104745006561,0.6783696140228603
6.045410281647486,-0.16062479152679401,-0.0670977819442749,-0.125368887805939,0.6783696140228603
6.046015975166566,-0.136674596214294,-0.210798953819275,0.111738045787811,0.6783696140228603
6.0466216686856455,-0.117514439964294,-0.0120123327255249,0.0973679286003114,0.6783696140228603
6.047227362204724,0.0884572397232056,0.215514522743225,0.0614426356315614,0.6783696140228603
6.047833055723804,-0.0744040884017944,-0.0191973913192749,0.411115487194061,0.6783696140228603
6.048438749242883,-0.033688756370544394,-0.028777469444274898,0.162033455944061,0.6783696140228603
6.0490444427619625,-0.163019811058044,0.0239129602432251,0.288969491100311,0.6783696140228603
6.049650136281042,-0.177389928245544,0.0095428430557251,0.12371314344406101,0.6783696140228603
6.050255829800121,0.15072774753570597,0.0191229211807251,0.257834237194061,0.6783696140228603
6.050861523319201,0.0190016733169556,0.0813934289932251,0.130898202037811,0.6783696140228603
6.05146721683828,-0.0959592641830444,-0.0503326452255249,-0.0774684971809386,0.6783696140228603
6.052072910357359,0.050136927223205605,-0.028777469444274898,0.0662326746940614,0.6783696140228603
6.052678603876439,-0.0839841665267944,0.0239129602432251,0.116528084850311,0.6783696140228603
6.0532842973955185,-0.30193094387054403,0.134083858680725,0.0806027918815614,0.6783696140228603
6.053889990914597,0.0764821420669556,-0.268279422569275,0.150058358287811,0.6783696140228603
6.054495684433677,0.05971700534820561,-0.141343387413025,0.13808326063156098,0.6783696140228603
6.055101377952756,0.263293665504456,0.179589229774475,0.5620017176628109,0.6783696140228603
6.0557070714718355,-0.0217136587142944,-0.0263824499130249,0.0614426356315614,0.6783696140228603
6.056312764990915,-0.12469949855804399,-0.0670977819442749,-0.477436758899689,0.6783696140228603
6.056918458509994,0.047741907691955604,-0.0958380163192749,-0.18045433702468902,0.6783696140228603
6.057524152029074,-0.103144322776794,-0.0431475866317749,0.114133065319061,0.6783696140228603
6.058129845548153,-0.0241086782455444,0.0454681360244751,0.116528084850311,0.6783696140228603
6.058735539067232,-0.033688756370544394,-0.217984012413025,0.159638436412811,0.6783696140228603
6.059341232586311,0.0860622201919556,-0.0503326452255249,0.221908944225311,0.6783696140228603
6.0599469261053915,-0.0744040884017944,0.0837884485244751,-0.0918386143684386,0.6783696140228603
6.06055261962447,-0.191760045433044,-0.0862579381942749,0.109343026256561,0.6783696140228603
6.061158313143549,-0.12469949855804399,-0.129368289756775,0.027912362194061402,0.6783696140228603
6.06176400666263,0.0908522592544556,-0.167688602256775,0.140478280162811,0.6783696140228603
6.0623697001817085,-0.110329381370544,-0.119788211631775,0.0327024012565614,0.6783696140228603
6.062975393700787,-0.110329381370544,-0.198823856163025,0.0614426356315614,0.6783696140228603
6.063581087219867,0.0812721811294556,-0.0527276647567749,0.018332284069061403,0.6783696140228603
6.064186780738947,0.0213966928482056,-0.0263824499130249,0.0686276942253114,0.6783696140228603
6.0647924742580255,0.050136927223205605,-0.148528446006775,0.114133065319061,0.6783696140228603
6.065398167777105,0.11001241550445601,-0.0431475866317749,0.140478280162811,0.6783696140228603
6.066003861296184,0.00223653659820558,0.0670233118057251,0.200353768444061,0.6783696140228603
6.066609554815264,-0.19894510402679402,0.0143328821182251,0.0470725184440614,0.6783696140228603
6.067215248334343,-0.0839841665267944,-0.028777469444274898,0.253044198131561,0.6783696140228603
6.067820941853422,0.052531946754455605,-0.0455426061630249,0.157243416881561,0.6783696140228603
6.068426635372502,-0.258820592308044,0.181984249305725,0.176403573131561,0.6783696140228603
6.0690323288915815,-0.0576389516830444,0.129293819618225,0.221908944225311,0.6783696140228603
6.06963802241066,0.11480245456695601,0.0837884485244751,0.102157967662811,0.6783696140228603
6.07024371592974,-0.0815891469955444,0.0143328821182251,0.12371314344406101,0.6783696140228603
6.07084940944882,0.0860622201919556,-0.186848758506775,0.23388404188156098,0.6783696140228603
6.0714551029678985,-0.15343973293304403,-0.0958380163192749,-0.0319631260871886,0.6783696140228603
6.072060796486978,-0.127094518089294,-0.0311724889755249,0.135688241100311,0.6783696140228603
6.072666490006057,0.0142116342544556,-0.0862579381942749,0.0446774989128114,0.6783696140228603
6.073272183525137,-0.0696140493392944,-0.138948367881775,0.140478280162811,0.6783696140228603
6.073877877044216,-0.136674596214294,-0.0239874303817749,0.324894784069061,0.6783696140228603
6.074483570563295,0.0453468881607056,-0.0455426061630249,0.0327024012565614,0.6783696140228603
6.075089264082374,0.181863001441956,-0.0072222936630249,0.265019295787811,0.6783696140228603
6.0756949576014545,-0.115119420433044,0.0670233118057251,0.26262427625656104,0.6783696140228603
6.076300651120533,-0.0720090688705444,0.162824093055725,0.253044198131561,0.6783696140228603
6.076906344639612,0.0213966928482056,0.0071478235244751,0.384770272350311,0.6783696140228603
6.077512038158693,-0.0312937368392944,-0.170083621788025,0.27220435438156104,0.6783696140228603
6.0781177316777715,-0.062428990745544394,-0.141343387413025,-0.0583083409309386,0.6783696140228603
6.07872342519685,0.0166066537857056,-0.08146789913177489,0.0758127528190614,0.6783696140228603
6.07932911871593,-0.0265036977767944,-0.222774051475525,0.154848397350311,0.6783696140228603
6.07993481223501,-0.043268834495544396,-0.251514285850525,-0.0463332432746886,0.6783696140228603
6.080540505754088,-0.258820592308044,-0.174873660850525,-0.06788841905593859,0.6783696140228603
6.081146199273168,-0.112724400901794,-0.160503543663025,0.20753882703781099,0.6783696140228603
6.081751892792247,-0.201340123558044,-0.0239874303817749,0.40393042860031103,0.6783696140228603
6.082357586311327,-0.0935642446517944,-0.239539188194275,0.111738045787811,0.6783696140228603
6.082963279830406,0.141147669410706,-0.0024322546005249,-0.0391481846809386,0.6783696140228603
6.083568973349485,0.153122767066956,0.004752803993225099,-0.0367531651496886,0.6783696140228603
6.084174666868566,-0.038478795433044395,-0.179663699913025,0.039887459850311405,0.6783696140228603
6.0847803603876445,-0.13906961574554402,-0.0407525671005249,0.0422824793815614,0.6783696140228603
6.085386053906723,0.054926966285705606,-0.124578250694275,0.0638376551628114,0.6783696140228603
6.085991747425803,-0.040873814964294396,-0.0934429967880249,-0.197219473743439,0.6783696140228603
6.086597440944883,0.0453468881607056,-0.035962528038024896,0.44225074110031104,0.6783696140228603
6.087203134463961,-0.242055455589294,-0.0742828405380249,0.7607883387565609,0.6783696140228603
6.087808827983041,-0.0672190298080444,-0.103023074913025,0.195563729381561,0.6783696140228603
6.08841452150212,-0.036083775901794395,-0.0718878210067749,0.25543921766281097,0.6783696140228603
6.0890202150212,-0.14864969387054403,0.122108761024475,0.102157967662811,0.6783696140228603
6.089625908540279,-0.0720090688705444,0.0694183313369751,0.0806027918815614,0.6783696140228603
6.090231602059358,0.047741907691955604,-0.100628055381775,0.19795874891281098,0.6783696140228603
6.090837295578437,-0.0241086782455444,-0.028777469444274898,-0.0630983799934386,0.6783696140228603
6.0914429890975175,0.0333717905044556,-0.0431475866317749,0.114133065319061,0.6783696140228603
6.092048682616596,0.18904806003570598,-0.0694928014755249,0.276994393444061,0.6783696140228603
6.092654376135675,-0.122304479026794,-0.0527276647567749,0.030307381725311403,0.6783696140228603
6.093260069654756,-0.13906961574554402,-0.177268680381775,0.219513924694061,0.6783696140228603
6.093865763173834,0.102827356910706,-0.009617313194274899,0.260229256725311,0.6783696140228603
6.094471456692913,-0.0265036977767944,-0.124578250694275,0.130898202037811,0.6783696140228603
6.095077150211993,0.00223653659820558,-0.126973270225525,0.104552987194061,0.6783696140228603
6.095682843731073,-0.155834752464294,0.0670233118057251,0.157243416881561,0.6783696140228603
6.096288537250151,-0.0815891469955444,-0.256304324913025,-0.0463332432746886,0.6783696140228603
6.096894230769231,0.0980373178482056,-0.194033817100525,-0.0104079503059386,0.6783696140228603
6.09749992428831,-0.285165807151794,-0.215588992881775,-0.07028343858718859,0.6783696140228603
6.09810561780739,-0.0504538930892944,-0.177268680381775,-0.242724844837189,0.6783696140228603
6.098711311326469,0.0980373178482056,-0.225169071006775,-0.06788841905593859,0.6783696140228603
6.099317004845548,0.124382532691956,-0.0575177038192749,-0.0990236729621886,0.6783696140228603
6.099922698364627,-0.0528489126205444,-0.0575177038192749,0.035097420787811404,0.6783696140228603
6.100528391883707,-0.0121335805892944,-0.206008914756775,0.135688241100311,0.6783696140228603
6.101134085402786,0.050136927223205605,-0.0263824499130249,0.190773690319061,0.6783696140228603
6.101739778921866,-0.151044713401794,-0.0239874303817749,0.23388404188156098,0.6783696140228603
6.102345472440946,-0.036083775901794395,-0.0694928014755249,0.0925778895378114,0.6783696140228603
6.102951165960024,0.19383809909820598,0.0071478235244751,-0.0942336338996886,0.6783696140228603
6.103556859479104,0.00223653659820558,-0.0790728796005249,0.17879859266281098,0.6783696140228603
6.104162552998183,-0.0288987173080444,-0.0790728796005249,0.116528084850311,0.6783696140228603
6.104768246517263,0.050136927223205605,0.011937862586975101,0.0255173426628114,0.6783696140228603
6.105373940036342,-0.00255350246429442,-0.0263824499130249,0.269809334850311,0.6783696140228603
6.105979633555421,-0.0696140493392944,0.0430731164932251,0.27220435438156104,0.6783696140228603
6.1065853270745,0.00942159519195558,0.0071478235244751,0.22430396375656098,0.6783696140228603
6.10719102059358,0.342329310035706,0.134083858680725,0.154848397350311,0.6783696140228603
6.107796714112659,-0.0648240102767944,0.0382830774307251,0.0782077723503114,0.6783696140228603
6.108402407631738,-0.163019811058044,-0.100628055381775,0.0949729090690614,0.6783696140228603
6.109008101150819,0.0285817514419556,-0.0311724889755249,0.231489022350311,0.6783696140228603
6.109613794669897,0.0908522592544556,-0.112603153038025,-0.0870485753059386,0.6783696140228603
6.110219488188976,0.0142116342544556,-0.0790728796005249,0.12850318250656098,0.6783696140228603
6.110825181708056,0.121987513160706,0.227489620399475,0.231489022350311,0.6783696140228603
6.111430875227136,0.172282923316956,-0.035962528038024896,0.0949729090690614,0.6783696140228603
6.112036568746214,-0.100749303245544,-0.141343387413025,0.0973679286003114,0.6783696140228603
6.112642262265294,-0.232475377464294,0.0766033899307251,0.0734177332878114,0.6783696140228603
6.113247955784373,-0.289955846214294,-0.103023074913025,0.20274878797531098,0.6783696140228603
6.1138536493034525,-0.00973856105804442,-0.105418094444275,0.26262427625656104,0.6783696140228603
6.114459342822532,0.07408712253570561,-0.184453738975525,0.356030037975311,0.6783696140228603
6.115065036341611,-0.0193186391830444,-0.30180969600677504,-0.07028343858718859,0.6783696140228603
6.115670729860691,-0.0576389516830444,-0.119788211631775,0.0159372645378114,0.6783696140228603
6.11627642337977,0.00223653659820558,-0.0958380163192749,-0.0199880284309386,0.6783696140228603
6.116882116898849,-0.038478795433044395,0.0478631555557251,-0.187639395618439,0.6783696140228603
6.117487810417929,0.126777552223206,0.0526531946182251,0.0949729090690614,0.6783696140228603
6.118093503937009,0.0237917123794556,-0.0527276647567749,0.0853928309440614,0.6783696140228603
6.118699197456087,-0.033688756370544394,-0.232354129600525,0.0470725184440614,0.6783696140228603
6.119304890975167,0.201023157691956,-0.31378479366302503,0.0159372645378114,0.6783696140228603
6.119910584494246,-0.151044713401794,-0.0982330358505249,-0.0199880284309386,0.6783696140228603
6.1205162780133255,-0.0145286001205444,-0.177268680381775,0.296154549694061,0.6783696140228603
6.121121971532405,0.0166066537857056,-3.72350692748983e-05,0.27459937391281103,0.6783696140228603
6.121727665051484,0.0405568490982056,0.016727901649475102,-0.0583083409309386,0.6783696140228603
6.122333358570563,0.105222376441956,-0.153318485069275,0.145268319225311,0.6783696140228603
6.122939052089643,-0.131884557151794,-0.208403934288025,0.185983651256561,0.6783696140228603
6.123544745608722,-0.15343973293304403,-0.206008914756775,0.00156714735031137,0.6783696140228603
6.124150439127801,-0.19415506496429402,-0.0599127233505249,-0.233144766712189,0.6783696140228603
6.124756132646882,0.0285817514419556,-0.170083621788025,0.0494675379753114,0.6783696140228603
6.12536182616596,0.0908522592544556,-0.0383575475692749,0.0710227137565614,0.6783696140228603
6.125967519685039,-0.043268834495544396,0.031098018836975102,0.22430396375656098,0.6783696140228603
6.126573213204119,-0.043268834495544396,0.0406780969619751,0.356030037975311,0.6783696140228603
6.1271789067231985,-0.167809850120544,-0.170083621788025,0.0973679286003114,0.6783696140228603
6.127784600242277,-0.0480588735580444,-0.0048272741317749,0.037492440319061404,0.6783696140228603
6.128390293761357,0.11001241550445601,0.210724483680725,0.0997629481315614,0.6783696140228603
6.128995987280437,-0.0887742055892944,0.0861834680557251,0.102157967662811,0.6783696140228603
6.1296016807995155,-0.12469949855804399,-0.0790728796005249,0.226698983287811,0.6783696140228603
6.130207374318595,0.0357668100357056,-0.0335675085067749,0.152453377819061,0.6783696140228603
6.130813067837674,0.052531946754455605,-0.0407525671005249,-0.000827872180938634,0.6783696140228603
6.131418761356754,0.0980373178482056,-0.0910479772567749,0.159638436412811,0.6783696140228603
6.132024454875833,0.06690206394195561,-0.0790728796005249,0.33207984266281104,0.6783696140228603
6.132630148394912,-0.0145286001205444,-0.225169071006775,0.171613534069061,0.6783696140228603
6.133235841913992,0.0190016733169556,0.0095428430557251,-0.0798635167121886,0.6783696140228603
6.1338415354330715,-0.0169236196517944,0.100553585243225,0.0566525965690614,0.6783696140228603
6.13444722895215,0.052531946754455605,0.0742083703994751,0.0997629481315614,0.6783696140228603
6.13505292247123,-0.131884557151794,0.0454681360244751,0.18358863172531098,0.6783696140228603
6.135658615990309,0.0381618295669556,-0.0718878210067749,0.0806027918815614,0.6783696140228603
6.1362643095093885,0.07169210300445561,-0.0479376256942749,0.35363501844406103,0.6783696140228603
6.136870003028468,-0.062428990745544394,0.114923702430725,0.12131812391281101,0.6783696140228603
6.137475696547547,0.0621120248794556,0.0263079797744751,-0.103813712024689,0.6783696140228603
6.138081390066626,-0.115119420433044,0.100553585243225,0.33447486219406103,0.6783696140228603
6.138687083585706,0.18904806003570598,-0.0503326452255249,0.116528084850311,0.6783696140228603
6.139292777104785,-0.040873814964294396,-0.0048272741317749,0.13808326063156098,0.6783696140228603
6.139898470623864,-0.033688756370544394,-0.0934429967880249,-0.000827872180938634,0.6783696140228603
6.1405041641429445,-0.17499490871429402,-0.215588992881775,0.0710227137565614,0.6783696140228603
6.141109857662023,-0.146254674339294,0.0143328821182251,0.0997629481315614,0.6783696140228603
6.141715551181102,0.052531946754455605,-0.107813113975525,0.0255173426628114,0.6783696140228603
6.142321244700183,-0.13906961574554402,-0.0718878210067749,0.200353768444061,0.6783696140228603
6.1429269382192615,0.196233118629456,-0.117393192100525,0.114133065319061,0.6783696140228603
6.14353263173834,-0.13427957668304402,-0.0742828405380249,0.17400855360031098,0.6783696140228603
6.14413832525742,0.0764821420669556,-0.206008914756775,0.346449959850311,0.6783696140228603
6.1447440187765,0.0237917123794556,-0.253909305381775,0.205143807506561,0.6783696140228603
6.1453497122955785,-0.122304479026794,-0.256304324913025,-0.19482445421218902,0.6783696140228603
6.145955405814658,0.0453468881607056,-0.105418094444275,0.0231223231315614,0.6783696140228603
6.146561099333737,0.06690206394195561,0.0646282922744751,-0.13494896593093902,0.6783696140228603
6.147166792852817,-0.131884557151794,-0.186848758506775,0.490151131725311,0.6783696140228603
6.147772486371896,-0.177389928245544,0.0861834680557251,0.17879859266281098,0.6783696140228603
6.148378179890975,0.141147669410706,0.0694183313369751,-0.00322289171218863,0.6783696140228603
6.148983873410055,-0.0312937368392944,-0.0431475866317749,0.267414315319061,0.6783696140228603
6.1495895669291345,0.050136927223205605,0.100553585243225,0.00156714735031137,0.6783696140228603
6.150195260448213,0.177072962379456,-0.0431475866317749,0.351239998912811,0.6783696140228603
6.150800953967293,-0.0911692251205444,0.0550482141494751,0.23867408094406098,0.6783696140228603
6.151406647486373,0.0357668100357056,-3.72350692748983e-05,0.20274878797531098,0.6783696140228603
6.1520123410054515,0.0980373178482056,0.0598382532119751,0.14766333875656099,0.6783696140228603
6.152618034524531,-0.20852518215179403,-0.0599127233505249,0.26262427625656104,0.6783696140228603
6.15322372804361,-0.0217136587142944,-0.34971008663177505,0.0614426356315614,0.6783696140228603
6.15382942156269,-0.0672190298080444,-0.186848758506775,0.0973679286003114,0.6783696140228603
6.154435115081769,-0.0696140493392944,-0.0168023717880249,0.0710227137565614,0.6783696140228603
6.155040808600848,0.124382532691956,-0.143738406944275,0.0566525965690614,0.6783696140228603
6.155646502119927,-0.0552439321517944,-0.0335675085067749,0.257834237194061,0.6783696140228603
6.1562521956390075,-0.23008035793304402,-0.0742828405380249,0.0877878504753114,0.6783696140228603
6.156857889158086,-0.043268834495544396,-0.33054993038177505,-0.000827872180938634,0.6783696140228603
6.157463582677165,0.0237917123794556,-0.0647027624130249,-0.0870485753059386,0.6783696140228603
6.158069276196246,0.0142116342544556,0.0933685266494751,0.14287329969406098,0.6783696140228603
6.1586749697153245,0.100432337379456,0.189169307899475,0.22430396375656098,0.6783696140228603
6.159280663234403,0.0405568490982056,-0.0455426061630249,0.0877878504753114,0.6783696140228603
6.159886356753483,0.05971700534820561,-0.112603153038025,0.370400155162811,0.6783696140228603
6.160492050272563,-0.00973856105804442,0.0909735071182251,0.324894784069061,0.6783696140228603
6.161097743791641,-0.0312937368392944,-0.0479376256942749,0.265019295787811,0.6783696140228603
6.161703437310721,0.0285817514419556,-0.191638797569275,0.23867408094406098,0.6783696140228603
6.1623091308298,-0.103144322776794,-0.0934429967880249,0.12371314344406101,0.6783696140228603
6.16291482434888,-0.036083775901794395,0.0215179407119751,0.0782077723503114,0.6783696140228603
6.163520517867959,-0.19415506496429402,-0.0335675085067749,0.0973679286003114,0.6783696140228603
6.164126211387038,-0.155834752464294,0.0263079797744751,0.104552987194061,0.6783696140228603
6.164731904906119,0.00942159519195558,-0.138948367881775,-0.0128029698371886,0.6783696140228603
6.1653375984251975,-0.0911692251205444,-0.150923465538025,0.20274878797531098,0.6783696140228603
6.165943291944276,-0.00973856105804442,0.0957635461807251,0.0207273036003114,0.7592463598152662
6.166548985463356,-0.131884557151794,-0.0718878210067749,0.24825415906906098,0.7592463598152662
6.167154678982436,0.00702657566070558,-0.196428836631775,0.217118905162811,0.7592463598152662
6.167760372501514,0.17467794284820598,0.0813934289932251,-0.0559133213996886,0.7592463598152662
6.168366066020594,0.0142116342544556,-0.0982330358505249,0.109343026256561,0.7592463598152662
6.168971759539673,-0.00255350246429442,-0.134158328819275,0.13329322156906098,0.7592463598152662
6.169577453058753,0.0884572397232056,0.141268917274475,0.329684823131561,0.7592463598152662
6.170183146577832,-0.0648240102767944,-0.138948367881775,0.162033455944061,0.7592463598152662
6.170788840096911,0.00702657566070558,-0.141343387413025,0.298549569225311,0.7592463598152662
6.17139453361599,-0.0863791860580444,-0.0694928014755249,0.36321509656906104,0.7592463598152662
6.1720002271350705,-0.0815891469955444,-0.31138977413177504,0.162033455944061,0.7592463598152662
6.172605920654149,0.301613978004456,-0.158108524131775,-0.005617911243438629,0.7592463598152662
6.173211614173228,-0.0504538930892944,0.0334930383682251,-0.0726784581184386,0.7592463598152662
6.173817307692309,-0.0839841665267944,-0.119788211631775,0.0853928309440614,0.7592463598152662
6.174423001211387,0.0190016733169556,-0.0718878210067749,0.126108162975311,0.7592463598152662
6.175028694730466,-0.17499490871429402,0.0071478235244751,0.459015877819061,0.7592463598152662
6.175634388249546,0.07169210300445561,-0.206008914756775,-0.027173087024688597,0.7592463598152662
6.176240081768626,0.107617395973206,-0.0263824499130249,-0.125368887805939,0.7592463598152662
6.176845775287704,-0.13427957668304402,0.0885784875869751,0.506916268444061,0.7592463598152662
6.177451468806784,-0.266005650901794,-0.297019656944275,0.111738045787811,0.7592463598152662
6.178057162325863,-0.0049485219955444195,-0.100628055381775,-0.139739004993439,0.7592463598152662
6.178662855844943,0.0237917123794556,0.09815856571197511,-0.0463332432746886,0.7592463598152662
6.179268549364022,-0.201340123558044,0.0071478235244751,0.104552987194061,0.7592463598152662
6.179874242883101,-0.163019811058044,0.0670233118057251,0.190773690319061,0.7592463598152662
6.18047993640218,-0.0169236196517944,-0.222774051475525,0.291364510631561,0.7592463598152662
6.18108562992126,-0.036083775901794395,-0.0024322546005249,0.0877878504753114,0.7592463598152662
6.181691323440339,-0.16062479152679401,-0.0623077428817749,-0.11099877061843899,0.7592463598152662
6.182297016959419,-0.100749303245544,-0.215588992881775,0.29375953016281103,0.7592463598152662
6.182902710478499,-0.12948953762054402,-0.009617313194274899,0.219513924694061,0.7592463598152662
6.183508403997577,-0.040873814964294396,-0.136553348350525,0.0662326746940614,0.7592463598152662
6.184114097516657,-0.17020486965179402,-0.0838629186630249,0.296154549694061,0.7592463598152662
6.184719791035736,0.06690206394195561,-0.0503326452255249,0.231489022350311,0.7592463598152662
6.185325484554816,-0.0935642446517944,0.107738643836975,0.12850318250656098,0.7592463598152662
6.185931178073895,-0.155834752464294,-0.194033817100525,0.162033455944061,0.7592463598152662
6.186536871592974,0.0453468881607056,-0.170083621788025,0.195563729381561,0.7592463598152662
6.187142565112053,0.217788294410706,0.0742083703994751,-0.0607033604621886,0.7592463598152662
6.187748258631133,0.292033899879456,-0.114998172569275,0.0470725184440614,0.7592463598152662
6.188353952150212,0.0237917123794556,0.193959346961975,-0.005617911243438629,0.7592463598152662
6.188959645669291,0.06929708347320561,0.186774288368225,0.276994393444061,0.7592463598152662
6.189565339188372,-0.14385965480804402,0.181984249305725,0.0949729090690614,0.7592463598152662
6.19017103270745,-0.0887742055892944,0.0382830774307251,0.0614426356315614,0.7592463598152662
6.190776726226529,0.157912806129456,-0.0575177038192749,0.140478280162811,0.7592463598152662
6.191382419745609,0.126777552223206,-0.0694928014755249,0.0877878504753114,0.7592463598152662
6.191988113264689,0.0357668100357056,-0.105418094444275,0.205143807506561,0.7592463598152662
6.192593806783767,-0.107934361839294,0.179589229774475,-0.0774684971809386,0.7592463598152662
6.193199500302847,0.0812721811294556,-0.0599127233505249,0.305734627819061,0.7592463598152662
6.193805193821926,-0.000158482933044421,0.0239129602432251,0.38237525281906104,0.7592463598152662
6.1944108873410055,-0.32109110012054404,-0.0455426061630249,0.0590476161003114,0.7592463598152662
6.195016580860085,-0.136674596214294,-0.134158328819275,0.109343026256561,0.7592463598152662
6.195622274379164,-0.23966043605804402,0.0861834680557251,0.176403573131561,0.7592463598152662
6.196227967898245,-0.0935642446517944,-0.0527276647567749,0.176403573131561,0.7592463598152662
6.196833661417323,-0.0911692251205444,-0.0263824499130249,0.109343026256561,0.7592463598152662
6.197439354936402,-0.112724400901794,-0.112603153038025,0.166823495006561,0.7592463598152662
6.198045048455482,0.0621120248794556,-0.146133426475525,0.250649178600311,0.7592463598152662
6.198650741974562,-0.000158482933044421,0.0789984094619751,0.0470725184440614,0.7592463598152662
6.19925643549364,-0.0839841665267944,-0.141343387413025,0.219513924694061,0.7592463598152662
6.19986212901272,-0.0959592641830444,-0.114998172569275,0.28417945203781103,0.7592463598152662
6.200467822531799,-0.110329381370544,0.0239129602432251,0.159638436412811,0.7592463598152662
6.2010735160508785,-0.0312937368392944,-0.172478641319275,0.365610116100311,0.7592463598152662
6.201679209569958,0.06450704441070561,-0.0144073522567749,0.0255173426628114,0.7592463598152662
6.202284903089037,0.148332728004456,0.0143328821182251,-0.0128029698371886,0.7592463598152662
6.202890596608116,0.0788771615982056,-0.028777469444274898,0.315314705944061,0.7592463598152662
6.203496290127196,-0.0791941274642944,-0.146133426475525,0.037492440319061404,0.7592463598152662
6.204101983646275,0.107617395973206,-0.146133426475525,-0.0319631260871886,0.7592463598152662
6.204707677165354,-0.00734354152679442,-0.0431475866317749,0.0925778895378114,0.7592463598152662
6.205313370684435,0.0381618295669556,0.136478878211975,0.459015877819061,0.7592463598152662
6.205919064203513,-0.040873814964294396,0.229884639930725,0.118923104381561,0.7592463598152662
6.206524757722592,-0.0911692251205444,0.0287029993057251,0.396745370006561,0.7592463598152662
6.207130451241672,0.136357630348206,-0.0263824499130249,0.806293709850311,0.7592463598152662
6.2077361447607515,-0.21331522121429403,-0.158108524131775,0.379980233287811,0.7592463598152662
6.20834183827983,-0.119909459495544,-0.227564090538025,0.0710227137565614,0.7592463598152662
6.20894753179891,-0.000158482933044421,-0.112603153038025,0.111738045787811,0.7592463598152662
6.20955322531799,-0.299535924339294,-0.0670977819442749,0.106948006725311,0.7592463598152662
6.2101589188370685,-0.16541483058929402,-0.107813113975525,0.030307381725311403,0.7592463598152662
6.210764612356148,-0.0049485219955444195,-0.18205871944427499,0.219513924694061,0.7592463598152662
6.211370305875227,-0.0456638540267944,-0.119788211631775,0.13808326063156098,0.7592463598152662
6.211975999394307,0.07169210300445561,-0.0144073522567749,0.27220435438156104,0.7592463598152662
6.212581692913386,0.15072774753570597,-0.258699344444275,0.336869881725311,0.7592463598152662
6.213187386432465,-0.0863791860580444,-0.285044559288025,0.0207273036003114,0.7592463598152662
6.213793079951545,0.00702657566070558,-0.141343387413025,0.12371314344406101,0.7592463598152662
6.2143987734706245,-0.12469949855804399,0.0550482141494751,0.17879859266281098,0.7592463598152662
6.215004466989703,-0.112724400901794,0.239464718055725,0.231489022350311,0.7592463598152662
6.215610160508783,0.0836672006607056,-0.136553348350525,0.329684823131561,0.7592463598152662
6.216215854027862,-0.0049485219955444195,-0.0742828405380249,0.499731209850311,0.7592463598152662
6.2168215475469415,-0.0576389516830444,0.0095428430557251,0.29375953016281103,0.7592463598152662
6.217427241066021,-0.237265416526794,-0.306599735069275,0.0734177332878114,0.7592463598152662
6.2180329345851,-0.23008035793304402,0.0550482141494751,0.0877878504753114,0.7592463598152662
6.21863862810418,-0.14385965480804402,0.0789984094619751,-0.0463332432746886,0.7592463598152662
6.219244321623259,0.00223653659820558,-0.129368289756775,0.0566525965690614,0.7592463598152662
6.219850015142338,0.0405568490982056,-0.0766778600692749,0.0662326746940614,0.7592463598152662
6.220455708661417,0.0956422983169556,-0.0215924108505249,0.159638436412811,0.7592463598152662
6.2210614021804975,0.102827356910706,-0.174873660850525,0.140478280162811,0.7592463598152662
6.221667095699576,-0.0169236196517944,-0.27306946163177503,0.0638376551628114,0.7592463598152662
6.222272789218655,0.052531946754455605,-0.0575177038192749,-0.005617911243438629,0.7592463598152662
6.222878482737736,0.07408712253570561,-0.035962528038024896,0.00635718641281137,0.7592463598152662
6.2234841762568145,0.15072774753570597,-0.141343387413025,-0.015197989368438601,0.7592463598152662
6.224089869775893,0.00702657566070558,0.100553585243225,0.0111472254753114,0.7592463598152662
6.224695563294973,-0.22529031887054402,0.0382830774307251,0.039887459850311405,0.7592463598152662
6.225301256814053,0.13875264987945599,-0.167688602256775,0.111738045787811,0.7592463598152662
6.2259069503331315,0.19862813816070599,-0.141343387413025,0.0734177332878114,0.7592463598152662
6.226512643852211,-0.0241086782455444,-0.035962528038024896,0.0422824793815614,0.7592463598152662
6.22711833737129,-0.0887742055892944,-0.0958380163192749,0.0853928309440614,0.7592463598152662
6.22772403089037,-0.0911692251205444,-0.155713504600525,0.205143807506561,0.7592463598152662
6.228329724409449,0.0932472787857056,-0.0239874303817749,0.181193612194061,0.7592463598152662
6.228935417928528,-0.17020486965179402,-0.0910479772567749,0.162033455944061,0.7592463598152662
6.229541111447607,-0.333066197776794,-0.0910479772567749,0.106948006725311,0.7592463598152662
6.2301468049666875,-0.186970006370544,0.0095428430557251,0.0662326746940614,0.7592463598152662
6.230752498485766,-0.25163553371429404,-0.0239874303817749,0.195563729381561,0.7592463598152662
6.231358192004846,0.054926966285705606,-0.08146789913177489,0.0518625575065614,0.7592463598152662
6.231963885523926,-0.0744040884017944,-0.0431475866317749,-0.0199880284309386,0.7592463598152662
6.2325695790430045,-0.033688756370544394,0.0550482141494751,0.106948006725311,0.7592463598152662
6.233175272562084,0.143542688941956,0.0670233118057251,0.12371314344406101,0.7592463598152662
6.233780966081163,-0.0911692251205444,-0.122183231163025,0.16921851453781098,0.7592463598152662
6.234386659600243,-0.0576389516830444,-0.117393192100525,0.181193612194061,0.7592463598152662
6.234992353119322,0.0333717905044556,-0.28983459835052505,0.636247323131561,0.7592463598152662
6.235598046638401,-0.0169236196517944,-0.08146789913177489,0.0782077723503114,0.7592463598152662
6.23620374015748,0.052531946754455605,0.239464718055725,-0.312180411243439,0.7592463598152662
6.2368094336765605,0.16509786472320598,-0.0790728796005249,0.236279061412811,0.7592463598152662
6.237415127195639,-0.196550084495544,0.0023577844619751,0.0782077723503114,0.7592463598152662
6.238020820714718,-0.349831334495544,-0.122183231163025,0.116528084850311,0.7592463598152662
6.238626514233799,0.052531946754455605,-0.24193420772552499,0.0470725184440614,0.7592463598152662
6.2392322077528775,0.143542688941956,-0.08146789913177489,0.152453377819061,0.7592463598152662
6.239837901271956,-0.0217136587142944,-0.0982330358505249,0.159638436412811,0.7592463598152662
6.240443594791036,-0.0791941274642944,0.016727901649475102,0.0973679286003114,0.7592463598152662
6.241049288310116,-0.177389928245544,-0.131763309288025,0.0925778895378114,0.7592463598152662
6.241654981829194,0.00223653659820558,-0.0527276647567749,0.209933846569061,0.7592463598152662
6.242260675348274,0.16509786472320598,0.0742083703994751,0.300944588756561,0.7592463598152662
6.242866368867353,-0.000158482933044421,-0.136553348350525,0.250649178600311,0.7592463598152662
6.243472062386433,-0.000158482933044421,-0.220379031944275,0.396745370006561,0.7592463598152662
6.244077755905512,-0.036083775901794395,-0.028777469444274898,0.0255173426628114,0.7592463598152662
6.244683449424591,-0.127094518089294,-0.100628055381775,0.118923104381561,0.7592463598152662
6.245289142943672,-0.0983542837142944,-0.0623077428817749,0.16921851453781098,0.7592463598152662
6.2458948364627505,-0.117514439964294,-0.134158328819275,0.114133065319061,0.7592463598152662
6.246500529981829,-0.13906961574554402,-0.198823856163025,0.34405494031906103,0.7592463598152662
6.247106223500909,-0.000158482933044421,-0.107813113975525,0.185983651256561,0.7592463598152662
6.247711917019989,0.143542688941956,-0.203613895225525,0.236279061412811,0.7592463598152662
6.248317610539067,0.217788294410706,0.0071478235244751,0.135688241100311,0.7592463598152662
6.248923304058147,-0.0839841665267944,-0.126973270225525,0.00156714735031137,0.7592463598152662
6.249528997577226,-0.15343973293304403,-0.0239874303817749,0.0710227137565614,0.7592463598152662
6.250134691096306,0.06450704441070561,0.0430731164932251,0.28417945203781103,0.7592463598152662
6.250740384615385,-0.196550084495544,-0.148528446006775,0.17400855360031098,0.7592463598152662
6.251346078134464,-0.0528489126205444,-0.0647027624130249,0.0877878504753114,0.7592463598152662
6.251951771653543,0.0309767709732056,-0.0311724889755249,0.0542575770378114,0.7592463598152662
6.2525574651726235,0.167492884254456,-0.167688602256775,0.0207273036003114,0.7592463598152662
6.253163158691702,0.11001241550445601,0.0263079797744751,0.0782077723503114,0.7592463598152662
6.253768852210781,-0.112724400901794,0.0550482141494751,-0.0966286534309386,0.7592463598152662
6.254374545729862,0.117197474098206,-0.009617313194274899,-0.0223830479621886,0.7592463598152662
6.25498023924894,0.11001241550445601,-0.0479376256942749,0.0853928309440614,0.7592463598152662
6.255585932768019,0.11480245456695601,0.0933685266494751,0.18358863172531098,0.7592463598152662
6.256191626287099,0.0884572397232056,0.23706969852447501,0.00396216688156137,0.7592463598152662
6.256797319806179,0.05971700534820561,0.114923702430725,-0.11339379014968899,0.7592463598152662
6.257403013325257,0.19383809909820598,-0.0742828405380249,0.19316870985031098,0.7592463598152662
6.258008706844337,-0.158229771995544,-0.0694928014755249,0.0422824793815614,0.7592463598152662
6.258614400363416,-0.000158482933044421,0.0622332727432251,0.279389412975311,0.7592463598152662
6.259220093882496,0.06450704441070561,-0.0503326452255249,0.231489022350311,0.7592463598152662
6.259825787401575,-0.19415506496429402,0.105343624305725,0.0614426356315614,0.7592463598152662
6.260431480920654,0.0836672006607056,-0.009617313194274899,0.267414315319061,0.7592463598152662
6.261037174439733,-0.0959592641830444,-0.213193973350525,0.375190194225311,0.7592463598152662
6.261642867958813,-0.268400670433044,-0.143738406944275,0.0853928309440614,0.7592463598152662
6.262248561477892,-0.0480588735580444,-0.122183231163025,-0.0774684971809386,0.7592463598152662
6.262854254996972,0.0405568490982056,-0.136553348350525,0.145268319225311,0.7592463598152662
6.263459948516052,-0.0887742055892944,0.0287029993057251,0.241069100475311,0.7592463598152662
6.26406564203513,-0.0480588735580444,-0.117393192100525,0.245859139537811,0.7592463598152662
6.26467133555421,0.177072962379456,-0.165293582725525,0.130898202037811,0.7592463598152662
6.265277029073289,0.17467794284820598,-0.0191973913192749,0.276994393444061,0.7592463598152662
6.265882722592369,0.153122767066956,0.0191229211807251,0.336869881725311,0.5841435763722461
6.266488416111448,0.052531946754455605,-0.0072222936630249,0.712887948131561,0.5841435763722461
6.267094109630527,-0.0504538930892944,-0.0239874303817749,0.612297127819061,0.5841435763722461
6.267699803149606,-0.0480588735580444,-0.08146789913177489,0.217118905162811,0.5841435763722461
6.268305496668686,-0.0839841665267944,-0.0766778600692749,0.0925778895378114,0.5841435763722461
6.268911190187765,-0.0480588735580444,0.124503780555725,0.40153540906906104,0.5841435763722461
6.269516883706844,-0.105539342308044,-0.148528446006775,0.269809334850311,0.5841435763722461
6.270122577225925,-0.16062479152679401,-0.155713504600525,-0.0343581456184386,0.5841435763722461
6.270728270745003,-0.182179967308044,0.031098018836975102,-0.233144766712189,0.5841435763722461
6.271333964264082,0.07169210300445561,-0.131763309288025,-0.029568106555938597,0.5841435763722461
6.271939657783162,0.0142116342544556,-0.213193973350525,0.250649178600311,0.5841435763722461
6.272545351302242,0.054926966285705606,-0.122183231163025,0.0829978114128114,0.5841435763722461
6.27315104482132,-0.0648240102767944,-0.0838629186630249,0.18358863172531098,0.5841435763722461
6.2737567383404,-0.15343973293304403,0.217909542274475,0.037492440319061404,0.5841435763722461
6.27436243185948,0.16988790378570598,0.0478631555557251,0.0231223231315614,0.5841435763722461
6.2749681253785585,0.0166066537857056,0.004752803993225099,0.13329322156906098,0.5841435763722461
6.275573818897638,0.00702657566070558,0.158034053993225,0.19316870985031098,0.5841435763722461
6.276179512416717,0.0261867319107056,-0.136553348350525,0.17400855360031098,0.5841435763722461
6.276785205935797,-0.0217136587142944,-0.253909305381775,0.176403573131561,0.5841435763722461
6.277390899454876,-0.0241086782455444,-0.0623077428817749,0.140478280162811,0.5841435763722461
6.277996592973955,-0.0456638540267944,0.0909735071182251,0.209933846569061,0.5841435763722461
6.278602286493035,0.0166066537857056,-0.26348938350677503,0.288969491100311,0.5841435763722461
6.2792079800121146,0.0884572397232056,-0.112603153038025,-0.00322289171218863,0.5841435763722461
6.279813673531193,-0.062428990745544394,0.011937862586975101,0.159638436412811,0.5841435763722461
6.280419367050273,-0.0528489126205444,0.0287029993057251,0.209933846569061,0.5841435763722461
6.281025060569352,-0.186970006370544,-0.174873660850525,-0.0367531651496886,0.5841435763722461
6.2816307540884315,-0.0720090688705444,-0.251514285850525,-0.0726784581184386,0.5841435763722461
6.282236447607511,0.342329310035706,-0.143738406944275,0.212328866100311,0.5841435763722461
6.28284214112659,0.0142116342544556,-0.229959110069275,0.0877878504753114,0.5841435763722461
6.283447834645669,-0.0480588735580444,-0.0455426061630249,-0.168479239368439,0.5841435763722461
6.284053528164749,0.11001241550445601,0.011937862586975101,0.0710227137565614,0.5841435763722461
6.284659221683828,-0.0767991079330444,-0.153318485069275,0.17879859266281098,0.5841435763722461
6.285264915202907,-0.110329381370544,-0.162898563194275,0.356030037975311,0.5841435763722461
6.2858706087219876,0.172282923316956,-0.0742828405380249,0.0446774989128114,0.5841435763722461
6.286476302241066,0.07169210300445561,-0.124578250694275,0.0518625575065614,0.5841435763722461
6.287081995760145,-0.110329381370544,-0.0910479772567749,0.317709725475311,0.5841435763722461
6.287687689279226,-0.22529031887054402,-0.18205871944427499,0.0470725184440614,0.5841435763722461
6.2882933827983045,-0.13427957668304402,-0.0982330358505249,-0.005617911243438629,0.5841435763722461
6.288899076317383,-0.117514439964294,-0.30420471553802503,0.0734177332878114,0.5841435763722461
6.289504769836463,-0.0839841665267944,-0.220379031944275,-0.0607033604621886,0.5841435763722461
6.290110463355543,0.0190016733169556,-0.138948367881775,0.30333960828781104,0.5841435763722461
6.2907161568746215,0.143542688941956,-0.0694928014755249,0.427880623912811,0.5841435763722461
6.291321850393701,0.0932472787857056,0.0430731164932251,0.17400855360031098,0.5841435763722461
6.29192754391278,-0.0887742055892944,-0.0670977819442749,0.111738045787811,0.5841435763722461
6.29253323743186,0.124382532691956,0.0742083703994751,0.154848397350311,0.5841435763722461
6.293138930950939,-0.13427957668304402,-0.0790728796005249,0.135688241100311,0.5841435763722461
6.293744624470018,0.0190016733169556,-0.0766778600692749,-0.0319631260871886,0.5841435763722461
6.294350317989098,-0.062428990745544394,0.0574432336807251,0.241069100475311,0.5841435763722461
6.2949560115081775,-0.0863791860580444,-0.114998172569275,0.7991086512565609,0.5841435763722461
6.295561705027256,-0.0241086782455444,-0.122183231163025,0.0135422450065614,0.5841435763722461
6.296167398546336,-0.258820592308044,-0.126973270225525,0.209933846569061,0.5841435763722461
6.296773092065415,-0.100749303245544,-0.258699344444275,0.696122811412811,0.5841435763722461
6.2973787855844945,-0.0839841665267944,-0.0120123327255249,-0.053518301868438596,0.5841435763722461
6.297984479103574,0.0190016733169556,-0.124578250694275,0.265019295787811,0.5841435763722461
6.298590172622653,0.0166066537857056,0.0550482141494751,0.28417945203781103,0.5841435763722461
6.299195866141733,0.11001241550445601,0.0813934289932251,0.0806027918815614,0.5841435763722461
6.299801559660812,0.102827356910706,-0.117393192100525,0.19795874891281098,0.5841435763722461
6.300407253179891,-0.131884557151794,-0.0862579381942749,0.17400855360031098,0.5841435763722461
6.30101294669897,-0.14385965480804402,0.0382830774307251,0.22430396375656098,0.5841435763722461
6.3016186402180505,0.0812721811294556,-0.0120123327255249,0.13329322156906098,0.5841435763722461
6.302224333737129,0.0429518686294556,-0.179663699913025,0.162033455944061,0.5841435763722461
6.302830027256208,-0.00973856105804442,-0.155713504600525,0.118923104381561,0.5841435763722461
6.303435720775289,0.0261867319107056,0.110133663368225,-0.0223830479621886,0.5841435763722461
6.3040414142943675,0.0453468881607056,-0.035962528038024896,0.16442847547531098,0.5841435763722461
6.304647107813446,0.0118166147232056,-0.378450321006775,0.27459937391281103,0.5841435763722461
6.305252801332526,-0.17020486965179402,-0.009617313194274899,0.0758127528190614,0.5841435763722461
6.305858494851606,-0.115119420433044,-0.124578250694275,0.17879859266281098,0.5841435763722461
6.3064641883706845,-0.06003397121429439,-0.136553348350525,0.300944588756561,0.5841435763722461
6.307069881889764,-0.040873814964294396,-0.174873660850525,0.14766333875656099,0.5841435763722461
6.307675575408843,-0.122304479026794,0.0550482141494751,0.126108162975311,0.5841435763722461
6.308281268927923,-0.0217136587142944,-0.100628055381775,-0.0487282628059386,0.5841435763722461
6.308886962447002,0.0213966928482056,-0.189243778038025,0.34165992078781104,0.5841435763722461
6.309492655966081,-0.0312937368392944,-0.0263824499130249,0.18837867078781098,0.5841435763722461
6.31009834948516,-0.131884557151794,-0.158108524131775,0.30333960828781104,0.5841435763722461
6.3107040430042405,-0.0744040884017944,-0.0335675085067749,0.20274878797531098,0.5841435763722461
6.311309736523319,-0.0552439321517944,-0.0718878210067749,0.0231223231315614,0.5841435763722461
6.311915430042399,-0.17020486965179402,-0.126973270225525,0.348844979381561,0.5841435763722461
6.312521123561479,-0.127094518089294,-0.249119266319275,0.0590476161003114,0.5841435763722461
6.3131268170805575,0.00223653659820558,0.0837884485244751,0.231489022350311,0.5841435763722461
6.313732510599637,-0.00734354152679442,-0.0647027624130249,0.104552987194061,0.5841435763722461
6.314338204118716,-0.033688756370544394,-0.0311724889755249,0.315314705944061,0.5841435763722461
6.314943897637796,0.00942159519195558,-0.110208133506775,0.171613534069061,0.5841435763722461
6.315549591156875,0.00223653659820558,-0.0335675085067749,0.157243416881561,0.5841435763722461
6.316155284675954,0.00702657566070558,0.129293819618225,0.379980233287811,0.5841435763722461
6.316760978195033,-0.0193186391830444,-0.0718878210067749,0.217118905162811,0.5841435763722461
6.3173666717141135,0.136357630348206,-0.103023074913025,0.23867408094406098,0.5841435763722461
6.317972365233192,0.0309767709732056,0.0191229211807251,0.269809334850311,0.5841435763722461
6.318578058752271,0.0429518686294556,0.0718133508682251,0.159638436412811,0.5841435763722461
6.319183752271352,0.124382532691956,0.0478631555557251,0.200353768444061,0.5841435763722461
6.3197894457904304,-0.100749303245544,0.131688839149475,0.0925778895378114,0.5841435763722461
6.320395139309509,-0.17499490871429402,-0.129368289756775,0.267414315319061,0.5841435763722461
6.321000832828589,-0.0672190298080444,-0.131763309288025,0.375190194225311,0.5841435763722461
6.321606526347669,-0.06003397121429439,0.0622332727432251,-0.0247780674934386,0.5841435763722461
6.322212219866747,-0.27079568996429404,-0.035962528038024896,0.190773690319061,0.5841435763722461
6.322817913385827,0.0190016733169556,-0.105418094444275,0.190773690319061,0.5841435763722461
6.323423606904906,-0.0193186391830444,0.0670233118057251,0.166823495006561,0.5841435763722461
6.324029300423986,-0.18457498683929402,-0.0503326452255249,0.250649178600311,0.5841435763722461
6.324634993943065,0.0764821420669556,-0.0958380163192749,0.317709725475311,0.5841435763722461
6.325240687462144,0.057321985816955606,-0.0982330358505249,0.23867408094406098,0.5841435763722461
6.325846380981225,0.0357668100357056,0.105343624305725,0.145268319225311,0.5841435763722461
6.3264520745003034,0.119592493629456,-0.124578250694275,0.478176034069061,0.5841435763722461
6.327057768019382,0.0166066537857056,-0.239539188194275,0.34405494031906103,0.5841435763722461
6.327663461538462,0.11001241550445601,-0.0479376256942749,0.018332284069061403,0.5841435763722461
6.328269155057542,0.0261867319107056,-0.201218875694275,0.205143807506561,0.5841435763722461
6.32887484857662,0.00223653659820558,-0.0623077428817749,0.0542575770378114,0.5841435763722461
6.3294805420957,0.052531946754455605,0.0813934289932251,0.260229256725311,0.5841435763722461
6.330086235614779,-0.186970006370544,-0.0958380163192749,0.109343026256561,0.5841435763722461
6.330691929133859,-0.13906961574554402,-0.112603153038025,0.130898202037811,0.5841435763722461
6.331297622652938,0.0453468881607056,-0.0431475866317749,0.5236814051628109,0.5841435763722461
6.331903316172017,0.102827356910706,-0.0335675085067749,0.0877878504753114,0.5841435763722461
6.332509009691096,0.0190016733169556,0.174799190711975,0.0997629481315614,0.5841435763722461
6.333114703210176,0.0190016733169556,0.0215179407119751,0.181193612194061,0.5841435763722461
6.333720396729255,0.177072962379456,-0.100628055381775,0.126108162975311,0.5841435763722461
6.334326090248334,0.217788294410706,-0.0168023717880249,0.130898202037811,0.5841435763722461
6.334931783767415,-0.0839841665267944,-0.0191973913192749,-0.051123282337188596,0.5841435763722461
6.335537477286493,0.11001241550445601,-0.165293582725525,0.118923104381561,0.5841435763722461
6.336143170805572,-0.0217136587142944,-0.0647027624130249,0.0925778895378114,0.5841435763722461
6.336748864324652,-0.127094518089294,0.105343624305725,0.200353768444061,0.5841435763722461
6.337354557843732,-0.0887742055892944,0.0358880578994751,0.150058358287811,0.5841435763722461
6.33796025136281,-0.17020486965179402,0.0598382532119751,0.0806027918815614,0.5841435763722461
6.33856594488189,-0.172599889183044,-0.035962528038024896,0.162033455944061,0.5841435763722461
6.339171638400969,-0.0696140493392944,-0.232354129600525,0.33207984266281104,0.5841435763722461
6.3397773319200486,0.0884572397232056,0.0023577844619751,-0.0104079503059386,0.5841435763722461
6.340383025439128,-0.0528489126205444,-0.0551226842880249,0.0662326746940614,0.5841435763722461
6.340988718958207,0.0333717905044556,-0.0934429967880249,0.308129647350311,0.5841435763722461
6.341594412477287,-0.06003397121429439,-0.0790728796005249,-0.0822585362434386,0.5841435763722461
6.342200105996366,0.047741907691955604,-0.100628055381775,0.217118905162811,0.5841435763722461
6.342805799515445,-0.00255350246429442,0.141268917274475,0.329684823131561,0.5841435763722461
6.343411493034525,-0.00255350246429442,0.110133663368225,0.298549569225311,0.5841435763722461
6.344017186553605,-0.0145286001205444,-0.265884403038025,0.0829978114128114,0.5841435763722461
6.344622880072683,-0.16541483058929402,-0.165293582725525,0.13808326063156098,0.5841435763722461
6.345228573591763,0.07408712253570561,0.0837884485244751,-0.0343581456184386,0.5841435763722461
6.345834267110842,-0.20373514308929402,-0.0407525671005249,0.0829978114128114,0.5841435763722461
6.3464399606299216,-0.0935642446517944,0.100553585243225,0.23867408094406098,0.5841435763722461
6.347045654149001,0.12917257175445598,0.0837884485244751,-0.0128029698371886,0.5841435763722461
6.34765134766808,-0.0911692251205444,0.016727901649475102,0.18358863172531098,0.5841435763722461
6.348257041187159,-0.0672190298080444,0.0287029993057251,0.171613534069061,0.5841435763722461
6.348862734706239,-0.107934361839294,-0.0479376256942749,0.00875220594406137,0.5841435763722461
6.349468428225318,-0.0815891469955444,-0.0982330358505249,0.0422824793815614,0.5841435763722461
6.350074121744397,-0.0648240102767944,-0.0982330358505249,0.130898202037811,0.5841435763722461
6.350679815263478,0.0285817514419556,-0.0527276647567749,0.23867408094406098,0.5841435763722461
6.351285508782556,0.181863001441956,-0.129368289756775,0.267414315319061,0.5841435763722461
6.351891202301635,0.11240743503570601,0.0358880578994751,0.0925778895378114,0.5841435763722461
6.352496895820715,0.00942159519195558,-0.0982330358505249,0.109343026256561,0.5841435763722461
6.3531025893397945,-0.19415506496429402,-0.143738406944275,0.356030037975311,0.5841435763722461
6.353708282858873,0.0261867319107056,-0.0551226842880249,0.13329322156906098,0.5841435763722461
6.354313976377953,-0.0672190298080444,0.0885784875869751,0.0925778895378114,0.5841435763722461
6.354919669897033,-0.17499490871429402,0.0239129602432251,-0.197219473743439,0.5841435763722461
6.3555253634161115,0.00223653659820558,-0.249119266319275,0.0686276942253114,0.5841435763722461
6.356131056935191,-0.20852518215179403,0.0263079797744751,0.126108162975311,0.5841435763722461
6.35673675045427,-0.100749303245544,-0.126973270225525,0.571581795787811,0.5841435763722461
6.35734244397335,0.0190016733169556,-0.136553348350525,0.5404465418815609,0.5841435763722461
6.357948137492429,-0.107934361839294,0.0382830774307251,0.145268319225311,0.5841435763722461
6.358553831011508,-0.0552439321517944,-0.249119266319275,0.377585213756561,0.5841435763722461
6.359159524530587,0.0908522592544556,-0.0982330358505249,-0.005617911243438629,0.5841435763722461
6.3597652180496675,0.117197474098206,0.0478631555557251,0.324894784069061,0.5841435763722461
6.360370911568746,0.212998255348206,-0.186848758506775,0.157243416881561,0.5841435763722461
6.360976605087826,0.00942159519195558,-0.186848758506775,0.0662326746940614,0.5841435763722461
6.361582298606905,0.0213966928482056,-0.117393192100525,-0.0990236729621886,0.5841435763722461
6.3621879921259845,-0.0887742055892944,0.0502581750869751,0.23867408094406098,0.5841435763722461
6.362793685645064,-0.127094518089294,0.0382830774307251,0.348844979381561,0.5841435763722461
6.363399379164143,-0.100749303245544,0.0239129602432251,0.26262427625656104,0.5841435763722461
6.364005072683222,-0.17499490871429402,-0.0479376256942749,0.286574471569061,0.5841435763722461
6.364610766202302,-0.00973856105804442,-0.0551226842880249,0.0446774989128114,0.5841435763722461
6.365216459721381,-0.237265416526794,-0.0934429967880249,0.152453377819061,0.5841435763722461
6.36582215324046,-0.06003397121429439,-3.72350692748983e-05,-0.0559133213996886,0.791191287628555
6.3664278467595405,-0.00973856105804442,0.0837884485244751,-0.127763907337189,0.791191287628555
6.367033540278619,-0.215710240745544,-0.0527276647567749,-0.0128029698371886,0.791191287628555
6.367639233797698,0.0381618295669556,-0.232354129600525,0.327289803600311,0.791191287628555
6.368244927316779,-0.0648240102767944,-0.201218875694275,0.16442847547531098,0.791191287628555
6.3688506208358575,-0.131884557151794,-0.143738406944275,0.0255173426628114,0.791191287628555
6.369456314354936,0.0405568490982056,-0.203613895225525,0.288969491100311,0.791191287628555
6.370062007874016,0.0956422983169556,-0.0479376256942749,0.0662326746940614,0.791191287628555
6.370667701393096,-0.0217136587142944,0.138873897743225,0.037492440319061404,0.791191287628555
6.3712733949121745,-0.0456638540267944,-0.0215924108505249,0.14766333875656099,0.791191287628555
6.371879088431254,0.00463155612945558,-0.148528446006775,0.162033455944061,0.791191287628555
6.372484781950333,-0.0504538930892944,0.0287029993057251,0.039887459850311405,0.791191287628555
6.3730904754694135,-0.0480588735580444,-0.035962528038024896,0.0111472254753114,0.791191287628555
6.373696168988492,-0.0839841665267944,-0.0838629186630249,0.130898202037811,0.791191287628555
6.374301862507571,0.06450704441070561,-0.028777469444274898,0.140478280162811,0.791191287628555
6.37490755602665,0.06690206394195561,0.0454681360244751,0.190773690319061,0.791191287628555
6.3755132495457305,-0.0720090688705444,-0.129368289756775,0.0997629481315614,0.791191287628555
6.376118943064809,-0.00255350246429442,-0.122183231163025,0.185983651256561,0.791191287628555
6.376724636583889,-0.0935642446517944,-0.0934429967880249,0.250649178600311,0.791191287628555
6.377330330102968,-0.122304479026794,-0.170083621788025,0.126108162975311,0.791191287628555
6.3779360236220475,0.0333717905044556,-0.0718878210067749,-0.07028343858718859,0.791191287628555
6.378541717141127,0.0860622201919556,-0.0599127233505249,0.176403573131561,0.791191287628555
6.379147410660206,-0.110329381370544,0.124503780555725,0.356030037975311,0.791191287628555
6.379753104179285,0.0812721811294556,0.124503780555725,0.0638376551628114,0.791191287628555
6.380358797698365,0.16988790378570598,-0.170083621788025,0.104552987194061,0.791191287628555
6.380964491217444,-0.0839841665267944,-0.117393192100525,0.111738045787811,0.791191287628555
6.381570184736523,-0.299535924339294,-0.0168023717880249,0.20753882703781099,0.791191287628555
6.3821758782556035,-0.062428990745544394,-0.0407525671005249,0.0758127528190614,0.791191287628555
6.382781571774682,-0.0528489126205444,-0.138948367881775,0.17879859266281098,0.791191287628555
6.383387265293761,-0.263610631370544,0.0191229211807251,0.310524666881561,0.791191287628555
6.383992958812842,-0.0863791860580444,0.0263079797744751,0.039887459850311405,0.791191287628555
6.3845986523319205,0.00942159519195558,-0.0790728796005249,0.24825415906906098,0.791191287628555
6.385204345850999,-0.00973856105804442,-0.110208133506775,0.118923104381561,0.791191287628555
6.385810039370079,-0.043268834495544396,-0.112603153038025,-0.23553978624343902,0.791191287628555
6.386415732889159,-0.0193186391830444,-0.0670977819442749,0.420695565319061,0.791191287628555
6.3870214264082374,-0.06003397121429439,-0.0311724889755249,0.212328866100311,0.791191287628555
6.387627119927317,0.117197474098206,-0.009617313194274899,0.162033455944061,0.791191287628555
6.388232813446396,0.0908522592544556,-0.0575177038192749,0.298549569225311,0.791191287628555
6.388838506965476,0.0142116342544556,-0.206008914756775,0.171613534069061,0.791191287628555
6.389444200484555,0.00702657566070558,-0.126973270225525,0.200353768444061,0.791191287628555
6.390049894003634,-0.112724400901794,-3.72350692748983e-05,0.0255173426628114,0.791191287628555
6.390655587522714,-0.29235086574554403,-0.0072222936630249,0.324894784069061,0.791191287628555
6.3912612810417935,0.0237917123794556,-0.0934429967880249,0.23388404188156098,0.791191287628555
6.391866974560872,0.15072774753570597,-0.136553348350525,0.305734627819061,0.791191287628555
6.392472668079951,0.0980373178482056,0.0622332727432251,0.166823495006561,0.791191287628555
6.393078361599031,0.06450704441070561,-0.29941467647552505,0.14766333875656099,0.791191287628555
6.39368405511811,-0.0145286001205444,-0.0407525671005249,0.22909400281906098,0.791191287628555
6.39428974863719,0.119592493629456,0.011937862586975101,-0.017593008899688598,0.791191287628555
6.394895442156269,0.143542688941956,-0.0934429967880249,0.20753882703781099,0.791191287628555
6.395501135675349,0.11480245456695601,-0.103023074913025,0.13329322156906098,0.791191287628555
6.396106829194428,0.0788771615982056,-0.29941467647552505,0.171613534069061,0.791191287628555
6.396712522713507,0.0908522592544556,0.0143328821182251,-0.247514883899689,0.791191287628555
6.397318216232586,0.172282923316956,-0.0407525671005249,0.0710227137565614,0.791191287628555
6.3979239097516665,0.0261867319107056,-0.126973270225525,0.360820077037811,0.791191287628555
6.398529603270745,-0.182179967308044,0.0334930383682251,-0.005617911243438629,0.791191287628555
6.399135296789824,0.0405568490982056,0.004752803993225099,0.25543921766281097,0.791191287628555
6.399740990308905,0.0261867319107056,-0.100628055381775,0.17879859266281098,0.791191287628555
6.400346683827983,-0.158229771995544,-0.028777469444274898,0.20753882703781099,0.791191287628555
6.400952377347062,-0.033688756370544394,0.0239129602432251,0.279389412975311,0.791191287628555
6.401558070866142,0.0860622201919556,-0.0239874303817749,0.231489022350311,0.791191287628555
6.402163764385222,0.0860622201919556,-0.0144073522567749,0.17400855360031098,0.791191287628555
6.4027694579043,-0.0720090688705444,-0.009617313194274899,0.291364510631561,0.791191287628555
6.40337515142338,0.0357668100357056,0.0215179407119751,0.18837867078781098,0.791191287628555
6.403980844942459,-0.038478795433044395,0.0909735071182251,0.245859139537811,0.791191287628555
6.404586538461539,-0.0480588735580444,0.0334930383682251,0.162033455944061,0.791191287628555
6.405192231980618,0.280058802223206,-0.0072222936630249,0.231489022350311,0.791191287628555
6.405797925499697,0.0237917123794556,-0.0144073522567749,0.387165291881561,0.791191287628555
6.406403619018777,-0.0887742055892944,0.0358880578994751,0.190773690319061,0.791191287628555
6.407009312537856,-0.0576389516830444,0.0023577844619751,-0.0247780674934386,0.791191287628555
6.407615006056935,-0.100749303245544,-0.143738406944275,0.0542575770378114,0.791191287628555
6.408220699576015,-0.105539342308044,-0.0790728796005249,0.0901828700065614,0.791191287628555
6.408826393095095,-0.033688756370544394,0.0334930383682251,0.257834237194061,0.791191287628555
6.409432086614173,0.167492884254456,0.0143328821182251,0.379980233287811,0.791191287628555
6.410037780133253,0.00702657566070558,-0.129368289756775,0.0829978114128114,0.791191287628555
6.410643473652332,-0.24924051418304402,-0.0886529577255249,0.104552987194061,0.791191287628555
6.411249167171412,-0.0983542837142944,-0.0599127233505249,0.166823495006561,0.791191287628555
6.411854860690491,-0.0744040884017944,-0.0886529577255249,-0.13494896593093902,0.791191287628555
6.41246055420957,-0.0911692251205444,-0.0694928014755249,0.13808326063156098,0.791191287628555
6.413066247728649,0.06929708347320561,-0.0838629186630249,0.154848397350311,0.791191287628555
6.413671941247729,0.0860622201919556,0.0957635461807251,0.23388404188156098,0.791191287628555
6.414277634766808,0.0405568490982056,0.0406780969619751,0.317709725475311,0.791191287628555
6.414883328285887,-0.14385965480804402,-0.206008914756775,0.226698983287811,0.791191287628555
6.415489021804968,0.00463155612945558,-0.0048272741317749,0.118923104381561,0.791191287628555
6.416094715324046,0.153122767066956,0.165219112586975,0.485361092662811,0.791191287628555
6.416700408843125,-0.0265036977767944,-0.119788211631775,0.710492928600311,0.791191287628555
6.417306102362205,-0.17978494777679402,-0.253909305381775,0.377585213756561,0.791191287628555
6.417911795881285,0.0261867319107056,-0.0503326452255249,0.0853928309440614,0.791191287628555
6.418517489400363,-0.0217136587142944,-0.119788211631775,0.18358863172531098,0.791191287628555
6.419123182919443,-0.115119420433044,-0.141343387413025,0.18358863172531098,0.791191287628555
6.419728876438523,-0.210920201683044,-0.126973270225525,0.0135422450065614,0.791191287628555
6.4203345699576015,-0.0528489126205444,-0.0551226842880249,0.20753882703781099,0.791191287628555
6.420940263476681,0.272873743629456,-0.160503543663025,0.379980233287811,0.791191287628555
6.42154595699576,0.232158411598206,-0.124578250694275,0.00396216688156137,0.791191287628555
6.42215165051484,0.0429518686294556,-0.0575177038192749,-0.146924063587189,0.791191287628555
6.422757344033919,-0.0911692251205444,-0.0910479772567749,0.406325448131561,0.791191287628555
6.423363037552998,0.19383809909820598,-0.0575177038192749,0.245859139537811,0.791191287628555
6.423968731072078,-0.0217136587142944,-0.08146789913177489,0.32249976453781104,0.791191287628555
6.424574424591158,-0.0217136587142944,0.0263079797744751,0.13329322156906098,0.791191287628555
6.425180118110236,0.16030782566070598,-0.136553348350525,0.035097420787811404,0.791191287628555
6.425785811629316,-0.00973856105804442,0.0071478235244751,0.339264901256561,0.791191287628555
6.426391505148395,-0.340251256370544,-0.0694928014755249,0.18837867078781098,0.791191287628555
6.4269971986674745,-0.163019811058044,-0.117393192100525,0.0662326746940614,0.791191287628555
6.427602892186554,-0.146254674339294,-0.0838629186630249,0.217118905162811,0.791191287628555
6.428208585705633,-0.29235086574554403,-0.131763309288025,0.226698983287811,0.791191287628555
6.428814279224712,0.148332728004456,-0.100628055381775,0.16442847547531098,0.791191287628555
6.429419972743792,0.0884572397232056,-0.0311724889755249,0.18358863172531098,0.791191287628555
6.430025666262871,-0.0528489126205444,-0.0670977819442749,0.19316870985031098,0.791191287628555
6.43063135978195,-0.206130162620544,-0.119788211631775,0.209933846569061,0.791191287628555
6.431237053301031,-0.033688756370544394,-0.150923465538025,0.18837867078781098,0.791191287628555
6.431842746820109,0.0309767709732056,0.0287029993057251,0.22430396375656098,0.791191287628555
6.432448440339188,0.00942159519195558,0.031098018836975102,0.346449959850311,0.791191287628555
6.433054133858269,0.057321985816955606,0.016727901649475102,0.33207984266281104,0.791191287628555
6.4336598273773475,-0.0217136587142944,0.0382830774307251,0.217118905162811,0.791191287628555
6.434265520896426,0.0453468881607056,-0.134158328819275,0.14766333875656099,0.791191287628555
6.434871214415506,0.16030782566070598,-0.107813113975525,0.27459937391281103,0.791191287628555
6.435476907934586,0.0357668100357056,-0.158108524131775,0.145268319225311,0.791191287628555
6.4360826014536645,0.0285817514419556,-0.0790728796005249,-0.0726784581184386,0.791191287628555
6.436688294972744,-0.036083775901794395,0.148453975868225,-0.005617911243438629,0.791191287628555
6.437293988491823,-0.105539342308044,0.016727901649475102,0.152453377819061,0.791191287628555
6.437899682010903,0.148332728004456,-0.0742828405380249,0.28178443250656104,0.791191287628555
6.438505375529982,0.121987513160706,0.155639034461975,0.217118905162811,0.791191287628555
6.439111069049061,0.0357668100357056,0.0215179407119751,0.00156714735031137,0.791191287628555
6.43971676256814,-0.0504538930892944,-0.0551226842880249,0.00156714735031137,0.791191287628555
6.4403224560872205,-0.275585729026794,0.0646282922744751,0.0590476161003114,0.791191287628555
6.440928149606299,-0.13427957668304402,-0.220379031944275,0.0638376551628114,0.791191287628555
6.441533843125379,-0.13906961574554402,0.031098018836975102,0.0494675379753114,0.791191287628555
6.442139536644458,0.0812721811294556,0.0622332727432251,0.0494675379753114,0.791191287628555
6.4427452301635375,0.06690206394195561,-0.117393192100525,0.34165992078781104,0.791191287628555
6.443350923682617,-0.119909459495544,0.117318721961975,0.14287329969406098,0.791191287628555
6.443956617201696,0.06450704441070561,-0.0191973913192749,0.13329322156906098,0.791191287628555
6.444562310720775,-0.196550084495544,-0.0263824499130249,0.308129647350311,0.791191287628555
6.445168004239855,0.0142116342544556,-0.170083621788025,0.887724373912811,0.791191287628555
6.445773697758934,0.100432337379456,0.0287029993057251,0.0542575770378114,0.791191287628555
6.446379391278013,-0.117514439964294,-0.0479376256942749,0.339264901256561,0.791191287628555
6.4469850847970935,0.06450704441070561,-0.107813113975525,0.7416281825065609,0.791191287628555
6.447590778316172,0.361489466285706,-0.227564090538025,-0.0966286534309386,0.791191287628555
6.448196471835251,-0.0576389516830444,-0.0790728796005249,-0.0894435948371886,0.791191287628555
6.448802165354332,-0.0911692251205444,0.0789984094619751,-0.11818382921218899,0.791191287628555
6.4494078588734105,0.19383809909820598,-0.028777469444274898,0.18358863172531098,0.791191287628555
6.450013552392489,0.124382532691956,0.0023577844619751,0.0925778895378114,0.791191287628555
6.450619245911569,-0.033688756370544394,0.0382830774307251,-0.00322289171218863,0.791191287628555
6.451224939430649,-0.141464635276794,-0.0335675085067749,0.0853928309440614,0.791191287628555
6.4518306329497275,-0.158229771995544,-0.0982330358505249,-0.0439382237434386,0.791191287628555
6.452436326468807,0.11480245456695601,-0.0982330358505249,0.0997629481315614,0.791191287628555
6.453042019987886,0.0429518686294556,-0.234749149131775,0.317709725475311,0.791191287628555
6.453647713506966,-0.19415506496429402,-0.0168023717880249,-0.101418692493439,0.791191287628555
6.454253407026045,0.057321985816955606,-0.0191973913192749,0.00396216688156137,0.791191287628555
6.454859100545124,0.0142116342544556,-0.0072222936630249,0.14766333875656099,0.791191287628555
6.455464794064203,-0.0935642446517944,0.0670233118057251,0.116528084850311,0.791191287628555
6.4560704875832835,-0.0791941274642944,-0.0958380163192749,-0.146924063587189,0.791191287628555
6.456676181102362,0.17467794284820598,-0.34971008663177505,0.19316870985031098,0.791191287628555
6.457281874621442,-0.155834752464294,-0.198823856163025,0.25543921766281097,0.791191287628555
6.457887568140521,-0.24924051418304402,-0.0072222936630249,0.0542575770378114,0.791191287628555
6.4584932616596005,-0.0265036977767944,0.0095428430557251,0.27220435438156104,0.791191287628555
6.45909895517868,-0.0552439321517944,-0.0575177038192749,0.17879859266281098,0.791191287628555
6.459704648697759,-0.0456638540267944,-0.08146789913177489,0.241069100475311,0.791191287628555
6.460310342216839,0.0166066537857056,0.160429073524475,0.130898202037811,0.791191287628555
6.460916035735918,-0.17499490871429402,-0.0263824499130249,-0.053518301868438596,0.791191287628555
6.461521729254997,-0.146254674339294,-0.249119266319275,0.106948006725311,0.791191287628555
6.462127422774076,-0.23487039699554402,-0.189243778038025,0.0877878504753114,0.791191287628555
6.4627331162931565,-0.119909459495544,-0.0144073522567749,-0.0343581456184386,0.791191287628555
6.463338809812235,0.0884572397232056,-0.177268680381775,0.27459937391281103,0.791191287628555
6.463944503331314,-0.30193094387054403,-0.155713504600525,0.245859139537811,0.791191287628555
6.464550196850395,-0.0265036977767944,-0.035962528038024896,0.0494675379753114,0.791191287628555
6.4651558903694735,0.196233118629456,-0.186848758506775,0.0470725184440614,0.791191287628555
6.465761583888552,0.0237917123794556,-0.0503326452255249,0.0494675379753114,0.9859441142201402
6.466367277407632,-0.122304479026794,0.016727901649475102,0.308129647350311,0.9859441142201402
6.466972970926712,-0.0456638540267944,0.016727901649475102,0.24346412000656098,0.9859441142201402
6.46757866444579,-0.0169236196517944,0.0598382532119751,0.16442847547531098,0.9859441142201402
6.46818435796487,-0.0959592641830444,0.0071478235244751,0.19795874891281098,0.9859441142201402
6.468790051483949,-0.0312937368392944,-0.0479376256942749,0.027912362194061402,0.9859441142201402
6.469395745003029,-0.0839841665267944,-0.0431475866317749,-0.00322289171218863,0.9859441142201402
6.470001438522108,0.0764821420669556,-0.136553348350525,0.106948006725311,0.9859441142201402
6.470607132041187,0.275268763160706,-0.107813113975525,0.109343026256561,0.9859441142201402
6.471212825560267,-0.131884557151794,-0.0718878210067749,0.16442847547531098,0.9859441142201402
6.4718185190793465,-0.12948953762054402,0.0861834680557251,0.17400855360031098,0.9859441142201402
6.472424212598425,-0.0288987173080444,-0.100628055381775,0.336869881725311,0.9859441142201402
6.473029906117504,-0.0528489126205444,-0.107813113975525,0.12371314344406101,0.9859441142201402
6.473635599636585,0.13396261081695598,0.0909735071182251,0.0997629481315614,0.9859441142201402
6.474241293155663,-0.062428990745544394,0.011937862586975101,0.296154549694061,0.9859441142201402
6.474846986674743,-0.167809850120544,-0.0838629186630249,0.365610116100311,0.9859441142201402
6.475452680193822,0.33753927097320596,-0.110208133506775,0.171613534069061,0.9859441142201402
6.476058373712902,0.0836672006607056,0.0885784875869751,-0.22595970811843902,0.9859441142201402
6.476664067231981,-0.0839841665267944,-0.0910479772567749,0.494941170787811,0.9859441142201402
6.47726976075106,0.121987513160706,-0.227564090538025,0.487756112194061,0.9859441142201402
6.477875454270139,-0.17978494777679402,0.011937862586975101,-0.000827872180938634,0.9859441142201402
6.4784811477892195,0.0261867319107056,-0.0144073522567749,0.231489022350311,0.9859441142201402
6.479086841308298,-0.0887742055892944,-0.0647027624130249,0.250649178600311,0.9859441142201402
6.479692534827377,-0.215710240745544,0.0358880578994751,0.260229256725311,0.9859441142201402
6.480298228346458,-0.0169236196517944,-0.0790728796005249,0.39195533094406104,0.9859441142201402
6.480903921865536,-0.266005650901794,-0.191638797569275,0.22430396375656098,0.9859441142201402
6.481509615384615,-0.0720090688705444,0.0334930383682251,0.200353768444061,0.9859441142201402
6.482115308903695,-0.0552439321517944,0.0718133508682251,0.260229256725311,0.9859441142201402
6.482721002422775,-0.112724400901794,-3.72350692748983e-05,0.12850318250656098,0.9859441142201402
6.483326695941853,0.131567591285706,-0.0862579381942749,0.162033455944061,0.9859441142201402
6.483932389460933,-0.0217136587142944,-0.0263824499130249,0.25543921766281097,0.9859441142201402
6.484538082980012,0.057321985816955606,0.114923702430725,0.0446774989128114,0.9859441142201402
6.485143776499092,0.047741907691955604,-0.0503326452255249,0.253044198131561,0.9859441142201402
6.485749470018171,-0.036083775901794395,-0.0503326452255249,0.315314705944061,0.9859441142201402
6.48635516353725,-0.0480588735580444,0.0526531946182251,0.116528084850311,0.9859441142201402
6.48696085705633,-0.0169236196517944,0.150848995399475,0.195563729381561,0.9859441142201402
6.487566550575409,0.0190016733169556,0.0382830774307251,0.0853928309440614,0.9859441142201402
6.488172244094488,-0.0839841665267944,0.0358880578994751,0.27220435438156104,0.9859441142201402
6.488777937613568,0.06450704441070561,-0.0862579381942749,0.111738045787811,0.9859441142201402
6.489383631132648,0.054926966285705606,-0.244329227256775,0.219513924694061,0.9859441142201402
6.489989324651726,-0.040873814964294396,-0.114998172569275,0.111738045787811,0.9859441142201402
6.490595018170806,0.0932472787857056,0.0382830774307251,0.16442847547531098,0.9859441142201402
6.491200711689885,-0.0767991079330444,-0.0886529577255249,0.22909400281906098,0.9859441142201402
6.491806405208965,-0.0863791860580444,-0.184453738975525,0.195563729381561,0.9859441142201402
6.492412098728044,-0.036083775901794395,-0.0623077428817749,0.231489022350311,0.9859441142201402
6.493017792247123,0.0309767709732056,-0.203613895225525,0.13808326063156098,0.9859441142201402
6.493623485766202,0.0190016733169556,-0.119788211631775,0.111738045787811,0.9859441142201402
6.494229179285282,-0.119909459495544,0.0861834680557251,-0.0607033604621886,0.9859441142201402
6.494834872804361,-0.000158482933044421,0.0598382532119751,0.0901828700065614,0.9859441142201402
6.49544056632344,-0.172599889183044,-0.0599127233505249,0.0877878504753114,0.9859441142201402
6.496046259842521,-0.0887742055892944,-0.0910479772567749,-0.247514883899689,0.9859441142201402
6.496651953361599,-0.00973856105804442,0.122108761024475,0.0494675379753114,0.9859441142201402
6.497257646880678,0.0142116342544556,0.0885784875869751,0.26262427625656104,0.9859441142201402
6.497863340399758,0.00942159519195558,-0.0335675085067749,0.0494675379753114,0.9859441142201402
6.498469033918838,-0.043268834495544396,-0.174873660850525,0.320104745006561,0.9859441142201402
6.499074727437916,-0.0193186391830444,-0.0790728796005249,0.0566525965690614,0.9859441142201402
6.499680420956996,-0.105539342308044,0.0023577844619751,0.12371314344406101,0.9859441142201402
6.500286114476076,-0.13906961574554402,-0.165293582725525,0.315314705944061,0.9859441142201402
6.5008918079951545,-0.0696140493392944,-0.0742828405380249,0.0590476161003114,0.9859441142201402
6.501497501514234,0.0788771615982056,0.0095428430557251,0.0734177332878114,0.9859441142201402
6.502103195033313,-0.23966043605804402,-0.162898563194275,0.109343026256561,0.9859441142201402
6.502708888552393,-0.036083775901794395,-0.124578250694275,-0.00322289171218863,0.9859441142201402
6.503314582071472,0.0860622201919556,0.0095428430557251,0.185983651256561,0.9859441142201402
6.503920275590551,-0.0648240102767944,0.0095428430557251,0.190773690319061,0.9859441142201402
6.504525969109631,-0.15343973293304403,-0.08146789913177489,0.130898202037811,0.9859441142201402
6.505131662628711,-0.297140904808044,-0.0982330358505249,-0.10860375108718899,0.9859441142201402
6.505737356147789,0.0621120248794556,-0.131763309288025,0.0758127528190614,0.9859441142201402
6.506343049666869,-0.17020486965179402,-0.213193973350525,0.693727791881561,0.9859441142201402
6.506948743185948,-0.0480588735580444,-0.0215924108505249,0.736838143444061,0.9859441142201402
6.5075544367050275,0.313589075660706,-0.0599127233505249,0.360820077037811,0.9859441142201402
6.508160130224107,-0.00973856105804442,-0.0455426061630249,0.0758127528190614,0.9859441142201402
6.508765823743186,-0.14385965480804402,-0.213193973350525,0.17879859266281098,0.9859441142201402
6.509371517262265,0.0142116342544556,-0.167688602256775,0.185983651256561,0.9859441142201402
6.509977210781345,0.054926966285705606,0.186774288368225,0.12371314344406101,0.9859441142201402
6.510582904300424,0.0285817514419556,-0.009617313194274899,0.0207273036003114,0.9859441142201402
6.511188597819503,-0.0217136587142944,-0.0120123327255249,0.157243416881561,0.9859441142201402
6.511794291338584,-0.0121335805892944,-0.112603153038025,-0.0607033604621886,0.9859441142201402
6.512399984857662,-0.246845494651794,0.102948604774475,0.200353768444061,0.9859441142201402
6.513005678376741,-0.349831334495544,-0.009617313194274899,0.45183081922531104,0.9859441142201402
6.513611371895822,0.0405568490982056,-0.215588992881775,0.269809334850311,0.9859441142201402
6.5142170654149005,0.0836672006607056,0.0598382532119751,0.111738045787811,0.9859441142201402
6.514822758933979,-0.036083775901794395,-0.275464481163025,-0.0607033604621886,0.9859441142201402
6.515428452453059,0.0118166147232056,-0.103023074913025,0.14766333875656099,0.9859441142201402
6.516034145972139,-0.0552439321517944,-0.0048272741317749,0.219513924694061,0.9859441142201402
6.5166398394912175,-0.0672190298080444,-0.0024322546005249,0.260229256725311,0.9859441142201402
6.517245533010297,-0.0720090688705444,-0.0623077428817749,0.039887459850311405,0.9859441142201402
6.517851226529376,0.21539327487945598,-0.146133426475525,0.22430396375656098,0.9859441142201402
6.518456920048456,0.0333717905044556,-0.0431475866317749,0.30333960828781104,0.9859441142201402
6.519062613567535,-0.0839841665267944,0.136478878211975,0.339264901256561,0.9859441142201402
6.519668307086614,0.15551778659820598,-0.155713504600525,0.415905526256561,0.9859441142201402
6.520274000605693,0.12917257175445598,-0.0479376256942749,-0.00801293077468863,0.9859441142201402
6.5208796941247735,0.167492884254456,0.0622332727432251,0.300944588756561,0.9859441142201402
6.521485387643852,0.00463155612945558,0.0646282922744751,0.360820077037811,0.9859441142201402
6.522091081162932,-0.22529031887054402,-0.028777469444274898,0.185983651256561,0.9859441142201402
6.522696774682011,-0.000158482933044421,-0.158108524131775,0.317709725475311,0.9859441142201402
6.5233024682010905,0.052531946754455605,0.0885784875869751,0.18358863172531098,0.9859441142201402
6.52390816172017,0.07408712253570561,-0.170083621788025,0.0806027918815614,0.9859441142201402
6.524513855239249,0.07169210300445561,-0.0862579381942749,0.13808326063156098,0.9859441142201402
6.525119548758328,0.0285817514419556,-0.208403934288025,-0.07028343858718859,0.9859441142201402
6.525725242277408,-0.0576389516830444,-0.146133426475525,0.0590476161003114,0.9859441142201402
6.526330935796487,-0.0456638540267944,0.0837884485244751,0.118923104381561,0.9859441142201402
6.526936629315566,-0.0887742055892944,0.016727901649475102,0.126108162975311,0.9859441142201402
6.5275423228346465,0.100432337379456,-0.0623077428817749,0.288969491100311,0.9859441142201402
6.528148016353725,0.11001241550445601,-0.122183231163025,0.109343026256561,0.9859441142201402
6.528753709872804,-0.158229771995544,-0.105418094444275,0.16442847547531098,0.9859441142201402
6.529359403391885,0.308799036598206,0.0861834680557251,0.22909400281906098,0.9859441142201402
6.5299650969109635,-0.043268834495544396,0.0694183313369751,0.17400855360031098,0.9859441142201402
6.530570790430042,-0.191760045433044,-0.179663699913025,0.358425057506561,0.9859441142201402
6.531176483949122,-0.112724400901794,-0.112603153038025,0.16442847547531098,0.9859441142201402
6.531782177468202,-0.0169236196517944,-0.122183231163025,0.12850318250656098,0.9859441142201402
6.5323878709872805,-0.22050027980804401,-0.136553348350525,0.130898202037811,0.9859441142201402
6.53299356450636,-0.105539342308044,-0.26348938350677503,-0.0415432042121886,0.9859441142201402
6.533599258025439,0.054926966285705606,-0.155713504600525,0.109343026256561,0.9859441142201402
6.534204951544519,-0.00973856105804442,-0.0144073522567749,-0.206799551868439,0.9859441142201402
6.534810645063598,0.344724329566956,-0.0551226842880249,0.49254615125656104,0.9859441142201402
6.535416338582677,0.241738489723206,0.0287029993057251,0.40153540906906104,0.9859441142201402
6.536022032101756,0.07169210300445561,-0.105418094444275,-0.302600333118439,0.9859441142201402
6.5366277256208365,0.050136927223205605,-0.0144073522567749,0.480571053600311,0.9859441142201402
6.537233419139915,0.06450704441070561,0.0023577844619751,0.43267066297531104,0.9859441142201402
6.537839112658994,-0.0480588735580444,-0.0431475866317749,0.329684823131561,0.9859441142201402
6.538444806178074,-0.062428990745544394,-0.112603153038025,0.399140389537811,0.9859441142201402
6.5390504996971535,-0.0528489126205444,-0.134158328819275,0.250649178600311,0.9859441142201402
6.539656193216233,-0.0480588735580444,0.129293819618225,0.162033455944061,0.9859441142201402
6.540261886735312,-0.062428990745544394,-0.08146789913177489,0.154848397350311,0.9859441142201402
6.540867580254392,-0.155834752464294,-0.0647027624130249,0.035097420787811404,0.9859441142201402
6.541473273773471,-0.136674596214294,-0.124578250694275,0.116528084850311,0.9859441142201402
6.54207896729255,-0.19415506496429402,-0.265884403038025,0.276994393444061,0.9859441142201402
6.542684660811629,0.00463155612945558,-0.122183231163025,-0.0607033604621886,0.9859441142201402
6.5432903543307095,0.050136927223205605,-0.0383575475692749,0.0782077723503114,0.9859441142201402
6.543896047849788,0.13396261081695598,-0.0048272741317749,0.16442847547531098,0.9859441142201402
6.544501741368867,0.0764821420669556,-0.126973270225525,0.037492440319061404,0.9859441142201402
6.545107434887948,0.0333717905044556,-0.0551226842880249,0.0111472254753114,0.9859441142201402
6.5457131284070265,0.16509786472320598,0.143663936805725,0.16442847547531098,0.9859441142201402
6.546318821926105,-0.0959592641830444,-0.0144073522567749,0.104552987194061,0.9859441142201402
6.546924515445185,0.0261867319107056,-0.0191973913192749,0.0662326746940614,0.9859441142201402
6.547530208964265,0.0453468881607056,0.0837884485244751,-0.0199880284309386,0.9859441142201402
6.548135902483343,-0.263610631370544,0.0478631555557251,-0.0966286534309386,0.9859441142201402
6.548741596002423,-0.0288987173080444,-0.0527276647567749,-0.053518301868438596,0.9859441142201402
6.549347289521502,-0.131884557151794,-0.0862579381942749,0.19795874891281098,0.9859441142201402
6.549952983040582,-0.119909459495544,-0.0838629186630249,-0.00801293077468863,0.9859441142201402
6.550558676559661,0.14593770847320597,-0.131763309288025,0.030307381725311403,0.9859441142201402
6.55116437007874,-0.0576389516830444,-0.167688602256775,0.116528084850311,0.9859441142201402
6.55177006359782,-0.0552439321517944,-0.277859500694275,-0.21158959093093901,0.9859441142201402
6.5523757571168995,0.0453468881607056,-0.134158328819275,-0.0104079503059386,0.9859441142201402
6.552981450635978,0.100432337379456,-0.0742828405380249,0.0111472254753114,0.9859441142201402
6.553587144155058,0.177072962379456,-0.0479376256942749,-0.015197989368438601,0.9859441142201402
6.554192837674138,-0.000158482933044421,-0.0311724889755249,0.22909400281906098,0.9859441142201402
6.554798531193216,0.23455343112945598,0.126898800086975,0.16442847547531098,0.9859441142201402
6.555404224712296,-0.06003397121429439,0.0095428430557251,0.027912362194061402,0.9859441142201402
6.556009918231375,-0.18936502590179402,0.0334930383682251,0.23388404188156098,0.9859441142201402
6.556615611750455,0.385439661598206,-0.198823856163025,0.308129647350311,0.9859441142201402
6.557221305269534,0.0621120248794556,-0.244329227256775,-0.139739004993439,0.9859441142201402
6.557826998788613,-0.18457498683929402,0.0933685266494751,-0.0846535557746886,0.9859441142201402
6.558432692307692,-0.22050027980804401,-0.0120123327255249,0.19316870985031098,0.9859441142201402
6.5590383858267725,-0.172599889183044,-0.0790728796005249,0.152453377819061,0.9859441142201402
6.559644079345851,-0.033688756370544394,-0.136553348350525,0.181193612194061,0.9859441142201402
6.56024977286493,0.00942159519195558,0.0622332727432251,0.150058358287811,0.9859441142201402
6.560855466384011,-0.0217136587142944,-0.0718878210067749,0.104552987194061,0.9859441142201402
6.561461159903089,-0.0696140493392944,0.0191229211807251,0.135688241100311,0.9859441142201402
6.562066853422168,-0.18457498683929402,0.0143328821182251,0.157243416881561,0.9859441142201402
6.562672546941248,-0.0265036977767944,-0.232354129600525,0.030307381725311403,0.9859441142201402
6.563278240460328,0.0357668100357056,-0.009617313194274899,0.116528084850311,0.9859441142201402
6.563883933979406,-0.0744040884017944,0.0550482141494751,0.171613534069061,0.9859441142201402
6.564489627498486,0.0357668100357056,-0.0670977819442749,0.0327024012565614,0.9859441142201402
6.565095321017565,0.0621120248794556,-0.28983459835052505,0.5452365809440609,0.9859441142201402
6.565701014536645,0.0429518686294556,-0.0479376256942749,0.027912362194061402,0.6272180971321742
6.566306708055724,-0.0911692251205444,-0.0766778600692749,0.154848397350311,0.6272180971321742
6.566912401574803,0.102827356910706,-0.203613895225525,0.631457284069061,0.6272180971321742
6.567518095093883,-0.0193186391830444,0.0071478235244751,-0.19003441514968902,0.6272180971321742
6.568123788612962,-0.0049485219955444195,0.0215179407119751,-0.0726784581184386,0.6272180971321742
6.568729482132041,0.00942159519195558,-0.179663699913025,0.16442847547531098,0.6272180971321742
6.569335175651121,-0.0217136587142944,-0.30420471553802503,-0.10860375108718899,0.6272180971321742
6.569940869170201,-0.033688756370544394,-0.0168023717880249,-0.07028343858718859,0.6272180971321742
6.570546562689279,-0.196550084495544,-0.0527276647567749,0.32249976453781104,0.6272180971321742
6.571152256208359,-0.00734354152679442,-0.028777469444274898,0.20274878797531098,0.6272180971321742
6.571757949727438,0.057321985816955606,0.011937862586975101,0.171613534069061,0.6272180971321742
6.572363643246518,0.253713587379456,-0.0718878210067749,0.205143807506561,0.6272180971321742
6.572969336765597,-0.0265036977767944,0.143663936805725,0.102157967662811,0.6272180971321742
6.573575030284676,0.0956422983169556,0.0406780969619751,0.14766333875656099,0.6272180971321742
6.574180723803755,0.0788771615982056,-0.206008914756775,0.365610116100311,0.6272180971321742
6.574786417322835,-0.0696140493392944,-0.105418094444275,-0.0990236729621886,0.6272180971321742
6.575392110841914,0.100432337379456,0.0526531946182251,0.104552987194061,0.6272180971321742
6.575997804360993,-0.151044713401794,-0.0311724889755249,0.305734627819061,0.6272180971321742
6.576603497880074,-0.105539342308044,-0.119788211631775,0.12131812391281101,0.6272180971321742
6.577209191399152,0.157912806129456,-0.0934429967880249,0.0207273036003114,0.6272180971321742
6.577814884918231,0.05971700534820561,-0.124578250694275,0.269809334850311,0.6272180971321742
6.578420578437311,-0.122304479026794,-0.0024322546005249,0.181193612194061,0.6272180971321742
6.579026271956391,-0.20373514308929402,0.129293819618225,0.037492440319061404,0.6272180971321742
6.579631965475469,-0.0456638540267944,-0.0742828405380249,0.17879859266281098,0.6272180971321742
6.580237658994549,0.131567591285706,-0.220379031944275,0.140478280162811,0.6272180971321742
6.580843352513629,-0.036083775901794395,-0.198823856163025,0.17879859266281098,0.6272180971321742
6.5814490460327075,0.054926966285705606,0.0263079797744751,0.0518625575065614,0.6272180971321742
6.582054739551787,-0.00734354152679442,-0.0239874303817749,0.22909400281906098,0.6272180971321742
6.582660433070866,-0.0217136587142944,-0.148528446006775,0.0734177332878114,0.6272180971321742
6.583266126589946,-0.0911692251205444,-0.0886529577255249,0.12131812391281101,0.6272180971321742
6.583871820109025,-0.13427957668304402,-0.0718878210067749,0.0111472254753114,0.6272180971321742
6.584477513628104,0.270478724098206,-0.196428836631775,0.0758127528190614,0.6272180971321742
6.585083207147184,0.0381618295669556,-0.158108524131775,0.0542575770378114,0.6272180971321742
6.585688900666264,0.117197474098206,0.0550482141494751,0.111738045787811,0.6272180971321742
6.586294594185342,0.054926966285705606,-0.0575177038192749,0.037492440319061404,0.6272180971321742
6.586900287704422,0.0285817514419556,0.0646282922744751,0.0662326746940614,0.6272180971321742
6.587505981223501,0.0333717905044556,-0.143738406944275,0.22909400281906098,0.6272180971321742
6.5881116747425805,-0.062428990745544394,-0.035962528038024896,-0.0630983799934386,0.6272180971321742
6.58871736826166,0.117197474098206,0.0861834680557251,0.0542575770378114,0.6272180971321742
6.589323061780739,-0.0720090688705444,-0.165293582725525,0.17879859266281098,0.6272180971321742
6.589928755299818,-0.103144322776794,0.004752803993225099,-0.051123282337188596,0.6272180971321742
6.590534448818898,-0.287560826683044,0.0454681360244751,0.0829978114128114,0.6272180971321742
6.591140142337977,0.0333717905044556,0.0957635461807251,0.0710227137565614,0.6272180971321742
6.591745835857056,-0.00255350246429442,-0.0718878210067749,0.0111472254753114,0.6272180971321742
6.5923515293761366,-0.0815891469955444,-0.0239874303817749,0.0949729090690614,0.6272180971321742
6.592957222895215,0.07408712253570561,-0.0910479772567749,0.12850318250656098,0.6272180971321742
6.593562916414294,-0.0217136587142944,0.0334930383682251,0.0734177332878114,0.6272180971321742
6.594168609933375,-0.263610631370544,0.208329464149475,0.12371314344406101,0.6272180971321742
6.5947743034524535,-0.0744040884017944,0.0550482141494751,0.17879859266281098,0.6272180971321742
6.595379996971532,0.126777552223206,-0.0335675085067749,0.499731209850311,0.6272180971321742
6.595985690490612,-0.00973856105804442,0.107738643836975,0.45183081922531104,0.6272180971321742
6.596591384009692,0.141147669410706,-3.72350692748983e-05,0.475781014537811,0.6272180971321742
6.5971970775287705,-0.122304479026794,-0.119788211631775,0.358425057506561,0.6272180971321742
6.59780277104785,0.11240743503570601,0.0191229211807251,-0.015197989368438601,0.6272180971321742
6.598408464566929,0.06690206394195561,-0.234749149131775,0.159638436412811,0.6272180971321742
6.599014158086009,-0.277980748558044,-0.232354129600525,-0.0607033604621886,0.6272180971321742
6.599619851605088,-0.0217136587142944,0.0382830774307251,-0.0128029698371886,0.6272180971321742
6.600225545124167,0.054926966285705606,-0.158108524131775,0.135688241100311,0.6272180971321742
6.600831238643246,0.25610860691070597,-0.160503543663025,0.0470725184440614,0.6272180971321742
6.6014369321623265,-0.040873814964294396,0.102948604774475,0.16442847547531098,0.6272180971321742
6.602042625681405,-0.0456638540267944,0.0023577844619751,0.0734177332878114,0.6272180971321742
6.602648319200485,-0.043268834495544396,0.0478631555557251,-0.00322289171218863,0.6272180971321742
6.603254012719564,-0.112724400901794,0.0861834680557251,0.17400855360031098,0.6272180971321742
6.6038597062386435,0.153122767066956,-0.0311724889755249,0.145268319225311,0.6272180971321742
6.604465399757723,0.0190016733169556,-0.189243778038025,0.152453377819061,0.6272180971321742
6.605071093276802,-0.0839841665267944,-0.0263824499130249,0.135688241100311,0.6272180971321742
6.605676786795881,0.0309767709732056,0.0885784875869751,-0.0223830479621886,0.6272180971321742
6.606282480314961,0.0213966928482056,-0.0120123327255249,0.0734177332878114,0.6272180971321742
6.60688817383404,-0.15343973293304403,0.0334930383682251,0.166823495006561,0.6272180971321742
6.607493867353119,-0.0815891469955444,-0.0191973913192749,0.171613534069061,0.6272180971321742
6.6080995608721995,-0.0169236196517944,-0.107813113975525,0.30333960828781104,0.6272180971321742
6.608705254391278,-0.0265036977767944,0.0550482141494751,0.336869881725311,0.6272180971321742
6.609310947910357,-0.0552439321517944,-0.179663699913025,0.20274878797531098,0.6272180971321742
6.609916641429438,-0.0576389516830444,-0.0670977819442749,0.0231223231315614,0.6272180971321742
6.6105223349485165,-0.340251256370544,-0.153318485069275,0.269809334850311,0.6272180971321742
6.611128028467595,-0.112724400901794,-0.117393192100525,-0.0774684971809386,0.6272180971321742
6.611733721986675,0.0166066537857056,0.0143328821182251,0.0422824793815614,0.6272180971321742
6.612339415505755,0.143542688941956,-0.165293582725525,0.118923104381561,0.6272180971321742
6.6129451090248335,0.06929708347320561,0.004752803993225099,0.19316870985031098,0.6272180971321742
6.613550802543913,-0.30193094387054403,0.0694183313369751,0.33447486219406103,0.6272180971321742
6.614156496062992,-0.105539342308044,0.136478878211975,-0.00801293077468863,0.6272180971321742
6.614762189582072,-0.0241086782455444,0.0358880578994751,0.30333960828781104,0.6272180971321742
6.615367883101151,-0.112724400901794,0.160429073524475,0.384770272350311,0.6272180971321742
6.61597357662023,0.11001241550445601,0.0646282922744751,0.181193612194061,0.6272180971321742
6.61657927013931,-0.00734354152679442,0.016727901649475102,0.126108162975311,0.6272180971321742
6.6171849636583895,-0.0648240102767944,0.0837884485244751,0.118923104381561,0.6272180971321742
6.617790657177468,0.0190016733169556,-0.0862579381942749,-0.192429434680939,0.6272180971321742
6.618396350696547,0.0405568490982056,-0.220379031944275,0.145268319225311,0.6272180971321742
6.619002044215627,0.0381618295669556,-0.0263824499130249,0.24346412000656098,0.6272180971321742
6.6196077377347065,-0.107934361839294,0.203539425086975,-0.027173087024688597,0.6272180971321742
6.620213431253786,-0.0312937368392944,-0.100628055381775,0.20274878797531098,0.6272180971321742
6.620819124772865,-0.062428990745544394,-0.186848758506775,0.27220435438156104,0.6272180971321742
6.621424818291945,-0.201340123558044,-0.0958380163192749,0.157243416881561,0.6272180971321742
6.622030511811024,-0.0720090688705444,-0.0120123327255249,0.145268319225311,0.6272180971321742
6.622636205330103,0.11240743503570601,-0.0335675085067749,0.300944588756561,0.6272180971321742
6.623241898849182,-0.14864969387054403,-0.0623077428817749,0.171613534069061,0.6272180971321742
6.6238475923682625,0.00702657566070558,-0.122183231163025,0.415905526256561,0.6272180971321742
6.624453285887341,-0.0528489126205444,-0.0263824499130249,0.126108162975311,0.6272180971321742
6.62505897940642,-0.18457498683929402,0.0789984094619751,0.0853928309440614,0.6272180971321742
6.625664672925501,0.06450704441070561,-0.0168023717880249,0.126108162975311,0.6272180971321742
6.6262703664445795,-0.16062479152679401,-0.0766778600692749,0.154848397350311,0.6272180971321742
6.626876059963658,-0.122304479026794,-0.0120123327255249,0.698517830944061,0.6272180971321742
6.627481753482738,0.06690206394195561,0.0574432336807251,0.150058358287811,0.6272180971321742
6.628087447001818,-0.12948953762054402,-0.0024322546005249,0.150058358287811,0.6272180971321742
