Time (s),Accel X (m/s^2),Accel Y (m/s^2),Accel Z (m/s^2)
5.612375,0.016742215633392402,0.191094491958618,-0.23620814638137902
5.612981060606061,-0.165279268741608,0.0258381443023682,0.130229841899871
5.613587121212121,0.208343778133392,-0.110677968978882,0.0296390215873713
5.614193181818182,-0.170069307804108,0.231809823989868,0.190105330181121
5.614799242424242,-0.265870089054108,0.0210481052398682,0.314646345806121
5.615405303030303,-0.0766635460853576,-0.163368398666382,0.22842564268112098
5.616011363636364,0.00955715703964236,-0.0029020900726318397,0.230820662212371
5.616617424242424,0.14607327032089198,0.11205884742736799,0.11825474424362101
5.617223484848485,-0.0814535851478576,-0.010087148666381801,0.206870466899871
5.617829545454546,0.062247586727142395,-0.141813222885132,0.211660505962371
5.618435606060606,-0.308980440616608,-0.347784902572632,0.0272440020561213
5.619041666666667,-0.0790585656166076,0.0426032810211182,-0.138012345600129
5.619647727272727,0.0287173132896424,-0.23521898460388202,0.13262486143112098
5.620253787878788,-0.182044405460358,-0.319044668197632,-0.152382462787629
5.620859848484849,0.0502724890708924,0.0785285739898682,-0.11645716981887899
5.621465909090909,0.167628446102142,-0.28311937522888203,0.151785017681121
5.62207196969697,-0.0479233117103576,-0.0364323635101318,0.432002302837371
5.622678030303031,-0.234734835147858,-0.249589101791382,-0.0972970135688787
5.623284090909091,0.0957778601646424,-0.08193773460388179,-0.0422115643501287
5.623890151515152,-0.184439424991608,-0.115468008041382,0.5182230059623709
5.624496212121212,-0.0958237023353576,-0.297489492416382,0.0703543536186213
5.625102272727273,0.0143471961021424,-0.005297109603881841,-0.0206563885688787
5.625708333333334,0.11014797735214199,-0.137023183822632,-0.0038912518501286503
5.626314393939394,0.0119521765708924,-0.0124821681976318,0.108674666118621
5.626920454545455,-0.0359482140541076,0.0402082614898682,0.156575056743621
5.627526515151516,0.14607327032089198,-0.0172722072601318,0.058379255962371306
5.628132575757576,-0.261080049991608,0.124033945083618,0.180525252056121
5.628738636363637,0.0933828406333924,0.0282331638336182,0.106279646587371
5.629344696969697,-0.0455282921791076,-0.07714769554138179,0.156575056743621
5.629950757575758,-0.0886386437416076,0.186304452896118,0.190105330181121
5.630556818181819,-0.138934053897858,-0.050802480697631804,0.223635603618621
5.631162878787879,-0.330535616397858,0.030628183364868198,0.12304478330612101
5.63176893939394,-0.0407382531166076,0.136009042739868,0.23800572080612098
5.632375,-0.14851413202285801,-0.0148771877288818,0.103884627056121
5.632981060606061,-0.0862436242103576,0.0066779880523681594,-0.0541866620063787
5.633587121212122,-0.026368135929107597,-0.223243886947632,0.11825474424362101
5.634193181818182,-0.0910336632728576,-0.132233144760132,-0.0302364666938787
5.634799242424243,-0.330535616397858,-0.09391283226013179,0.216450545024871
5.6354053030303035,-0.189229464054108,-0.0987028713226318,-0.0422115643501287
5.636011363636364,0.124518094539642,-0.09391283226013179,0.156575056743621
5.6366174242424245,0.265824246883392,-0.117863027572632,0.17813023252487098
5.637223484848485,0.06703762578964241,-0.0124821681976318,0.051194197368621304
5.6378295454545455,-0.11737887811660801,-0.223243886947632,0.22842564268112098
5.6384356060606065,0.0406924109458924,0.09289869117736821,-0.039816544818878696
5.6390416666666665,-0.182044405460358,0.253364999771118,0.199685408306121
5.6396477272727275,0.11733303594589199,0.030628183364868198,-0.0541866620063787
5.640253787878788,0.016742215633392402,-0.0340373439788818,0.139809920024871
5.6408598484848484,0.016742215633392402,-0.204083730697632,0.369731795024871
5.641465909090909,-0.0742685265541076,-0.08912279319763179,0.0344290606498713
5.6420719696969694,-2.29210853576388e-05,-0.010087148666381801,0.185315291118621
5.64267803030303,-0.141329073429108,0.09529371070861821,0.115859724712371
5.643284090909091,-0.194019503116608,0.0234431247711182,-0.0302364666938787
5.643890151515151,0.035902371883392396,-0.0987028713226318,-0.07574183778762869
5.644496212121212,-0.22275973749160802,-0.309464590072632,0.19250034971237098
5.645102272727272,-0.0359482140541076,-0.201688711166382,-0.058976701068878694
5.645708333333333,-0.0694784874916076,-0.103492910385132,0.032034041118621306
5.646314393939394,0.294564481258392,0.0449983005523682,0.106279646587371
5.646920454545454,0.10296291875839199,-0.010087148666381801,0.0008987872123713469
5.647526515151515,0.07182766485214241,-0.17534349632263202,0.230820662212371
5.648132575757576,-0.06708346796035759,-0.0987028713226318,0.051194197368621304
5.648738636363636,-0.141329073429108,0.0521833591461182,0.0272440020561213
5.649344696969697,-0.011998018741607601,-0.0364323635101318,0.0104788653373713
5.649950757575758,-0.0431332726478576,-0.010087148666381801,-0.0685567791938787
5.650556818181818,-0.0790585656166076,-0.029247304916381802,0.19729038877487098
5.651162878787879,-0.39520114374160803,-0.163368398666382,0.060774275493621306
5.651768939393939,-0.0766635460853576,0.152774179458618,-0.17154261903762902
5.652375,-0.0431332726478576,0.0066779880523681594,0.5158279864311209
5.652981060606061,-0.0215780968666076,-0.00769212913513184,0.0248489825248713
5.653587121212121,0.0790127234458924,0.0809235935211182,0.549358259868621
5.654193181818182,-0.057503389835357605,0.00907300758361816,0.724194685649871
5.654799242424242,-0.239524874210358,0.00188794898986816,0.0200589434623713
5.655405303030303,-0.126958956241608,-0.115468008041382,0.18292027158737098
5.656011363636364,0.10535793828964199,-0.137023183822632,0.151785017681121
5.656617424242424,-0.143724092960358,0.0114680271148682,0.5349881426811209
5.657223484848485,-0.15809421014785802,0.0234431247711182,0.194895369243621
5.657829545454546,0.0454824500083924,-0.0627775783538818,0.190105330181121
5.658435606060606,-0.0479233117103576,-0.15139330101013201,0.293091170024871
5.659041666666667,-0.0311581749916076,-0.115468008041382,0.09669956846237131
5.659647727272727,0.15086330938339199,-0.005297109603881841,0.005688826274871351
5.660253787878788,-0.0167880578041076,-0.08912279319763179,0.113464705181121
5.660859848484849,-0.0718735070228576,-0.0412224025726318,0.321831404399871
5.661465909090909,-0.0934286828041076,-0.029247304916381802,0.0104788653373713
5.66207196969697,0.0478774695396424,-0.139418203353882,0.14220493955612099
5.662678030303031,-0.0143930382728576,-0.12265306663513201,0.0440091387748713
5.663284090909091,-0.17725436639785802,-0.316649648666382,-0.037421525287628696
5.663890151515152,0.20594875860214198,0.0545783786773682,0.0847244708061213
5.664496212121212,0.06943264532089241,-0.232823965072632,0.09430454893112131
5.665102272727273,-0.268265108585358,-0.15139330101013201,0.0416141192436213
5.665708333333334,-0.23233981561660802,-0.103492910385132,-0.058976701068878694
5.666314393939394,-0.16767428827285802,0.0330232028961182,0.156575056743621
5.666920454545455,-0.00481296014785764,0.246179941177368,0.12304478330612101
5.667526515151516,-0.0910336632728576,-0.192108633041382,0.111069685649871
5.668132575757576,-0.194019503116608,-0.0531975002288818,-0.0493966229438787
5.668738636363637,-0.28503024530410803,-0.06756761741638179,0.194895369243621
5.669344696969697,0.21073879766464199,-0.06996263694763179,0.14220493955612099
5.669950757575758,-0.0335531945228576,-0.125048086166382,0.0104788653373713
5.670556818181819,-0.00241794061660764,-0.144208242416382,0.156575056743621
5.671162878787879,0.134098172664642,0.09529371070861821,0.135019880962371
5.67176893939394,0.177208524227142,0.0234431247711182,0.240400740337371
5.672375,0.273009305477142,-0.0531975002288818,-0.0230514081001287
5.672981060606061,-0.21317965936660802,-0.010087148666381801,0.108674666118621
5.673587121212122,0.14128323125839198,-0.0172722072601318,0.12304478330612101
5.674193181818182,-0.0191830773353576,-0.16097337913513202,-0.07813685731887869
5.674799242424243,0.0430874304771424,-0.00769212913513184,-0.0877169354438787
5.6754053030303035,-0.136539034366608,0.14798414039611799,0.09909458799362131
5.676011363636364,-0.00241794061660764,-0.06996263694763179,0.09430454893112131
5.6766174242424245,0.215528836727142,-0.125048086166382,0.09909458799362131
5.677223484848485,-2.29210853576388e-05,-0.00769212913513184,0.051194197368621304
5.6778295454545455,0.0430874304771424,0.0617634372711182,0.0368240801811213
5.6784356060606065,0.0814077429771424,-0.213663808822632,0.058379255962371306
5.6790416666666665,0.06464260625839241,0.030628183364868198,0.0224539629936213
5.6796477272727275,-0.059898409366607605,0.00188794898986816,0.271535994243621
5.680253787878788,0.059852567195892395,-0.242404043197632,0.180525252056121
5.6808598484848485,-0.011998018741607601,0.00188794898986816,0.130229841899871
5.681465909090909,-0.0072079796791076406,-0.0029020900726318397,0.199685408306121
5.6820719696969695,-0.0790585656166076,-0.101097890853882,-0.07574183778762869
5.68267803030303,-0.179649385929108,-0.09151781272888179,-0.238603165912629
5.683284090909091,-0.06468844842910759,-0.0987028713226318,0.166155134868621
5.683890151515151,-0.165279268741608,-0.0029020900726318397,0.309856306743621
5.684496212121212,0.0526675086021424,0.0330232028961182,0.13262486143112098
5.685102272727272,-0.0742685265541076,-0.08193773460388179,0.206870466899871
5.685708333333333,-0.011998018741607601,-0.09391283226013179,0.0655643145561213
5.686314393939394,0.129308133602142,-0.029247304916381802,0.11825474424362101
5.686920454545454,-0.0359482140541076,0.09529371070861821,0.127834822368621
5.687526515151515,-0.0383432335853576,-0.103492910385132,0.17813023252487098
5.688132575757576,-0.059898409366607605,-0.137023183822632,0.23321568174362098
5.688738636363636,-0.06708346796035759,0.0330232028961182,0.127834822368621
5.689344696969697,-0.107798799991608,-0.09391283226013179,0.26674595518112104
5.689950757575757,0.06703762578964241,-0.12025804710388201,-0.0541866620063787
5.690556818181818,0.0957778601646424,-0.271144277572632,0.211660505962371
5.691162878787879,-0.0143930382728576,0.13840406227111798,0.111069685649871
5.691768939393939,-0.0622934288978576,-0.07235765647888179,0.0871194903373713
5.692375,-0.0766635460853576,-0.0651725978851318,0.240400740337371
5.692981060606061,-0.057503389835357605,0.00907300758361816,0.180525252056121
5.693587121212121,-0.17246432733535802,0.00428296852111816,0.355361677837371
5.694193181818182,-0.16288424921035802,0.0761335544586182,0.283511091899871
5.694799242424242,-0.170069307804108,-0.177738515853882,0.106279646587371
5.695405303030303,0.143678250789642,-0.0172722072601318,0.12304478330612101
5.696011363636364,0.10056789922714199,-0.309464590072632,0.0775394122123713
5.696617424242424,0.0406924109458924,-0.0555925197601318,-0.0038912518501286503
5.697223484848485,0.07182766485214241,-0.07714769554138179,0.29788120908737103
5.697829545454545,-0.12216891717910801,-0.17534349632263202,0.206870466899871
5.698435606060606,0.00955715703964236,0.0593684177398682,-0.0901119549751287
5.699041666666667,-0.160489229679108,-0.15618334007263202,0.111069685649871
5.699647727272727,0.12691311407089198,-0.0220622463226318,0.470322615337371
5.700253787878788,-0.06708346796035759,0.0234431247711182,0.204475447368621
5.700859848484849,-0.165279268741608,0.174329355239868,-0.202677872943879
5.701465909090909,-0.0311581749916076,0.09529371070861821,0.14220493955612099
5.70207196969697,-0.143724092960358,-0.06756761741638179,0.302671248149871
5.70267803030303,-0.136539034366608,-0.139418203353882,0.283511091899871
5.703284090909091,0.0287173132896424,-0.0987028713226318,0.230820662212371
5.703890151515152,0.06703762578964241,0.155169198989868,0.151785017681121
5.704496212121212,-0.129353975772858,-0.029247304916381802,0.115859724712371
5.705102272727273,-0.0072079796791076406,-0.0603825588226318,0.0392190997123713
5.705708333333334,0.10296291875839199,-0.07475267601013179,0.259560896587371
5.706314393939394,0.0502724890708924,-0.00769212913513184,0.18771031064987098
5.706920454545455,-0.0742685265541076,-0.029247304916381802,0.190105330181121
5.707526515151515,0.158048367977142,-0.005297109603881841,0.111069685649871
5.708132575757576,-0.12456393671035801,0.0114680271148682,0.27872105283737103
5.708738636363637,-0.136539034366608,0.181514413833618,-0.0158663495063787
5.709344696969697,-0.356880831241608,-0.0005070705413818431,-0.008681290912628651
5.709950757575758,-0.34490573358535803,-0.249589101791382,0.154180037212371
5.710556818181819,0.0574575476646424,-0.103492910385132,0.0104788653373713
5.711162878787879,-0.191624483585358,-0.0005070705413818431,0.0416141192436213
5.71176893939394,-0.194019503116608,-0.08193773460388179,0.101489607524871
5.712375,-0.191624483585358,-0.0484074611663818,-0.0062862713813786495
5.712981060606061,0.0933828406333924,-0.0364323635101318,-0.26255336122512896
5.713587121212121,-0.182044405460358,-0.125048086166382,0.499062849712371
5.714193181818182,0.0742226843833924,-0.029247304916381802,0.443977400493621
5.714799242424242,-0.0431332726478576,0.00907300758361816,0.19729038877487098
5.715405303030303,-0.06708346796035759,-0.268749258041382,0.0272440020561213
5.7160113636363645,-0.026368135929107597,-0.148998281478882,0.032034041118621306
5.716617424242424,-0.225154757022858,-0.15139330101013201,0.09430454893112131
5.7172234848484855,-0.057503389835357605,-0.08193773460388179,0.26674595518112104
5.717829545454545,-0.14851413202285801,0.00907300758361816,0.240400740337371
5.7184356060606065,-0.0072079796791076406,-0.189713613510132,-0.0470016034126287
5.7190416666666675,-0.14851413202285801,0.11445386695861799,-0.133222306537629
5.7196477272727275,-0.0742685265541076,-0.148998281478882,-0.209862931537629
5.7202537878787885,-0.055108370304107604,-0.15139330101013201,0.111069685649871
5.7208598484848485,-2.29210853576388e-05,-0.0340373439788818,0.175735212993621
5.7214659090909095,-0.0958237023353576,-0.192108633041382,0.199685408306121
5.72207196969697,0.0933828406333924,-0.00769212913513184,-0.008681290912628651
5.7226780303030305,0.282589383602142,-0.08912279319763179,0.26914097471237103
5.723284090909091,-0.20838962030410801,-0.29269945335388203,0.149389998149871
5.723890151515152,-0.0910336632728576,-0.266354238510132,-0.164357560443879
5.724496212121212,-0.114983858585358,-0.115468008041382,0.0919095293998713
5.725102272727273,-0.0862436242103576,-0.0148771877288818,0.245190779399871
5.725708333333333,-0.184439424991608,-0.0963078517913818,0.175735212993621
5.726314393939394,-0.0167880578041076,-0.0627775783538818,0.17813023252487098
5.726920454545455,-0.0191830773353576,-0.105887929916382,0.0416141192436213
5.727526515151515,-0.107798799991608,-0.189713613510132,0.144599959087371
5.728132575757576,0.06943264532089241,-0.0651725978851318,-0.0158663495063787
5.728738636363636,-0.17725436639785802,-0.09391283226013179,-0.16675257997512902
5.729344696969697,0.229898953914642,-0.278329336166382,0.127834822368621
5.729950757575758,-0.0694784874916076,-0.0172722072601318,-0.058976701068878694
5.730556818181818,0.00955715703964236,-0.137023183822632,-0.0565816815376287
5.731162878787879,-0.0335531945228576,-0.0555925197601318,0.13262486143112098
5.731768939393939,-0.131748995304108,0.0354182224273682,0.106279646587371
5.732375,0.129308133602142,-0.218453847885132,0.0464041583061213
5.732981060606061,-0.287425264835358,-0.0220622463226318,0.154180037212371
5.733587121212121,-0.11737887811660801,0.09289869117736821,0.0679593340873713
5.734193181818182,0.0861977820396424,0.09289869117736821,0.185315291118621
5.734799242424242,-0.280240206241608,-0.0651725978851318,0.209265486431121
5.735405303030303,-0.23712985467910802,-0.17055345726013202,0.19250034971237098
5.736011363636364,0.0406924109458924,-0.0316423244476318,-0.0134713299751287
5.736617424242424,-0.170069307804108,0.0426032810211182,-0.032631486225128695
5.737223484848485,0.13170315313339198,0.09289869117736821,0.19729038877487098
5.737829545454545,-0.15330417108535802,0.0593684177398682,0.0751443926811213
5.738435606060606,-0.33532565546035803,-0.177738515853882,-0.0446065838813787
5.739041666666667,-0.0407382531166076,-0.184923574447632,-0.008681290912628651
5.739647727272727,-0.194019503116608,-0.134628164291382,-0.18112269716262902
5.740253787878788,-0.0335531945228576,-0.113072988510132,0.17334019346237098
5.740859848484848,0.00716213750839236,-0.105887929916382,0.24758579893112098
5.741465909090909,0.244269071102142,-0.08912279319763179,0.18771031064987098
5.74207196969697,0.035902371883392396,0.11445386695861799,0.0344290606498713
5.74267803030303,0.277799344539642,0.212649667739868,0.0464041583061213
5.743284090909091,0.160443387508392,0.19348951148986798,0.0296390215873713
5.743890151515152,-0.0311581749916076,0.10487378883361799,0.154180037212371
5.744496212121212,0.0861977820396424,-0.141813222885132,0.362546736431121
5.745102272727273,-0.028763155460357598,-0.16576341819763202,0.0751443926811213
5.745708333333333,0.220318875789642,-0.127443105697632,0.0344290606498713
5.746314393939394,-0.110193819522858,-0.0627775783538818,0.015268904399871299
5.746920454545455,-0.12456393671035801,-0.0029020900726318397,0.149389998149871
5.747526515151515,-0.0335531945228576,-0.180133535385132,0.261955916118621
5.748132575757576,-0.0622934288978576,-0.0268522853851318,0.09669956846237131
5.748738636363636,0.059852567195892395,-0.0963078517913818,0.24279575986862098
5.749344696969697,0.033507352352142396,-0.196898672103882,0.324226423931121
5.749950757575758,-0.107798799991608,-0.0148771877288818,-0.17154261903762902
5.750556818181818,-0.342510714054108,-0.206478750228882,-0.11645716981887899
5.751162878787879,-0.263475069522858,-0.08672777366638179,0.09430454893112131
5.751768939393939,-0.009602999210357639,0.0569733982086182,-0.173937638568879
5.752375,0.0574575476646424,-0.08672777366638179,0.0775394122123713
5.752981060606061,-0.191624483585358,-0.08912279319763179,0.108674666118621
5.753587121212121,-0.0335531945228576,0.10487378883361799,0.25716587705612104
5.754193181818182,-0.129353975772858,-0.08433275413513179,0.0440091387748713
5.754799242424242,-0.189229464054108,-0.125048086166382,-0.128432267475129
5.755405303030303,0.0215322546958924,-0.08672777366638179,0.372126814556121
5.756011363636365,-0.134144014835358,-0.0005070705413818431,0.0200589434623713
5.756617424242424,0.24666409063339198,-0.0364323635101318,0.0008987872123713469
5.757223484848485,-0.0239731163978576,-0.125048086166382,0.015268904399871299
5.757829545454545,0.00955715703964236,-0.0172722072601318,0.106279646587371
5.758435606060607,0.06703762578964241,-0.249589101791382,0.135019880962371
5.7590416666666675,-0.15330417108535802,0.0210481052398682,-0.16675257997512902
5.759647727272727,-0.0934286828041076,0.0066779880523681594,0.0032938067436213496
5.7602537878787885,-0.134144014835358,-0.256774160385132,0.23800572080612098
5.7608598484848486,0.06464260625839241,-0.237614004135132,-0.0206563885688787
5.7614659090909095,-0.0383432335853576,0.0114680271148682,-0.10448207216262899
5.76207196969697,-0.277845186710358,0.171934335708618,0.166155134868621
5.7626780303030305,-0.182044405460358,-0.208873769760132,0.106279646587371
5.763284090909091,0.265824246883392,-0.0627775783538818,-0.135617326068879
5.763890151515152,-0.0958237023353576,-0.0963078517913818,0.163760115337371
5.764496212121212,0.0143471961021424,-0.17534349632263202,0.015268904399871299
5.765102272727273,0.179603543758392,-0.0412224025726318,-0.152382462787629
5.765708333333333,-0.0694784874916076,-0.12265306663513201,0.300276228618621
5.766314393939394,-0.0479233117103576,-0.134628164291382,0.364941755962371
5.766920454545455,-0.028763155460357598,-0.0579875392913818,0.139809920024871
5.767526515151515,-0.0072079796791076406,-0.144208242416382,0.26914097471237103
5.768132575757576,-0.29461032342910803,-0.029247304916381802,-0.0206563885688787
5.768738636363636,0.0814077429771424,-0.0603825588226318,-0.24099818544387902
5.769344696969697,0.0766177039146424,-0.22084886741638202,0.0655643145561213
5.769950757575758,-0.0910336632728576,-0.0340373439788818,-0.255368302631379
5.770556818181818,0.0790127234458924,-0.182528554916382,0.0416141192436213
5.771162878787879,0.237084012508392,-0.0460124416351318,-0.0925069745063787
5.771768939393939,0.25384914922714197,0.0761335544586182,-0.035026505756378695
5.772375,-0.16767428827285802,-0.0651725978851318,0.19729038877487098
5.772981060606061,-0.0503183312416076,0.030628183364868198,-0.22183802919387902
5.773587121212121,-0.0503183312416076,-0.07954271507263179,0.28830113096237103
5.774193181818182,-0.026368135929107597,-0.08433275413513179,0.846340681743621
5.774799242424242,0.138888211727142,-0.0460124416351318,0.22842564268112098
5.775405303030303,0.10535793828964199,-0.129838125228882,-0.10927211122512899
5.776011363636364,-0.0886386437416076,0.12882398414611798,0.211660505962371
5.776617424242424,-0.103008760929108,0.0354182224273682,0.166155134868621
5.777223484848485,0.134098172664642,-0.125048086166382,0.45595249814987104
5.777829545454545,-0.026368135929107597,-0.0172722072601318,0.26914097471237103
5.778435606060606,-0.134144014835358,-0.0484074611663818,0.0248489825248713
5.779041666666667,-0.16288424921035802,-0.005297109603881841,-0.07813685731887869
5.779647727272727,0.198763700008392,0.0138630466461182,0.13741490049362098
5.780253787878788,0.20115871953964198,0.0234431247711182,0.0128738848686213
5.780859848484848,0.177208524227142,0.016258066177368198,-0.0493966229438787
5.781465909090909,0.10296291875839199,-0.07954271507263179,0.206870466899871
5.78207196969697,-0.210784639835358,0.155169198989868,0.19250034971237098
5.78267803030303,-0.0886386437416076,-0.108282949447632,0.26914097471237103
5.783284090909091,-0.0239731163978576,-0.189713613510132,0.158970076274871
5.783890151515152,-0.057503389835357605,-0.0196672267913818,-0.0254464276313787
5.784496212121212,0.0454824500083924,-0.125048086166382,0.101489607524871
5.785102272727273,0.13649319219589198,-0.07714769554138179,-0.0422115643501287
5.785708333333333,-0.0407382531166076,-0.21126878929138201,0.055984236431121305
5.786314393939394,-2.29210853576388e-05,-0.187318593978882,0.362546736431121
5.786920454545455,-0.0167880578041076,-0.125048086166382,-0.0062862713813786495
5.787526515151515,0.0287173132896424,0.00428296852111816,0.053589216899871304
5.788132575757576,-0.0814535851478576,-0.0603825588226318,0.125439802837371
5.788738636363636,-0.155699190616608,-0.0963078517913818,0.17813023252487098
5.789344696969697,-0.0814535851478576,-0.0148771877288818,-0.0038912518501286503
5.789950757575758,-0.165279268741608,0.08810865211486821,0.14220493955612099
5.790556818181818,-0.06468844842910759,-0.08433275413513179,0.223635603618621
5.791162878787879,-0.304190401554108,-0.204083730697632,0.0200589434623713
5.791768939393939,0.11014797735214199,0.0809235935211182,-0.0901119549751287
5.792375,0.10056789922714199,0.0114680271148682,-0.08053187685012869
5.792981060606061,-0.0407382531166076,-0.15618334007263202,0.060774275493621306
5.793587121212121,-0.0910336632728576,-0.168158437728882,0.0871194903373713
5.794193181818182,-0.136539034366608,0.0210481052398682,0.0344290606498713
5.794799242424242,0.0885928015708924,-0.0963078517913818,0.0487991778373713
5.795405303030303,-0.0191830773353576,-0.163368398666382,0.19729038877487098
5.796011363636364,0.0406924109458924,0.210254648208618,-0.11885218935012899
5.796617424242424,-0.055108370304107604,-0.07714769554138179,0.0727493731498713
5.797223484848485,0.261034207820892,-0.129838125228882,0.350571638774871
5.797829545454545,-0.0455282921791076,-0.139418203353882,0.17334019346237098
5.798435606060606,-0.055108370304107604,-0.189713613510132,0.0895145098686213
5.7990416666666675,-0.129353975772858,-0.00769212913513184,0.055984236431121305
5.799647727272727,0.0023720984458923604,-0.16576341819763202,0.12304478330612101
5.8002537878787885,0.07182766485214241,0.121638925552368,0.135019880962371
5.800859848484848,-0.29461032342910803,-0.005297109603881841,0.0823294512748713
5.8014659090909095,0.11493801641464199,-0.0316423244476318,0.139809920024871
5.8020719696969705,0.031112332820892402,-0.139418203353882,0.032034041118621306
5.8026780303030305,0.0885928015708924,-0.237614004135132,0.106279646587371
5.8032840909090915,-0.0766635460853576,-0.113072988510132,0.214055525493621
5.803890151515152,0.0790127234458924,-0.0388273830413818,0.218845564556121
5.8044962121212125,0.11014797735214199,-0.010087148666381801,0.204475447368621
5.805102272727273,-0.0479233117103576,-0.0987028713226318,-0.0446065838813787
5.8057083333333335,0.11733303594589199,-0.005297109603881841,0.0464041583061213
5.806314393939394,-0.131748995304108,-0.08912279319763179,0.24279575986862098
5.806920454545455,-0.028763155460357598,0.0713435153961182,0.209265486431121
5.807526515151515,-0.0311581749916076,0.0737385349273682,0.0751443926811213
5.808132575757576,-0.0191830773353576,0.0258381443023682,-0.135617326068879
5.808738636363636,-0.150909151554108,-0.0316423244476318,0.0631692950248713
5.809344696969697,0.06464260625839241,-0.0603825588226318,0.130229841899871
5.809950757575758,0.00955715703964236,-0.108282949447632,0.175735212993621
5.810556818181818,0.0550625281333924,0.00428296852111816,0.055984236431121305
5.811162878787879,-0.0790585656166076,0.08571363258361821,0.146994978618621
5.811768939393939,-0.112588839054108,0.0641584568023682,0.321831404399871
5.812375,0.15086330938339199,-0.0005070705413818431,0.249980818462371
5.812981060606061,0.0861977820396424,0.282105234146118,0.29788120908737103
5.813587121212121,0.0502724890708924,0.272525156021118,0.151785017681121
5.814193181818182,-0.210784639835358,-0.41245042991638203,-0.008681290912628651
5.814799242424242,-0.055108370304107604,-0.0603825588226318,-0.0446065838813787
5.815405303030303,-0.011998018741607601,-0.299884511947632,0.283511091899871
5.816011363636364,-0.21317965936660802,-0.07954271507263179,-0.0302364666938787
5.816617424242424,-0.055108370304107604,0.0186530857086182,0.170945173931121
5.817223484848485,-0.114983858585358,-0.299884511947632,0.23800572080612098
5.817829545454545,-0.107798799991608,-0.0364323635101318,-0.0206563885688787
5.818435606060606,0.0574575476646424,-0.125048086166382,0.254770857524871
5.819041666666667,0.172418485164642,0.18390943336486798,0.223635603618621
5.819647727272727,0.07182766485214241,0.030628183364868198,0.190105330181121
5.820253787878788,-0.0527133507728576,-0.0364323635101318,0.0775394122123713
5.820859848484848,-0.16288424921035802,-0.0244572658538818,0.25716587705612104
5.821465909090909,-0.0527133507728576,-0.12265306663513201,0.214055525493621
5.82207196969697,0.033507352352142396,0.10247876930236799,0.185315291118621
5.82267803030303,0.11014797735214199,-0.07235765647888179,-0.0637667401313787
5.823284090909091,0.0790127234458924,-0.15618334007263202,0.170945173931121
5.823890151515152,-0.138934053897858,0.18390943336486798,0.158970076274871
5.824496212121212,0.00955715703964236,0.030628183364868198,-0.058976701068878694
5.825102272727273,-0.318560518741608,-0.261564199447632,0.20208042783737099
5.825708333333333,-0.0742685265541076,0.0497883396148682,0.058379255962371306
5.826314393939394,-0.17246432733535802,-0.0029020900726318397,0.0751443926811213
5.826920454545455,0.18199856328964198,-0.010087148666381801,0.14220493955612099
5.827526515151515,0.225108914852142,-0.108282949447632,0.144599959087371
5.828132575757576,-0.112588839054108,-0.153788320541382,0.324226423931121
5.828738636363636,0.00476711797714236,-0.07714769554138179,0.235610701274871
5.829344696969697,-0.304190401554108,-0.108282949447632,0.170945173931121
5.829950757575758,0.20115871953964198,0.0138630466461182,0.23800572080612098
5.830556818181818,-0.186834444522858,-0.06756761741638179,0.055984236431121305
5.831162878787879,-0.0143930382728576,-0.0555925197601318,-0.10208705263137899
5.831768939393939,0.016742215633392402,-0.0651725978851318,0.108674666118621
5.832375,0.0406924109458924,0.0761335544586182,0.190105330181121
5.832981060606061,0.06943264532089241,0.11445386695861799,0.530198103618621
5.833587121212121,-0.0191830773353576,0.08810865211486821,0.887056013774871
5.834193181818182,0.21073879766464199,0.0737385349273682,0.712219587993621
5.834799242424242,-0.205994600772858,-0.029247304916381802,0.264350935649871
5.835405303030303,0.0766177039146424,-0.0172722072601318,0.09430454893112131
5.836011363636364,0.0550625281333924,-0.08193773460388179,0.35775669736862103
5.836617424242424,0.18678860235214198,-0.228033926010132,0.144599959087371
5.837223484848485,-0.11977389764785801,-0.196898672103882,-0.0709517987251287
5.837829545454545,0.0885928015708924,0.0186530857086182,-0.195492814350129
5.838435606060606,0.0838027625083924,-0.17534349632263202,0.0248489825248713
5.839041666666667,-0.165279268741608,-0.0651725978851318,0.0104788653373713
5.839647727272727,0.0382973914146424,0.08810865211486821,0.144599959087371
5.840253787878788,-0.0766635460853576,0.131219003677368,0.175735212993621
5.840859848484848,-0.06708346796035759,0.0234431247711182,0.09669956846237131
5.841465909090909,0.016742215633392402,-0.232823965072632,-0.061371720600128694
5.8420719696969705,0.280194364070892,0.08810865211486821,0.0128738848686213
5.842678030303031,-0.0694784874916076,0.0186530857086182,0.0296390215873713
5.8432840909090915,-0.141329073429108,-0.09151781272888179,0.0847244708061213
5.8438901515151525,0.0790127234458924,-0.12025804710388201,0.18292027158737098
5.8444962121212125,-0.11737887811660801,-0.125048086166382,0.060774275493621306
5.8451022727272735,-0.11977389764785801,-0.0316423244476318,0.221240584087371
5.8457083333333335,0.00955715703964236,-0.139418203353882,0.259560896587371
5.8463143939393944,0.0909878211021424,0.0473933200836182,0.369731795024871
5.846920454545455,-0.134144014835358,0.09050367164611821,0.158970076274871
5.8475265151515154,0.0885928015708924,-0.005297109603881841,0.032034041118621306
5.848132575757576,0.0263222937583924,-0.07714769554138179,0.28830113096237103
5.8487386363636364,0.0454824500083924,-0.0172722072601318,0.0464041583061213
5.849344696969697,0.215528836727142,-0.0364323635101318,0.051194197368621304
5.849950757575758,-0.0359482140541076,-0.180133535385132,0.206870466899871
5.850556818181818,-0.184439424991608,0.0330232028961182,-0.0110763104438787
5.851162878787879,-0.11737887811660801,-0.17055345726013202,0.0344290606498713
5.851768939393939,0.12212307500839199,-0.192108633041382,0.0032938067436213496
5.852375,-0.0311581749916076,-0.0627775783538818,-0.032631486225128695
5.852981060606061,0.0838027625083924,0.030628183364868198,0.0487991778373713
5.853587121212121,0.00476711797714236,-0.101097890853882,0.185315291118621
5.854193181818182,-0.134144014835358,-0.07954271507263179,0.264350935649871
5.854799242424242,-0.0503183312416076,0.0737385349273682,0.12064976377487101
5.855405303030303,-0.0862436242103576,-0.12025804710388201,0.149389998149871
5.856011363636364,-0.0503183312416076,-0.0651725978851318,0.0487991778373713
5.856617424242424,0.189183621883392,-0.0005070705413818431,0.139809920024871
5.857223484848485,0.07182766485214241,0.157564218521118,0.259560896587371
5.857829545454545,-0.0766635460853576,0.12882398414611798,0.0871194903373713
5.858435606060606,-0.0431332726478576,-0.0436174221038818,0.113464705181121
5.859041666666667,-0.203599581241608,-0.0172722072601318,0.163760115337371
5.859647727272727,-0.00481296014785764,-0.172948476791382,0.0392190997123713
5.860253787878788,0.0766177039146424,-0.146603261947632,-0.0661617596626287
5.860859848484848,-0.0455282921791076,-0.005297109603881841,0.264350935649871
5.861465909090909,0.153258328914642,0.0809235935211182,0.24279575986862098
5.86207196969697,-0.026368135929107597,0.0449983005523682,0.460742537212371
5.86267803030303,0.0478774695396424,-0.12265306663513201,0.355361677837371
5.863284090909091,0.06464260625839241,-0.0651725978851318,-0.00149623231887865
5.863890151515152,-0.11737887811660801,0.0426032810211182,-0.0302364666938787
5.864496212121212,-0.0742685265541076,-0.15618334007263202,0.158970076274871
5.865102272727273,-0.011998018741607601,0.0473933200836182,0.290696150493621
5.865708333333333,-0.0311581749916076,-0.113072988510132,0.0871194903373713
5.866314393939394,-0.028763155460357598,-0.09391283226013179,0.0799344317436213
5.866920454545455,0.0382973914146424,0.186304452896118,-0.037421525287628696
5.867526515151515,-0.06468844842910759,-0.275934316635132,0.235610701274871
5.868132575757576,-0.028763155460357598,-0.16576341819763202,0.0823294512748713
5.868738636363636,-0.16767428827285802,-0.09391283226013179,-0.07334681825637869
5.869344696969697,0.10775295782089199,0.0497883396148682,-0.0901119549751287
5.869950757575758,0.033507352352142396,0.08810865211486821,-0.10208705263137899
5.870556818181818,0.0502724890708924,-0.0963078517913818,0.199685408306121
5.871162878787879,-0.0742685265541076,-0.208873769760132,0.0176639239311213
5.871768939393939,0.12691311407089198,-0.110677968978882,0.051194197368621304
5.872375,0.0119521765708924,0.0737385349273682,0.364941755962371
5.872981060606061,0.0430874304771424,0.0617634372711182,0.005688826274871351
5.873587121212121,0.148468289852142,-0.09151781272888179,0.216450545024871
5.874193181818182,-0.220364717960358,-0.12265306663513201,0.29788120908737103
5.874799242424242,0.0981728796958924,-0.07475267601013179,0.005688826274871351
5.875405303030303,-0.174859346866608,-0.108282949447632,0.156575056743621
5.876011363636364,0.10296291875839199,-0.268749258041382,0.144599959087371
5.876617424242424,-0.0527133507728576,-0.261564199447632,-0.0038912518501286503
5.877223484848485,0.00716213750839236,-0.029247304916381802,0.130229841899871
5.877829545454545,-0.0431332726478576,-0.266354238510132,0.221240584087371
5.878435606060606,-0.15809421014785802,-0.319044668197632,0.103884627056121
5.879041666666667,0.033507352352142396,-0.06756761741638179,0.0128738848686213
5.879647727272727,-0.00481296014785764,-0.09151781272888179,-0.0254464276313787
5.880253787878788,0.18199856328964198,-0.00769212913513184,0.39607700986862104
5.880859848484848,-0.184439424991608,-0.110677968978882,0.09669956846237131
5.881465909090909,-0.15330417108535802,-0.196898672103882,-0.0493966229438787
5.88207196969697,-0.0718735070228576,-0.196898672103882,-0.11885218935012899
5.88267803030303,0.0574575476646424,-0.141813222885132,-0.037421525287628696
5.8832840909090915,0.15086330938339199,-0.110677968978882,0.300276228618621
5.883890151515151,-0.0958237023353576,-0.0172722072601318,0.015268904399871299
5.884496212121212,-0.225154757022858,0.0330232028961182,0.166155134868621
5.8851022727272735,-0.0694784874916076,-0.07954271507263179,0.434397322368621
5.8857083333333335,-0.0383432335853576,-0.172948476791382,0.252375837993621
5.8863143939393945,-0.00241794061660764,-0.213663808822632,-0.164357560443879
5.886920454545455,0.00716213750839236,0.10726880836486799,-0.0062862713813786495
5.8875265151515155,-0.112588839054108,-0.0531975002288818,0.235610701274871
5.888132575757576,0.162838407039642,-0.010087148666381801,0.0823294512748713
5.8887386363636365,-0.160489229679108,0.164749277114868,0.0272440020561213
5.889344696969697,-0.0431332726478576,-0.0460124416351318,-0.10448207216262899
5.889950757575758,0.160443387508392,-0.0148771877288818,0.18771031064987098
5.890556818181818,-0.14851413202285801,-0.0484074611663818,0.180525252056121
5.891162878787879,0.0957778601646424,-0.0268522853851318,0.0727493731498713
5.891768939393939,-0.196414522647858,0.016258066177368198,0.0895145098686213
5.892375,0.0263222937583924,-0.172948476791382,-0.214652970600129
5.892981060606061,0.148468289852142,-0.134628164291382,-0.413439591693879
5.893587121212121,0.0742226843833924,0.0114680271148682,0.39847202939987103
5.894193181818182,0.0454824500083924,-0.223243886947632,0.8966360918998709
5.894799242424242,0.134098172664642,-0.201688711166382,0.127834822368621
5.895405303030303,0.153258328914642,-0.103492910385132,-0.152382462787629
5.896011363636364,-0.0407382531166076,-0.0555925197601318,0.11825474424362101
5.896617424242424,0.0790127234458924,-0.0316423244476318,0.218845564556121
5.897223484848485,-0.138934053897858,0.0186530857086182,0.17334019346237098
5.897829545454545,0.0550625281333924,0.222229745864868,0.055984236431121305
5.898435606060606,-0.12216891717910801,-0.0412224025726318,0.0224539629936213
5.899041666666667,-0.0239731163978576,-0.15618334007263202,0.0895145098686213
5.899647727272727,0.0119521765708924,-0.0316423244476318,0.214055525493621
5.900253787878788,-0.0239731163978576,-0.0029020900726318397,-0.10687709169387899
5.900859848484849,-0.011998018741607601,-0.0005070705413818431,0.0895145098686213
5.901465909090909,-0.23712985467910802,-0.07954271507263179,0.0464041583061213
5.90207196969697,0.00716213750839236,0.00907300758361816,0.166155134868621
5.90267803030303,-0.06708346796035759,-0.0412224025726318,0.252375837993621
5.903284090909091,0.0526675086021424,-0.0987028713226318,0.113464705181121
5.903890151515152,0.00476711797714236,0.00907300758361816,0.19729038877487098
5.904496212121212,-0.0191830773353576,-0.0412224025726318,-0.0062862713813786495
5.905102272727273,-0.00241794061660764,0.037813241958618196,0.23321568174362098
5.905708333333333,0.316119657039642,-0.0172722072601318,0.060774275493621306
5.906314393939394,-0.0143930382728576,0.0521833591461182,-0.17154261903762902
5.906920454545455,-0.0862436242103576,0.0617634372711182,-0.11645716981887899
5.907526515151515,0.24666409063339198,0.0689484958648682,0.139809920024871
5.908132575757576,-0.194019503116608,0.030628183364868198,0.113464705181121
5.908738636363636,0.0478774695396424,0.0689484958648682,0.18771031064987098
5.909344696969697,0.11014797735214199,-0.115468008041382,0.41763218564987103
5.909950757575758,0.0909878211021424,-0.17055345726013202,0.283511091899871
5.910556818181818,-0.0886386437416076,0.00188794898986816,-0.008681290912628651
5.911162878787879,-0.0455282921791076,-0.0603825588226318,-0.248183244037629
5.911768939393939,0.14128323125839198,-0.0388273830413818,-0.0278414471626287
5.912375,0.11493801641464199,0.00188794898986816,0.18292027158737098
5.912981060606061,-0.0383432335853576,-0.07235765647888179,0.0176639239311213
5.913587121212121,-0.0239731163978576,-0.0436174221038818,0.218845564556121
5.914193181818182,0.06943264532089241,0.10726880836486799,0.204475447368621
5.914799242424242,-0.131748995304108,-0.189713613510132,0.0344290606498713
5.915405303030303,0.0502724890708924,-0.134628164291382,-0.145197404193879
5.916011363636364,-0.028763155460357598,0.0665534763336182,0.113464705181121
5.916617424242424,-0.15809421014785802,-0.08193773460388179,0.25716587705612104
5.917223484848485,0.0215322546958924,-0.172948476791382,0.135019880962371
5.917829545454545,0.07182766485214241,0.0258381443023682,-0.0541866620063787
5.918435606060606,-0.0886386437416076,-0.0172722072601318,-0.149987443256379
5.919041666666667,-0.27545016717910803,-0.103492910385132,0.127834822368621
5.919647727272727,-0.0335531945228576,0.0114680271148682,0.163760115337371
5.920253787878788,-0.165279268741608,0.0138630466461182,0.17334019346237098
5.920859848484848,0.0957778601646424,-0.0005070705413818431,0.0655643145561213
5.921465909090909,-0.0814535851478576,-0.240009023666382,0.0823294512748713
5.922071969696971,-0.131748995304108,-0.0436174221038818,-0.0877169354438787
5.92267803030303,0.129308133602142,0.016258066177368198,0.24279575986862098
5.923284090909091,0.033507352352142396,-0.261564199447632,0.156575056743621
5.9238901515151525,0.0550625281333924,-0.0412224025726318,-0.035026505756378695
5.924496212121213,-0.131748995304108,-0.0436174221038818,0.161365095806121
5.9251022727272735,0.165233426570892,-0.0172722072601318,-0.252973283100129
5.925708333333333,-0.0958237023353576,-0.0484074611663818,0.14220493955612099
5.9263143939393945,-0.0886386437416076,-0.0603825588226318,0.26914097471237103
5.9269204545454555,-0.0694784874916076,-0.0963078517913818,0.0823294512748713
5.9275265151515155,0.00716213750839236,-0.09391283226013179,0.230820662212371
5.9281325757575765,0.033507352352142396,-0.108282949447632,0.163760115337371
5.9287386363636365,-0.0742685265541076,-0.00769212913513184,-0.0493966229438787
5.9293446969696975,-0.182044405460358,-0.0196672267913818,0.060774275493621306
5.929950757575758,-0.11977389764785801,0.0210481052398682,0.12064976377487101
5.9305568181818185,-0.0143930382728576,0.0737385349273682,0.058379255962371306
5.931162878787879,-0.12216891717910801,-0.223243886947632,0.0440091387748713
5.9317689393939395,-0.0479233117103576,0.00188794898986816,-0.140407365131379
5.932375,-0.325745577335358,-0.08193773460388179,0.211660505962371
5.932981060606061,0.0239272742271424,-0.206478750228882,0.00808384580612135
5.933587121212121,-0.12216891717910801,-0.08672777366638179,-0.08053187685012869
5.934193181818182,-0.150909151554108,-0.07714769554138179,0.216450545024871
5.934799242424242,-0.17725436639785802,0.0066779880523681594,0.185315291118621
5.935405303030303,-0.146119112491608,-0.0172722072601318,0.194895369243621
5.936011363636364,0.11733303594589199,-0.0579875392913818,0.0296390215873713
5.936617424242424,-0.0958237023353576,0.0138630466461182,0.130229841899871
5.937223484848485,0.198763700008392,-0.125048086166382,0.163760115337371
5.937829545454545,0.203553739070892,0.00428296852111816,0.0847244708061213
5.938435606060606,0.0287173132896424,0.08571363258361821,0.115859724712371
5.939041666666667,0.06703762578964241,-0.139418203353882,0.09430454893112131
5.939647727272727,-0.00481296014785764,-0.0987028713226318,0.154180037212371
5.940253787878788,0.0790127234458924,-0.0005070705413818431,0.261955916118621
5.940859848484848,0.158048367977142,-0.0340373439788818,-0.0038912518501286503
5.941465909090909,0.0478774695396424,-0.101097890853882,-0.0949019940376287
5.94207196969697,0.0766177039146424,0.0449983005523682,0.204475447368621
5.94267803030303,0.00955715703964236,0.0689484958648682,0.135019880962371
5.943284090909091,-0.21796969842910802,-0.0388273830413818,0.125439802837371
5.943890151515152,-0.00481296014785764,0.0234431247711182,0.0416141192436213
5.944496212121212,-0.00241794061660764,-0.0627775783538818,0.053589216899871304
5.945102272727273,-0.165279268741608,-0.172948476791382,0.149389998149871
5.945708333333333,0.062247586727142395,-0.0412224025726318,-0.164357560443879
5.946314393939394,-0.160489229679108,-0.0412224025726318,0.115859724712371
5.946920454545455,-0.009602999210357639,0.0593684177398682,0.130229841899871
5.947526515151515,0.035902371883392396,-0.07714769554138179,0.0631692950248713
5.948132575757576,-0.0982187218666076,-0.196898672103882,0.312251326274871
5.948738636363636,-0.0191830773353576,-0.105887929916382,0.0751443926811213
5.949344696969697,0.06464260625839241,-0.12265306663513201,0.144599959087371
5.949950757575758,-0.0934286828041076,-0.110677968978882,0.300276228618621
5.950556818181818,-0.055108370304107604,-0.0627775783538818,0.264350935649871
5.951162878787879,0.033507352352142396,-0.17534349632263202,0.0296390215873713
5.951768939393939,-0.141329073429108,-0.280724355697632,-0.173937638568879
5.952375,-0.057503389835357605,-0.129838125228882,0.13262486143112098
5.952981060606061,-0.14851413202285801,-0.15139330101013201,-0.0972970135688787
5.953587121212121,-0.15330417108535802,-0.09151781272888179,0.158970076274871
5.954193181818182,-0.0143930382728576,-0.15618334007263202,-0.0038912518501286503
5.954799242424242,0.0742226843833924,0.0234431247711182,-0.252973283100129
5.955405303030303,0.0023720984458923604,-0.132233144760132,0.154180037212371
5.956011363636364,0.10775295782089199,-0.117863027572632,0.19250034971237098
5.956617424242424,-0.12216891717910801,0.212649667739868,0.09909458799362131
5.957223484848485,-0.239524874210358,0.136009042739868,0.11825474424362101
5.957829545454545,-0.011998018741607601,0.0641584568023682,0.194895369243621
5.958435606060606,0.07182766485214241,-0.09151781272888179,0.0176639239311213
5.959041666666667,0.19636868047714198,0.10487378883361799,0.22842564268112098
5.959647727272727,-0.059898409366607605,-0.0172722072601318,0.0847244708061213
5.960253787878788,0.172418485164642,-0.0340373439788818,-0.16675257997512902
5.960859848484849,0.0143471961021424,-0.17055345726013202,0.0823294512748713
5.961465909090909,0.0406924109458924,-0.0124821681976318,0.0487991778373713
5.96207196969697,0.148468289852142,0.131219003677368,0.175735212993621
5.96267803030303,-0.0383432335853576,-0.06756761741638179,0.0440091387748713
5.963284090909091,0.0454824500083924,-0.16097337913513202,-0.126037247943879
5.963890151515152,-0.0455282921791076,-0.177738515853882,0.31704136533737104
5.964496212121212,0.220318875789642,-0.005297109603881841,0.362546736431121
5.965102272727274,-0.174859346866608,-0.00769212913513184,0.0032938067436213496
5.965708333333333,0.10296291875839199,0.0282331638336182,0.135019880962371
5.966314393939394,0.220318875789642,-0.110677968978882,0.295486189556121
5.9669204545454555,-0.0982187218666076,-0.0172722072601318,0.18771031064987098
5.9675265151515156,-0.11977389764785801,-0.0124821681976318,0.24758579893112098
5.9681325757575765,0.11254299688339199,-0.139418203353882,0.0727493731498713
5.968738636363636,0.033507352352142396,-0.08672777366638179,0.214055525493621
5.9693446969696975,-0.131748995304108,-0.08912279319763179,0.24279575986862098
5.969950757575758,0.0143471961021424,0.00188794898986816,0.0775394122123713
5.9705568181818185,-0.0934286828041076,-0.0388273830413818,0.23321568174362098
5.971162878787879,0.10535793828964199,-0.12265306663513201,0.29788120908737103
5.9717689393939395,-0.0191830773353576,0.0138630466461182,0.175735212993621
5.972375,0.019137235164642403,0.0665534763336182,0.12064976377487101
5.972981060606061,-0.0072079796791076406,0.08571363258361821,0.135019880962371
5.973587121212121,0.0790127234458924,-0.22084886741638202,0.249980818462371
5.974193181818182,-0.0479233117103576,-0.113072988510132,-0.008681290912628651
5.974799242424242,-0.189229464054108,0.0737385349273682,0.190105330181121
5.975405303030303,0.0885928015708924,-0.199293691635132,0.20208042783737099
5.976011363636364,0.0263222937583924,-0.125048086166382,0.0248489825248713
5.976617424242424,0.0119521765708924,0.0402082614898682,0.214055525493621
5.977223484848485,-0.27545016717910803,-0.242404043197632,0.18771031064987098
5.977829545454545,-0.160489229679108,-0.0627775783538818,0.0799344317436213
5.978435606060606,-0.12456393671035801,-0.184923574447632,-0.10687709169387899
5.979041666666667,-0.306585421085358,-0.22563890647888202,-0.17154261903762902
5.979647727272727,0.06703762578964241,-0.141813222885132,0.00808384580612135
5.980253787878788,-0.0167880578041076,-0.16576341819763202,0.144599959087371
5.980859848484848,0.0957778601646424,0.0330232028961182,-0.08292689638137869
5.981465909090909,-0.174859346866608,-0.180133535385132,0.163760115337371
5.98207196969697,-0.21796969842910802,0.0330232028961182,0.209265486431121
5.98267803030303,0.0287173132896424,-0.125048086166382,0.12064976377487101
5.983284090909091,0.12212307500839199,-0.029247304916381802,0.530198103618621
5.983890151515152,0.0239272742271424,0.176724374771118,0.343386580181121
5.984496212121212,-0.239524874210358,-0.158578359603882,0.628393904399871
5.985102272727273,0.10056789922714199,-0.07714769554138179,0.27872105283737103
5.985708333333333,-0.11737887811660801,-0.108282949447632,-0.0493966229438787
5.986314393939394,0.06464260625839241,-0.302279531478882,0.252375837993621
5.986920454545455,0.155653348445892,0.181514413833618,-0.0877169354438787
5.987526515151515,0.0933828406333924,-0.0220622463226318,0.17813023252487098
5.988132575757576,0.10056789922714199,-0.223243886947632,0.13262486143112098
5.988738636363636,-0.0862436242103576,0.037813241958618196,-0.22183802919387902
5.989344696969697,-0.059898409366607605,-0.09391283226013179,0.144599959087371
5.989950757575758,-0.100613741397858,0.016258066177368198,0.166155134868621
5.990556818181818,-0.028763155460357598,-0.172948476791382,0.0032938067436213496
5.991162878787879,0.18678860235214198,-0.0220622463226318,0.0344290606498713
5.991768939393939,0.0861977820396424,0.0234431247711182,0.204475447368621
5.992375,-0.0982187218666076,-0.12025804710388201,0.20208042783737099
5.992981060606061,-0.0527133507728576,0.250969980239868,0.30746128721237104
5.993587121212121,-0.16288424921035802,-0.0579875392913818,0.146994978618621
5.994193181818182,0.129308133602142,-0.199293691635132,-0.10687709169387899
5.994799242424242,0.170023465633392,-0.06996263694763179,0.211660505962371
5.995405303030303,0.0957778601646424,-0.0555925197601318,0.190105330181121
5.996011363636364,0.06703762578964241,0.0258381443023682,0.0919095293998713
5.996617424242424,0.019137235164642403,-0.189713613510132,0.032034041118621306
5.997223484848485,0.0526675086021424,0.0234431247711182,-0.0517916424751287
5.997829545454545,-0.268265108585358,-0.132233144760132,0.11825474424362101
5.998435606060606,0.0861977820396424,-0.08193773460388179,0.115859724712371
5.999041666666667,0.016742215633392402,-0.105887929916382,0.106279646587371
5.999647727272727,-0.0167880578041076,-0.101097890853882,-0.0110763104438787
6.000253787878788,-0.0383432335853576,-0.0579875392913818,0.0464041583061213
6.000859848484848,-0.103008760929108,-0.12025804710388201,0.26674595518112104
6.001465909090909,-0.0814535851478576,-0.0555925197601318,0.17334019346237098
6.00207196969697,-0.174859346866608,-0.110677968978882,0.0440091387748713
6.00267803030303,-0.0886386437416076,0.0617634372711182,-0.0709517987251287
6.003284090909091,-0.0359482140541076,-0.0436174221038818,0.0631692950248713
6.003890151515152,0.0406924109458924,0.0521833591461182,0.321831404399871
6.004496212121212,-0.134144014835358,-0.172948476791382,0.101489607524871
6.005102272727273,0.019137235164642403,0.11445386695861799,-0.10927211122512899
6.005708333333333,-0.201204561710358,0.14798414039611799,-0.10208705263137899
6.006314393939394,0.155653348445892,-0.0555925197601318,0.005688826274871351
6.006920454545455,-0.0982187218666076,-0.08912279319763179,0.295486189556121
6.007526515151515,-0.131748995304108,-0.168158437728882,0.053589216899871304
6.0081325757575765,0.222713895320892,-0.07954271507263179,0.015268904399871299
6.008738636363636,-0.201204561710358,-0.0388273830413818,0.108674666118621
6.009344696969697,0.0861977820396424,-0.22563890647888202,0.290696150493621
6.0099507575757585,-0.268265108585358,-0.21126878929138201,0.17813023252487098
6.0105568181818185,0.06464260625839241,-0.0627775783538818,-0.298478654193879
6.0111628787878795,0.019137235164642403,-0.244799062728882,0.170945173931121
6.0117689393939395,-0.258685030460358,-0.08672777366638179,0.135019880962371
6.0123750000000005,-0.103008760929108,-0.0124821681976318,-0.032631486225128695
6.012981060606061,-0.026368135929107597,0.016258066177368198,0.149389998149871
6.0135871212121215,0.035902371883392396,-0.21605882835388202,0.185315291118621
6.014193181818182,-0.131748995304108,-0.158578359603882,0.18292027158737098
6.0147992424242425,0.0981728796958924,0.131219003677368,0.206870466899871
6.015405303030303,-0.0359482140541076,0.0114680271148682,0.156575056743621
6.016011363636364,0.11014797735214199,0.126428964614868,0.0871194903373713
6.016617424242424,-0.057503389835357605,0.126428964614868,0.0224539629936213
6.017223484848485,-0.239524874210358,-0.07954271507263179,-0.08053187685012869
6.017829545454545,-0.14851413202285801,-0.141813222885132,0.101489607524871
6.018435606060606,0.0981728796958924,0.037813241958618196,0.32901646299362103
6.019041666666667,0.19157864141464198,0.0521833591461182,0.412842146587371
6.019647727272727,-0.055108370304107604,-0.129838125228882,0.051194197368621304
6.020253787878788,-0.14851413202285801,-0.005297109603881841,0.127834822368621
6.020859848484849,-0.325745577335358,0.00188794898986816,0.23321568174362098
6.021465909090909,-0.103008760929108,-0.105887929916382,0.0919095293998713
6.02207196969697,0.031112332820892402,-0.247194082260132,0.221240584087371
6.02267803030303,0.12212307500839199,-0.129838125228882,0.0775394122123713
6.023284090909091,0.0023720984458923604,-0.108282949447632,0.18771031064987098
6.023890151515152,-0.201204561710358,-0.08672777366638179,0.259560896587371
6.024496212121212,-0.0622934288978576,-0.146603261947632,0.18771031064987098
6.025102272727273,-0.0311581749916076,-0.0268522853851318,0.214055525493621
6.025708333333333,0.220318875789642,-0.108282949447632,0.0727493731498713
6.026314393939394,0.00476711797714236,-0.141813222885132,0.0679593340873713
6.026920454545455,-0.0766635460853576,0.140799081802368,0.0368240801811213
6.027526515151515,0.0814077429771424,-0.201688711166382,0.216450545024871
6.028132575757576,-0.00241794061660764,-0.09391283226013179,-0.142802384662629
6.028738636363636,0.0430874304771424,0.0402082614898682,0.032034041118621306
6.029344696969697,-0.0215780968666076,0.09529371070861821,0.252375837993621
6.029950757575758,-0.320955538272858,-0.010087148666381801,-0.07574183778762869
6.030556818181818,-0.196414522647858,-0.244799062728882,0.226030623149871
6.031162878787879,0.11733303594589199,0.037813241958618196,-0.10448207216262899
6.031768939393939,-0.0742685265541076,-0.187318593978882,-0.11645716981887899
6.032375,0.124518094539642,-0.134628164291382,0.0392190997123713
6.032981060606061,-0.194019503116608,0.09050367164611821,0.135019880962371
6.033587121212121,-0.0215780968666076,0.0617634372711182,0.194895369243621
6.034193181818182,0.06703762578964241,-0.010087148666381801,0.190105330181121
6.034799242424242,-0.0742685265541076,-0.0172722072601318,0.113464705181121
6.035405303030303,0.0909878211021424,-0.0460124416351318,0.0272440020561213
6.036011363636364,0.0933828406333924,-0.184923574447632,0.0631692950248713
6.036617424242424,0.0478774695396424,-0.285514394760132,0.130229841899871
6.037223484848485,-0.205994600772858,-0.0148771877288818,0.139809920024871
6.037829545454545,-0.06708346796035759,0.0186530857086182,-0.00149623231887865
6.038435606060606,-0.265870089054108,-0.184923574447632,0.24279575986862098
6.039041666666667,-0.21317965936660802,0.0665534763336182,0.20208042783737099
6.039647727272727,-0.0766635460853576,-0.127443105697632,0.218845564556121
6.040253787878788,0.0933828406333924,-0.21126878929138201,-0.0422115643501287
6.040859848484848,-0.057503389835357605,-0.0412224025726318,-0.0925069745063787
6.041465909090909,-0.21796969842910802,-0.168158437728882,0.302671248149871
6.04207196969697,-0.0742685265541076,-0.125048086166382,0.0799344317436213
6.04267803030303,-0.0455282921791076,-0.12025804710388201,0.45834751768112103
6.043284090909091,-0.21317965936660802,-0.158578359603882,0.245190779399871
6.043890151515152,-0.316165499210358,0.0713435153961182,-0.31045375185012897
6.044496212121212,0.10775295782089199,-0.0627775783538818,0.621208845806121
6.045102272727273,-0.0431332726478576,0.08571363258361821,0.372126814556121
6.045708333333333,0.0239272742271424,0.167144296646118,0.0008987872123713469
6.046314393939394,0.06943264532089241,-0.115468008041382,0.09430454893112131
6.046920454545456,-0.189229464054108,-0.0244572658538818,0.108674666118621
6.047526515151515,0.0430874304771424,-0.0627775783538818,0.17813023252487098
6.048132575757576,-0.14851413202285801,-0.117863027572632,0.14220493955612099
6.048738636363636,-0.00481296014785764,-0.148998281478882,0.17813023252487098
6.049344696969698,-0.0239731163978576,-0.206478750228882,0.19729038877487098
6.0499507575757585,0.0790127234458924,0.13840406227111798,-0.10927211122512899
6.050556818181818,0.0766177039146424,-0.208873769760132,-0.159567521381379
6.0511628787878795,0.0550625281333924,-0.132233144760132,0.055984236431121305
6.05176893939394,-0.0886386437416076,0.09768873023986821,0.259560896587371
6.0523750000000005,0.0550625281333924,-0.0340373439788818,0.12064976377487101
6.0529810606060614,0.0143471961021424,0.11205884742736799,-0.169147599506379
6.0535871212121215,0.0526675086021424,-0.08912279319763179,0.24279575986862098
6.0541931818181824,-0.16767428827285802,-0.0987028713226318,-0.00149623231887865
6.0547992424242425,-0.256290010929108,-0.105887929916382,-0.10687709169387899
6.055405303030303,0.237084012508392,0.09050367164611821,0.032034041118621306
6.056011363636364,-0.143724092960358,-0.0172722072601318,0.0847244708061213
6.056617424242424,0.138888211727142,-0.192108633041382,0.161365095806121
6.057223484848485,0.059852567195892395,-0.0651725978851318,-0.138012345600129
6.057829545454545,-0.184439424991608,-0.0963078517913818,0.144599959087371
6.058435606060606,-0.12216891717910801,-0.187318593978882,0.17813023252487098
6.059041666666667,-0.16288424921035802,-0.204083730697632,-0.0254464276313787
6.059647727272727,0.0957778601646424,-0.237614004135132,0.055984236431121305
6.060253787878788,-0.114983858585358,-0.134628164291382,0.283511091899871
6.060859848484848,-0.0311581749916076,0.145589120864868,-0.200282853412629
6.061465909090909,0.129308133602142,-0.0220622463226318,0.17334019346237098
6.06207196969697,0.0215322546958924,0.18390943336486798,0.214055525493621
6.06267803030303,0.0957778601646424,-0.0148771877288818,0.185315291118621
6.063284090909091,-0.057503389835357605,-0.172948476791382,0.149389998149871
6.063890151515152,-0.249104952335358,-0.199293691635132,-0.18591273622512902
6.064496212121212,-0.141329073429108,-0.307069570541382,0.0631692950248713
6.065102272727273,0.0790127234458924,-0.0412224025726318,0.0392190997123713
6.065708333333333,-0.11737887811660801,0.0282331638336182,0.44876743955612103
6.066314393939394,0.14128323125839198,0.13840406227111798,0.441582380962371
6.066920454545455,-0.112588839054108,-0.199293691635132,0.0296390215873713
6.067526515151515,-0.155699190616608,-0.6136320705413819,-0.569115861225129
6.068132575757576,-0.6394931359291081,-0.240009023666382,-0.0038912518501286503
6.068738636363636,-0.220364717960358,0.11445386695861799,0.130229841899871
6.069344696969697,0.167628446102142,0.610222909927368,0.221240584087371
6.069950757575758,0.0981728796958924,0.478496835708618,0.882265974712371
6.070556818181818,0.371205106258392,-0.395685293197632,0.218845564556121
6.071162878787879,0.059852567195892395,-0.977675039291382,-0.5379806073188791
6.071768939393939,-0.593987764835358,-0.184923574447632,-0.43020472841262897
6.072375,-0.35448581171035803,0.6437531833648681,0.6355789629936209
6.072981060606061,0.143678250789642,0.7251838474273681,0.609233748149871
6.073587121212121,0.579571805477142,0.284500253677368,0.592468611431121
6.074193181818182,0.637052274227142,-0.661532461166382,0.582888533306121
6.074799242424242,-0.0958237023353576,-0.922589590072632,-0.751137345600129
6.075405303030303,-0.883785128116608,-0.0436174221038818,-0.612226212787629
6.076011363636364,-0.450286592960358,0.6269880466461181,0.0464041583061213
6.076617424242424,0.062247586727142395,0.409041269302368,0.422422224712371
6.077223484848485,0.886134305477142,0.0593684177398682,0.664319197368621
6.077829545454545,1.1016860632896401,-0.414845449447632,0.28590611143112105
6.078435606060606,-0.297005342960358,-0.6136320705413819,-0.403859513568879
6.079041666666667,-1.1352621788978599,-0.08193773460388179,-0.825382951068879
6.079647727272727,-1.12568210077286,-0.0244572658538818,-0.154777482318879
6.080253787878788,0.31372463750839197,0.308450448989868,0.44876743955612103
6.080859848484849,0.965169950008392,0.44496656227111797,0.5110379473686211
6.081465909090909,0.852604032039642,0.0354182224273682,0.705034529399871
6.08207196969697,-0.0862436242103576,-0.376525136947632,-0.305663712787629
6.08267803030303,-0.756849092960358,-0.958514883041382,-1.29001674013138
6.083284090909091,-1.0969418663978598,-0.21126878929138201,-0.8373580487251291
6.083890151515151,0.11493801641464199,0.504842050552368,0.503852888774871
6.084496212121212,0.634657254695892,0.8664899997711181,1.30857945127487
6.085102272727273,0.780753446102142,0.619802988052368,0.705034529399871
6.085708333333333,0.546041532039642,-0.707037832260132,-0.27213343935012896
6.086314393939394,-0.330535616397858,-1.68420580101013,-1.4001876385688798
6.086920454545455,-1.0921518273353599,-0.340599843978882,-0.7798775799751291
6.087526515151515,-0.529322237491608,0.818589609146118,0.568518416118621
6.088132575757576,0.500536160945892,1.24250806617737,1.06189243955612
6.088738636363636,1.11126614141464,0.377906015396118,0.772095076274871
6.089344696969697,1.03941555547714,-0.9920451564788819,-0.293688615131379
6.0899507575757585,-0.656258272647858,-1.00162523460388,-1.1606856854438798
6.090556818181818,-1.6909067101478599,0.341980722427368,-1.16787074403763
6.091162878787879,-1.21429782342911,0.9215754489898681,-0.058976701068878694
6.091768939393939,0.318514676570892,0.694048593521118,0.709824568462371
6.0923750000000005,1.8848574500083901,0.11445386695861799,1.18164341611862
6.0929810606060615,1.28849758672714,-0.723802968978882,0.410447127056121
6.093587121212121,-0.550877413272858,-0.7884684963226319,-1.09841517763138
6.0941931818181825,-1.96633395624161,-0.0316423244476318,-1.1008101971626298
6.0947992424242425,-1.18555758905411,0.0761335544586182,-0.23141810731887902
6.0954053030303035,0.596336942195892,0.330005624771118,0.903821150493621
6.096011363636364,1.4010635046958901,0.531187265396118,1.33013462705612
6.0966174242424245,0.922059598445892,-0.0460124416351318,0.724194685649871
6.097223484848485,-0.471841768741608,-0.5920768947601319,-0.669706681537629
6.0978295454545455,-1.2119028038978599,-1.04713060569763,-1.72830531435013
6.098435606060606,-1.34602389764786,-0.422030508041382,-0.614621232318879
6.099041666666667,0.37360012578964197,0.691653573989868,0.647554060649871
6.099647727272727,1.01546536016464,1.3383088474273699,1.39240513486862
6.100253787878788,1.10408108282089,0.559927499771118,1.1792483965873701
6.100859848484848,0.292169461727142,-0.924984609603882,-0.617016251850129
6.101465909090909,-0.682603487491608,-1.76084642601013,-1.6516646893501299
6.10207196969697,-1.5927109093666099,-0.263959218978882,-0.7774825604438791
6.10267803030303,-0.380831026554108,1.30956861305237,0.331411482524871
6.103284090909091,0.629867215633392,1.42692457008362,1.14332310361862
6.103890151515152,1.67409573125839,0.409041269302368,1.40438023252487
6.104496212121212,1.28370754766464,-1.29860765647888,0.180525252056121
6.105102272727273,-1.0370663781166098,-1.38482835960388,-1.41455775575638
6.105708333333333,-2.10285006952286,0.519212167739868,-1.04332972841263
6.106314393939394,-1.3100986046791099,1.20658277320862,0.362546736431121
6.106920454545455,1.0466006140708901,0.9646858005523681,1.04512730283737
6.107526515151515,2.30398586797714,-0.196898672103882,1.38282505674362
6.108132575757576,1.3579531531333902,-0.901034414291382,0.0464041583061213
6.108738636363636,-1.2933334679603599,-0.8483439846038819,-1.57262904481888
6.109344696969697,-2.69441989374161,0.0449983005523682,-1.36186732606888
6.109950757575758,-1.1352621788978599,0.5240022068023681,0.09669956846237131
6.110556818181818,1.05139065313339,0.638963144302368,1.21517368955612
6.111162878787879,2.05969387578964,0.5479524021148681,1.48102085752487
6.111768939393939,1.29568264532089,-0.137023183822632,0.7337747637748709
6.112375,-0.589197725772858,-0.680692617416382,-0.9020235760688791
6.112981060606061,-1.51846530389786,-1.09263597679138,-1.9989425213813798
6.113587121212121,-1.44661471796036,-0.311859609603882,-0.655336564350129
6.114193181818182,0.704112821102142,0.7658991794586181,1.19361851377487
6.114799242424242,1.6357754187583902,1.53709546852112,1.8211136309623701
6.115405303030303,0.946009793758392,0.6054328708648681,1.27025913877487
6.116011363636364,-0.179649385929108,-1.34171800804138,-0.8373580487251291
6.116617424242424,-0.898155245304108,-1.76084642601013,-2.3150850995063803
6.117223484848485,-1.55918063592911,-0.07235765647888179,-0.6002511151313791
6.117829545454545,-0.256290010929108,1.47482496070862,1.0547073809623702
6.118435606060606,1.32921291875839,1.91790357398987,1.32773960752487
6.119041666666667,1.8034267859458901,0.358745859146118,1.10979283018112
6.119647727272727,0.991515164852142,-1.85425218772888,-0.377514298725129
6.120253787878788,-1.17118747186661,-1.61714525413513,-1.69238002138138
6.120859848484849,-2.49084323358536,0.598247812271118,-1.0576998456001299
6.121465909090909,-1.03467135858536,1.49159009742737,0.350571638774871
6.12207196969697,1.5639248328208901,0.998216073989868,1.34450474424362
6.12267803030303,2.46445217657089,-0.35257494163513203,1.2343338458061202
6.123284090909091,1.12084621953964,-0.963304922103882,-0.26973841981887897
6.123890151515151,-1.5879208703041099,-0.5944719142913819,-1.57262904481888
6.124496212121212,-2.78782565546036,0.20785962867736799,-1.62531947450638
6.125102272727273,-0.993956026554108,0.217439706802368,0.0919095293998713
6.125708333333333,1.46812405157089,0.619802988052368,1.50976109189987
6.126314393939394,2.2800356726646402,0.380301034927368,1.74207798643112
6.126920454545455,1.35316311407089,-0.261564199447632,0.501457869243621
6.127526515151515,-0.970005831241608,-0.6735075588226319,-1.73549037294388
6.128132575757576,-2.22978610467911,-1.12856126976013,-2.02049769716263
6.128738636363636,-1.12089206171036,-0.0029020900726318397,-0.23620814638137902
6.129344696969697,0.862184110164642,1.28082837867737,1.2008035723686201
6.129950757575758,1.7818716101646401,1.62810621070862,2.0199002520561202
6.130556818181818,0.823863797664642,0.48568189430236797,0.990041853618621
6.13116287878788,-0.337720674991608,-1.71294603538513,-1.58220912294388
6.131768939393939,-1.38194919061661,-1.98358324241638,-2.43962611513138
6.132375,-1.56157565546036,0.157564218521118,-0.626596329975129
6.1329810606060615,-0.107798799991608,1.62331617164612,1.34450474424362
6.133587121212122,1.12803127813339,1.85084302711487,1.98876499814987
6.134193181818182,1.9183877234458901,-0.0148771877288818,1.39240513486862
6.134799242424242,0.639447293758392,-1.97160814476013,-0.784667619037629
6.1354053030303035,-1.49930514764786,-1.49020921897888,-2.13785365419388
6.1360113636363645,-2.43815280389786,0.7275788669586181,-0.856518204975129
6.136617424242424,-0.730503878116608,1.84605298805237,0.767305037212371
6.1372234848484855,1.90401760625839,1.24490308570862,1.85224888486862
6.137829545454546,2.81652004766464,-0.338204824447632,1.46425572080612
6.1384356060606065,0.783148465633392,-1.25549730491638,-0.765507462787629
6.139041666666667,-1.93759372186661,-1.04952562522888,-1.97978236513138
6.1396477272727275,-2.88123141717911,0.373115976333618,-1.26606654481888
6.140253787878788,-0.704158663272858,0.753924081802368,0.44876743955612103
6.1408598484848484,1.94233791875839,0.799429452896118,1.7181277911186201
6.141465909090909,2.52672268438339,0.5623225193023681,1.81392857236862
6.14207196969697,0.567596707820892,-0.6112370510101319,0.31704136533737104
6.14267803030303,-1.77952243280411,-1.10221605491638,-1.9127218182563799
6.143284090909091,-2.20104587030411,-1.26747240257263,-2.15701381044388
6.143890151515151,-0.687393526554108,-0.0460124416351318,-0.0517916424751287
6.144496212121212,1.19030178594589,1.50117017555237,2.01511021299362
6.145102272727273,1.77468655157089,1.58020582008362,2.03187534971237
6.145708333333333,0.771173367977142,0.169539316177368,0.146994978618621
6.146314393939394,-0.371250948429108,-2.04106371116638,-2.02289271669388
6.146920454545455,-1.56397067499161,-2.03148363304138,-2.38933070497513
6.147526515151515,-1.48254001092911,0.452151620864868,-0.324823869037629
6.148132575757576,0.431080594539642,2.03286451148987,1.75884312314987
6.148738636363636,1.7172060828208902,1.75025220680237,1.79716343564987
6.149344696969697,2.05250881719589,-0.309464590072632,0.5757034747123709
6.149950757575758,0.299354520320892,-2.29254076194763,-1.26606654481888
6.150556818181818,-2.1675155968666098,-1.36327318382263,-2.18096400575638
6.151162878787879,-2.55550876092911,1.00300611305237,-0.983454240131379
6.151768939393939,-0.205994600772858,1.82689283180237,0.685874373149871
6.152375,2.17465481328964,0.816194589614868,1.90733433408737
6.152981060606061,2.66563381719589,-0.6687175197601319,1.16727329893112
6.153587121212121,0.428685575008392,-1.61714525413513,-1.00261439638138
6.154193181818182,-2.15314547967911,-1.07587084007263,-2.2480245526313802
6.154799242424242,-2.84770114374161,0.7850593357086181,-1.41455775575638
6.155405303030303,-0.21317965936660802,0.799429452896118,0.762514998149871
6.156011363636364,2.20100002813339,0.6413581638336181,2.17078648252487
6.156617424242424,2.5794131140708902,0.387486093521118,1.74447300596237
6.157223484848485,0.316119657039642,-0.886664297103882,-0.288898576068879
6.157829545454545,-2.00704928827286,-1.14053636741638,-2.4947115643501303
6.158435606060606,-2.28487155389786,-0.9920451564788819,-1.9773873456001299
6.159041666666667,-0.411966280460358,0.423411386489868,0.424817244243621
6.159647727272727,1.4609389929771401,1.89395337867737,2.29053745908737
6.160253787878788,1.71481106328964,1.2999885349273699,2.13725620908737
6.160859848484848,0.538856473445892,-0.309464590072632,-0.16196254091262902
6.161465909090909,-0.7592441124916081,-2.21111009788513,-2.37735560731888
6.16207196969697,-1.68851169061661,-1.89257250022888,-2.2025191815376304
6.16267803030303,-1.32925876092911,0.8425398044586181,0.226030623149871
6.163284090909091,0.613102078914642,2.43283277320862,1.89056919736862
6.163890151515152,1.62859036016464,1.68079664039612,2.14683628721237
6.164496212121212,1.77229153203964,-0.826788808822632,0.731379744243621
6.165102272727273,0.06703762578964241,-2.55120287132263,-1.8360811932563799
6.165708333333333,-2.4668930382728598,-0.9513298244476319,-2.2216793377876303
6.166314393939394,-2.51958346796036,1.20897779273987,-0.528400529193879
6.166920454545455,0.36402004766464197,1.82449781227112,1.24391392393112
6.167526515151515,2.68479397344589,0.794639413833618,2.02469029111862
6.168132575757576,2.42852688360214,-0.917799551010132,0.848735701274871
6.168738636363636,-0.15330417108535802,-1.55247972679138,-1.30678187685013
6.169344696969697,-2.60340915155411,-0.508251211166382,-2.06360804872513
6.169950757575758,-2.70160495233536,0.955105722427368,-1.18942591981888
6.170556818181818,0.419105496883392,0.933550546646118,1.01399204893112
6.171162878787879,2.66084377813339,0.698838632583618,2.29293247861862
6.171768939393939,2.38062649297714,0.394671152114868,1.51455113096237
6.172375000000001,-0.107798799991608,-0.757333242416382,-0.585880997943879
6.172981060606061,-2.38067233514786,-1.17406664085388,-2.82522425966263
6.173587121212121,-1.90645846796036,-0.6878776760101319,-1.84326625185013
6.1741931818181826,0.0023720984458923604,0.473706796646118,0.762514998149871
6.174799242424243,2.02137356328964,2.06160474586487,2.65697544736862
6.175405303030303,1.86809231328964,1.30238355445862,1.8761990801811201
6.1760113636363645,0.184393582820892,-0.783678457260132,-0.7631124432563791
6.1766174242424245,-1.3364438195228598,-2.40989671897888,-2.6240426190376303
6.1772234848484855,-1.7507821984291099,-1.73689623069763,-2.00373256044388
6.177829545454545,-0.967610811710358,1.43650464820862,0.372126814556121
6.1784356060606065,0.790333524227142,2.57413892555237,2.3120926348686197
6.179041666666667,1.93036282110214,1.28082837867737,1.72531284971237
6.1796477272727275,1.13282131719589,-1.31537279319763,-0.0877169354438787
6.180253787878788,-0.342510714054108,-2.62784349632263,-2.1594088299751304
6.1808598484848485,-2.67765475702286,-0.838763906478882,-2.14982875185013
6.181465909090909,-2.25134128046036,1.79096753883362,-0.250578263568879
6.18207196969697,0.854999051570892,1.92508863258362,1.50497105283737
6.18267803030303,2.75185452032089,0.488076913833618,2.05103550596237
6.183284090909091,2.32793606328964,-1.13814134788513,0.439187361431121
6.183890151515152,-0.608357882022858,-1.72971117210388,-1.51275355653763
6.184496212121212,-3.00098239374161,-0.388500234603882,-2.03726283388138
6.185102272727273,-2.28487155389786,0.950315683364868,-0.530795548725129
6.185708333333333,1.0250454382896401,0.9455256443023681,1.31097447080612
6.186314393939394,3.02488674688339,0.497656991958618,2.3288577715873697
6.186920454545455,2.1770498328208903,-0.08193773460388179,1.24151890439987
6.187526515151515,-0.596382784366608,-1.30579271507263,-1.2924117596626299
6.188132575757576,-2.84770114374161,-1.33213792991638,-2.80845912294388
6.188738636363636,-1.68372165155411,-0.465140859603882,-1.40497767763138
6.189344696969697,0.749618192195892,0.9814509372711181,1.38761509580612
6.189950757575758,2.18423489141464,1.93466871070862,2.7144559161186197
6.190556818181818,1.5974551062583902,0.969475839614868,1.4618607012748701
6.191162878787879,-0.155699190616608,-1.10461107444763,-1.1606856854438798
6.191768939393939,-1.42505954217911,-2.47695726585388,-2.8970748456001303
6.192375,-1.3364438195228598,-1.18125169944763,-1.13194545106888
6.192981060606061,-0.601172823429108,1.80773267555237,1.39240513486862
6.193587121212121,1.1783266882896402,2.42325269508362,2.1157010333061197
6.194193181818182,2.1004092078208902,1.03174634742737,1.82590367002487
6.194799242424242,0.881344266414642,-1.52852953147888,-0.30087367372512897
6.195405303030303,-0.867019991397858,-2.5727580471038802,-2.4420211346626304
6.196011363636364,-2.58424899530411,-0.177738515853882,-2.02528773622513
6.196617424242424,-1.50649020624161,2.15501050758362,0.19729038877487098
6.197223484848485,1.6022451453208901,2.01849439430237,1.9791849200248701
6.197829545454545,2.99614651250839,0.301265390396118,1.69417759580612
6.198435606060606,1.56871487188339,-1.54289964866638,0.185315291118621
6.199041666666667,-1.0705966515541099,-1.78479662132263,-1.9390670331001298
6.199647727272727,-3.38897555780411,-0.137023183822632,-2.42286097841263
6.200253787878788,-1.7340170617103599,1.04132642555237,-0.37990931825637897
6.200859848484848,1.71960110235214,1.13473218727112,1.83069370908737
6.201465909090909,2.78059475469589,0.9024152927398681,2.5180643145561197
6.20207196969697,1.62859036016464,-0.331019765853882,0.764910017681121
6.20267803030303,-1.26938327264786,-1.26028734397888,-1.82171107606888
6.203284090909091,-2.96026706171036,-1.12856126976013,-2.71505336122513
6.203890151515152,-1.3100986046791099,-0.481905996322632,-1.04811976747513
6.204496212121212,1.43459377813339,1.25208814430237,1.73249790830612
6.205102272727273,2.32554104375839,1.95382886695862,2.68332066221237
6.205708333333333,1.4561489539146402,0.7850593357086181,0.9780667559623709
6.206314393939394,-0.538902315616608,-1.48781419944763,-1.67561488466263
6.206920454545455,-1.89448337030411,-2.89608568382263,-2.87312465028763
6.207526515151515,-1.20232272577286,-0.704642812728882,-1.16787074403763
6.208132575757576,-0.06708346796035759,2.22925611305237,1.44270054502487
6.208738636363636,1.57829495000839,2.47354810523987,2.58033482236862
6.209344696969697,1.7603164343833901,0.849724863052368,1.1409280840873701
6.209950757575758,0.0526675086021424,-2.03866869163513,-0.949923966693879
6.210556818181818,-1.42026950311661,-2.66616380882263,-2.4420211346626304
6.211162878787879,-2.75429538202286,0.171934335708618,-1.50796351747513
6.211768939393939,-1.34602389764786,2.31547681617737,0.939746443462371
6.212375,1.75313137578964,1.59218091773987,2.1755765215873697
6.212981060606062,2.7326943640708903,0.0473933200836182,1.5600565020561201
6.213587121212121,0.950799832820892,-1.73210619163513,-0.5379806073188791
6.214193181818182,-1.82502780389786,-1.78000658226013,-2.14743373231888
6.214799242424242,-3.30035983514786,0.291685312271118,-1.94385707216263
6.215405303030304,-1.23585299921036,1.24969312477112,-0.0062862713813786495
6.216011363636364,2.38541653203964,1.01498121070862,2.1516263262748696
6.216617424242424,2.96501125860214,0.7203938083648681,1.92649449033737
6.2172234848484855,0.826258817195892,-0.721407949447632,0.015268904399871299
6.217829545454546,-1.8322128624916099,-1.25549730491638,-2.18335902528763
6.218435606060606,-2.7926156945228597,-0.8698991603851319,-2.61925257997513
6.2190416666666675,-0.601172823429108,-0.204083730697632,-0.23620814638137902
6.2196477272727275,1.78426662969589,1.64247632789612,2.1157010333061197
6.2202537878787885,2.2800356726646402,2.01609937477112,2.6282352129936197
6.220859848484849,0.929244657039642,0.10966382789611799,0.587678572368621
6.2214659090909095,-0.977190889835358,-1.65067552757263,-2.2025191815376304
6.22207196969697,-1.8705331749916099,-2.51527757835388,-2.8108541424751303
6.2226780303030305,-1.2286679406166099,-0.240009023666382,-0.399069474506379
6.223284090909091,0.431080594539642,2.31308179664612,2.21629185361862
6.223890151515152,1.85611721563339,2.14064039039612,2.9108475176811197
6.224496212121212,1.5375796179771402,0.593457773208618,1.30857945127487
6.225102272727273,-0.0718735070228576,-2.4530070705413802,-1.48401332216263
6.225708333333333,-1.66456149530411,-2.26140550804138,-2.68870814638138
6.226314393939394,-2.38306735467911,0.619802988052368,-0.945133927631379
6.226920454545455,-0.244314913272858,2.30350171852112,1.24630894346237
6.227526515151515,2.24650539922714,1.38381421852112,2.10372593564987
6.228132575757576,2.51235256719589,-0.163368398666382,1.23672886533737
6.228738636363636,0.486166043758392,-1.88299242210388,-1.17505580263138
6.229344696969697,-2.16991061639786,-1.42554369163513,-2.60248744325638
6.229950757575758,-3.0321176476478597,0.6054328708648681,-1.51035853700638
6.230556818181818,-0.304190401554108,1.01258619117737,0.848735701274871
6.231162878787879,2.59378323125839,0.998216073989868,2.3719681231498697
6.231768939393939,2.41176174688339,0.555137460708618,1.9576297442436201
6.232375,0.256244168758392,-1.14772142601013,-0.039816544818878696
6.232981060606061,-2.22020602655411,-1.30579271507263,-2.64320277528763
6.233587121212121,-2.30163669061661,-0.781283437728882,-2.46357631044388
6.234193181818182,-0.011998018741607601,0.0521833591461182,0.381706892681121
6.234799242424242,1.96389309453964,1.96580396461487,2.8701321856498696
6.235405303030303,1.8633022742271401,1.84126294898987,2.35041294736862
6.236011363636364,0.450240750789642,-0.22563890647888202,-0.229023087787629
6.236617424242424,-1.4729599328041099,-1.83030199241638,-2.7174483807563803
6.237223484848485,-1.71485690546036,-2.3332560939788802,-2.3486153729438803
6.237829545454545,-0.706553682804108,0.24857496070861798,0.482297712993621
6.238435606060606,0.919664578914642,2.80406080055237,2.18036656064987
6.239041666666667,1.72918118047714,1.94903882789612,2.3120926348686197
6.239647727272727,1.19030178594589,-0.0963078517913818,0.384101912212371
6.240253787878788,-0.277845186710358,-2.50809251976013,-2.00612757997513
6.240859848484849,-1.79868258905411,-1.88538744163513,-2.4252559979438804
6.241465909090909,-1.94956881952286,1.02935132789612,-0.437389787006379
6.24207196969697,0.10296291875839199,2.30829175758362,1.68699253721237
6.24267803030303,2.46684719610214,1.31435865211487,2.36717808408737
6.243284090909091,2.22495022344589,-0.477115957260132,0.980461775493621
6.243890151515151,-0.0479233117103576,-2.08896410179138,-1.62292445497513
6.244496212121212,-2.64891452264786,-1.29860765647888,-2.33664027528763
6.245102272727273,-2.6465195031166098,0.6892585544586181,-1.1606856854438798
6.245708333333333,0.189183621883392,1.14910230445862,0.9732767168998709
6.246314393939394,3.01291164922714,0.9024152927398681,2.79349156064987
6.246920454545455,2.35907131719589,0.5814826755523681,1.5337112872123702
6.247526515151515,-0.263475069522858,-1.19083177757263,-1.08404506044388
6.248132575757576,-2.57227389764786,-1.25310228538513,-2.86833461122513
6.248738636363636,-2.11961520624161,-0.6327922267913819,-1.88398158388138
6.249344696969697,0.684952664852142,0.212649667739868,0.7984402911186209
6.249950757575758,2.36865139532089,2.0376545505523698,2.7671463458061196
6.250556818181818,1.62140530157089,1.40776441383362,2.34322788877487
6.251162878787879,-0.105403780460358,-0.6543474025726319,-0.7200020916938791
6.251768939393939,-1.8489779992103599,-1.97879320335388,-2.99287562685013
6.252375,-1.3579989953041098,-2.12967943382263,-1.87679652528763
6.252981060606061,-0.40478122186660803,0.799429452896118,0.7936502520561209
6.253587121212121,1.1232412390708901,3.02919263648987,3.0305984942436197
6.254193181818182,1.72678616094589,1.49159009742737,2.7503812090873696
6.254799242424242,0.531671414852142,-0.620817129135132,-0.229023087787629
6.255405303030303,-0.823909639835358,-2.66855882835388,-2.20730922060013
6.256011363636365,-2.13638034296036,-1.60517015647888,-2.20730922060013
6.256617424242424,-1.64061129999161,1.55146558570862,-0.24578822450637902
6.257223484848485,0.9172695593833919,2.0975300388336198,2.05343052549362
6.2578295454545465,2.58659817266464,0.9000202732086181,1.96960484189987
6.258435606060607,1.5423696570396401,-0.886664297103882,0.20208042783737099
6.259041666666667,-0.347300753116608,-2.11530931663513,-2.03726283388138
6.259647727272727,-2.92434176874161,-0.9872551174163819,-2.4348360760688803
6.2602537878787885,-1.9351987023353598,0.974265878677368,-0.6218062909126291
6.2608598484848486,1.15198147344589,1.12275708961487,1.7133377520561202
6.2614659090909095,2.90274075078964,0.7850593357086181,2.3049075762748696
6.26207196969697,1.69086086797714,0.13361402320861798,0.942141462993621
6.2626780303030305,-0.960425753116608,-1.54050462913513,-1.55107386903763
6.263284090909091,-2.86207126092911,-1.2962126369476301,-2.96892543153763
6.2638901515151515,-1.7292270226478599,-0.759728261947632,-1.32833705263138
6.264496212121212,1.11366116094589,0.595852792739868,1.32294956846237
6.265102272727273,2.44050198125839,2.09513501930237,2.88210728330612
6.265708333333333,1.34358303594589,1.08683179664612,1.16966831846237
6.266314393939394,-0.622727999210358,-1.02557542991638,-1.36426234560013
6.266920454545455,-2.19146579217911,-2.28056566429138,-3.00485072450638
6.267526515151515,-1.2286679406166099,-1.90215257835388,-1.68998500185013
6.268132575757576,0.10056789922714199,1.21137281227112,1.53610630674362
6.268738636363636,1.50165432500839,2.78490064430237,2.58272984189987
6.269344696969697,1.52799953985214,0.969475839614868,1.43072544736862
6.269950757575758,-0.143724092960358,-1.04473558616638,-0.787062638568879
6.270556818181818,-1.0586215538978598,-2.60628832054138,-2.58572230653763
6.271162878787879,-1.96393893671036,-1.09263597679138,-1.89356166200638
6.271768939393939,-1.14244723749161,2.11908521461487,0.355361677837371
6.272375,1.25017727422714,1.9969392185211199,2.1659964434623697
6.272981060606061,2.60815334844589,0.631778085708618,1.84985386533737
6.273587121212121,1.0370205359458902,-1.04473558616638,-0.248183244037629
6.274193181818182,-1.08736178827286,-2.12249437522888,-2.23125941591263
6.274799242424242,-3.06085788202286,-0.721407949447632,-2.25999965028763
6.275405303030303,-1.28614840936661,1.19939771461487,-0.377514298725129
6.276011363636364,1.75792141485214,1.10599195289612,2.0893558184623697
6.276617424242424,2.79975491094589,0.773084238052368,2.5348294512748697
6.277223484848485,1.4992593054771401,-0.256774160385132,0.6954544512748709
6.277829545454545,-1.60468600702286,-1.5357145900726301,-2.00373256044388
6.278435606060606,-3.23090426874161,-0.960909902572632,-2.8874947674751303
6.279041666666667,-1.02030124139786,-0.469930898666382,-0.808617814350129
6.279647727272727,1.62140530157089,1.16586744117737,1.78518833799362
6.280253787878788,2.34230618047714,2.21488599586487,2.93240269346237
6.280859848484848,1.02265041875839,0.595852792739868,1.06907749814987
6.281465909090909,-1.1783725304603598,-1.32495287132263,-1.96301722841263
6.28207196969697,-2.17949069452286,-2.26140550804138,-3.09586146669388
6.28267803030303,-0.723318819522858,-1.2962126369476301,-0.463735001850129
6.283284090909091,0.476585965633392,1.8388679294586199,2.00074009580612
6.283890151515152,1.73397121953964,2.65077955055237,3.07610386533737
6.284496212121212,1.3795083289146401,0.9239704685211181,1.77081822080612
6.285102272727273,-0.431126436710358,-1.37524828147888,-1.44569300966263
6.285708333333333,-1.43224460077286,-2.6326335353851302,-2.7006832440376303
6.286314393939394,-1.82263278436661,-0.623212148666382,-1.2972017987251299
6.286920454545455,-0.440706514835358,2.35619214820862,0.872685896587371
6.287526515151515,1.94712795782089,1.73348707008362,2.48932408018112
6.288132575757576,2.53390774297714,0.42580640602111797,1.61753697080612
6.288738636363636,0.287379422664642,-1.27705248069763,-0.631386369037629
6.289344696969697,-1.53523044061661,-2.07698900413513,-2.3079000409126302
6.289950757575758,-2.69920993280411,-0.254379140853882,-1.84805629091263
6.290556818181818,-0.644283174991608,1.19939771461487,0.379311873149871
6.291162878787879,2.43810696172714,1.00540113258362,2.37675816221237
6.291768939393939,2.57462307500839,0.8209846286773681,2.25940220518112
6.292375,0.5580166296958919,-0.764518301010132,-0.0637667401313787
6.292981060606061,-2.2968466515541097,-1.64349046897888,-2.51387172060013
6.293587121212121,-2.89799655389786,-0.9082194728851319,-2.7677437909126303
6.294193181818182,-0.155699190616608,-0.685482656478882,-0.0110763104438787
6.294799242424242,2.2968008093833903,1.50356519508362,2.60668003721237
6.295405303030303,2.06687893438339,2.06399976539612,2.6881107012748697
6.296011363636364,0.275404325008392,0.0330232028961182,0.343386580181121
6.296617424242424,-1.42266452264786,-1.43991380882263,-2.18096400575638
6.297223484848486,-2.14835544061661,-2.35241625022888,-2.8779146893501304
6.297829545454545,-0.23233981561660802,-0.8483439846038819,-0.363144181537629
6.298435606060606,0.972355008602142,2.55497876930237,2.18994663877487
6.2990416666666675,1.66930569219589,2.47115308570862,2.28335240049362
6.299647727272728,1.00109524297714,0.174329355239868,0.664319197368621
6.300253787878788,-0.742478975772858,-1.85185716819763,-1.84566127138138
6.300859848484848,-1.57355075311661,-2.48893236351013,-2.67912806825638
6.3014659090909095,-1.79628756952286,-0.0627775783538818,-1.01698451356888
6.3020719696969705,0.179603543758392,2.47594312477112,1.36366490049362
6.30267803030303,2.36865139532089,1.38381421852112,2.56356968564987
6.3032840909090915,1.88246243047714,0.030628183364868198,1.13853306455612
6.303890151515152,-0.143724092960358,-1.64109544944763,-1.24211634950638
6.3044962121212125,-2.02620944452286,-1.93089281272888,-2.48034144716263
6.305102272727273,-2.62735934686661,0.301265390396118,-1.36905238466263
6.3057083333333335,-0.0191830773353576,1.22813794898987,0.968486677837371
6.306314393939394,2.89076565313339,0.971870859146118,2.65218540830612
6.306920454545455,2.22255520391464,0.8880451755523681,1.7013626543998701
6.307526515151515,-0.011998018741607601,-0.898639394760132,-0.7223971112251291
6.308132575757576,-2.5267685265541098,-1.61954027366638,-2.5042916424751303
6.308738636363636,-2.50281833124161,-0.7118278713226319,-2.07079310731888
6.309344696969697,0.330489774227142,-0.366945058822632,0.463137556743621
6.309950757575758,2.2201601843833902,1.49159009742737,2.78870152158737
6.310556818181818,2.16507473516464,1.87958326148987,2.35041294736862
6.311162878787879,0.208343778133392,-0.319044668197632,-0.418229630756379
6.311768939393939,-2.15314547967911,-1.47104906272888,-2.9138399823188803
6.312375,-1.7675473351478599,-2.31649095726013,-2.62883265810013
6.312981060606061,0.158048367977142,-0.350179922103882,0.199685408306121
6.313587121212121,1.23101711797714,2.89507154273987,3.17429966611862
6.314193181818182,1.60703518438339,2.08076490211487,3.0808939043998698
6.314799242424242,0.316119657039642,-0.0244572658538818,-0.0254464276313787
6.315405303030303,-1.15442233514786,-1.96442308616638,-2.20012416200638
6.316011363636364,-1.76275729608536,-2.17278978538513,-2.4611812909126303
6.316617424242424,-1.29093844842911,0.490471933364868,-0.456549943256379
6.317223484848485,0.507721219539642,2.40169751930237,1.86182896299362
6.317829545454545,2.25848049688339,1.11557203102112,2.42944859189987
6.318435606060606,1.41064358282089,-0.465140859603882,0.7337747637748709
6.319041666666667,-0.601172823429108,-2.05064378929138,-1.8576363690376299
6.319647727272727,-2.70879001092911,-1.68660082054138,-2.4875265057563802
6.320253787878788,-2.33277194452286,0.6461482028961181,-1.1008101971626298
6.320859848484848,0.783148465633392,1.15389234352112,1.67741245908737
6.321465909090909,3.05123196172714,0.797034433364868,2.4414236895561197
6.32207196969697,1.7387612586021401,0.634173105239868,1.24630894346237
6.32267803030303,-0.514952120304108,-1.47344408226013,-1.06727992372513
6.323284090909091,-2.89081149530411,-1.30818773460388,-2.7006832440376303
6.323890151515152,-2.15314547967911,-0.5489665431976319,-1.5917892010688799
6.324496212121212,1.31005276250839,-0.127443105697632,0.939746443462371
6.325102272727273,2.61533840703964,1.79336255836487,3.03299351377487
6.325708333333333,1.61422024297714,1.42692457008362,1.80195347471237
6.326314393939394,-0.656258272647858,-0.7908635158538819,-0.916393693256379
6.326920454545455,-2.3734872765541097,-1.61235521507263,-3.0862813885688802
6.327526515151515,-1.5160702843666098,-2.00513841819763,-2.2552096112251303
6.328132575757576,0.569991727352142,0.0593684177398682,0.9373514239311209
6.328738636363636,1.43219875860214,3.05793287086487,3.0665237872123696
6.329344696969697,1.53039455938339,1.60655103492737,1.89056919736862
6.329950757575758,0.162838407039642,-0.486696035385132,-0.830172990131379
6.330556818181818,-1.40350436639786,-2.22069017601013,-2.5450069745063804
6.331162878787879,-1.6142660851478599,-1.80874681663513,-2.1019283612251303
6.331768939393939,-1.1089169640541099,1.26166822242737,0.111069685649871
6.332375,1.4992593054771401,2.45438794898987,2.24024204893112
6.332981060606061,2.80693996953964,1.11317701148987,2.07019566221237
6.333587121212121,0.890924344539642,-0.510646230697632,-0.126037247943879
6.334193181818182,-1.04425143671036,-2.13446947288513,-2.1426436932563804
6.334799242424242,-2.78303561639786,-1.27944750022888,-2.21688929872513
6.335405303030303,-1.61187106561661,1.01258619117737,-0.655336564350129
6.336011363636364,1.35316311407089,1.08443677711487,1.93846958799362
6.336617424242424,3.14224270391464,1.03653638648987,2.43423863096237
6.337223484848485,1.07055080938339,0.356350839614868,0.5972586504936209
6.337829545454545,-1.3364438195228598,-1.44470384788513,-1.76662562685013
6.338435606060606,-2.98182223749161,-1.0567106838226301,-3.0599361737251303
6.339041666666667,-1.30770358514786,-0.560941640853882,-0.985849259662629
6.339647727272727,1.83935207891464,0.42580640602111797,1.80195347471237
6.340253787878789,2.52672268438339,2.07357984352112,3.05454868955612
6.340859848484849,1.0130703406333899,1.30238355445862,1.16487827939987
6.341465909090909,-1.41068942499161,-0.9106144924163819,-1.82650111513138
6.3420719696969705,-2.6129892296791097,-1.74647630882263,-3.03119593935013
6.342678030303031,-0.711343721866608,-2.06261888694763,-1.30917689638138
6.343284090909091,1.0250454382896401,0.8688850193023681,1.66064732236862
6.3438901515151525,1.47291409063339,3.27827466773987,3.06173374814987
6.3444962121212125,1.4561489539146402,1.20897779273987,1.1624832598686201
6.3451022727272735,-0.378436007022858,-0.7333830471038819,-1.35947230653763
6.345708333333333,-1.63821628046036,-2.49132738304138,-2.80606410341263
6.3463143939393944,-1.4082944054603599,-1.53331957054138,-2.0492379315376303
6.346920454545455,-0.323350557804108,1.66403150367737,0.889451033306121
6.3475265151515154,1.53518459844589,2.11669019508362,2.45579380674362
6.348132575757576,2.16507473516464,0.8473298435211181,1.45946568174362
6.3487386363636364,0.301749539852142,-0.8148137111663819,-0.38948939638137897
6.349344696969697,-1.38194919061661,-2.01711351585388,-2.3150850995063803
6.349950757575758,-2.7662704796791098,-0.6567424221038819,-2.2025191815376304
6.350556818181818,-1.04185641717911,1.04372144508362,0.111069685649871
6.351162878787879,2.03574368047714,1.08922681617737,2.19473667783737
6.351768939393939,2.88597561407089,1.13712720680237,2.49650913877487
6.352375,0.665792508602142,-0.244799062728882,0.26914097471237103
6.352981060606061,-1.90645846796036,-1.94047289085388,-2.2456295331001304
6.353587121212121,-2.79980075311661,-0.843553945541382,-2.68870814638138
6.354193181818182,-0.517347139835358,-0.369340078353882,-0.526005509662629
6.354799242424242,2.2369253211021403,0.598247812271118,2.0199002520561202
6.355405303030303,2.42852688360214,2.15980054664612,3.01862339658737
6.356011363636364,0.498141141414642,0.636568124771118,0.6571341387748709
6.356617424242424,-1.89448337030411,-1.16927660179138,-2.22646937685013
6.357223484848485,-2.36390719842911,-1.62912035179138,-2.9737154706001303
6.357829545454545,-0.198809542179108,-1.56445482444763,-0.7391622479438791
6.358435606060606,1.3028677039146401,1.61613111305237,2.0630106036186198
6.359041666666667,1.7172060828208902,2.89267652320862,2.82223179502487
6.359647727272727,0.684952664852142,0.38509107398986797,0.827180525493621
6.360253787878788,-1.05143649530411,-1.0567106838226301,-1.67561488466263
6.360859848484849,-1.68372165155411,-2.35002123069763,-2.49950160341263
6.361465909090909,-1.21908786249161,-0.996835195541382,-1.12955043153763
6.36207196969697,0.11733303594589199,2.08794996070862,1.10979283018112
6.36267803030303,2.1602846961021402,1.68079664039612,2.63542027158737
6.363284090909091,2.22974026250839,0.418621347427368,1.41635533018112
6.363890151515151,-0.268265108585358,-1.07826585960388,-1.18463588075638
6.364496212121212,-1.93280368280411,-2.1536296291351302,-2.0683980877876302
6.365102272727273,-2.28247653436661,-0.484301015853882,-1.67082484560013
6.365708333333333,-0.174859346866608,1.08683179664612,0.362546736431121
6.366314393939394,2.5626479773521402,0.911995370864868,2.8940823809623697
6.366920454545455,2.32075100469589,0.871280038833618,2.1659964434623697
6.367526515151515,-0.009602999210357639,-0.661532461166382,-0.913998673725129
6.368132575757576,-2.33277194452286,-1.67941576194763,-2.64559779481888
6.368738636363636,-2.46210299921036,-0.5681266994476319,-2.37256556825638
6.369344696969697,0.404735379695892,-0.496276113510132,0.206870466899871
6.369950757575758,2.60336330938339,1.02695630836487,2.4246585528373696
6.370556818181818,2.24650539922714,2.38014234352112,2.9707230059623697
6.371162878787879,-0.0072079796791076406,0.11205884742736799,0.264350935649871
6.371768939393939,-2.26810641717911,-1.21238695335388,-2.78211390810013
6.372375,-2.16512057733536,-1.91891771507263,-2.22407435731888
6.372981060606061,0.464610867977142,-1.13335130882263,0.0128738848686213
6.373587121212121,1.49207424688339,2.31547681617737,2.6114700762748697
6.374193181818182,1.76271145391464,2.42804273414612,2.7216409747123698
6.374799242424242,0.380785184383392,0.449756601333618,0.0176639239311213
6.375405303030303,-1.58552585077286,-1.26028734397888,-2.2647896893501303
6.376011363636364,-1.76275729608536,-2.63023851585388,-2.58572230653763
6.376617424242424,-0.993956026554108,-0.431610586166382,-0.7990377362251291
6.377223484848485,0.682557645320892,2.38493238258362,1.72052281064987
6.377829545454545,2.1770498328208903,1.64726636695862,2.2522171465873697
6.378435606060606,1.17114162969589,0.236599863052368,0.661924177837371
6.379041666666668,-0.711343721866608,-1.54289964866638,-1.38102748231888
6.379647727272727,-2.30403171014786,-1.96442308616638,-2.74618861513138
6.380253787878788,-1.86813815546036,0.0545783786773682,-1.34510218935013
6.380859848484848,0.548436551570892,1.26166822242737,1.39240513486862
6.38146590909091,2.91471584844589,0.916785409927368,2.9276126543998697
6.38207196969697,2.01179348516464,0.914390390396118,1.56724156064987
6.38267803030303,-0.620332979679108,-0.805233633041382,-1.33073207216263
6.3832840909090915,-2.57945895624161,-1.63870042991638,-2.71265834169388
6.383890151515152,-2.24894626092911,-0.314254629135132,-1.87679652528763
6.384496212121212,1.14958645391464,-0.105887929916382,0.750539900493621
6.3851022727272735,2.74466946172714,1.38381421852112,2.99227818174362
6.3857083333333335,1.64775051641464,1.92269361305237,2.07498570127487
6.3863143939393945,-0.967610811710358,-0.582496816635132,-0.787062638568879
6.386920454545455,-2.7662704796791098,-1.33692796897888,-2.9377901776313804
6.3875265151515155,-1.57834079217911,-1.78719164085388,-2.23125941591263
6.388132575757576,0.792728543758392,-0.6543474025726319,0.549358259868621
6.3887386363636365,1.8369570593833902,2.53581861305237,2.59709995908737
6.389344696969697,1.83216702032089,1.97298902320862,2.25461216611862
6.389950757575758,-0.500582003116608,-0.07714769554138179,-0.11645716981887899
6.390556818181818,-2.16033053827286,-1.54529466819763,-2.4180709393501303
6.391162878787879,-1.72683200311661,-2.08656908226013,-2.4013058026313803
6.391768939393939,-0.665838350772858,0.14798414039611799,-0.27213343935012896
6.392375,1.41543362188339,2.49989332008362,2.3552029864311197
6.392981060606061,2.3830215125083902,1.40057935523987,2.29772251768112
6.393587121212121,0.653817410945892,0.030628183364868198,-0.123642228412629
6.394193181818182,-1.21429782342911,-1.73210619163513,-1.87679652528763
6.394799242424242,-2.28008151483536,-1.73450121116638,-2.5450069745063804
6.395405303030303,-1.28135837030411,0.552742441177368,-0.8828634198188791
6.396011363636364,1.33400295782089,1.14910230445862,1.94804966611862
6.396617424242424,2.98417141485214,0.9814509372711181,2.6641605059623696
6.397223484848485,0.881344266414642,0.5862727146148681,0.946931502056121
6.397829545454545,-1.20950778436661,-1.27226244163513,-1.74267543153763
6.398435606060606,-2.89799655389786,-1.36806322288513,-2.96174037294388
6.399041666666667,-1.85137301874161,-0.285514394760132,-1.46964320497513
6.399647727272727,1.9830532507896401,-0.103492910385132,1.5217361895561201
6.400253787878788,2.7159292273521403,1.48440503883362,3.15753452939987
6.400859848484848,1.1016860632896401,1.55865064430237,1.7396829668998701
6.401465909090909,-1.24303805780411,-0.541781484603882,-1.54149379091263
6.40207196969697,-2.77106051874161,-1.36566820335388,-3.2036373456001304
6.40267803030303,-0.864624971866608,-1.74408128929138,-1.75704554872513
6.403284090909091,1.42740871953964,0.164749277114868,1.02836216611862
6.403890151515152,1.8752773718833902,2.69149488258362,3.41140659971237
6.404496212121212,1.51362942266464,1.40536939430237,1.7348929278373701
6.405102272727273,-0.953240694522858,-0.527411367416382,-1.03853968935013
6.405708333333333,-2.3303769249916098,-1.83988207054138,-2.7869039471626302
6.406314393939394,-1.26938327264786,-1.8734123439788801,-1.98457240419388
6.406920454545455,0.0502724890708924,0.8209846286773681,0.606838728618621
6.407526515151515,1.5806899695396401,2.29152662086487,2.54680454893112
6.408132575757576,2.28243069219589,1.04372144508362,2.0630106036186198
6.408738636363636,-0.0527133507728576,-0.450770742416382,-0.494870255756379
6.409344696969697,-1.50649020624161,-1.93568285179138,-2.6815230877876304
6.409950757575758,-2.40941256952286,-1.27705248069763,-2.3821456463813804
6.410556818181818,-1.04425143671036,0.694048593521118,0.00808384580612135
6.411162878787879,2.15070461797714,1.25448316383362,2.1420462481498697
6.411768939393939,3.02009670782089,1.12275708961487,2.38394322080612
6.412375,0.641842313289642,0.0354182224273682,0.26914097471237103
6.412981060606061,-1.54720553827286,-1.53092455101013,-2.42286097841263
6.413587121212121,-2.91955172967911,-1.22436205101013,-2.8635445721626303
6.414193181818182,-0.9388705773353581,-0.539386465072632,-0.475710099506379
6.414799242424242,2.68479397344589,0.286895273208618,1.87380406064987
6.415405303030303,2.63689358282089,1.84126294898987,3.0401785723686197
6.416011363636364,0.684952664852142,0.873675058364868,0.9732767168998709
6.416617424242424,-1.7340170617103599,-0.9920451564788819,-2.05402797060013
6.417223484848485,-3.08480807733536,-1.32974291038513,-2.97611049013138
6.417829545454545,-0.754454073429108,-1.6339103908538801,-1.11997035341263
6.418435606060606,1.80582180547714,0.6437531833648681,2.02948033018112
6.419041666666667,2.12675442266464,2.81843091773987,3.03538853330612
6.419647727272727,1.13521633672714,1.06767164039612,1.1576932208061201
6.420253787878788,-1.44900973749161,-0.7956535549163819,-1.4121627362251299
6.420859848484848,-2.4165976281166097,-1.79198167991638,-2.74858363466263
6.421465909090909,-0.972400850772858,-1.38722337913513,-1.26606654481888
6.422071969696971,0.392760282039642,1.31435865211487,1.12416294736862
6.42267803030303,2.08603909063339,1.96819898414612,2.45579380674362
6.423284090909091,2.08603909063339,0.732368906021118,1.2343338458061202
6.4238901515151525,-0.831094698429108,-0.625607168197632,-1.1391305096626299
6.424496212121213,-2.16272555780411,-1.93089281272888,-2.3486153729438803
6.425102272727273,-2.12440524530411,-0.738173086166382,-1.87679652528763
6.425708333333333,-0.0191830773353576,0.995821054458618,0.37691685361862104
6.4263143939393945,2.56025295782089,0.9048103122711181,2.7048758379936197
6.4269204545454555,2.57222805547714,0.8880451755523681,2.27377232236862
6.427526515151515,-0.12456393671035801,-0.0627775783538818,-0.197887833881379
6.4281325757575765,-2.68004977655411,-1.72492113304138,-2.45639125185013
6.4287386363636365,-2.71837008905411,-0.7764933986663819,-2.3318502362251303
6.4293446969696975,0.0430874304771424,-0.47232591819763203,-0.058976701068878694
6.429950757575758,2.9386660437583902,0.5216071872711181,1.9959500567436201
6.4305568181818185,2.49798245000839,2.04244458961487,2.53961949033737
6.431162878787879,-0.359275850772858,0.238994882583618,0.39847202939987103
6.4317689393939395,-2.4165976281166097,-0.8100236721038819,-2.65996791200638
6.432375,-2.68004977655411,-1.25070726585388,-2.6575728924751303
6.432981060606061,0.0287173132896424,-1.52852953147888,-0.423019669818879
6.433587121212121,2.28961575078964,1.38860425758362,2.9443777911186197
6.434193181818182,2.00460842657089,2.52863355445862,3.5096024004936197
6.434799242424242,0.352044950008392,0.452151620864868,0.49666783018112104
6.435405303030303,-1.81784274530411,-0.6926677150726319,-1.95822718935013
6.436011363636364,-2.1076401085853598,-2.00992845726013,-3.00964076356888
6.436617424242424,-0.780799288272858,-0.9561198635101319,-0.806222794818879
6.437223484848485,1.20946194219589,1.91550855445862,1.7013626543998701
6.437829545454545,2.38541653203964,1.86521314430237,2.47974400205612
6.438435606060606,1.25496731328964,0.31563550758361797,0.867895857524871
6.439041666666667,-0.996351046085358,-1.16688158226013,-1.52233363466263
6.439647727272727,-2.43815280389786,-1.94765794944763,-2.69589320497513
6.440253787878788,-1.85616305780411,-0.34299486351013203,-1.58220912294388
6.440859848484848,0.881344266414642,1.06767164039612,1.04512730283737
6.441465909090909,3.40808987188339,0.890440195083618,2.6545804278373697
6.44207196969697,2.35188625860214,0.818589609146118,1.7181277911186201
6.44267803030303,-0.7592441124916081,-0.5920768947601319,-0.767902482318879
6.443284090909091,-2.73513522577286,-1.80635179710388,-2.8467794354438802
6.443890151515152,-2.23457614374161,-0.6088420314788819,-2.07797816591263
6.444496212121212,0.981935086727142,-0.132233144760132,0.7170096270561209
6.445102272727273,3.38413967657089,0.677283456802368,2.85576206846237
6.445708333333333,2.10280422735214,1.82449781227112,2.49650913877487
6.446314393939394,-0.591592745304108,0.0689484958648682,-0.336798966693879
6.446920454545455,-3.05606784296036,-0.865109121322632,-2.95934535341263
6.447526515151515,-2.16512057733536,-1.31537279319763,-2.3055050213813804
6.448132575757576,1.03462551641464,-0.8962443752288819,0.240400740337371
6.448738636363636,2.32075100469589,1.92987867164612,2.50369419736862
6.449344696969697,2.03813870000839,2.30589673805237,2.69290074033737
6.449950757575758,-0.28503024530410803,0.10487378883361799,-0.178727677631379
6.450556818181818,-2.52197848749161,-0.9896501369476319,-2.47076136903763
6.451162878787879,-1.85616305780411,-1.87580736351013,-2.70547328310013
6.451768939393939,-0.234734835147858,-0.7309880275726319,-0.355959122943879
6.452375,1.54715969610214,2.05441968727112,2.1085159747123696
6.452981060606061,2.3399111609458902,1.46284986305237,2.4653738848686197
6.453587121212121,0.795123563289642,0.124033945083618,0.484692732524871
6.454193181818182,-1.45858981561661,-1.15969652366638,-1.9390670331001298
6.454799242424242,-2.54592868280411,-1.86143724632263,-2.37975062685013
6.455405303030303,-1.32686374139786,-0.050802480697631804,-1.06488490419388
6.456011363636364,1.1831167273521401,1.12994214820862,1.69896763486862
6.456617424242424,2.84765530157089,0.9287605075836181,2.75277622861862
6.457223484848485,1.29568264532089,0.6461482028961181,0.963696638774871
6.457829545454545,-1.14723727655411,-0.9297746486663819,-1.49598841981888
6.458435606060606,-3.2117441124916097,-1.67941576194763,-3.1198116620063803
6.459041666666667,-2.00225924921036,-0.501066152572632,-1.66603480653763
6.459647727272727,1.81061184453964,-0.0124821681976318,1.38522007627487
6.460253787878788,3.24283352422714,1.04851148414612,3.01143833799362
6.460859848484849,1.55194973516464,1.60415601539612,1.72531284971237
6.461465909090909,-1.20711276483536,-0.47232591819763203,-1.21337611513138
6.46207196969697,-3.25006442499161,-1.02797044944763,-2.99527064638138
6.46267803030303,-1.53044040155411,-1.20520189476013,-2.21449427919388
6.463284090909091,1.54955471563339,-0.520226308822632,1.02357212705612
6.463890151515152,2.45247707891464,2.15022046852112,3.5622928301811196
6.464496212121212,1.8848574500083901,1.79575757789612,1.97199986143112
6.465102272727274,-1.03467135858536,-0.194503652572632,-0.952318986225129
6.465708333333334,-2.9123666710853597,-1.26268236351013,-2.72223841981888
6.466314393939394,-1.7723373742103599,-1.8350920314788801,-2.1522237713813803
6.466920454545454,0.129308133602142,0.10247876930236799,0.360151716899871
6.4675265151515156,2.0836440711021402,2.03286451148987,2.3983133379936197
6.4681325757575765,2.19141995000839,1.09401685523987,2.1420462481498697
6.468738636363636,-0.205994600772858,-0.07954271507263179,-0.276923478412629
6.4693446969696975,-1.90406344842911,-1.39680345726013,-2.16419886903763
6.469950757575758,-2.32319186639786,-1.55247972679138,-2.2719747479438803
6.4705568181818185,-0.785589327335358,0.454546640396118,-0.394279435443879
6.471162878787879,1.94233791875839,1.10359693336487,2.21389683408737
6.4717689393939395,3.02728176641464,0.9455256443023681,2.65218540830612
6.472375,0.637052274227142,0.09050367164611821,0.580493513774871
6.472981060606061,-1.98788913202286,-1.22915209007263,-1.90074672060013
6.473587121212121,-3.02972262811661,-1.28423753929138,-3.0671212323188803
6.474193181818182,-1.15921237421036,-0.422030508041382,-0.990639298725129
6.474799242424242,2.43571194219589,0.318030527114868,1.6798074786186201
6.475405303030303,2.88597561407089,1.27603833961487,2.9898831622123696
6.476011363636364,0.720877957820892,1.05330152320862,1.17685337705612
6.476617424242424,-2.11243014764786,-0.901034414291382,-1.7762057049751299
6.477223484848485,-3.30754489374161,-0.939354726791382,-2.97611049013138
6.477829545454545,-0.890970186710358,-1.03755052757263,-1.5965792401313799
6.478435606060606,2.12675442266464,-0.21126878929138201,1.4738357989311202
6.479041666666667,2.68479397344589,2.13585035133362,3.22459507627487
6.479647727272727,1.14240139532089,1.43171460914612,1.5935867754936202
6.480253787878788,-1.79628756952286,-0.364550039291382,-1.66363978700638
6.480859848484849,-2.93152682733536,-1.35129808616638,-2.78929896669388
6.481465909090909,-1.14484225702286,-1.73210619163513,-1.5965792401313799
6.48207196969697,0.7975185828208919,0.552742441177368,0.944536482524871
6.48267803030303,2.26806057500839,1.98735914039612,2.73840611143112
6.483284090909091,2.30398586797714,1.22813794898987,1.81153355283737
6.483890151515151,-0.558062471866608,-0.134628164291382,-1.06967494325638
6.484496212121212,-2.5100033898353598,-1.66504564476013,-2.5641671307563803
6.485102272727273,-2.08129489374161,-1.14532640647888,-1.82889613466263
6.485708333333333,-0.059898409366607605,0.753924081802368,-0.0278414471626287
6.486314393939394,2.58659817266464,1.12754712867737,2.5611746661186197
6.486920454545455,2.71353420782089,0.952710702896118,2.5851248614311197
6.487526515151515,0.031112332820892402,0.0737385349273682,-0.0038912518501286503
6.488132575757576,-2.33756198358536,-1.46865404319763,-2.60009242372513
6.488738636363636,-2.80219577264786,-0.826788808822632,-2.91144496278763
6.489344696969697,-0.129353975772858,-0.21126878929138201,-0.305663712787629
6.489950757575758,3.12547756719589,0.368325937271118,2.1420462481498697
6.490556818181818,2.97459133672714,1.68319165992737,3.01622837705612
6.491162878787879,0.478980985164642,0.753924081802368,0.810415388774871
6.491768939393939,-2.24415622186661,-0.898639394760132,-2.4516012127876303
6.492375,-3.35544528436661,-1.06389574241638,-2.65996791200638
6.492981060606061,-0.447891573429108,-1.13335130882263,-0.478105119037629
6.493587121212121,2.66802883672714,0.483286874771118,1.68220249814987
6.494193181818182,2.50037746953964,2.39451246070862,3.4760721270561197
6.494799242424242,0.586756864070892,0.8473298435211181,1.20798863096237
6.495405303030303,-2.21541598749161,-0.544176504135132,-2.21449427919388
6.496011363636364,-2.8524911828041097,-1.44230882835388,-2.86833461122513
6.496617424242424,-0.6993686242103581,-1.23873216819763,-1.23014125185013
6.497223484848485,1.50644436407089,1.21376783180237,1.52652622861862
6.497829545454545,2.33033108282089,1.8771882419586199,2.66655552549362
6.498435606060606,1.44177883672714,0.7012336521148681,1.19122349424362
6.499041666666667,-1.29093844842911,-0.5369914455413819,-1.33791713075638
6.499647727272727,-2.81896090936661,-1.79916673851013,-2.62883265810013
6.500253787878788,-1.8705331749916099,-0.738173086166382,-1.60376429872513
6.500859848484848,0.802308621883392,0.8832551364898681,0.709824568462371
6.501465909090909,2.92669094610214,0.914390390396118,2.6473953692436196
6.50207196969697,2.05011379766464,0.8018244724273681,2.1420462481498697
6.50267803030303,-0.634703096866608,-0.242404043197632,-0.8205929120063791
6.503284090909091,-3.03690768671036,-1.6937858791351301,-2.8467794354438802
6.503890151515151,-2.46449801874161,-0.764518301010132,-2.29352992372513
6.504496212121212,0.756803250789642,0.0282331638336182,0.321831404399871
6.505102272727273,3.31947414922714,0.452151620864868,2.82223179502487
6.505708333333333,2.56983303594589,1.73827710914612,2.81504673643112
6.506314393939395,-0.565247530460358,0.126428964614868,-0.10448207216262899
6.506920454545455,-2.98182223749161,-0.778888418197632,-3.01443080263138
6.507526515151515,-2.69441989374161,-0.965699941635132,-2.51387172060013
6.5081325757575765,0.344859891414642,-1.05431566429138,-0.159567521381379
6.508738636363637,2.84765530157089,0.9646858005523681,2.2785623614311197
6.509344696969697,2.56983303594589,1.92269361305237,2.88929234189987
6.5099507575757585,-0.0431332726478576,0.502447031021118,0.420027205181121
6.5105568181818185,-2.8692563195228598,-0.443585683822632,-2.1785689862251303
6.5111628787878795,-2.6129892296791097,-1.31776781272888,-3.02880091981888
6.511768939393939,-0.392806124210358,-0.917799551010132,-0.387094376850129
6.5123750000000005,2.02855862188339,1.41255445289612,2.00313511533737
6.512981060606061,2.37583645391464,1.57302076148987,2.63542027158737
6.5135871212121215,0.852604032039642,0.377906015396118,0.8176004473686209
6.514193181818182,-1.8154477257728598,-1.00641527366638,-2.06360804872513
6.5147992424242425,-2.7926156945228597,-1.74168626976013,-2.64320277528763
6.515405303030303,-1.34123385858536,-0.378920156478882,-1.14392054872513
6.516011363636364,1.1232412390708901,1.01498121070862,1.31336949033737
6.516617424242424,3.1949331336021403,1.07246167945862,2.6545804278373697
6.517223484848485,1.60703518438339,0.636568124771118,1.66304234189987
6.517829545454545,-1.18555758905411,-0.560941640853882,-1.40737269716263
6.518435606060606,-3.07283297967911,-1.60038011741638,-2.9976656659126304
6.519041666666667,-1.90406344842911,-0.441190664291382,-1.82650111513138
6.519647727272727,1.24538723516464,0.016258066177368198,1.0547073809623702
6.520253787878788,3.3314492468833903,0.576692636489868,2.87492222471237
6.520859848484848,2.17465481328964,1.63050123023987,2.1683914629936196
6.521465909090909,-0.811934542179108,-0.09391283226013179,-0.6577315838813791
6.52207196969697,-3.47519626092911,-0.8100236721038819,-3.04796107606888
6.52267803030303,-2.38067233514786,-1.09024095726013,-2.5617721112251304
6.523284090909091,1.28370754766464,-0.742963125228882,1.03315220518112
6.523890151515152,3.2811538367271402,1.28322339820862,3.59821812314987
6.524496212121212,2.2536904578208903,1.64966138648987,2.17078648252487
6.525102272727273,-0.843069796085358,0.11205884742736799,-0.526005509662629
6.525708333333333,-3.4680112023353598,-0.721407949447632,-2.5617721112251304
6.526314393939394,-2.38785739374161,-1.49260423851013,-2.40609584169388
6.526920454545455,0.354439969539642,-0.527411367416382,0.127834822368621
6.527526515151515,2.38541653203964,1.55625562477112,2.1851565997123696
6.528132575757576,2.32793606328964,1.45326978492737,2.2426370684623698
6.528738636363636,0.10056789922714199,0.0737385349273682,0.22842564268112098
6.529344696969697,-2.02141940546036,-1.19562181663513,-2.04684291200638
6.529950757575758,-2.79022067499161,-1.62193529319763,-2.19293910341263
6.530556818181818,-0.591592745304108,-0.256774160385132,-0.851728165912629
6.531162878787879,1.94712795782089,0.9886359958648681,1.62232700986862
6.531768939393939,2.87400051641464,1.09162183570862,2.95156284971237
6.532375,1.23101711797714,0.353955820083618,1.1792483965873701
6.532981060606061,-1.86574313592911,-1.05910570335388,-1.97978236513138
6.533587121212121,-3.11115329217911,-1.35369310569763,-3.10544154481888
6.534193181818182,-1.3100986046791099,-0.429215566635132,-1.1558956463813799
6.534799242424242,1.7603164343833901,0.301265390396118,1.57921665830612
6.535405303030303,3.38892971563339,0.8688850193023681,3.27489048643112
6.536011363636364,1.4393838171958901,1.10359693336487,1.81871861143112
6.536617424242424,-1.96393893671036,-0.448375722885132,-1.44569300966263
6.537223484848485,-3.56860202264786,-0.9872551174163819,-3.31141322450638
6.537829545454545,-1.86334811639786,-0.982465078353882,-1.7977608807563799
6.538435606060606,1.82977200078964,-0.386105215072632,1.3373196856498701
6.539041666666667,3.18295803594589,1.48440503883362,2.87492222471237
6.539647727272727,1.63817043828964,1.36704908180237,2.2019217364311197
6.540253787878788,-1.20950778436661,-0.0603825588226318,-1.0193795331001299
6.540859848484848,-3.53507174921036,-0.9345646877288819,-2.83480433778763
6.541465909090909,-1.76036227655411,-1.45907396507263,-2.03965785341263
6.54207196969697,0.883739285945892,0.0617634372711182,0.805625349712371
6.54267803030303,2.85723537969589,1.5179353122711199,2.71924595518112
6.543284090909091,2.3830215125083902,1.13952222633362,1.7348929278373701
6.543890151515152,-0.450286592960358,-0.0412224025726318,-0.588276017475129
6.544496212121212,-2.5363486046791097,-1.25310228538513,-2.4851314862251304
6.545102272727273,-2.47407809686661,-1.42314867210388,-2.05402797060013
6.545708333333333,0.035902371883392396,0.08571363258361821,-0.0901119549751287
6.546314393939394,2.6823989539146402,1.00300611305237,2.34322788877487
6.546920454545456,2.84286526250839,0.9886359958648681,2.7647513262748697
6.547526515151515,0.36402004766464197,0.11684888648986799,0.44876743955612103
6.548132575757576,-2.62256930780411,-1.31537279319763,-2.66954799013138
6.548738636363636,-3.26922458124161,-1.07587084007263,-2.98808558778763
6.549344696969698,-0.711343721866608,-0.242404043197632,-0.6385714276313791
6.549950757575758,2.82370510625839,0.25576001930236797,2.08456577939987
6.550556818181818,3.40808987188339,1.16107740211487,3.01862339658737
6.5511628787878795,0.723272977352142,0.8616999607086181,0.987646834087371
6.55176893939394,-2.47886813592911,-0.7477531642913819,-2.2120992596626303
6.552375,-3.57339206171036,-0.965699941635132,-3.3664986737251303
6.5529810606060614,-0.766429171085358,-0.6926677150726319,-0.8205929120063791
6.5535871212121215,2.34949123907089,0.174329355239868,2.08696079893112
6.5541931818181824,3.42245998907089,1.84844800758362,3.81137486143112
6.5547992424242425,1.01786037969589,1.18502759742737,1.68938755674362
6.555405303030303,-2.15554049921036,-0.467535879135132,-1.97978236513138
6.556011363636364,-3.57578708124161,-0.960909902572632,-2.85875453310013
6.556617424242424,-1.54002047967911,-1.0351555080413801,-1.39300257997513
6.557223484848485,1.60943020391464,0.373115976333618,1.3804300372123701
6.557829545454545,2.88837063360214,1.55625562477112,2.66655552549362
6.558435606060606,1.8154018836021402,0.8640949802398681,1.54329136533737
6.559041666666667,-1.17118747186661,-0.204083730697632,-1.17026576356888
6.559647727272727,-2.83333102655411,-1.10700609397888,-2.6647579510688804
6.560253787878788,-2.33995700311661,-1.16209154319763,-1.67082484560013
6.560859848484848,0.411920438289642,0.392276132583618,0.281116072368621
6.561465909090909,2.92908596563339,1.12275708961487,2.4414236895561197
6.56207196969697,2.45008205938339,0.9431306247711181,2.4510037676811196
6.56267803030303,-0.277845186710358,-0.0987028713226318,-0.058976701068878694
6.563284090909091,-2.91476169061661,-1.36087816429138,-2.76534877138138
6.563890151515152,-2.92194674921036,-1.00162523460388,-2.61925257997513
6.564496212121212,0.148468289852142,-0.249589101791382,0.31704136533737104
6.565102272727273,3.62124661016464,0.416226327896118,2.5420145098686198
6.565708333333333,2.99375149297714,1.31196363258362,2.63302525205612
6.566314393939394,0.0119521765708924,0.363535898208618,0.35775669736862103
6.566920454545455,-2.88362643671036,-0.7477531642913819,-2.64320277528763
6.567526515151515,-3.29796481561661,-0.7285930080413819,-2.77013881044388
6.568132575757576,-0.0431332726478576,-0.719012929916382,-0.573905900287629
6.568738636363636,2.90753078985214,0.497656991958618,2.05343052549362
6.569344696969697,3.33863430547714,1.66403150367737,3.03299351377487
6.569950757575758,0.529276395320892,0.677283456802368,0.707429548931121
6.570556818181818,-3.03930270624161,-0.6112370510101319,-2.5641671307563803
6.571162878787879,-3.15665866327286,-1.22675707054138,-3.15094691591263
6.571768939393939,-0.720923799991608,-0.7166179103851319,-0.688866837787629
6.572375,1.8752773718833902,0.859304941177368,1.92649449033737
6.572981060606061,2.9721963171958903,1.3598640232086199,2.8342068926811197
6.573587121212121,1.38190334844589,0.497656991958618,0.9780667559623709
6.574193181818182,-1.90166842889786,-0.601656972885132,-1.85524134950638
6.574799242424242,-3.22371921014786,-1.31297777366638,-2.44681117372513
6.575405303030303,-1.5160702843666098,-0.7740983791351319,-1.15350062685013
6.576011363636364,1.19748684453964,0.500052011489868,1.1361380450248701
6.576617424242424,3.3745595984458903,0.9024152927398681,2.79588658018112
6.577223484848485,1.92796780157089,0.571902597427368,1.77081822080612
6.577829545454545,-1.0322763390541099,-0.40287035179138203,-0.9379488690376291
6.578435606060606,-3.29317477655411,-1.25549730491638,-2.93300013856888
6.579041666666667,-2.39264743280411,-0.766913320541382,-1.97499232606888
6.579647727272727,1.1998818640708901,0.0426032810211182,0.951721541118621
6.580253787878788,3.74818264532089,0.464126718521118,2.75517124814987
6.580859848484849,2.50516750860214,1.33351880836487,2.31688267393112
6.581465909090909,-0.910130342960358,0.0641584568023682,-0.317638810443879
6.58207196969697,-3.69314303827286,-0.702247793197632,-2.85875453310013
6.58267803030303,-2.77106051874161,-0.9273796291351319,-2.18335902528763
6.583284090909091,0.716087918758392,-0.525016347885132,0.12304478330612101
6.583890151515152,3.32665920782089,1.10359693336487,3.03538853330612
6.584496212121212,2.77101467657089,1.46763990211487,2.7815164629936198
6.585102272727273,-0.409571260929108,0.471311777114868,0.0224539629936213
6.585708333333333,-3.43208590936661,-0.460350820541382,-2.4683663495063803
