Time (s),Accel X (m/s^2),Accel Y (m/s^2),Accel Z (m/s^2),CI Value
5.81875,-0.058095595836639397,-0.123043754196167,0.0347595920562746,0.7348464828042971
5.819355693519079,-0.010195205211639401,0.025447456741333,0.22875617408752502,0.7348464828042971
5.819961387038158,-0.0317503809928894,0.16196357002258302,0.255101388931275,0.7348464828042971
5.820567080557238,-0.0389354395866394,0.011077339553832999,0.0898450412750246,0.7348464828042971
5.821172774076317,0.0448902440071106,-0.101488578414917,0.22396613502502502,0.7348464828042971
5.821778467595396,-0.058095595836639397,-0.13741387138366698,0.20001593971252501,0.7348464828042971
5.822384161114476,-0.0892308497428894,-0.034428031539917,-0.06343620872497541,0.7348464828042971
5.822989854633555,-0.228141982555389,0.063767769241333,-0.029905935287475403,0.7348464828042971
5.8235955481526345,-0.201796767711639,0.032632515335083,0.15930060768127502,0.7348464828042971
5.824201241671714,0.06405040025711059,-0.036823051071167,0.336532052993775,0.7348464828042971
5.824806935190793,-0.0844408106803894,0.035027534866333,0.10421515846252499,0.7348464828042971
5.825412628709873,0.0161500096321106,0.099693062210083,-0.0442760524749754,0.7348464828042971
5.826018322228951,-0.0628856348991394,-0.139808890914917,0.21438605690002502,0.7348464828042971
5.826624015748031,-0.0317503809928894,-0.010477836227417001,0.14014045143127501,0.7348464828042971
5.827229709267111,-0.129946181774139,0.140408394241333,-0.0251158962249754,0.7348464828042971
5.82783540278619,0.0856055760383606,0.049397652053833,-0.171212087631225,0.7348464828042971
5.828441096305269,0.200566513538361,-0.024847953414917,-0.14965691184997498,0.7348464828042971
5.829046789824349,-0.108391005992889,0.025447456741333,0.444307931900025,0.7348464828042971
5.829652483343428,0.169431259632111,0.070952827835083,0.456283029556275,0.7348464828042971
5.8302581768625075,0.234096786975861,-0.063168265914917,0.0994251194000246,0.7348464828042971
5.830863870381586,-0.0964159083366394,-0.108673637008667,0.17367072486877502,0.7348464828042971
5.831469563900666,-0.0293553614616394,0.013472359085083,0.123375314712525,0.7348464828042971
5.832075257419746,-0.0054051661491394,-0.036823051071167,0.0682898654937746,0.7348464828042971
5.832680950938824,0.157456161975861,0.078137886428833,0.0491297092437746,0.7348464828042971
5.833286644457904,0.0472852635383606,0.159568550491333,0.152115549087525,0.7348464828042971
5.833892337976983,-0.185031630992889,-0.089513480758667,0.0922400608062746,0.7348464828042971
5.834498031496063,-0.242512099742889,0.011077339553832999,0.120980295181275,0.7348464828042971
5.835103725015142,-0.101205947399139,0.023052437210082998,-0.0227208766937254,0.7348464828042971
5.835709418534221,0.131110947132111,-0.084723441696167,0.0994251194000246,0.7348464828042971
5.836315112053301,-0.139526259899139,-0.113463676071167,0.252706369400025,0.7348464828042971
5.8369208055723805,-0.228141982555389,-0.33141045341491704,0.0682898654937746,0.7348464828042971
5.837526499091459,-0.259277236461639,-0.036823051071167,0.0587097873687746,0.7348464828042971
5.838132192610539,0.0568653416633606,0.18112372627258302,-0.0921764430999754,0.7348464828042971
5.838737886129618,0.10476573228836099,0.214653999710083,-0.0346959743499754,0.7348464828042971
5.839343579648697,-0.132341201305389,-0.103883597946167,0.197620920181275,0.7348464828042971
5.839949273167777,-0.050910537242889395,-0.27153496513366704,0.21917609596252502,0.7348464828042971
5.840554966686856,0.131110947132111,-0.020057914352417,-0.123311697006225,0.7348464828042971
5.841160660205936,0.167036240100861,-0.123043754196167,0.0658948459625246,0.7348464828042971
5.841766353725014,-0.11797108411788901,-0.065563285446167,0.0850550022125246,0.7348464828042971
5.842372047244094,0.14308604478836098,-0.039218070602417,0.015599435806274601,0.7348464828042971
5.842977740763174,-0.0341454005241394,-0.046403129196167,0.118585275650025,0.7348464828042971
5.843583434282253,-0.175451552867889,0.049397652053833,0.0251795139312746,0.7348464828042971
5.844189127801332,-0.0317503809928894,-0.036823051071167,0.15451056861877502,0.7348464828042971
5.844794821320412,-0.0269603419303894,-0.067958304977417,0.21438605690002502,0.7348464828042971
5.845400514839491,0.0592603611946106,-0.149388969039917,-0.0394860134124754,0.7348464828042971
5.84600620835857,-0.101205947399139,-0.082328422164917,-0.0945714626312254,0.7348464828042971
5.846611901877649,-0.0389354395866394,0.17633368721008302,0.156905588150025,0.7348464828042971
5.847217595396729,-0.127551162242889,0.013472359085083,0.0539197483062746,0.7348464828042971
5.847823288915809,0.0592603611946106,0.10448310127258299,0.0778699436187746,0.7348464828042971
5.848428982434887,0.011359970569610599,-0.118253715133667,0.176065744400025,0.7348464828042971
5.849034675953967,-0.048515517711639394,0.032632515335083,0.245521310806275,0.7348464828042971
5.849640369473046,-0.0413304591178894,-0.070353324508667,-0.0706212673187254,0.7348464828042971
5.850246062992126,-0.252092177867889,-0.024847953414917,0.0658948459625246,0.7348464828042971
5.850851756511205,0.0161500096321106,0.114063179397583,0.0850550022125246,0.7348464828042971
5.851457450030284,0.14308604478836098,-0.000897758102416984,0.0826599826812746,0.7348464828042971
5.852063143549364,-0.0006151270866394039,0.16675360908508302,0.0706848850250246,0.7348464828042971
5.852668837068443,-0.108391005992889,0.073347847366333,0.0443396701812746,0.7348464828042971
5.853274530587522,-0.228141982555389,0.149988472366333,0.0754749240875246,0.7348464828042971
5.853880224106602,-0.053305556774139395,-0.000897758102416984,0.132955392837525,0.7348464828042971
5.854485917625681,-0.046120498180389394,0.102088081741333,0.183250802993775,0.7348464828042971
5.85509161114476,-0.153896377086639,-0.072748344039917,-0.00835075950622537,0.7348464828042971
5.85569730466384,-0.0341454005241394,-0.16854912528991697,0.314976877212525,0.7348464828042971
5.856302998182919,-0.105995986461639,-0.113463676071167,0.015599435806274601,0.7348464828042971
5.856908691701999,-0.0245653223991394,-0.048798148727417,-0.0203258571624754,0.7348464828042971
5.857514385221077,-0.17066151380538902,-0.091908500289917,0.772425607681275,0.7348464828042971
5.858120078740157,-0.15150135755538902,-0.22123955497741699,0.451492990493775,0.7348464828042971
5.858725772259237,0.0185450291633606,-0.067958304977417,-0.346048513412475,0.7348464828042971
5.8593314657783155,0.0065699315071106,-0.046403129196167,0.23833625221252502,0.7348464828042971
5.859937159297395,-0.0317503809928894,-0.036823051071167,0.34850715065002497,0.7348464828042971
5.860542852816475,0.040100204944610605,-0.000897758102416984,-0.00835075950622537,0.7348464828042971
5.861148546335554,-0.055700576305389396,-0.048798148727417,0.029969552993774597,0.7348464828042971
5.861754239854633,-0.11557606458663901,0.063767769241333,-0.051461111068725404,0.7348464828042971
5.862359933373712,0.10955577135086099,0.044607612991333,0.142535470962525,0.7348464828042971
5.862965626892792,-0.0437254786491394,-0.022452933883667002,0.17846076393127502,0.7348464828042971
5.863571320411872,-0.144316298961639,0.080532905960083,0.0515247287750246,0.7348464828042971
5.86417701393095,-0.0652806544303894,0.135618355178833,-0.132891775131225,0.7348464828042971
5.86478270745003,-0.12036610364913901,-0.096698539352417,-0.176002126693725,0.7348464828042971
5.865388400969109,-0.11557606458663901,-0.017662894821167,-0.0346959743499754,0.7348464828042971
5.8659940944881885,-0.0293553614616394,-0.048798148727417,0.0850550022125246,0.7348464828042971
5.866599788007268,-0.189821670055389,-0.082328422164917,-0.0179308376312254,0.7348464828042971
5.867205481526347,-0.149106338024139,0.087717964553833,0.0515247287750246,0.7348464828042971
5.867811175045427,-0.0868358302116394,0.037422554397583,0.17367072486877502,0.7348464828042971
5.868416868564506,-0.0940208888053894,-0.07514336357116701,0.120980295181275,0.7348464828042971
5.869022562083585,-0.132341201305389,0.035027534866333,-0.0921764430999754,0.7348464828042971
5.869628255602665,-0.048515517711639394,0.027842476272583,0.0227844944000246,0.7348464828042971
5.870233949121744,-0.187426650524139,-0.010477836227417001,0.00122931861877463,0.7348464828042971
5.870839642640823,-0.058095595836639397,0.049397652053833,-0.0203258571624754,0.7348464828042971
5.871445336159903,0.0808155369758606,-0.273929984664917,0.106610177993775,0.7348464828042971
5.872051029678982,-0.0604906153678894,0.025447456741333,0.0874500217437746,0.7348464828042971
5.8726567231980615,0.0257300877571106,-0.065563285446167,0.190435861587525,0.7348464828042971
5.87326241671714,-0.134736220836639,-0.15178398857116698,0.303001779556275,0.7348464828042971
5.87386811023622,0.0880005955696106,0.020657417678832998,0.15930060768127502,0.7348464828042971
5.8744738037553,-0.153896377086639,-0.072748344039917,-0.0251158962249754,0.7348464828042971
5.8750794972743785,-0.0940208888053894,-0.158969047164917,0.0323645725250246,0.7348464828042971
5.875685190793458,0.0808155369758606,0.183518745803833,-0.051461111068725404,0.7348464828042971
5.876290884312538,0.042495224475860606,0.19070380439758303,0.0946350803375246,0.7348464828042971
5.876896577831617,0.205356552600861,-0.120648734664917,0.130560373306275,0.7348464828042971
5.877502271350696,0.0472852635383606,0.011077339553832999,0.197620920181275,0.7348464828042971
5.878107964869775,0.0520753026008606,0.102088081741333,-0.0394860134124754,0.7348464828042971
5.878713658388855,-0.0078001856803894,-0.084723441696167,0.0203894748687746,0.7348464828042971
5.8793193519079345,-0.010195205211639401,-0.285905082321167,0.283841623306275,0.7348464828042971
5.879925045427013,-0.053305556774139395,-0.125438773727417,0.00362433815002463,0.7348464828042971
5.880530738946093,-0.048515517711639394,-0.017662894821167,-0.0203258571624754,0.7348464828042971
5.881136432465172,-0.0293553614616394,0.056582710647583,0.106610177993775,0.7348464828042971
5.8817421259842515,-0.053305556774139395,0.049397652053833,0.0754749240875246,0.7348464828042971
5.882347819503331,-0.11557606458663901,0.020657417678832998,0.0539197483062746,0.7348464828042971
5.88295351302241,-0.141921279430389,-0.084723441696167,0.14972052955627502,0.7348464828042971
5.88355920654149,0.126320908069611,-0.17333916435241697,0.14014045143127501,0.7348464828042971
5.884164900060569,0.0903956151008606,-0.089513480758667,-0.0802013454437254,0.7348464828042971
5.884770593579648,0.0927906346321106,0.082927925491333,0.183250802993775,0.7348464828042971
5.885376287098728,0.10476573228836099,0.090112984085083,0.274261545181275,0.7348464828042971
5.885981980617807,0.0257300877571106,-0.039218070602417,0.14493049049377502,0.7348464828042971
5.886587674136886,-0.0006151270866394039,0.080532905960083,0.15451056861877502,0.7348464828042971
5.887193367655966,-0.11797108411788901,0.090112984085083,0.0898450412750246,0.7348464828042971
5.887799061175045,0.167036240100861,-0.14220391044616698,0.37006232643127496,0.7348464828042971
5.8884047546941245,0.040100204944610605,-0.290695121383667,0.0227844944000246,0.7348464828042971
5.889010448213204,0.0017798924446106,-0.144598929977417,0.281446603775025,0.7348464828042971
5.889616141732283,-0.129946181774139,0.27692450752258296,0.17367072486877502,0.7348464828042971
5.890221835251363,0.0041749119758606006,0.17154364814758302,-0.171212087631225,0.7348464828042971
5.8908275287704415,-0.0988109278678894,0.027842476272583,0.185645822525025,0.7348464828042971
5.891433222289521,-0.223351943492889,-0.15657402763366698,0.0108093967437746,0.7348464828042971
5.892038915808601,-0.012590224742889402,-0.087118461227417,0.0970300998687746,0.7348464828042971
5.89264460932768,0.176616318225861,0.114063179397583,0.17367072486877502,0.7348464828042971
5.893250302846759,0.159851181507111,-0.000897758102416984,0.0539197483062746,0.7348464828042971
5.893855996365838,-0.0676756739616394,0.169148628616333,0.15930060768127502,0.7348464828042971
5.894461689884918,0.155061142444611,0.16675360908508302,0.22396613502502502,0.7348464828042971
5.8950673834039975,0.219726669788361,-0.082328422164917,0.132955392837525,0.7348464828042971
5.895673076923076,0.176616318225861,0.063767769241333,0.17367072486877502,0.7348464828042971
5.896278770442156,-0.022170302867889402,-0.000897758102416984,0.123375314712525,0.7348464828042971
5.896884463961236,-0.137131240367889,0.032632515335083,0.0539197483062746,0.7348464828042971
5.8974901574803145,-0.046120498180389394,0.020657417678832998,-0.06583122825622541,0.7348464828042971
5.898095850999394,0.0041749119758606006,-0.18770928153991698,-0.00595573997497537,0.7348464828042971
5.898701544518473,-0.053305556774139395,0.078137886428833,0.109005197525025,0.7348464828042971
5.899307238037553,0.157456161975861,0.068557808303833,0.120980295181275,0.7348464828042971
5.899912931556632,0.126320908069611,0.018262398147583,0.12577033424377498,0.7348464828042971
5.900518625075711,0.0903956151008606,-0.154179008102417,0.14493049049377502,0.7348464828042971
5.901124318594791,0.0927906346321106,-0.079933402633667,0.0970300998687746,0.7348464828042971
5.90173001211387,-0.192216689586639,0.154778511428833,0.231151193618775,0.7348464828042971
5.902335705632949,-0.295202529430389,-0.087118461227417,0.29821174049377497,0.7348464828042971
5.902941399152029,-0.201796767711639,-0.000897758102416984,0.0850550022125246,0.7348464828042971
5.903547092671108,0.0544703221321106,-0.036823051071167,0.0275745334625246,0.7348464828042971
5.9041527861901875,-0.050910537242889395,-0.13741387138366698,0.132955392837525,0.7348464828042971
5.904758479709267,-0.127551162242889,0.011077339553832999,-0.00835075950622537,0.7348464828042971
5.905364173228346,0.035310165882110604,-0.032033012008667,-0.216717458724975,0.7348464828042971
5.905969866747426,-0.199401748180389,0.00868232002258302,0.14014045143127501,0.7348464828042971
5.906575560266504,-0.141921279430389,-0.089513480758667,0.305396799087525,0.7348464828042971
5.907181253785584,-0.134736220836639,0.068557808303833,0.15930060768127502,0.7348464828042971
5.907786947304664,-0.11557606458663901,-0.096698539352417,0.17846076393127502,0.7348464828042971
5.908392640823743,-0.0173802638053894,-0.245189750289917,0.130560373306275,0.7348464828042971
5.908998334342822,-0.11797108411788901,0.015867378616333,-0.0730162868499754,0.7348464828042971
5.909604027861902,0.179011337757111,-0.194894340133667,0.109005197525025,0.7348464828042971
5.910209721380981,0.0568653416633606,0.039817573928833,0.132955392837525,0.7348464828042971
5.9108154149000605,-0.0437254786491394,-0.00808281669616698,0.0515247287750246,0.7348464828042971
5.911421108419139,-0.0796507716178894,-0.065563285446167,0.276656564712525,0.7348464828042971
5.912026801938219,0.0017798924446106,-0.058378226852417,0.111400217056275,0.7348464828042971
5.912632495457299,0.040100204944610605,0.015867378616333,-0.21911247825622499,0.7348464828042971
5.913238188976377,-0.0078001856803894,0.066162788772583,0.243126291275025,0.7348464828042971
5.913843882495457,-0.113181045055389,-0.024847953414917,0.0419446506500246,0.7348464828042971
5.914449576014536,0.12871592760086098,0.149988472366333,-0.192767263412475,0.7348464828042971
5.915055269533616,0.205356552600861,-0.082328422164917,0.372457345962525,0.7348464828042971
5.915660963052695,0.06405040025711059,-0.094303519821167,0.135350412368775,0.7348464828042971
5.916266656571774,-0.0700706934928894,-0.120648734664917,0.21917609596252502,0.7348464828042971
5.916872350090854,-0.0820457911491394,0.044607612991333,0.192830881118775,0.7348464828042971
5.9174780436099335,0.0281251072883606,0.023052437210082998,-0.207137380599975,0.7348464828042971
5.918083737129012,-0.105995986461639,-0.087118461227417,-0.125706716537475,0.7348464828042971
5.918689430648092,-0.0700706934928894,-0.046403129196167,-0.0011657009124753702,0.7348464828042971
5.919295124167171,-0.11557606458663901,-0.264349906539917,0.341322092056275,0.7348464828042971
5.91990081768625,-0.0964159083366394,-0.218844535446167,0.109005197525025,0.7348464828042971
5.920506511205329,0.061655380725860603,-0.082328422164917,0.029969552993774597,0.7348464828042971
5.921112204724409,-0.0820457911491394,-0.130228812789917,0.231151193618775,0.7348464828042971
5.921717898243489,-0.201796767711639,-0.154179008102417,0.015599435806274601,0.7348464828042971
5.922323591762567,0.06405040025711059,-0.18291924247741698,0.116190256118775,0.7348464828042971
5.922929285281647,-0.11797108411788901,0.109273140335083,0.274261545181275,0.7348464828042971
5.923534978800727,-0.129946181774139,0.229024116897583,0.0323645725250246,0.7348464828042971
5.924140672319806,0.0281251072883606,-0.079933402633667,-0.06343620872497541,0.7348464828042971
5.924746365838885,0.06884043931961059,-0.106278617477417,0.271866525650025,0.7348464828042971
5.925352059357965,0.10955577135086099,-0.089513480758667,0.180855783462525,0.7348464828042971
5.925957752877044,0.06884043931961059,-0.058378226852417,0.0754749240875246,0.7348464828042971
5.926563446396123,0.0975806736946106,-0.020057914352417,-0.013140798568725399,0.7348464828042971
5.927169139915202,0.11195079088211099,0.044607612991333,0.0467346897125246,0.7348464828042971
5.927774833434282,-0.103600966930389,-0.101488578414917,0.109005197525025,0.7348464828042971
5.928380526953362,-0.0724657130241394,0.011077339553832999,0.21438605690002502,0.7348464828042971
5.92898622047244,0.0999756932258606,-0.065563285446167,0.029969552993774597,0.7348464828042971
5.92959191399152,0.07602549791336059,-0.127833793258667,0.0634998264312746,0.7348464828042971
5.9301976075106,0.035310165882110604,0.118853218460083,0.130560373306275,0.7348464828042971
5.930803301029679,0.0975806736946106,0.063767769241333,0.015599435806274601,0.7348464828042971
5.931408994548757,0.032915146350860604,-0.079933402633667,0.0922400608062746,0.7348464828042971
5.932014688067838,-0.105995986461639,-0.084723441696167,0.109005197525025,0.7348464828042971
5.932620381586917,-0.012590224742889402,-0.060773246383667004,0.22396613502502502,0.7348464828042971
5.9332260751059955,0.0041749119758606006,-0.041613090133667,0.14493049049377502,0.7348464828042971
5.933831768625075,-0.21137684583663902,0.013472359085083,-0.0155358180999754,0.7348464828042971
5.934437462144155,-0.053305556774139395,-0.103883597946167,-0.0418810329437254,0.7348464828042971
5.935043155663234,0.0999756932258606,-0.101488578414917,0.15451056861877502,0.7348464828042971
5.935648849182313,0.0880005955696106,-0.091908500289917,0.271866525650025,0.7348464828042971
5.936254542701393,-0.053305556774139395,-0.099093558883667,-0.0323009548187254,0.7348464828042971
5.936860236220472,0.0520753026008606,0.042212593460083,0.116190256118775,0.7348464828042971
5.937465929739552,-0.0964159083366394,0.025447456741333,0.14014045143127501,0.7348464828042971
5.93807162325863,-0.244907119274139,0.049397652053833,-0.0442760524749754,0.7348464828042971
5.93867731677771,0.0496802830696106,-0.058378226852417,-0.0107457790374754,0.7348464828042971
5.93928301029679,0.12392588853836099,-0.07514336357116701,0.226361154556275,0.7348464828042971
5.9398887038158685,-0.0868358302116394,-0.154179008102417,0.17846076393127502,0.7348464828042971
5.940494397334948,0.032915146350860604,-0.113463676071167,-0.0179308376312254,0.7348464828042971
5.941100090854028,0.0185450291633606,0.164358589553833,0.432332834243775,0.7348464828042971
5.941705784373107,-0.21137684583663902,0.054187691116333,0.195225900650025,0.7348464828042971
5.942311477892186,0.13829600572586098,0.015867378616333,0.20001593971252501,0.7348464828042971
5.942917171411266,0.0257300877571106,-0.000897758102416984,0.322161935806275,0.7348464828042971
5.943522864930345,-0.113181045055389,-0.000897758102416984,0.192830881118775,0.7348464828042971
5.944128558449425,0.10716075181961099,-0.000897758102416984,0.267076486587525,0.7348464828042971
5.944734251968503,-0.0317503809928894,0.044607612991333,0.183250802993775,0.7348464828042971
5.945339945487583,0.186196396350861,0.056582710647583,0.207200998306275,0.7348464828042971
5.945945639006663,-0.144316298961639,0.205073921585083,-0.0802013454437254,0.7348464828042971
5.9465513325257415,-0.180241591930389,0.128433296585083,0.137745431900025,0.7348464828042971
5.94715702604482,0.286787216663361,-0.032033012008667,0.20480597877502502,0.7348464828042971
5.947762719563901,0.0496802830696106,-0.0032927776336669798,-0.132891775131225,0.7348464828042971
5.94836841308298,-0.0844408106803894,-0.067958304977417,0.492208322525025,0.7348464828042971
5.9489741066020585,0.131110947132111,-0.13741387138366698,0.640699533462525,0.7348464828042971
5.949579800121139,0.06644541978836059,0.102088081741333,0.166485666275025,0.7348464828042971
5.950185493640218,0.0544703221321106,-0.115858695602417,-0.0418810329437254,0.7348464828042971
5.950791187159297,-0.053305556774139395,-0.355360648727417,0.17846076393127502,0.7348464828042971
5.951396880678376,-0.218561904430389,0.023052437210082998,0.255101388931275,0.7348464828042971
5.952002574197456,-0.0245653223991394,-0.039218070602417,0.0898450412750246,0.7348464828042971
5.952608267716535,0.0592603611946106,-0.087118461227417,0.33892707252502496,0.7348464828042971
5.9532139612356145,0.126320908069611,0.159568550491333,0.247916330337525,0.7348464828042971
5.953819654754693,0.0568653416633606,0.068557808303833,0.21917609596252502,0.7348464828042971
5.954425348273773,-0.0892308497428894,-0.063168265914917,0.183250802993775,0.7348464828042971
5.955031041792853,-0.058095595836639397,-0.029637992477417,0.0706848850250246,0.7348464828042971
5.9556367353119315,0.06884043931961059,-0.118253715133667,0.303001779556275,0.7348464828042971
5.956242428831012,-0.0748607325553894,-0.044008109664917,0.235941232681275,0.7348464828042971
5.956848122350091,0.0017798924446106,-0.084723441696167,0.10182013893127499,0.7348464828042971
5.95745381586917,-0.187426650524139,0.020657417678832998,0.128165353775025,0.7348464828042971
5.958059509388249,-0.16108143568038902,0.121248237991333,0.0539197483062746,0.7348464828042971
5.958665202907329,-0.0197752833366394,-0.039218070602417,-0.0538561305999754,0.7348464828042971
5.959270896426408,-0.048515517711639394,0.011077339553832999,0.15451056861877502,0.7348464828042971
5.9598765899454875,-0.132341201305389,-0.101488578414917,0.15930060768127502,0.7348464828042971
5.960482283464566,-0.0868358302116394,-0.13741387138366698,0.0778699436187746,0.7348464828042971
5.961087976983646,0.0544703221321106,-0.113463676071167,-0.116126638412475,0.7348464828042971
5.961693670502726,-0.0293553614616394,0.300874702835083,0.0611048069000246,0.7348464828042971
5.9622993640218045,-0.0413304591178894,0.16675360908508302,0.0994251194000246,0.7348464828042971
5.962905057540883,0.0472852635383606,-0.091908500289917,0.207200998306275,0.7348464828042971
5.963510751059964,-0.012590224742889402,0.149988472366333,0.257496408462525,0.7348464828042971
5.964116444579043,-0.0078001856803894,0.018262398147583,0.0658948459625246,0.7348464828042971
5.9647221380981215,-0.022170302867889402,-0.039218070602417,0.14014045143127501,0.7348464828042971
5.965327831617202,0.023335068225860598,0.080532905960083,0.0443396701812746,0.7348464828042971
5.965933525136281,-0.12036610364913901,-0.158969047164917,-0.0370909938812254,0.7348464828042971
5.96653921865536,-0.228141982555389,-0.053588187789917,-0.104151540756225,0.7348464828042971
5.967144912174439,0.0832105565071106,0.205073921585083,-0.0370909938812254,0.7348464828042971
5.967750605693519,-0.15150135755538902,-0.039218070602417,0.16409064674377502,0.7348464828042971
5.968356299212598,0.07602549791336059,0.080532905960083,0.231151193618775,0.7348464828042971
5.9689619927316775,0.0137549901008606,-0.125438773727417,0.116190256118775,0.7348464828042971
5.969567686250756,-0.0030101466178894,-0.053588187789917,0.0946350803375246,0.7348464828042971
5.970173379769836,0.0089649510383606,-0.067958304977417,0.142535470962525,0.7348464828042971
5.970779073288916,-0.213771865367889,-0.194894340133667,0.176065744400025,0.7348464828042971
5.9713847668079945,0.0832105565071106,0.015867378616333,-0.00356072044372537,0.7348464828042971
5.971990460327075,0.0065699315071106,0.020657417678832998,0.039549631118774596,0.7348464828042971
5.972596153846154,0.037705185413360605,0.085322945022583,0.132955392837525,0.7348464828042971
5.973201847365233,0.0496802830696106,-0.127833793258667,-0.06343620872497541,0.7348464828042971
5.973807540884312,0.167036240100861,-0.072748344039917,0.116190256118775,0.7348464828042971
5.974413234403392,0.0185450291633606,0.047002632522583,0.195225900650025,0.7348464828042971
5.975018927922471,-0.0054051661491394,0.032632515335083,-0.0179308376312254,0.7348464828042971
5.9756246214415505,-0.182636611461639,0.133223335647583,0.0706848850250246,0.7348464828042971
5.976230314960629,-0.0964159083366394,0.042212593460083,0.10182013893127499,0.7348464828042971
5.976836008479709,-0.0173802638053894,0.037422554397583,0.0347595920562746,0.7348464828042971
5.977441701998789,-0.173056533336639,0.027842476272583,0.42993781471252496,0.7348464828042971
5.9780473955178675,-0.046120498180389394,0.135618355178833,0.0275745334625246,0.7348464828042971
5.978653089036946,-0.0652806544303894,-0.051193168258667,-0.24066765403747498,0.7348464828042971
5.979258782556027,-0.0054051661491394,0.066162788772583,0.731710275650025,0.7348464828042971
5.979864476075106,-0.058095595836639397,0.19070380439758303,0.343717111587525,0.7348464828042971
5.980470169594184,-0.17066151380538902,-0.032033012008667,-0.049066091537475404,0.7348464828042971
5.981075863113265,-0.127551162242889,-0.048798148727417,0.374852365493775,0.7348464828042971
5.981681556632344,0.0137549901008606,-0.297880179977417,0.120980295181275,0.7348464828042971
5.982287250151423,0.145481064319611,-0.106278617477417,0.16888068580627502,0.7348464828042971
5.982892943670502,0.0784205174446106,0.068557808303833,0.42993781471252496,0.7348464828042971
5.983498637189582,-0.012590224742889402,-0.039218070602417,0.0275745334625246,0.7348464828042971
5.984104330708661,-0.0413304591178894,-0.170944144821167,0.132955392837525,0.7348464828042971
5.9847100242277405,-0.137131240367889,-0.113463676071167,0.015599435806274601,0.7348464828042971
5.985315717746819,-0.16108143568038902,0.018262398147583,-0.0179308376312254,0.7348464828042971
5.985921411265899,-0.0868358302116394,0.018262398147583,0.197620920181275,0.7348464828042971
5.986527104784979,-0.103600966930389,-0.094303519821167,0.0275745334625246,0.7348464828042971
5.987132798304057,0.205356552600861,0.015867378616333,0.31018683815002496,0.7348464828042971
5.987738491823136,0.131110947132111,-0.127833793258667,0.16409064674377502,0.7348464828042971
5.988344185342217,0.0880005955696106,-0.00808281669616698,0.039549631118774596,0.7348464828042971
5.988949878861296,0.174221298694611,0.13801337471008301,0.202410959243775,0.7348464828042971
5.989555572380375,-0.055700576305389396,0.030237495803833,0.16888068580627502,0.7348464828042971
5.990161265899455,-0.15150135755538902,0.183518745803833,-0.0466710720062254,0.7348464828042971
5.990766959418534,-0.266462295055389,0.121248237991333,0.135350412368775,0.7348464828042971
5.9913726529376135,0.0856055760383606,-0.099093558883667,-0.0442760524749754,0.7348464828042971
5.991978346456692,0.0041749119758606006,-0.209264457321167,-0.0346959743499754,0.7348464828042971
5.992584039975772,0.0496802830696106,0.00389228096008302,0.015599435806274601,0.7348464828042971
5.993189733494852,0.0544703221321106,0.051792671585083,0.0251795139312746,0.7348464828042971
5.99379542701393,0.19817149400711098,-0.048798148727417,0.15451056861877502,0.7348464828042971
5.994401120533009,0.179011337757111,-0.106278617477417,0.192830881118775,0.7348464828042971
5.99500681405209,-0.0700706934928894,0.011077339553832999,0.15451056861877502,0.7348464828042971
5.995612507571169,0.06644541978836059,-0.010477836227417001,0.135350412368775,0.7348464828042971
5.996218201090247,-0.048515517711639394,-0.029637992477417,0.137745431900025,0.7348464828042971
5.996823894609328,-0.0628856348991394,0.15238349189758302,0.192830881118775,0.7348464828042971
5.997429588128407,0.037705185413360605,0.085322945022583,0.245521310806275,0.7348464828042971
5.998035281647486,-0.280832412242889,0.027842476272583,0.0730799045562746,0.7348464828042971
5.998640975166565,0.10716075181961099,0.068557808303833,0.235941232681275,0.7348464828042971
5.999246668685645,-0.053305556774139395,0.054187691116333,0.12577033424377498,0.7348464828042971
5.999852362204724,-0.285622451305389,-0.084723441696167,0.20001593971252501,0.7348464828042971
6.000458055723803,-0.0365404200553894,0.044607612991333,0.240731271743775,0.7348464828042971
6.001063749242882,-0.125156142711639,0.092508003616333,0.27905158424377496,0.7348464828042971
6.001669442761962,0.023335068225860598,-0.13262383232116698,-0.0394860134124754,0.7348464828042971
6.002275136281042,-0.0892308497428894,-0.058378226852417,-0.113731618881225,0.7348464828042971
6.00288082980012,-0.012590224742889402,-0.00808281669616698,0.116190256118775,0.7348464828042971
6.0034865233192,-0.0317503809928894,-0.077538383102417,-0.0394860134124754,0.7348464828042971
6.00409221683828,-0.0868358302116394,-0.166154105758667,0.0443396701812746,0.7348464828042971
6.004697910357359,0.0544703221321106,0.063767769241333,-0.128101736068725,0.7348464828042971
6.005303603876438,-0.0748607325553894,-0.046403129196167,-0.0227208766937254,0.7348464828042971
6.005909297395518,-0.113181045055389,0.063767769241333,0.211991037368775,0.7348464828042971
6.006514990914597,-0.0078001856803894,0.169148628616333,0.197620920181275,0.7348464828042971
6.007120684433676,-0.0916258692741394,-0.096698539352417,0.137745431900025,0.7348464828042971
6.007726377952755,-0.0796507716178894,-0.063168265914917,-0.137681814193725,0.7348464828042971
6.008332071471835,0.0951856541633606,0.039817573928833,0.015599435806274601,0.7348464828042971
6.008937764990915,-0.0676756739616394,-0.154179008102417,0.590404123306275,0.7348464828042971
6.009543458509993,-0.0940208888053894,-0.123043754196167,0.777215646743775,0.7348464828042971
6.010149152029073,0.07123545885086059,0.015867378616333,0.166485666275025,0.7348464828042971
6.010754845548153,0.0496802830696106,-0.034428031539917,0.0850550022125246,0.7348464828042971
6.011360539067232,0.042495224475860606,0.042212593460083,0.14014045143127501,0.7348464828042971
6.01196623258631,-0.0772557520866394,0.070952827835083,0.0778699436187746,0.7348464828042971
6.012571926105391,-0.0078001856803894,-0.027242972946167,0.23354621315002502,0.7348464828042971
6.01317761962447,-0.101205947399139,-0.118253715133667,0.231151193618775,0.7348464828042971
6.0137833131435485,-0.0389354395866394,-0.046403129196167,0.29821174049377497,0.7348464828042971
6.014389006662629,-0.0820457911491394,-0.130228812789917,0.0706848850250246,0.7348464828042971
6.014994700181708,-0.0054051661491394,-0.15178398857116698,0.0132044162750246,0.7348464828042971
6.015600393700787,0.023335068225860598,0.087717964553833,0.120980295181275,0.7348464828042971
6.016206087219866,0.037705185413360605,-0.017662894821167,0.0682898654937746,0.7348464828042971
6.016811780738946,0.140691025257111,0.032632515335083,0.20480597877502502,0.7348464828042971
6.017417474258025,0.0137549901008606,0.066162788772583,0.16888068580627502,0.7348464828042971
6.0180231677771046,0.0305201268196106,-0.091908500289917,0.274261545181275,0.7348464828042971
6.018628861296183,-0.0940208888053894,0.173938667678833,0.372457345962525,0.7348464828042971
6.019234554815263,0.0496802830696106,-0.017662894821167,0.314976877212525,0.7348464828042971
6.019840248334343,-0.129946181774139,-0.036823051071167,0.037154611587524596,0.7348464828042971
6.0204459418534215,-0.12276112318038901,-0.0032927776336669798,-0.0562511501312254,0.7348464828042971
6.021051635372501,-0.11557606458663901,-0.034428031539917,0.0754749240875246,0.7348464828042971
6.021657328891581,-0.256882216930389,0.056582710647583,0.0539197483062746,0.7348464828042971
6.02226302241066,0.06644541978836059,0.037422554397583,0.15930060768127502,0.7348464828042971
6.022868715929739,0.040100204944610605,0.006287300491333019,0.0539197483062746,0.7348464828042971
6.023474409448819,-0.0197752833366394,-0.084723441696167,-0.0107457790374754,0.7348464828042971
6.024080102967898,-0.149106338024139,-0.103883597946167,0.14493049049377502,0.7348464828042971
6.0246857964869776,-0.16587147474288902,-0.079933402633667,0.401197580337525,0.7348464828042971
6.025291490006056,-0.0748607325553894,-0.139808890914917,0.10421515846252499,0.7348464828042971
6.025897183525136,-0.0916258692741394,0.195493843460083,-0.168817068099975,0.7348464828042971
6.026502877044216,-0.0916258692741394,0.080532905960083,-0.051461111068725404,0.7348464828042971
6.0271085705632945,-0.0317503809928894,-0.204474418258667,0.128165353775025,0.7348464828042971
6.027714264082373,0.042495224475860606,0.14759345283508302,-0.00595573997497537,0.7348464828042971
6.028319957601454,0.0017798924446106,0.090112984085083,-0.207137380599975,0.7348464828042971
6.028925651120533,0.040100204944610605,-0.14220391044616698,0.0874500217437746,0.7348464828042971
6.0295313446396115,-0.110786025524139,0.082927925491333,0.135350412368775,0.7348464828042971
6.030137038158692,-0.0317503809928894,-0.024847953414917,0.192830881118775,0.7348464828042971
6.030742731677771,-0.0173802638053894,-0.020057914352417,0.0994251194000246,0.7348464828042971
6.03134842519685,0.040100204944610605,0.044607612991333,0.0730799045562746,0.7348464828042971
6.031954118715929,0.13829600572586098,-0.214054496383667,0.281446603775025,0.7348464828042971
6.032559812235009,0.0951856541633606,-0.015267875289917,0.106610177993775,0.7348464828042971
6.033165505754088,-0.11557606458663901,-0.163759086227417,0.0108093967437746,0.7348464828042971
6.0337711992731675,-0.153896377086639,-0.063168265914917,-0.128101736068725,0.7348464828042971
6.034376892792246,0.11195079088211099,0.209863960647583,-0.113731618881225,0.7348464828042971
6.034982586311326,0.032915146350860604,0.10448310127258299,0.0802649631500246,0.7348464828042971
6.035588279830406,0.040100204944610605,0.106878120803833,0.130560373306275,0.7348464828042971
6.0361939733494845,-0.0317503809928894,0.047002632522583,0.118585275650025,0.7348464828042971
6.036799666868565,0.0520753026008606,-0.024847953414917,0.12577033424377498,0.7348464828042971
6.037405360387644,-0.0173802638053894,0.159568550491333,0.120980295181275,0.7348464828042971
6.038011053906723,-0.254487197399139,-0.113463676071167,0.461073068618775,0.7348464828042971
6.038616747425802,-0.149106338024139,-0.051193168258667,0.331742013931275,0.7348464828042971
6.039222440944882,0.176616318225861,0.066162788772583,0.566453927993775,0.7348464828042971
6.039828134463961,0.262837021350861,-0.194894340133667,0.432332834243775,0.7348464828042971
6.0404338279830405,-0.022170302867889402,0.00389228096008302,0.015599435806274601,0.7348464828042971
6.041039521502119,-0.149106338024139,-0.096698539352417,0.264681467056275,0.7348464828042971
6.041645215021199,0.10716075181961099,-0.015267875289917,0.039549631118774596,0.7348464828042971
6.042250908540279,0.0472852635383606,-0.027242972946167,-0.0227208766937254,0.7348464828042971
6.0428566020593575,-0.0604906153678894,-0.07514336357116701,-0.0155358180999754,0.7348464828042971
6.043462295578436,-0.0676756739616394,0.149988472366333,-0.029905935287475403,0.7348464828042971
6.044067989097517,-0.232932021617889,0.006287300491333019,0.116190256118775,0.7348464828042971
6.044673682616596,-0.108391005992889,-0.13262383232116698,0.128165353775025,0.7348464828042971
6.0452793761356745,-0.273647353649139,-0.17333916435241697,-0.0945714626312254,0.7348464828042971
6.045885069654755,-0.194611709117889,-0.16854912528991697,0.135350412368775,0.7348464828042971
6.046490763173834,-0.0317503809928894,-0.16136406669616699,-0.0323009548187254,0.7348464828042971
6.047096456692913,0.131110947132111,-0.087118461227417,0.0251795139312746,0.7348464828042971
6.047702150211992,0.07602549791336059,-0.046403129196167,0.190435861587525,0.7348464828042971
6.048307843731072,-0.0006151270866394039,0.049397652053833,0.0658948459625246,0.7348464828042971
6.048913537250151,-0.0149852442741394,-0.0032927776336669798,0.195225900650025,0.7348464828042971
6.0495192307692305,-0.11797108411788901,-0.226029594039917,0.16409064674377502,0.7348464828042971
6.050124924288309,-0.0844408106803894,-0.017662894821167,-0.0849913845062254,0.7348464828042971
6.050730617807389,-0.0293553614616394,0.087717964553833,-0.14007683372497498,0.7348464828042971
6.051336311326469,-0.0652806544303894,0.094903023147583,0.281446603775025,0.7348464828042971
6.0519420048455475,-0.0054051661491394,0.123643257522583,0.118585275650025,0.7348464828042971
6.052547698364626,0.0903956151008606,-0.190104301071167,0.161695627212525,0.7348464828042971
6.053153391883707,0.0496802830696106,-0.010477836227417001,0.0970300998687746,0.7348464828042971
6.053759085402786,0.032915146350860604,0.061372749710083,0.161695627212525,0.7348464828042971
6.054364778921865,0.145481064319611,-0.24758476982116698,0.197620920181275,0.7348464828042971
6.054970472440945,0.0903956151008606,-0.051193168258667,0.0275745334625246,0.7348464828042971
6.055576165960024,-0.110786025524139,-0.048798148727417,0.15451056861877502,0.7348464828042971
6.0561818594791035,-0.0078001856803894,-0.139808890914917,0.396407541275025,0.7348464828042971
6.056787552998182,0.10237071275711099,-0.077538383102417,0.14014045143127501,0.7348464828042971
6.057393246517262,-0.0413304591178894,0.073347847366333,0.0994251194000246,0.7348464828042971
6.057998940036342,-0.182636611461639,0.094903023147583,0.0706848850250246,0.7348464828042971
6.0586046335554204,0.11913584947586099,-0.010477836227417001,-0.0897814235687254,0.7348464828042971
6.059210327074499,0.0161500096321106,0.027842476272583,0.22396613502502502,0.7348464828042971
6.05981602059358,0.0975806736946106,-0.044008109664917,0.111400217056275,0.7348464828042971
6.060421714112659,0.0999756932258606,0.061372749710083,0.221571115493775,0.7348464828042971
6.061027407631737,-0.199401748180389,0.056582710647583,0.216781076431275,0.7348464828042971
6.061633101150818,-0.189821670055389,-0.063168265914917,-0.0610411891937254,0.7348464828042971
6.062238794669897,0.12392588853836099,-0.094303519821167,-0.0107457790374754,0.7348464828042971
6.062844488188976,-0.22574696302413902,-0.00808281669616698,0.156905588150025,0.7348464828042971
6.063450181708055,-0.261672255992889,-0.044008109664917,-0.0227208766937254,0.7348464828042971
6.064055875227135,0.0472852635383606,-0.14220391044616698,0.111400217056275,0.7348464828042971
6.064661568746214,0.10955577135086099,0.00389228096008302,-0.00356072044372537,0.7348464828042971
6.0652672622652934,0.0568653416633606,-0.039218070602417,0.0730799045562746,0.7348464828042971
6.065872955784372,-0.12276112318038901,-0.269139945602417,0.120980295181275,0.7348464828042971
6.066478649303452,0.0784205174446106,-0.022452933883667002,-0.0107457790374754,0.7348464828042971
6.067084342822532,0.145481064319611,0.080532905960083,0.192830881118775,0.7348464828042971
6.06769003634161,0.0544703221321106,-0.000897758102416984,0.616749338150025,0.7348464828042971
6.06829572986069,0.0137549901008606,0.099693062210083,0.12577033424377498,0.7348464828042971
6.06890142337977,0.169431259632111,-0.012872855758667002,0.571243967056275,0.7348464828042971
6.069507116898849,-0.0844408106803894,-0.039218070602417,1.0119275608062699,0.7348464828042971
6.070112810417928,-0.232932021617889,-0.022452933883667002,0.0251795139312746,0.7348464828042971
6.070718503937008,0.255651962757111,0.114063179397583,0.0419446506500246,0.7348464828042971
6.071324197456087,-0.0892308497428894,-0.204474418258667,0.0419446506500246,0.7348464828042971
6.071929890975166,-0.197006728649139,-0.044008109664917,-0.0011657009124753702,0.7348464828042971
6.072535584494245,0.0472852635383606,-0.041613090133667,0.106610177993775,0.7348464828042971
6.073141278013325,0.0089649510383606,0.17154364814758302,0.0658948459625246,0.7348464828042971
6.073746971532405,-0.0437254786491394,0.15238349189758302,0.10421515846252499,0.7348464828042971
6.074352665051483,0.0137549901008606,-0.18770928153991698,0.25989142799377496,0.7348464828042971
6.074958358570562,-0.11797108411788901,0.18112372627258302,0.221571115493775,0.7348464828042971
6.075564052089643,-0.0293553614616394,0.090112984085083,-0.0897814235687254,0.7348464828042971
6.076169745608722,0.162246201038361,0.049397652053833,-0.137681814193725,0.7348464828042971
6.0767754391278,-0.012590224742889402,0.020657417678832998,0.130560373306275,0.7348464828042971
6.077381132646881,-0.110786025524139,0.17633368721008302,0.017994455337524598,0.7348464828042971
6.07798682616596,-0.15629139661788902,0.159568550491333,0.0706848850250246,0.7348464828042971
6.0785925196850386,0.035310165882110604,0.068557808303833,0.281446603775025,0.7348464828042971
6.079198213204118,-0.0844408106803894,-0.072748344039917,0.161695627212525,0.7348464828042971
6.079803906723198,-0.15150135755538902,-0.123043754196167,0.0515247287750246,0.7348464828042971
6.080409600242277,-0.129946181774139,-0.16854912528991697,0.171275705337525,0.7348464828042971
6.081015293761356,-0.132341201305389,-0.094303519821167,-0.0778063259124754,0.7348464828042971
6.081620987280436,-0.0844408106803894,-0.17812920341491698,-0.0323009548187254,0.7348464828042971
6.082226680799515,0.07602549791336059,-0.18770928153991698,0.12577033424377498,0.7348464828042971
6.082832374318595,0.023335068225860598,0.102088081741333,0.0730799045562746,0.7348464828042971
6.083438067837673,-0.055700576305389396,0.063767769241333,0.324556955337525,0.7348464828042971
6.084043761356753,0.181406357288361,0.145198433303833,0.235941232681275,0.7348464828042971
6.084649454875833,0.0784205174446106,0.090112984085083,-0.0179308376312254,0.7348464828042971
6.0852551483949116,0.0903956151008606,-0.00808281669616698,0.0419446506500246,0.7348464828042971
6.085860841913991,0.13829600572586098,-0.00808281669616698,0.123375314712525,0.7348464828042971
6.086466535433071,-0.0197752833366394,-0.087118461227417,0.34850715065002497,0.7348464828042971
6.08707222895215,-0.0820457911491394,-0.022452933883667002,0.39880256080627496,0.7348464828042971
6.087677922471229,-0.0389354395866394,0.047002632522583,0.106610177993775,0.7348464828042971
6.088283615990308,0.0448902440071106,0.011077339553832999,0.0227844944000246,0.7348464828042971
6.088889309509388,-0.0245653223991394,-0.010477836227417001,0.156905588150025,0.7348464828042971
6.089495003028468,-0.125156142711639,0.025447456741333,0.0874500217437746,0.7348464828042971
6.090100696547546,-0.307177627086639,-0.020057914352417,-0.0227208766937254,0.7348464828042971
6.090706390066625,-0.0006151270866394039,-0.022452933883667002,0.130560373306275,0.7348464828042971
6.091312083585706,0.0185450291633606,-0.14699394950866698,0.14972052955627502,0.7348464828042971
6.0919177771047845,-0.405373427867889,-0.118253715133667,-0.0993615016937254,0.7348464828042971
6.092523470623863,-0.103600966930389,-0.058378226852417,-0.0873864040374754,0.7348464828042971
6.093129164142944,0.11195079088211099,0.025447456741333,-0.0155358180999754,0.7348464828042971
6.093734857662023,-0.218561904430389,0.116458198928833,0.240731271743775,0.7348464828042971
6.0943405511811015,0.0305201268196106,0.020657417678832998,0.22396613502502502,0.7348464828042971
6.094946244700182,-0.058095595836639397,-0.017662894821167,-0.104151540756225,0.7348464828042971
6.095551938219261,-0.134736220836639,-0.024847953414917,0.0970300998687746,0.7348464828042971
6.09615763173834,0.10955577135086099,-0.07514336357116701,0.118585275650025,0.7348464828042971
6.096763325257419,-0.022170302867889402,-0.120648734664917,0.113795236587525,0.7348464828042971
6.097369018776499,-0.182636611461639,0.011077339553832999,0.738895334243775,0.7348464828042971
6.097974712295578,-0.050910537242889395,0.035027534866333,0.0227844944000246,0.7348464828042971
6.0985804058146575,-0.0604906153678894,-0.060773246383667004,-0.302938161849975,0.7348464828042971
6.099186099333736,-0.12276112318038901,-0.065563285446167,0.5041834201812749,0.7348464828042971
6.099791792852816,0.0568653416633606,0.039817573928833,-0.0538561305999754,0.7348464828042971
6.100397486371896,0.174221298694611,-0.041613090133667,-0.101756521224975,0.7348464828042971
6.1010031798909745,0.0927906346321106,-0.053588187789917,0.0754749240875246,0.7348464828042971
6.101608873410054,0.011359970569610599,-0.070353324508667,-0.0802013454437254,0.7348464828042971
6.102214566929134,0.0448902440071106,-0.036823051071167,0.0922400608062746,0.7348464828042971
6.102820260448213,-0.0796507716178894,-0.067958304977417,0.132955392837525,0.7348464828042971
6.103425953967292,-0.0078001856803894,-0.055983207321167,0.0946350803375246,0.7348464828042971
6.104031647486372,0.0568653416633606,-0.087118461227417,0.20001593971252501,0.7348464828042971
6.104637341005451,-0.110786025524139,-0.010477836227417001,0.286236642837525,0.7348464828042971
6.1052430345245305,-0.053305556774139395,-0.017662894821167,0.25989142799377496,0.7348464828042971
6.105848728043609,0.145481064319611,-0.046403129196167,0.0754749240875246,0.7348464828042971
6.106454421562689,0.10237071275711099,-0.039218070602417,0.0874500217437746,0.7348464828042971
6.107060115081769,0.167036240100861,0.035027534866333,0.23833625221252502,0.7348464828042971
6.1076658086008475,0.0209400486946106,0.042212593460083,0.295816720962525,0.7348464828042971
6.108271502119926,-0.050910537242889395,-0.17812920341491698,0.017994455337524598,0.7348464828042971
6.108877195639007,0.0544703221321106,0.037422554397583,-0.0323009548187254,0.7348464828042971
6.109482889158086,-0.0652806544303894,-0.041613090133667,0.192830881118775,0.7348464828042971
6.1100885826771645,-0.0293553614616394,-0.111068656539917,0.0970300998687746,0.7348464828042971
6.110694276196245,0.061655380725860603,-0.063168265914917,-0.00595573997497537,0.7348464828042971
6.111299969715324,-0.137131240367889,-0.209264457321167,0.28863166236877497,0.7348464828042971
6.111905663234403,0.0209400486946106,-0.144598929977417,-0.0227208766937254,0.7348464828042971
6.112511356753482,0.0832105565071106,0.039817573928833,-0.137681814193725,0.7348464828042971
6.113117050272562,-0.129946181774139,-0.199684379196167,0.255101388931275,0.7348464828042971
6.113722743791641,-0.0197752833366394,-0.127833793258667,0.22396613502502502,0.7348464828042971
6.1143284373107205,-0.0604906153678894,-0.051193168258667,0.211991037368775,0.7348464828042971
6.114934130829799,-0.316757705211639,-0.20686943778991698,0.106610177993775,0.7348464828042971
6.115539824348879,0.0065699315071106,-0.091908500289917,0.0658948459625246,0.7348464828042971
6.116145517867959,0.0137549901008606,0.058977730178832996,0.015599435806274601,0.7348464828042971
6.1167512113870375,-0.11797108411788901,0.025447456741333,0.14014045143127501,0.7348464828042971
6.117356904906118,-0.0054051661491394,-0.16854912528991697,0.37006232643127496,0.7348464828042971
6.117962598425197,-0.137131240367889,-0.070353324508667,0.202410959243775,0.7348464828042971
6.118568291944276,-0.173056533336639,0.020657417678832998,0.305396799087525,0.626743403777684
6.119173985463355,0.032915146350860604,-0.063168265914917,0.123375314712525,0.626743403777684
6.119779678982435,-0.050910537242889395,-0.039218070602417,0.111400217056275,0.626743403777684
6.120385372501514,-0.153896377086639,0.193098823928833,0.0970300998687746,0.626743403777684
6.1209910660205935,-0.0149852442741394,0.068557808303833,0.20959601783752502,0.626743403777684
6.121596759539672,-0.050910537242889395,-0.108673637008667,0.23354621315002502,0.626743403777684
6.122202453058752,-0.0964159083366394,0.058977730178832996,0.0251795139312746,0.626743403777684
6.122808146577832,0.0257300877571106,0.025447456741333,0.0874500217437746,0.626743403777684
6.1234138400969105,-0.180241591930389,-0.16854912528991697,0.20480597877502502,0.626743403777684
6.124019533615989,-0.108391005992889,-0.125438773727417,0.192830881118775,0.626743403777684
6.12462522713507,-0.180241591930389,-0.154179008102417,0.0874500217437746,0.626743403777684
6.125230920654149,-0.0173802638053894,-0.046403129196167,-0.0203258571624754,0.626743403777684
6.1258366141732274,0.155061142444611,0.18591376533508303,0.109005197525025,0.626743403777684
6.126442307692308,-0.15629139661788902,0.209863960647583,0.111400217056275,0.626743403777684
6.127048001211387,0.10237071275711099,-0.00808281669616698,0.0754749240875246,0.626743403777684
6.127653694730466,0.12153086900711099,-0.063168265914917,0.619144357681275,0.626743403777684
6.128259388249545,0.040100204944610605,0.154778511428833,0.0898450412750246,0.626743403777684
6.128865081768625,0.13829600572586098,-0.017662894821167,-0.271802907943725,0.626743403777684
6.129470775287704,0.195776474475861,-0.082328422164917,0.37964240455627496,0.626743403777684
6.1300764688067835,0.032915146350860604,0.121248237991333,0.14014045143127501,0.626743403777684
6.130682162325862,0.155061142444611,0.109273140335083,0.180855783462525,0.626743403777684
6.131287855844942,0.0951856541633606,-0.017662894821167,0.425147775650025,0.626743403777684
6.131893549364022,-0.022170302867889402,-0.082328422164917,0.16888068580627502,0.626743403777684
6.1324992428831,-0.012590224742889402,-0.039218070602417,0.116190256118775,0.626743403777684
6.133104936402179,-0.134736220836639,0.092508003616333,-0.00835075950622537,0.626743403777684
6.13371062992126,-0.22095692396163902,0.035027534866333,0.0994251194000246,0.626743403777684
6.134316323440339,-0.0030101466178894,0.027842476272583,0.0491297092437746,0.626743403777684
6.134922016959418,0.0089649510383606,-0.14699394950866698,0.0826599826812746,0.626743403777684
6.135527710478498,-0.0892308497428894,-0.00568779716491698,-0.0969664821624754,0.626743403777684
6.136133403997577,-0.17066151380538902,-0.125438773727417,0.15930060768127502,0.626743403777684
6.1367390975166565,-0.0820457911491394,-0.16854912528991697,0.15451056861877502,0.626743403777684
6.137344791035735,0.14308604478836098,0.111668159866333,-0.0562511501312254,0.626743403777684
6.137950484554815,0.183801376819611,-0.091908500289917,0.0754749240875246,0.626743403777684
6.138556178073895,-0.129946181774139,-0.065563285446167,0.120980295181275,0.626743403777684
6.139161871592973,-0.0748607325553894,0.066162788772583,0.271866525650025,0.626743403777684
6.139767565112052,-0.010195205211639401,0.011077339553832999,0.0898450412750246,0.626743403777684
6.140373258631133,-0.213771865367889,-0.20207939872741698,-0.013140798568725399,0.626743403777684
6.140978952150212,0.040100204944610605,-0.103883597946167,0.0467346897125246,0.626743403777684
6.14158464566929,0.0257300877571106,0.054187691116333,0.20959601783752502,0.626743403777684
6.142190339188371,0.11434581041336099,0.015867378616333,0.142535470962525,0.626743403777684
6.14279603270745,-0.11797108411788901,0.00868232002258302,0.132955392837525,0.626743403777684
6.143401726226529,-0.199401748180389,-0.053588187789917,0.185645822525025,0.626743403777684
6.144007419745608,0.07363047838211059,-0.135018851852417,0.14972052955627502,0.626743403777684
6.144613113264688,-0.0317503809928894,-0.079933402633667,0.0826599826812746,0.626743403777684
6.145218806783767,0.0161500096321106,-0.14220391044616698,0.161695627212525,0.626743403777684
6.145824500302846,-0.129946181774139,-0.065563285446167,0.0634998264312746,0.626743403777684
6.146430193821925,-0.177846572399139,0.042212593460083,-0.00595573997497537,0.626743403777684
6.147035887341005,-0.134736220836639,-0.077538383102417,-0.0370909938812254,0.626743403777684
6.147641580860085,-0.0054051661491394,-0.087118461227417,0.00841437721252463,0.626743403777684
6.148247274379163,-0.0916258692741394,0.044607612991333,0.305396799087525,0.626743403777684
6.148852967898244,-0.055700576305389396,-0.079933402633667,-0.0227208766937254,0.626743403777684
6.149458661417323,-0.11557606458663901,-0.175734183883667,0.23354621315002502,0.626743403777684
6.150064354936402,-0.168266494274139,-0.235609672164917,0.015599435806274601,0.626743403777684
6.150670048455481,0.040100204944610605,0.087717964553833,-0.118521657943725,0.626743403777684
6.151275741974561,-0.0652806544303894,0.22183905830383302,0.207200998306275,0.626743403777684
6.15188143549364,0.07363047838211059,0.006287300491333019,0.156905588150025,0.626743403777684
6.152487129012719,0.0472852635383606,0.049397652053833,0.281446603775025,0.626743403777684
6.153092822531798,-0.139526259899139,-0.264349906539917,0.17367072486877502,0.626743403777684
6.153698516050878,-0.307177627086639,-0.063168265914917,-0.0227208766937254,0.626743403777684
6.154304209569958,0.023335068225860598,0.16196357002258302,0.0539197483062746,0.626743403777684
6.154909903089036,0.07123545885086059,0.111668159866333,0.15930060768127502,0.626743403777684
6.155515596608115,-0.12276112318038901,-0.022452933883667002,0.029969552993774597,0.626743403777684
6.156121290127196,-0.012590224742889402,-0.044008109664917,0.221571115493775,0.626743403777684
6.156726983646275,0.0496802830696106,-0.30267021903991703,0.23833625221252502,0.626743403777684
6.157332677165353,-0.0173802638053894,-0.058378226852417,-0.0323009548187254,0.626743403777684
6.157938370684434,-0.0054051661491394,0.10448310127258299,-0.197557302474975,0.626743403777684
6.158544064203513,-0.058095595836639397,0.073347847366333,0.0491297092437746,0.626743403777684
6.1591497577225915,-0.055700576305389396,0.085322945022583,0.547293771743775,0.626743403777684
6.159755451241671,0.157456161975861,-0.115858695602417,0.30779181861877497,0.626743403777684
6.160361144760751,-0.201796767711639,0.097298042678833,0.109005197525025,0.626743403777684
6.16096683827983,-0.11557606458663901,0.020657417678832998,0.20001593971252501,0.626743403777684
6.161572531798909,0.06405040025711059,-0.163759086227417,0.17367072486877502,0.626743403777684
6.162178225317989,-0.182636611461639,-0.072748344039917,-0.101756521224975,0.626743403777684
6.162783918837068,-0.0748607325553894,-0.089513480758667,0.0515247287750246,0.626743403777684
6.163389612356148,-0.182636611461639,-0.010477836227417001,0.106610177993775,0.626743403777684
6.163995305875226,-0.244907119274139,0.18591376533508303,0.441912912368775,0.626743403777684
6.164600999394306,0.0137549901008606,0.030237495803833,0.43951789283752496,0.626743403777684
6.165206692913386,0.032915146350860604,-0.046403129196167,-0.0227208766937254,0.626743403777684
6.1658123864324645,-0.105995986461639,-0.175734183883667,0.132955392837525,0.626743403777684
6.166418079951544,-0.0916258692741394,0.037422554397583,0.116190256118775,0.626743403777684
6.167023773470624,-0.113181045055389,-0.072748344039917,0.207200998306275,0.626743403777684
6.167629466989703,-0.053305556774139395,-0.032033012008667,0.211991037368775,0.626743403777684
6.168235160508782,-0.012590224742889402,0.178728706741333,0.46825812721252497,0.626743403777684
6.168840854027861,-0.244907119274139,-0.020057914352417,0.15930060768127502,0.626743403777684
6.169446547546941,-0.223351943492889,0.011077339553832999,-0.049066091537475404,0.626743403777684
6.170052241066021,-0.182636611461639,0.214653999710083,0.0706848850250246,0.626743403777684
6.170657934585099,-0.053305556774139395,0.099693062210083,0.0802649631500246,0.626743403777684
6.171263628104179,-0.0269603419303894,-0.094303519821167,0.0850550022125246,0.626743403777684
6.171869321623259,-0.168266494274139,0.027842476272583,0.15930060768127502,0.626743403777684
6.1724750151423375,0.0185450291633606,-0.099093558883667,0.0874500217437746,0.626743403777684
6.173080708661416,-0.108391005992889,-0.115858695602417,0.135350412368775,0.626743403777684
6.173686402180497,-0.0772557520866394,-0.082328422164917,0.113795236587525,0.626743403777684
6.174292095699576,0.162246201038361,-0.058378226852417,0.106610177993775,0.626743403777684
6.1748977892186545,0.06644541978836059,0.15238349189758302,0.281446603775025,0.626743403777684
6.175503482737735,0.145481064319611,-0.115858695602417,0.116190256118775,0.626743403777684
6.176109176256814,-0.010195205211639401,-0.015267875289917,0.0132044162750246,0.626743403777684
6.176714869775893,0.0041749119758606006,0.073347847366333,0.118585275650025,0.626743403777684
6.177320563294972,0.0281251072883606,-0.099093558883667,0.240731271743775,0.626743403777684
6.177926256814052,0.0568653416633606,-0.039218070602417,0.156905588150025,0.626743403777684
6.178531950333131,0.0137549901008606,0.123643257522583,0.257496408462525,0.626743403777684
6.1791376438522105,-0.20658680677413901,0.025447456741333,0.14493049049377502,0.626743403777684
6.179743337371289,-0.0676756739616394,-0.032033012008667,0.221571115493775,0.626743403777684
6.180349030890369,0.21254161119461099,0.075742866897583,0.350902170181275,0.626743403777684
6.180954724409449,0.023335068225860598,0.061372749710083,0.0587097873687746,0.626743403777684
6.1815604179285275,-0.053305556774139395,-0.135018851852417,-0.113731618881225,0.626743403777684
6.182166111447606,0.12392588853836099,-0.036823051071167,0.015599435806274601,0.626743403777684
6.182771804966687,-0.0988109278678894,-0.012872855758667002,0.322161935806275,0.626743403777684
6.183377498485766,0.07363047838211059,0.027842476272583,0.26947150611877496,0.626743403777684
6.183983192004845,0.14787608385086098,0.250579292678833,0.171275705337525,0.626743403777684
6.184588885523925,0.0065699315071106,0.018262398147583,0.10421515846252499,0.626743403777684
6.185194579043004,0.07123545885086059,0.063767769241333,0.0467346897125246,0.626743403777684
6.1858002725620835,0.15266612291336099,0.066162788772583,0.0419446506500246,0.626743403777684
6.186405966081162,-0.177846572399139,-0.039218070602417,0.0227844944000246,0.626743403777684
6.187011659600242,-0.192216689586639,-0.23800469169616698,0.247916330337525,0.626743403777684
6.187617353119322,0.011359970569610599,-0.113463676071167,0.0275745334625246,0.626743403777684
6.1882230466384005,-0.0245653223991394,-0.130228812789917,-0.0825963649749754,0.626743403777684
6.188828740157479,0.14787608385086098,-0.039218070602417,0.0706848850250246,0.626743403777684
6.18943443367656,-0.012590224742889402,-0.044008109664917,0.10182013893127499,0.626743403777684
6.190040127195639,-0.0054051661491394,-0.235609672164917,0.0922400608062746,0.626743403777684
6.1906458207147175,0.0903956151008606,-0.091908500289917,0.0419446506500246,0.626743403777684
6.191251514233798,-0.132341201305389,-0.087118461227417,0.0754749240875246,0.626743403777684
6.191857207752877,-0.175451552867889,-0.034428031539917,0.120980295181275,0.626743403777684
6.192462901271956,0.032915146350860604,-0.070353324508667,-0.0778063259124754,0.626743403777684
6.193068594791035,0.0281251072883606,0.044607612991333,0.0347595920562746,0.626743403777684
6.193674288310115,0.214936630725861,0.114063179397583,0.317371896743775,0.626743403777684
6.194279981829194,0.042495224475860606,-0.070353324508667,0.23833625221252502,0.626743403777684
6.1948856753482735,0.0568653416633606,0.102088081741333,0.0323645725250246,0.626743403777684
6.195491368867352,0.07123545885086059,0.269739448928833,-0.0993615016937254,0.626743403777684
6.196097062386432,-0.144316298961639,0.018262398147583,0.21917609596252502,0.626743403777684
6.196702755905512,-0.21616688489913902,0.042212593460083,-0.029905935287475403,0.626743403777684
6.1973084494245905,-0.053305556774139395,0.080532905960083,0.0922400608062746,0.626743403777684
6.197914142943671,0.0880005955696106,0.00868232002258302,0.15451056861877502,0.626743403777684
6.19851983646275,-0.144316298961639,0.070952827835083,0.190435861587525,0.626743403777684
6.199125529981829,0.0592603611946106,0.085322945022583,0.303001779556275,0.626743403777684
6.199731223500908,-0.113181045055389,-0.027242972946167,0.12577033424377498,0.626743403777684
6.200336917019988,-0.292807509899139,-0.199684379196167,0.0443396701812746,0.626743403777684
6.200942610539067,0.10237071275711099,-0.18291924247741698,-0.15923698997497499,0.626743403777684
6.2015483040581465,0.18859141588211098,-0.060773246383667004,0.123375314712525,0.626743403777684
6.202153997577225,0.0041749119758606006,-0.032033012008667,0.202410959243775,0.626743403777684
6.202759691096305,-0.053305556774139395,0.13082831611633303,0.15930060768127502,0.626743403777684
6.203365384615385,-0.0724657130241394,0.16675360908508302,-0.0706212673187254,0.626743403777684
6.2039710781344635,-0.197006728649139,-0.060773246383667004,0.142535470962525,0.626743403777684
6.204576771653542,0.0257300877571106,0.061372749710083,0.35808722877502497,0.626743403777684
6.205182465172623,-0.101205947399139,-0.010477836227417001,0.202410959243775,0.626743403777684
6.205788158691702,-0.0149852442741394,-0.063168265914917,0.0826599826812746,0.626743403777684
6.20639385221078,0.0975806736946106,0.051792671585083,0.106610177993775,0.626743403777684
6.206999545729861,-0.185031630992889,-0.015267875289917,0.123375314712525,0.626743403777684
6.20760523924894,0.0856055760383606,-0.0032927776336669798,0.0108093967437746,0.626743403777684
6.208210932768019,-0.0173802638053894,-0.022452933883667002,0.0323645725250246,0.626743403777684
6.208816626287098,-0.139526259899139,-0.077538383102417,-0.049066091537475404,0.626743403777684
6.209422319806178,-0.0676756739616394,-0.029637992477417,0.0611048069000246,0.626743403777684
6.210028013325257,-0.0365404200553894,-0.029637992477417,0.142535470962525,0.626743403777684
6.2106337068443365,-0.11557606458663901,-0.051193168258667,0.15451056861877502,0.626743403777684
6.211239400363415,-0.0173802638053894,0.123643257522583,-0.0562511501312254,0.626743403777684
6.211845093882495,0.0185450291633606,-0.13262383232116698,-0.049066091537475404,0.626743403777684
6.212450787401575,-0.0269603419303894,-0.19728935966491698,0.037154611587524596,0.626743403777684
6.213056480920653,-0.0078001856803894,-0.130228812789917,-0.384368825912475,0.626743403777684
6.213662174439732,-0.055700576305389396,0.018262398147583,-0.187977224349975,0.626743403777684
6.214267867958813,0.0784205174446106,0.145198433303833,-0.027510915756225402,0.626743403777684
6.214873561477892,-0.0700706934928894,-0.077538383102417,0.0658948459625246,0.626743403777684
6.215479254996971,-0.0940208888053894,0.118853218460083,0.0826599826812746,0.626743403777684
6.216084948516051,-0.053305556774139395,0.018262398147583,0.128165353775025,0.626743403777684
6.21669064203513,0.0784205174446106,0.030237495803833,0.15451056861877502,0.626743403777684
6.2172963355542095,-0.0006151270866394039,-0.055983207321167,-0.0107457790374754,0.626743403777684
6.217902029073288,-0.0365404200553894,-0.044008109664917,0.0323645725250246,0.626743403777684
6.218507722592368,-0.0916258692741394,0.116458198928833,0.037154611587524596,1.3441286563102037
6.219113416111448,-0.101205947399139,-0.0032927776336669798,0.441912912368775,1.3441286563102037
6.219719109630526,0.042495224475860606,0.078137886428833,0.528133615493775,1.3441286563102037
6.220324803149605,-0.0892308497428894,-0.089513480758667,0.0850550022125246,1.3441286563102037
6.220930496668686,0.0544703221321106,0.025447456741333,0.0467346897125246,1.3441286563102037
6.221536190187765,-0.0197752833366394,0.00149726142883302,0.231151193618775,1.3441286563102037
6.222141883706843,0.0903956151008606,0.006287300491333019,0.14014045143127501,1.3441286563102037
6.222747577225924,-0.053305556774139395,0.00389228096008302,0.132955392837525,1.3441286563102037
6.223353270745003,-0.0365404200553894,-0.096698539352417,-0.132891775131225,1.3441286563102037
6.223958964264082,0.0305201268196106,-0.106278617477417,0.0491297092437746,1.3441286563102037
6.224564657783161,-0.0149852442741394,-0.044008109664917,0.0946350803375246,1.3441286563102037
6.225170351302241,-0.0054051661491394,0.106878120803833,-0.0155358180999754,1.3441286563102037
6.22577604482132,-0.058095595836639397,0.128433296585083,0.250311349868775,1.3441286563102037
6.226381738340399,0.0903956151008606,0.123643257522583,-0.132891775131225,1.3441286563102037
6.226987431859479,-0.010195205211639401,-0.077538383102417,-0.0203258571624754,1.3441286563102037
6.227593125378558,0.150271103382111,-0.017662894821167,0.240731271743775,1.3441286563102037
6.228198818897638,-0.0030101466178894,-0.091908500289917,0.20001593971252501,1.3441286563102037
6.228804512416716,0.032915146350860604,-0.111068656539917,0.137745431900025,1.3441286563102037
6.229410205935796,0.0520753026008606,-0.065563285446167,-0.13528679466247498,1.3441286563102037
6.230015899454876,-0.12036610364913901,-0.039218070602417,0.106610177993775,1.3441286563102037
6.230621592973955,0.0784205174446106,-0.113463676071167,0.10182013893127499,1.3441286563102037
6.231227286493034,-0.149106338024139,-0.051193168258667,-0.029905935287475403,1.3441286563102037
6.231832980012114,-0.177846572399139,-0.046403129196167,0.137745431900025,1.3441286563102037
6.232438673531193,-0.055700576305389396,-0.048798148727417,0.192830881118775,1.3441286563102037
6.233044367050272,0.032915146350860604,0.14280341377258302,0.211991037368775,1.3441286563102037
6.233650060569351,-0.048515517711639394,0.102088081741333,0.130560373306275,1.3441286563102037
6.234255754088431,-0.0030101466178894,0.063767769241333,0.039549631118774596,1.3441286563102037
6.234861447607511,0.157456161975861,0.145198433303833,-0.0562511501312254,1.3441286563102037
6.235467141126589,-0.21616688489913902,0.035027534866333,-0.0706212673187254,1.3441286563102037
6.236072834645668,-0.213771865367889,-0.115858695602417,0.0850550022125246,1.3441286563102037
6.236678528164749,0.20775157213211098,-0.130228812789917,-0.14486687278747498,1.3441286563102037
6.237284221683828,0.150271103382111,-0.24279473075866698,-0.0897814235687254,1.3441286563102037
6.237889915202906,-0.15150135755538902,0.082927925491333,-0.0706212673187254,1.3441286563102037
6.238495608721987,0.0065699315071106,0.075742866897583,0.0275745334625246,1.3441286563102037
6.239101302241066,0.0472852635383606,-0.111068656539917,0.197620920181275,1.3441286563102037
6.2397069957601445,-0.252092177867889,0.049397652053833,0.0946350803375246,1.3441286563102037
6.240312689279225,0.06405040025711059,-0.091908500289917,0.039549631118774596,1.3441286563102037
6.240918382798304,0.12153086900711099,0.118853218460083,0.202410959243775,1.3441286563102037
6.241524076317383,-0.213771865367889,0.075742866897583,0.22875617408752502,1.3441286563102037
6.242129769836462,0.0017798924446106,-0.077538383102417,-0.0155358180999754,1.3441286563102037
6.242735463355542,-0.053305556774139395,-0.029637992477417,0.264681467056275,1.3441286563102037
6.243341156874621,-0.0030101466178894,-0.084723441696167,0.16409064674377502,1.3441286563102037
6.243946850393701,0.0305201268196106,-0.115858695602417,0.118585275650025,1.3441286563102037
6.244552543912779,-0.11797108411788901,-0.015267875289917,0.17367072486877502,1.3441286563102037
6.245158237431859,-0.105995986461639,0.121248237991333,0.0323645725250246,1.3441286563102037
6.245763930950939,-0.022170302867889402,-0.039218070602417,0.0826599826812746,1.3441286563102037
6.2463696244700175,0.11195079088211099,0.035027534866333,-0.051461111068725404,1.3441286563102037
6.246975317989097,-0.103600966930389,0.097298042678833,0.017994455337524598,1.3441286563102037
6.247581011508177,-0.149106338024139,0.066162788772583,0.554478830337525,1.3441286563102037
6.248186705027256,0.176616318225861,-0.072748344039917,0.23354621315002502,1.3441286563102037
6.248792398546335,0.11434581041336099,-0.022452933883667002,0.295816720962525,1.3441286563102037
6.249398092065414,-0.15150135755538902,-0.101488578414917,0.176065744400025,1.3441286563102037
6.250003785584494,0.07602549791336059,-0.094303519821167,-0.00356072044372537,1.3441286563102037
6.250609479103574,-0.022170302867889402,0.173938667678833,0.17367072486877502,1.3441286563102037
6.251215172622652,-0.0365404200553894,-0.13262383232116698,-0.0706212673187254,1.3441286563102037
6.251820866141732,-0.048515517711639394,-0.0032927776336669798,-0.0945714626312254,1.3441286563102037
6.252426559660812,-0.0628856348991394,0.123643257522583,0.15930060768127502,1.3441286563102037
6.2530322531798905,0.0832105565071106,0.047002632522583,0.120980295181275,1.3441286563102037
6.253637946698969,-0.0389354395866394,-0.103883597946167,0.0682898654937746,1.3441286563102037
6.25424364021805,-0.058095595836639397,-0.101488578414917,0.0706848850250246,1.3441286563102037
6.254849333737129,-0.228141982555389,0.035027534866333,-0.111336599349975,1.3441286563102037
6.2554550272562075,-0.022170302867889402,-0.036823051071167,0.171275705337525,1.3441286563102037
6.256060720775288,-0.0245653223991394,-0.125438773727417,0.147325510025025,1.3441286563102037
6.256666414294367,-0.055700576305389396,-0.28111504325866704,0.185645822525025,1.3441286563102037
6.257272107813446,-0.103600966930389,-0.015267875289917,-0.178397146224975,1.3441286563102037
6.257877801332525,-0.048515517711639394,0.133223335647583,-0.0227208766937254,1.3441286563102037
6.258483494851605,-0.0628856348991394,-0.058378226852417,0.109005197525025,1.3441286563102037
6.259089188370684,-0.134736220836639,0.00389228096008302,-0.101756521224975,1.3441286563102037
6.2596948818897635,0.11913584947586099,-0.017662894821167,0.130560373306275,1.3441286563102037
6.260300575408842,-0.12036610364913901,-0.20686943778991698,0.231151193618775,1.3441286563102037
6.260906268927922,-0.0604906153678894,0.025447456741333,0.0754749240875246,1.3441286563102037
6.261511962447002,0.0017798924446106,-0.00808281669616698,-0.0107457790374754,1.3441286563102037
6.2621176559660805,-0.153896377086639,0.013472359085083,0.0467346897125246,1.3441286563102037
6.262723349485159,0.13350596666336098,-0.034428031539917,0.00601935768127463,1.3441286563102037
6.26332904300424,0.14308604478836098,-0.058378226852417,0.0658948459625246,1.3441286563102037
6.263934736523319,-0.158686416149139,0.025447456741333,0.10421515846252499,1.3441286563102037
6.264540430042398,-0.046120498180389394,0.013472359085083,0.0467346897125246,1.3441286563102037
6.265146123561478,0.07123545885086059,-0.024847953414917,0.029969552993774597,1.3441286563102037
6.265751817080557,-0.0628856348991394,0.035027534866333,0.106610177993775,1.3441286563102037
6.2663575105996365,-0.12036610364913901,0.154778511428833,0.247916330337525,1.3441286563102037
6.266963204118715,-0.048515517711639394,-0.017662894821167,0.243126291275025,1.3441286563102037
6.267568897637795,-0.0844408106803894,-0.024847953414917,0.211991037368775,1.3441286563102037
6.268174591156875,0.0999756932258606,0.195493843460083,0.132955392837525,1.3441286563102037
6.2687802846759535,0.07602549791336059,0.044607612991333,-0.0394860134124754,1.3441286563102037
6.269385978195032,-0.192216689586639,-0.14699394950866698,0.211991037368775,1.3441286563102037
6.269991671714113,-0.14671131849288901,0.109273140335083,0.0850550022125246,1.3441286563102037
6.270597365233192,-0.168266494274139,0.013472359085083,0.128165353775025,1.3441286563102037
6.2712030587522705,-0.0173802638053894,-0.024847953414917,0.15451056861877502,1.3441286563102037
6.271808752271351,0.0065699315071106,-0.067958304977417,0.314976877212525,1.3441286563102037
6.27241444579043,0.10476573228836099,-0.048798148727417,0.14972052955627502,1.3441286563102037
6.273020139309509,0.162246201038361,-0.039218070602417,0.0587097873687746,1.3441286563102037
6.273625832828588,-0.103600966930389,0.011077339553832999,0.0874500217437746,1.3441286563102037
6.274231526347668,-0.0365404200553894,0.068557808303833,0.10182013893127499,1.3441286563102037
6.274837219866747,0.06644541978836059,-0.00568779716491698,0.271866525650025,1.3441286563102037
6.2754429133858265,-0.0389354395866394,-0.13741387138366698,0.123375314712525,1.3441286563102037
6.276048606904905,0.042495224475860606,-0.103883597946167,0.0203894748687746,1.3441286563102037
6.276654300423985,0.06884043931961059,0.023052437210082998,0.0227844944000246,1.3441286563102037
6.277259993943065,0.0856055760383606,0.006287300491333019,0.21438605690002502,1.3441286563102037
6.2778656874621435,-0.0054051661491394,0.073347847366333,0.00362433815002463,1.3441286563102037
6.278471380981224,0.0808155369758606,-0.13262383232116698,0.113795236587525,1.3441286563102037
6.279077074500303,0.011359970569610599,-0.039218070602417,0.750870431900025,1.3441286563102037
6.279682768019382,-0.273647353649139,0.068557808303833,0.113795236587525,1.3441286563102037
6.280288461538461,-0.0796507716178894,-0.048798148727417,0.106610177993775,1.3441286563102037
6.280894155057541,-0.153896377086639,-0.060773246383667004,0.281446603775025,1.3441286563102037
6.28149984857662,-0.127551162242889,0.094903023147583,-0.0754113063812254,1.3441286563102037
6.2821055420956995,-0.0078001856803894,0.126038277053833,0.235941232681275,1.3441286563102037
6.282711235614778,-0.132341201305389,0.082927925491333,0.183250802993775,1.3441286563102037
6.283316929133858,-0.185031630992889,0.044607612991333,0.037154611587524596,1.3441286563102037
6.283922622652938,-0.185031630992889,-0.020057914352417,0.192830881118775,1.3441286563102037
6.2845283161720165,-0.0269603419303894,0.044607612991333,0.15451056861877502,1.3441286563102037
6.285134009691095,-0.022170302867889402,-0.125438773727417,-0.0562511501312254,1.3441286563102037
6.285739703210176,0.19338145494461098,-0.099093558883667,0.132955392837525,1.3441286563102037
6.286345396729255,0.11434581041336099,-0.072748344039917,0.0946350803375246,1.3441286563102037
6.286951090248333,0.0185450291633606,-0.113463676071167,-0.013140798568725399,1.3441286563102037
6.287556783767414,0.0951856541633606,-0.039218070602417,-0.0993615016937254,1.3441286563102037
6.288162477286493,-0.0820457911491394,0.058977730178832996,0.0922400608062746,1.3441286563102037
6.288768170805572,-0.11797108411788901,0.058977730178832996,0.0874500217437746,1.3441286563102037
6.289373864324651,-0.0940208888053894,-0.089513480758667,0.12577033424377498,1.3441286563102037
6.289979557843731,0.13829600572586098,0.011077339553832999,0.190435861587525,1.3441286563102037
6.29058525136281,-0.0868358302116394,0.032632515335083,0.120980295181275,1.3441286563102037
6.2911909448818895,-0.0700706934928894,-0.048798148727417,-0.125706716537475,1.3441286563102037
6.291796638400968,-0.0724657130241394,-0.15178398857116698,-0.06822624778747541,1.3441286563102037
6.292402331920048,-0.218561904430389,0.121248237991333,0.0611048069000246,1.3441286563102037
6.293008025439128,-0.0030101466178894,-0.07514336357116701,0.029969552993774597,1.3441286563102037
6.293613718958206,0.06644541978836059,-0.077538383102417,0.276656564712525,1.3441286563102037
6.294219412477286,-0.0149852442741394,0.061372749710083,0.15451056861877502,1.3441286563102037
6.294825105996366,-0.0389354395866394,-0.135018851852417,0.283841623306275,1.3441286563102037
6.295430799515445,0.0903956151008606,-0.079933402633667,0.10421515846252499,1.3441286563102037
6.296036493034524,0.0808155369758606,-0.15178398857116698,-0.0562511501312254,1.3441286563102037
6.296642186553604,-0.0724657130241394,-0.067958304977417,0.00841437721252463,1.3441286563102037
6.297247880072683,0.0784205174446106,-0.125438773727417,0.0874500217437746,1.3441286563102037
6.2978535735917625,-0.0245653223991394,0.058977730178832996,0.192830881118775,1.3441286563102037
6.298459267110841,-0.0437254786491394,-0.077538383102417,0.0994251194000246,1.3441286563102037
6.299064960629921,0.131110947132111,0.037422554397583,-0.0203258571624754,1.3441286563102037
6.299670654149001,-0.022170302867889402,0.209863960647583,-0.0179308376312254,1.3441286563102037
6.300276347668079,-0.046120498180389394,-0.13262383232116698,0.0850550022125246,1.3441286563102037
6.300882041187158,0.0041749119758606006,-0.115858695602417,0.015599435806274601,1.3441286563102037
6.301487734706239,-0.0389354395866394,-0.036823051071167,0.252706369400025,1.3441286563102037
6.302093428225318,0.0472852635383606,0.047002632522583,0.180855783462525,1.3441286563102037
6.302699121744396,0.0784205174446106,0.035027534866333,0.130560373306275,1.3441286563102037
6.303304815263477,0.0448902440071106,-0.082328422164917,0.322161935806275,1.3441286563102037
6.303910508782556,-0.0365404200553894,-0.127833793258667,0.10182013893127499,1.3441286563102037
6.304516202301635,0.0999756932258606,0.037422554397583,0.00362433815002463,1.3441286563102037
6.305121895820714,-0.048515517711639394,0.061372749710083,0.15930060768127502,1.3441286563102037
6.305727589339794,-0.153896377086639,-0.170944144821167,0.0634998264312746,1.3441286563102037
6.306333282858873,0.0089649510383606,-0.036823051071167,0.0730799045562746,1.3441286563102037
6.306938976377952,-0.0676756739616394,-0.0032927776336669798,0.113795236587525,1.3441286563102037
6.307544669897032,-0.0389354395866394,-0.046403129196167,-0.152051931381225,1.3441286563102037
6.308150363416111,-0.127551162242889,0.030237495803833,0.46825812721252497,1.3441286563102037
6.308756056935191,-0.201796767711639,-0.091908500289917,0.374852365493775,1.3441286563102037
6.309361750454269,-0.048515517711639394,0.00149726142883302,0.326951974868775,1.3441286563102037
6.309967443973349,-0.0844408106803894,0.118853218460083,0.382037424087525,1.3441286563102037
6.310573137492429,0.0305201268196106,-0.18770928153991698,0.0611048069000246,1.3441286563102037
6.311178831011508,0.157456161975861,-0.070353324508667,-0.106546560287475,1.3441286563102037
6.311784524530586,-0.053305556774139395,0.099693062210083,0.0323645725250246,1.3441286563102037
6.312390218049667,0.0544703221321106,0.16675360908508302,0.331742013931275,1.3441286563102037
6.312995911568746,-0.0293553614616394,0.13082831611633303,0.15930060768127502,1.3441286563102037
6.313601605087825,0.061655380725860603,-0.139808890914917,0.120980295181275,1.3441286563102037
6.314207298606904,-0.046120498180389394,0.035027534866333,0.0132044162750246,1.3441286563102037
6.314812992125984,0.0161500096321106,-0.036823051071167,0.039549631118774596,1.3441286563102037
6.315418685645064,0.145481064319611,0.123643257522583,0.384432443618775,1.3441286563102037
6.316024379164142,-0.0317503809928894,-0.089513480758667,0.0826599826812746,1.3441286563102037
6.316630072683221,-0.0269603419303894,-0.022452933883667002,0.0850550022125246,1.3441286563102037
6.317235766202302,-0.0652806544303894,-0.067958304977417,0.322161935806275,1.3441286563102037
6.317841459721381,-0.0173802638053894,-0.194894340133667,0.10421515846252499,1.3441286563102037
6.318447153240459,-0.254487197399139,-0.060773246383667004,0.20480597877502502,0.9281926272263513
6.31905284675954,-0.0006151270866394039,-0.027242972946167,0.202410959243775,0.9281926272263513
6.319658540278619,0.190986435413361,0.027842476272583,0.295816720962525,0.9281926272263513
6.3202642337976975,-0.0772557520866394,-0.022452933883667002,0.029969552993774597,0.9281926272263513
6.320869927316778,-0.0437254786491394,0.126038277053833,0.27905158424377496,0.9281926272263513
6.321475620835857,0.10476573228836099,0.10448310127258299,0.16409064674377502,0.9281926272263513
6.322081314354936,0.0041749119758606006,-0.051193168258667,0.152115549087525,0.9281926272263513
6.322687007874015,0.0257300877571106,0.145198433303833,0.341322092056275,0.9281926272263513
6.323292701393095,0.011359970569610599,0.080532905960083,0.109005197525025,0.9281926272263513
6.323898394912174,0.171826279163361,0.056582710647583,0.0419446506500246,0.9281926272263513
6.324504088431254,0.07363047838211059,-0.00808281669616698,0.190435861587525,0.9281926272263513
6.325109781950332,0.037705185413360605,-0.135018851852417,0.271866525650025,0.9281926272263513
6.325715475469413,0.040100204944610605,-0.0032927776336669798,0.113795236587525,0.9281926272263513
6.326321168988492,-0.0772557520866394,0.090112984085083,0.0611048069000246,0.9281926272263513
6.3269268625075705,0.07123545885086059,-0.108673637008667,-0.0251158962249754,0.9281926272263513
6.327532556026649,0.0496802830696106,-0.108673637008667,0.0778699436187746,0.9281926272263513
6.32813824954573,0.06405040025711059,0.037422554397583,0.346112131118775,0.9281926272263513
6.328743943064809,-0.0820457911491394,-0.18770928153991698,0.0419446506500246,0.9281926272263513
6.329349636583888,-0.11797108411788901,0.023052437210082998,-0.113731618881225,0.9281926272263513
6.329955330102967,0.0305201268196106,0.073347847366333,0.0922400608062746,0.9281926272263513
6.330561023622047,0.0209400486946106,-0.209264457321167,-0.049066091537475404,0.9281926272263513
6.3311667171411266,-0.108391005992889,-0.23321465263366697,0.128165353775025,0.9281926272263513
6.331772410660205,0.035310165882110604,0.00868232002258302,0.0539197483062746,0.9281926272263513
6.332378104179284,0.0856055760383606,0.00149726142883302,0.0467346897125246,0.9281926272263513
6.332983797698365,0.0281251072883606,0.027842476272583,0.255101388931275,0.9281926272263513
6.3335894912174435,-0.0006151270866394039,-0.022452933883667002,-0.0562511501312254,0.9281926272263513
6.334195184736522,0.190986435413361,-0.044008109664917,0.188040842056275,0.9281926272263513
6.334800878255603,0.0257300877571106,-0.020057914352417,0.33892707252502496,0.9281926272263513
6.335406571774682,-0.0892308497428894,0.135618355178833,0.147325510025025,0.9281926272263513
6.3360122652937605,0.14787608385086098,0.099693062210083,-0.027510915756225402,0.9281926272263513
6.336617958812841,0.12392588853836099,-0.058378226852417,-0.0107457790374754,0.9281926272263513
6.33722365233192,0.0257300877571106,0.070952827835083,0.21438605690002502,0.9281926272263513
6.337829345850999,-0.113181045055389,0.082927925491333,-0.0730162868499754,0.9281926272263513
6.338435039370078,-0.0413304591178894,-0.094303519821167,-0.228692556381225,0.9281926272263513
6.339040732889158,-0.012590224742889402,-0.063168265914917,0.676624826431275,0.9281926272263513
6.339646426408237,-0.0437254786491394,-0.027242972946167,0.580824045181275,0.9281926272263513
6.3402521199273165,0.023335068225860598,0.085322945022583,-0.0179308376312254,0.9281926272263513
6.340857813446395,0.11434581041336099,-0.106278617477417,-0.0179308376312254,0.9281926272263513
6.341463506965475,-0.0820457911491394,-0.010477836227417001,-0.00595573997497537,0.9281926272263513
6.342069200484555,-0.0844408106803894,-0.017662894821167,0.22396613502502502,0.9281926272263513
6.3426748940036335,0.236491806507111,-0.058378226852417,0.0108093967437746,0.9281926272263513
6.343280587522713,0.258046982288361,0.17154364814758302,0.0994251194000246,0.9281926272263513
6.343886281041793,-0.0652806544303894,-0.120648734664917,0.22875617408752502,0.9281926272263513
6.344491974560872,-0.0269603419303894,0.056582710647583,0.14014045143127501,0.9281926272263513
6.3450976680799505,-0.0772557520866394,0.15238349189758302,0.192830881118775,0.9281926272263513
6.34570336159903,-0.0197752833366394,-0.15178398857116698,0.132955392837525,0.9281926272263513
6.34630905511811,-0.0700706934928894,-0.091908500289917,0.183250802993775,0.9281926272263513
6.3469147486371895,-0.11797108411788901,-0.00568779716491698,0.116190256118775,0.9281926272263513
6.347520442156268,0.0856055760383606,-0.180524222946167,-0.029905935287475403,0.9281926272263513
6.348126135675348,0.0856055760383606,0.027842476272583,-0.19037224388122498,0.9281926272263513
6.348731829194428,0.07363047838211059,0.114063179397583,0.132955392837525,0.9281926272263513
6.3493375227135065,-0.12276112318038901,0.133223335647583,0.0611048069000246,0.9281926272263513
6.349943216232585,-0.0006151270866394039,0.042212593460083,0.0658948459625246,0.9281926272263513
6.350548909751666,-0.105995986461639,-0.154179008102417,0.31018683815002496,0.9281926272263513
6.351154603270745,-0.0796507716178894,0.080532905960083,0.15451056861877502,0.9281926272263513
6.3517602967898235,-0.0868358302116394,0.020657417678832998,-0.0107457790374754,0.9281926272263513
6.352365990308904,0.236491806507111,-0.051193168258667,-0.113731618881225,0.9281926272263513
6.352971683827983,0.07363047838211059,0.066162788772583,0.20480597877502502,0.9281926272263513
6.353577377347062,-0.213771865367889,0.121248237991333,0.113795236587525,0.9281926272263513
6.354183070866141,0.210146591663361,-0.21165947685241698,0.16409064674377502,0.9281926272263513
6.354788764385221,-0.022170302867889402,0.027842476272583,-0.00595573997497537,0.9281926272263513
6.3553944579043,-0.11557606458663901,0.17154364814758302,0.166485666275025,0.9281926272263513
6.3560001514233795,0.040100204944610605,0.006287300491333019,0.116190256118775,0.9281926272263513
6.356605844942458,-0.0317503809928894,-0.130228812789917,-0.00835075950622537,0.9281926272263513
6.357211538461538,-0.0964159083366394,-0.103883597946167,0.0898450412750246,0.9281926272263513
6.357817231980618,-0.0078001856803894,-0.180524222946167,0.0467346897125246,0.9281926272263513
6.3584229254996965,-0.0796507716178894,0.018262398147583,-0.128101736068725,0.9281926272263513
6.359028619018776,-0.0317503809928894,0.13082831611633303,0.0108093967437746,0.9281926272263513
6.359634312537856,0.061655380725860603,-0.194894340133667,0.243126291275025,0.9281926272263513
6.360240006056935,-0.149106338024139,-0.130228812789917,-0.0610411891937254,0.9281926272263513
6.360845699576014,0.0041749119758606006,-0.027242972946167,-0.33886345481872504,0.9281926272263513
6.361451393095094,-0.0317503809928894,0.274529487991333,-0.0466710720062254,0.9281926272263513
6.362057086614173,0.0185450291633606,-0.034428031539917,0.183250802993775,0.9281926272263513
6.3626627801332525,-0.050910537242889395,-0.094303519821167,0.183250802993775,0.9281926272263513
6.363268473652331,0.040100204944610605,0.106878120803833,0.137745431900025,0.9281926272263513
6.363874167171411,0.023335068225860598,0.049397652053833,0.180855783462525,0.9281926272263513
6.364479860690491,-0.110786025524139,-0.036823051071167,0.264681467056275,0.9281926272263513
6.3650855542095695,0.0496802830696106,-0.034428031539917,0.130560373306275,0.9281926272263513
6.365691247728648,-0.175451552867889,-0.101488578414917,0.130560373306275,0.9281926272263513
6.366296941247729,-0.297597548961639,-0.079933402633667,0.0275745334625246,0.9281926272263513
6.366902634766808,-0.32873280286788903,0.039817573928833,0.029969552993774597,0.9281926272263513
6.367508328285886,-0.0676756739616394,0.073347847366333,0.276656564712525,0.9281926272263513
6.368114021804967,0.10955577135086099,-0.027242972946167,-0.0825963649749754,0.9281926272263513
6.368719715324046,0.035310165882110604,0.027842476272583,-0.391553884506225,0.9281926272263513
6.369325408843125,-0.153896377086639,0.047002632522583,0.293421701431275,0.9281926272263513
6.369931102362204,-0.058095595836639397,-0.034428031539917,0.0634998264312746,0.9281926272263513
6.370536795881284,0.0017798924446106,0.145198433303833,-0.0730162868499754,0.9281926272263513
6.371142489400363,-0.0964159083366394,-0.032033012008667,0.0108093967437746,0.9281926272263513
6.3717481829194424,-0.441298720836639,0.020657417678832998,0.00841437721252463,0.9281926272263513
6.372353876438522,-0.264067275524139,-0.0032927776336669798,-0.0370909938812254,0.9281926272263513
6.372959569957601,0.0951856541633606,-0.055983207321167,0.240731271743775,0.9281926272263513
6.373565263476681,0.032915146350860604,0.14759345283508302,0.120980295181275,0.9281926272263513
6.374170956995759,-0.15150135755538902,-0.012872855758667002,0.0563147678375246,0.9281926272263513
6.374776650514839,-0.11557606458663901,0.027842476272583,0.22396613502502502,0.9281926272263513
6.375382344033919,-0.153896377086639,0.011077339553832999,0.123375314712525,0.9281926272263513
6.375988037552998,0.145481064319611,-0.135018851852417,0.123375314712525,0.9281926272263513
6.376593731072077,0.341872665882111,-0.079933402633667,-0.113731618881225,0.9281926272263513
6.377199424591157,-0.144316298961639,-0.072748344039917,-0.132891775131225,0.9281926272263513
6.377805118110236,-0.0078001856803894,-0.089513480758667,-0.06343620872497541,0.9281926272263513
6.3784108116293154,0.035310165882110604,-0.180524222946167,0.274261545181275,0.9281926272263513
6.379016505148394,-0.0389354395866394,0.030237495803833,0.123375314712525,0.9281926272263513
6.379622198667474,-0.17066151380538902,0.080532905960083,0.147325510025025,0.9281926272263513
6.380227892186554,-0.046120498180389394,-0.113463676071167,0.23354621315002502,0.9281926272263513
6.380833585705632,0.07363047838211059,0.14280341377258302,0.343717111587525,0.9281926272263513
6.381439279224711,0.265232040882111,0.025447456741333,0.255101388931275,0.9281926272263513
6.382044972743792,0.12392588853836099,-0.020057914352417,0.111400217056275,0.9281926272263513
6.382650666262871,-0.053305556774139395,-0.024847953414917,0.0634998264312746,0.9281926272263513
6.383256359781949,0.0209400486946106,-0.044008109664917,-0.0849913845062254,0.9281926272263513
6.38386205330103,0.0951856541633606,0.19788886299133301,0.17367072486877502,0.9281926272263513
6.384467746820109,0.06644541978836059,-0.103883597946167,0.0203894748687746,0.9281926272263513
6.385073440339188,0.07363047838211059,-0.16136406669616699,-0.0323009548187254,0.9281926272263513
6.385679133858268,0.0592603611946106,-0.00568779716491698,0.286236642837525,0.9281926272263513
6.386284827377347,-0.0437254786491394,0.058977730178832996,0.192830881118775,0.9281926272263513
6.386890520896426,0.164641220569611,0.047002632522583,0.176065744400025,0.9281926272263513
6.387496214415505,0.06644541978836059,0.044607612991333,0.176065744400025,0.9281926272263513
6.388101907934585,0.0520753026008606,0.013472359085083,0.132955392837525,0.9281926272263513
6.388707601453664,0.131110947132111,-0.103883597946167,-0.029905935287475403,0.9281926272263513
6.389313294972744,-0.0365404200553894,-0.103883597946167,0.0251795139312746,0.9281926272263513
6.389918988491822,-0.197006728649139,0.145198433303833,-0.0011657009124753702,0.9281926272263513
6.390524682010902,-0.0988109278678894,-0.058378226852417,0.015599435806274601,0.9281926272263513
6.391130375529982,0.0520753026008606,-0.020057914352417,0.216781076431275,0.9281926272263513
6.3917360690490606,0.0520753026008606,0.102088081741333,-0.06583122825622541,0.9281926272263513
6.392341762568139,-0.199401748180389,-0.027242972946167,-0.0418810329437254,0.9281926272263513
6.39294745608722,-0.223351943492889,0.027842476272583,0.0994251194000246,0.9281926272263513
6.393553149606299,0.157456161975861,0.013472359085083,0.161695627212525,0.9281926272263513
6.394158843125378,0.12871592760086098,-0.170944144821167,0.142535470962525,0.9281926272263513
6.394764536644457,-0.055700576305389396,-0.113463676071167,0.0658948459625246,0.9281926272263513
6.395370230163537,0.06884043931961059,0.073347847366333,0.0850550022125246,0.9281926272263513
6.395975923682617,-0.199401748180389,0.094903023147583,0.183250802993775,0.9281926272263513
6.396581617201695,-0.0293553614616394,0.00149726142883302,0.286236642837525,0.9281926272263513
6.397187310720774,0.210146591663361,-0.060773246383667004,0.0467346897125246,0.9281926272263513
6.397793004239855,-0.055700576305389396,-0.22123955497741699,0.36766730690002497,0.9281926272263513
6.3983986977589336,-0.0916258692741394,-0.223634574508667,0.171275705337525,0.9281926272263513
6.399004391278012,0.13829600572586098,-0.13262383232116698,0.22396613502502502,0.9281926272263513
6.399610084797093,0.0951856541633606,-0.072748344039917,0.729315256118775,0.9281926272263513
6.400215778316172,-0.0796507716178894,-0.067958304977417,0.10421515846252499,0.9281926272263513
6.4008214718352505,-0.108391005992889,-0.103883597946167,0.21438605690002502,0.9281926272263513
6.401427165354331,-0.17066151380538902,0.00149726142883302,0.128165353775025,0.9281926272263513
6.40203285887341,-0.0604906153678894,-0.036823051071167,-0.00356072044372537,0.9281926272263513
6.402638552392489,0.11674082994461099,-0.022452933883667002,0.142535470962525,0.9281926272263513
6.403244245911568,0.167036240100861,0.10448310127258299,0.132955392837525,0.9281926272263513
6.403849939430648,-0.11797108411788901,0.118853218460083,-0.152051931381225,0.9281926272263513
6.404455632949727,-0.254487197399139,-0.0032927776336669798,0.029969552993774597,0.9281926272263513
6.4050613264688065,-0.012590224742889402,0.080532905960083,0.48981330299377496,0.9281926272263513
6.405667019987885,-0.0868358302116394,-0.18291924247741698,0.27905158424377496,0.9281926272263513
6.406272713506965,-0.058095595836639397,-0.19728935966491698,0.0634998264312746,0.9281926272263513
6.406878407026045,-0.0988109278678894,-0.00568779716491698,0.00841437721252463,0.9281926272263513
6.4074841005451235,-0.163476455211639,-0.123043754196167,0.25989142799377496,0.9281926272263513
6.408089794064202,0.0951856541633606,-0.053588187789917,0.0970300998687746,0.9281926272263513
6.408695487583283,-0.022170302867889402,0.205073921585083,0.14972052955627502,0.9281926272263513
6.409301181102362,-0.113181045055389,-0.264349906539917,0.183250802993775,0.9281926272263513
6.409906874621441,-0.0173802638053894,-0.094303519821167,-0.0179308376312254,0.9281926272263513
6.41051256814052,0.0305201268196106,0.049397652053833,0.21917609596252502,0.9281926272263513
6.4111182616596,-0.0604906153678894,-0.070353324508667,0.171275705337525,0.9281926272263513
6.4117239551786795,0.0927906346321106,0.090112984085083,0.250311349868775,0.9281926272263513
6.412329648697758,0.432883408069611,-0.041613090133667,0.128165353775025,0.9281926272263513
6.412935342216838,0.145481064319611,-0.053588187789917,0.109005197525025,0.9281926272263513
6.413541035735918,-0.0700706934928894,0.169148628616333,0.0658948459625246,0.9281926272263513
6.4141467292549965,-0.0389354395866394,0.164358589553833,0.252706369400025,0.9281926272263513
6.414752422774075,-0.058095595836639397,-0.194894340133667,0.30779181861877497,0.9281926272263513
6.415358116293156,-0.0676756739616394,-0.051193168258667,0.0682898654937746,0.9281926272263513
6.415963809812235,0.06405040025711059,-0.048798148727417,0.274261545181275,0.9281926272263513
6.4165695033313135,0.226911728382111,-0.094303519821167,0.22396613502502502,0.9281926272263513
6.417175196850394,-0.0437254786491394,0.039817573928833,0.0658948459625246,0.9281926272263513
6.417780890369473,0.0257300877571106,0.073347847366333,0.0491297092437746,0.9281926272263513
6.418386583888552,0.0927906346321106,0.027842476272583,0.0611048069000246,0.7929350561721659
6.418992277407631,-0.273647353649139,-0.000897758102416984,0.255101388931275,0.7929350561721659
6.419597970926711,0.0448902440071106,-0.106278617477417,0.111400217056275,0.7929350561721659
6.42020366444579,0.023335068225860598,-0.14699394950866698,0.0850550022125246,0.7929350561721659
6.4208093579648695,-0.201796767711639,-0.00568779716491698,0.037154611587524596,0.7929350561721659
6.421415051483948,0.0209400486946106,-0.089513480758667,0.137745431900025,0.7929350561721659
6.422020745003028,0.0520753026008606,0.14759345283508302,0.350902170181275,0.7929350561721659
6.422626438522108,-0.050910537242889395,0.066162788772583,0.116190256118775,0.7929350561721659
6.4232321320411865,0.10955577135086099,-0.058378226852417,0.14014045143127501,0.7929350561721659
6.423837825560266,0.205356552600861,-0.087118461227417,0.26947150611877496,0.7929350561721659
6.424443519079346,0.0161500096321106,-0.103883597946167,0.21438605690002502,0.7929350561721659
6.425049212598425,-0.139526259899139,0.020657417678832998,-0.00835075950622537,0.7929350561721659
6.4256549061175035,-0.0676756739616394,-0.14220391044616698,0.00841437721252463,0.7929350561721659
6.426260599636584,0.0305201268196106,-0.032033012008667,0.0874500217437746,0.7929350561721659
6.426866293155663,0.07602549791336059,-0.063168265914917,0.21438605690002502,0.7929350561721659
6.4274719866747425,0.11434581041336099,-0.07514336357116701,-0.0849913845062254,0.7929350561721659
6.428077680193821,-0.264067275524139,-0.00808281669616698,-0.31012322044372503,0.7929350561721659
6.428683373712901,-0.223351943492889,-0.041613090133667,0.192830881118775,0.7929350561721659
6.429289067231981,0.0999756932258606,-0.020057914352417,0.686204904556275,0.7929350561721659
6.4298947607510595,0.061655380725860603,0.19070380439758303,0.192830881118775,0.7929350561721659
6.430500454270138,-0.0700706934928894,0.29608466377258297,-0.183187185287475,0.7929350561721659
6.431106147789219,0.0999756932258606,-0.079933402633667,0.0946350803375246,0.7929350561721659
6.431711841308298,-0.0269603419303894,-0.048798148727417,0.15451056861877502,0.7929350561721659
6.4323175348273764,-0.14671131849288901,0.066162788772583,0.147325510025025,0.7929350561721659
6.432923228346457,-0.0413304591178894,-0.0032927776336669798,0.243126291275025,0.7929350561721659
6.433528921865536,-0.110786025524139,0.111668159866333,0.132955392837525,0.7929350561721659
6.434134615384615,-0.16587147474288902,0.068557808303833,0.10421515846252499,0.7929350561721659
6.434740308903694,-0.0604906153678894,-0.17333916435241697,0.26947150611877496,0.7929350561721659
6.435346002422774,0.12871592760086098,-0.20207939872741698,0.0108093967437746,0.7929350561721659
6.435951695941853,-0.16108143568038902,-0.240399711227417,0.0634998264312746,0.7929350561721659
6.4365573894609325,-0.237722060680389,-0.14699394950866698,0.161695627212525,0.7929350561721659
6.437163082980011,-0.0030101466178894,-0.039218070602417,0.197620920181275,0.7929350561721659
6.437768776499091,0.0880005955696106,-0.113463676071167,0.197620920181275,0.7929350561721659
6.438374470018171,0.0041749119758606006,-0.00808281669616698,0.20959601783752502,0.7929350561721659
6.4389801635372494,-0.0868358302116394,0.011077339553832999,-0.0586461696624754,0.7929350561721659
6.439585857056329,0.0544703221321106,-0.070353324508667,0.0994251194000246,0.7929350561721659
6.440191550575409,-0.0413304591178894,-0.113463676071167,0.286236642837525,0.7929350561721659
6.440797244094488,0.253256943225861,0.030237495803833,0.00362433815002463,0.7929350561721659
6.441402937613567,-0.050910537242889395,0.14759345283508302,0.317371896743775,0.7929350561721659
6.442008631132647,-0.0269603419303894,-0.079933402633667,0.15930060768127502,0.7929350561721659
6.442614324651726,0.10716075181961099,-0.106278617477417,0.00841437721252463,0.7929350561721659
6.4432200181708055,-0.12276112318038901,0.035027534866333,0.15451056861877502,0.7929350561721659
6.443825711689884,0.032915146350860604,-0.060773246383667004,0.123375314712525,0.7929350561721659
6.444431405208964,-0.0245653223991394,-0.154179008102417,0.10182013893127499,0.7929350561721659
6.445037098728044,-0.0197752833366394,-0.012872855758667002,-0.255037771224975,0.7929350561721659
6.445642792247122,0.0089649510383606,0.018262398147583,-0.0921764430999754,0.7929350561721659
6.446248485766201,-0.055700576305389396,-0.170944144821167,0.16888068580627502,0.7929350561721659
6.446854179285282,-0.113181045055389,0.013472359085083,0.14972052955627502,0.7929350561721659
6.447459872804361,0.07363047838211059,-0.034428031539917,0.195225900650025,0.7929350561721659
6.448065566323439,0.253256943225861,-0.264349906539917,-0.0730162868499754,0.7929350561721659
6.44867125984252,0.040100204944610605,0.018262398147583,-0.0921764430999754,0.7929350561721659
6.449276953361599,-0.134736220836639,0.133223335647583,0.0323645725250246,0.7929350561721659
6.449882646880678,0.042495224475860606,0.00868232002258302,0.037154611587524596,0.7929350561721659
6.450488340399757,-0.022170302867889402,0.023052437210082998,0.171275705337525,0.7929350561721659
6.451094033918837,0.06644541978836059,-0.123043754196167,0.147325510025025,0.7929350561721659
6.451699727437916,0.0185450291633606,0.080532905960083,0.106610177993775,0.7929350561721659
6.452305420956995,-0.129946181774139,0.020657417678832998,0.293421701431275,0.7929350561721659
6.452911114476075,-0.247302138805389,-0.051193168258667,0.22396613502502502,0.7929350561721659
6.453516807995154,-0.235327041149139,-0.012872855758667002,0.202410959243775,0.7929350561721659
6.454122501514234,-0.012590224742889402,-0.094303519821167,0.0802649631500246,0.7929350561721659
6.454728195033312,0.200566513538361,0.061372749710083,-0.0754113063812254,0.7929350561721659
6.455333888552392,-0.0030101466178894,-0.000897758102416984,0.0539197483062746,0.7929350561721659
6.455939582071472,-0.0149852442741394,0.109273140335083,0.0563147678375246,0.7929350561721659
6.456545275590551,0.040100204944610605,0.056582710647583,0.372457345962525,0.7929350561721659
6.45715096910963,-0.144316298961639,-0.087118461227417,0.374852365493775,0.7929350561721659
6.45775666262871,0.0017798924446106,0.035027534866333,0.0563147678375246,0.7929350561721659
6.458362356147789,0.0161500096321106,0.075742866897583,-0.21432243919372498,0.7929350561721659
6.458968049666868,0.12153086900711099,-0.15657402763366698,0.30779181861877497,0.7929350561721659
6.459573743185947,0.301157333850861,-0.055983207321167,0.37006232643127496,0.7929350561721659
6.460179436705027,0.13350596666336098,0.193098823928833,0.111400217056275,0.7929350561721659
6.460785130224107,-0.0820457911491394,-0.010477836227417001,0.20959601783752502,0.7929350561721659
6.461390823743185,-0.0604906153678894,-0.099093558883667,0.0203894748687746,0.7929350561721659
6.461996517262264,0.0496802830696106,-0.084723441696167,0.262286447525025,0.7929350561721659
6.462602210781345,0.21254161119461099,-0.036823051071167,0.0730799045562746,0.7929350561721659
6.463207904300424,-0.11557606458663901,0.14759345283508302,0.111400217056275,0.7929350561721659
6.463813597819502,-0.199401748180389,-0.058378226852417,0.245521310806275,0.7929350561721659
6.464419291338583,0.222121689319611,-0.144598929977417,0.0539197483062746,0.7929350561721659
6.465024984857662,-0.053305556774139395,0.106878120803833,0.037154611587524596,0.7929350561721659
6.4656306783767405,-0.0604906153678894,-0.063168265914917,0.00122931861877463,0.7929350561721659
6.466236371895821,0.219726669788361,-0.072748344039917,0.137745431900025,0.7929350561721659
6.4668420654149,0.0185450291633606,0.102088081741333,0.0347595920562746,0.7929350561721659
6.467447758933979,-0.187426650524139,-0.106278617477417,0.10421515846252499,0.7929350561721659
6.468053452453058,-0.058095595836639397,-0.223634574508667,0.21438605690002502,0.7929350561721659
6.468659145972138,-0.010195205211639401,-0.041613090133667,-0.0969664821624754,0.7929350561721659
6.469264839491217,-0.158686416149139,-0.053588187789917,0.10182013893127499,0.7929350561721659
6.469870533010297,0.032915146350860604,-0.158969047164917,0.00122931861877463,0.7929350561721659
6.470476226529375,0.040100204944610605,-0.144598929977417,-0.0993615016937254,0.7929350561721659
6.471081920048455,-0.101205947399139,-0.039218070602417,0.015599435806274601,0.7929350561721659
6.471687613567535,0.27002207994461097,-0.07514336357116701,0.176065744400025,0.7929350561721659
6.4722933070866135,0.210146591663361,-0.13262383232116698,0.27905158424377496,0.7929350561721659
6.472899000605692,0.0568653416633606,-0.084723441696167,0.0946350803375246,0.7929350561721659
6.473504694124773,-0.0197752833366394,-0.094303519821167,0.0850550022125246,0.7929350561721659
6.474110387643852,-0.173056533336639,0.128433296585083,0.113795236587525,0.7929350561721659
6.474716081162931,0.0209400486946106,0.169148628616333,0.21917609596252502,0.7929350561721659
6.47532177468201,-0.110786025524139,0.061372749710083,0.30779181861877497,0.7929350561721659
6.47592746820109,0.0017798924446106,-0.067958304977417,0.247916330337525,0.7929350561721659
6.47653316172017,-0.0748607325553894,-0.20686943778991698,0.142535470962525,0.7929350561721659
6.477138855239248,0.023335068225860598,-0.14699394950866698,-0.0802013454437254,0.7929350561721659
6.477744548758327,0.023335068225860598,-0.14220391044616698,-0.111336599349975,0.7929350561721659
6.478350242277408,-0.180241591930389,0.080532905960083,0.0898450412750246,0.7929350561721659
6.4789559357964865,-0.0197752833366394,-0.058378226852417,0.0227844944000246,0.7929350561721659
6.479561629315565,0.0544703221321106,-0.020057914352417,-0.0107457790374754,0.7929350561721659
6.480167322834646,-0.0868358302116394,0.011077339553832999,0.111400217056275,0.7929350561721659
6.480773016353725,0.0784205174446106,-0.077538383102417,0.14014045143127501,0.7929350561721659
6.4813787098728035,0.183801376819611,0.118853218460083,0.22396613502502502,0.7929350561721659
6.481984403391884,-0.0940208888053894,-0.00568779716491698,0.0203894748687746,0.7929350561721659
6.482590096910963,-0.177846572399139,-0.089513480758667,0.0132044162750246,0.7929350561721659
6.483195790430042,-0.0317503809928894,-0.053588187789917,0.324556955337525,0.7929350561721659
6.483801483949121,0.0065699315071106,-0.000897758102416984,0.16888068580627502,0.7929350561721659
6.484407177468201,-0.0988109278678894,0.032632515335083,-0.166422048568725,0.7929350561721659
6.48501287098728,0.246071884632111,0.111668159866333,0.195225900650025,0.7929350561721659
6.4856185645063595,0.229306747913361,0.214653999710083,0.109005197525025,0.7929350561721659
6.486224258025438,-0.182636611461639,-0.149388969039917,0.22396613502502502,0.7929350561721659
6.486829951544518,-0.12036610364913901,-0.18291924247741698,-0.0251158962249754,0.7929350561721659
6.487435645063598,-0.0030101466178894,0.14280341377258302,-0.0945714626312254,0.7929350561721659
6.4880413385826765,-0.0030101466178894,-0.158969047164917,-0.0346959743499754,0.7929350561721659
6.488647032101755,0.226911728382111,-0.099093558883667,0.401197580337525,0.7929350561721659
6.489252725620836,0.0592603611946106,-0.20686943778991698,0.183250802993775,0.7929350561721659
6.489858419139915,-0.125156142711639,-0.226029594039917,0.161695627212525,0.7929350561721659
6.4904641126589935,-0.0916258692741394,-0.135018851852417,0.30060676002502495,0.7929350561721659
6.491069806178073,0.023335068225860598,-0.19728935966491698,-0.29096306419372503,0.7929350561721659
6.491675499697153,0.10476573228836099,-0.13262383232116698,0.15451056861877502,0.7929350561721659
6.4922811932162325,0.0257300877571106,-0.118253715133667,0.0323645725250246,0.7929350561721659
6.492886886735311,-0.149106338024139,0.054187691116333,0.116190256118775,0.7929350561721659
6.493492580254391,0.0161500096321106,0.051792671585083,0.116190256118775,0.7929350561721659
6.494098273773471,-0.0054051661491394,0.00868232002258302,-0.00595573997497537,0.7929350561721659
6.4947039672925495,0.0448902440071106,-0.020057914352417,0.211991037368775,0.7929350561721659
6.495309660811628,0.214936630725861,-0.067958304977417,0.185645822525025,0.7929350561721659
6.495915354330709,-0.0389354395866394,0.056582710647583,-0.156841970443725,0.7929350561721659
6.496521047849788,-0.149106338024139,0.073347847366333,0.156905588150025,0.7929350561721659
6.4971267413688665,-0.0173802638053894,-0.041613090133667,0.314976877212525,0.7929350561721659
6.497732434887947,0.14308604478836098,-0.00808281669616698,-0.0730162868499754,0.7929350561721659
6.498338128407026,-0.0341454005241394,0.082927925491333,0.226361154556275,0.7929350561721659
6.498943821926105,-0.163476455211639,0.042212593460083,0.17846076393127502,0.7929350561721659
6.499549515445184,-0.0293553614616394,0.00149726142883302,-0.161632009506225,0.7929350561721659
6.500155208964264,0.0161500096321106,-0.072748344039917,0.17367072486877502,0.7929350561721659
6.500760902483343,0.145481064319611,-0.044008109664917,0.36048224830627495,0.7929350561721659
6.5013665960024225,-0.149106338024139,-0.18770928153991698,0.17367072486877502,0.7929350561721659
6.501972289521501,-0.0748607325553894,-0.091908500289917,-0.113731618881225,0.7929350561721659
6.502577983040581,0.0472852635383606,-0.022452933883667002,-0.0538561305999754,0.7929350561721659
6.503183676559661,0.11195079088211099,-0.180524222946167,0.17367072486877502,0.7929350561721659
6.5037893700787395,0.0089649510383606,-0.082328422164917,0.17846076393127502,0.7929350561721659
6.504395063597819,-0.0676756739616394,-0.070353324508667,0.0970300998687746,0.7929350561721659
6.505000757116899,-0.0365404200553894,0.032632515335083,0.0275745334625246,0.7929350561721659
6.505606450635978,0.011359970569610599,-0.094303519821167,0.0419446506500246,0.7929350561721659
6.506212144155057,-0.113181045055389,0.027842476272583,0.22396613502502502,0.7929350561721659
6.506817837674137,-0.314362685680389,-0.099093558883667,0.120980295181275,0.7929350561721659
6.507423531193216,0.0041749119758606006,-0.149388969039917,0.202410959243775,0.7929350561721659
6.5080292247122955,-0.0413304591178894,0.075742866897583,-0.0442760524749754,0.7929350561721659
6.508634918231374,0.0568653416633606,-0.053588187789917,-0.0442760524749754,0.7929350561721659
6.509240611750454,-0.113181045055389,0.032632515335083,0.10421515846252499,0.7929350561721659
6.509846305269534,-0.053305556774139395,0.154778511428833,0.22875617408752502,0.7929350561721659
6.5104519987886125,0.0880005955696106,0.027842476272583,0.142535470962525,0.7929350561721659
6.511057692307691,-0.0293553614616394,0.011077339553832999,-0.0370909938812254,0.7929350561721659
6.511663385826772,-0.0413304591178894,0.023052437210082998,0.21917609596252502,0.7929350561721659
6.512269079345851,-0.0676756739616394,-0.017662894821167,-0.0323009548187254,0.7929350561721659
6.512874772864929,0.0089649510383606,0.00868232002258302,0.0611048069000246,0.7929350561721659
6.51348046638401,0.0137549901008606,-0.144598929977417,0.20001593971252501,0.7929350561721659
6.514086159903089,-0.15150135755538902,-0.14220391044616698,-0.06343620872497541,0.7929350561721659
6.514691853422168,-0.199401748180389,-0.00808281669616698,0.0467346897125246,0.7929350561721659
6.515297546941247,-0.223351943492889,-0.21165947685241698,0.0850550022125246,0.7929350561721659
6.515903240460327,-0.0820457911491394,0.039817573928833,-0.0418810329437254,0.7929350561721659
6.516508933979406,0.0065699315071106,0.118853218460083,0.0778699436187746,0.7929350561721659
6.5171146274984855,0.061655380725860603,-0.015267875289917,0.0419446506500246,0.7929350561721659
6.517720321017564,-0.0341454005241394,0.23141913642883302,-0.192767263412475,0.7929350561721659
6.518326014536644,-0.15150135755538902,-0.0032927776336669798,0.0778699436187746,0.8676519097892413
6.518931708055724,-0.27843739271163903,-0.091908500289917,0.707760080337525,0.8676519097892413
6.519537401574802,0.126320908069611,0.10448310127258299,0.698180002212525,0.8676519097892413
6.520143095093882,-0.182636611461639,0.037422554397583,0.264681467056275,0.8676519097892413
6.520748788612962,-0.0293553614616394,-0.00568779716491698,-0.0730162868499754,0.8676519097892413
6.521354482132041,0.19817149400711098,-0.00808281669616698,0.0994251194000246,0.8676519097892413
6.52196017565112,-0.240117080211639,-0.154179008102417,0.365272287368775,0.8676519097892413
6.5225658691702,0.25086192369461097,-0.055983207321167,0.0467346897125246,0.8676519097892413
6.523171562689279,0.12153086900711099,-0.032033012008667,0.0611048069000246,0.8676519097892413
6.5237772562083585,0.0041749119758606006,-0.106278617477417,0.20959601783752502,0.8676519097892413
6.524382949727437,-0.201796767711639,0.011077339553832999,0.197620920181275,0.8676519097892413
6.524988643246517,-0.0604906153678894,-0.125438773727417,0.15930060768127502,0.8676519097892413
6.525594336765597,0.10476573228836099,0.21704901924133302,0.267076486587525,0.8676519097892413
6.526200030284675,0.037705185413360605,0.21225898017883302,0.195225900650025,0.8676519097892413
6.526805723803754,0.10716075181961099,-0.204474418258667,0.00601935768127463,0.8676519097892413
6.527411417322835,-0.0413304591178894,-0.034428031539917,0.0563147678375246,0.8676519097892413
6.528017110841914,0.0017798924446106,-0.012872855758667002,-0.0897814235687254,0.8676519097892413
6.528622804360992,-0.0054051661491394,-0.017662894821167,0.0994251194000246,0.8676519097892413
6.529228497880073,0.10237071275711099,0.030237495803833,0.0275745334625246,0.8676519097892413
6.529834191399152,0.15266612291336099,-0.058378226852417,0.0539197483062746,0.8676519097892413
6.530439884918231,0.0161500096321106,0.037422554397583,0.0922400608062746,0.8676519097892413
6.53104557843731,0.07602549791336059,-0.072748344039917,0.135350412368775,0.8676519097892413
6.53165127195639,-0.101205947399139,-0.077538383102417,0.128165353775025,0.8676519097892413
6.532256965475469,-0.0269603419303894,-0.072748344039917,0.017994455337524598,0.8676519097892413
6.532862658994548,0.035310165882110604,-0.044008109664917,0.14972052955627502,0.8676519097892413
6.533468352513628,0.061655380725860603,-0.123043754196167,0.197620920181275,0.8676519097892413
6.534074046032707,0.296367294788361,-0.14699394950866698,0.176065744400025,0.8676519097892413
6.534679739551787,0.0784205174446106,0.097298042678833,0.0994251194000246,0.8676519097892413
6.535285433070865,0.042495224475860606,0.020657417678832998,0.0946350803375246,0.8676519097892413
6.535891126589945,0.181406357288361,0.051792671585083,0.188040842056275,0.8676519097892413
6.536496820109025,0.07602549791336059,0.030237495803833,0.202410959243775,0.8676519097892413
6.537102513628104,-0.0437254786491394,-0.091908500289917,0.10182013893127499,0.8676519097892413
6.537708207147183,-0.0748607325553894,-0.087118461227417,0.283841623306275,0.8676519097892413
6.538313900666263,-0.204191787242889,-0.077538383102417,0.0251795139312746,0.8676519097892413
6.538919594185342,-0.27843739271163903,-0.096698539352417,0.0778699436187746,0.8676519097892413
6.539525287704421,-0.0437254786491394,0.085322945022583,0.334137033462525,0.8676519097892413
6.5401309812235,0.20775157213211098,0.085322945022583,0.0802649631500246,0.8676519097892413
6.54073667474258,0.126320908069611,-0.130228812789917,0.130560373306275,0.8676519097892413
6.54134236826166,-0.101205947399139,-0.175734183883667,-0.00356072044372537,0.8676519097892413
6.541948061780738,-0.11797108411788901,0.126038277053833,-0.161632009506225,0.8676519097892413
6.542553755299817,-0.050910537242889395,0.092508003616333,-0.0323009548187254,0.8676519097892413
6.543159448818898,0.0880005955696106,0.070952827835083,0.128165353775025,0.8676519097892413
6.543765142337977,0.0856055760383606,0.027842476272583,0.0754749240875246,0.8676519097892413
6.544370835857055,0.0520753026008606,-0.144598929977417,-0.113731618881225,0.8676519097892413
6.544976529376136,0.11913584947586099,0.018262398147583,-0.0418810329437254,0.8676519097892413
6.545582222895215,-0.0197752833366394,0.042212593460083,0.123375314712525,0.8676519097892413
6.5461879164142935,0.0975806736946106,-0.190104301071167,-0.0562511501312254,0.8676519097892413
6.546793609933374,0.18859141588211098,-0.010477836227417001,-0.147261892318725,0.8676519097892413
6.547399303452453,0.356242783069611,0.10448310127258299,-0.029905935287475403,0.8676519097892413
6.548004996971532,0.219726669788361,-0.245189750289917,0.0251795139312746,0.8676519097892413
6.548610690490611,0.19817149400711098,0.027842476272583,0.0108093967437746,0.8676519097892413
6.549216384009691,0.293972275257111,0.193098823928833,0.482628244400025,0.8676519097892413
6.54982207752877,0.277207138538361,0.00149726142883302,0.726920236587525,0.8676519097892413
6.55042777104785,0.38977305650711097,0.051792671585083,0.176065744400025,0.8676519097892413
6.551033464566928,0.140691025257111,-0.0032927776336669798,-0.161632009506225,0.8676519097892413
6.551639158086008,0.286787216663361,0.14759345283508302,0.147325510025025,0.8676519097892413
6.552244851605088,0.392168076038361,0.145198433303833,0.231151193618775,0.8676519097892413
6.5528505451241665,0.526289169788361,-0.034428031539917,-0.0610411891937254,0.8676519097892413
6.553456238643245,0.12871592760086098,-0.070353324508667,0.0922400608062746,0.8676519097892413
6.554061932162326,0.06884043931961059,-0.000897758102416984,-0.0586461696624754,0.8676519097892413
6.554667625681405,0.564609482288361,0.042212593460083,-0.0011657009124753702,0.8676519097892413
6.555273319200484,0.454438583850861,-0.044008109664917,-0.0179308376312254,0.8676519097892413
6.555879012719563,0.243676865100861,-0.18770928153991698,-0.13049675559997498,0.8676519097892413
6.556484706238643,0.32031749010086097,-0.101488578414917,-0.00835075950622537,0.8676519097892413
6.557090399757723,0.416118271350861,0.066162788772583,0.0443396701812746,0.8676519097892413
6.557696093276801,0.373007919788361,-0.082328422164917,-0.0825963649749754,0.8676519097892413
6.55830178679588,0.423303329944611,-0.15178398857116698,0.015599435806274601,0.8676519097892413
6.558907480314961,0.274812119007111,-0.015267875289917,-0.15444695091247498,0.8676519097892413
6.5595131738340395,0.456833603382111,0.188308784866333,-0.0849913845062254,0.8676519097892413
6.560118867353118,0.265232040882111,-0.051193168258667,0.118585275650025,0.8676519097892413
6.560724560872199,0.27002207994461097,0.032632515335083,0.128165353775025,0.8676519097892413
6.561330254391278,0.301157333850861,-0.000897758102416984,0.37964240455627496,0.8676519097892413
6.5619359479103565,0.394563095569611,-0.024847953414917,0.185645822525025,0.8676519097892413
6.562541641429437,0.32031749010086097,0.058977730178832996,-0.0873864040374754,0.8676519097892413
6.563147334948516,0.176616318225861,0.00389228096008302,0.245521310806275,0.8676519097892413
6.563753028467595,0.411328232288361,0.018262398147583,0.27905158424377496,0.8676519097892413
6.564358721986674,0.332292587757111,-0.015267875289917,-0.116126638412475,0.8676519097892413
6.564964415505754,0.20296153306961098,0.039817573928833,-0.0730162868499754,0.8676519097892413
6.565570109024833,0.06405040025711059,0.126038277053833,-0.101756521224975,0.8676519097892413
6.5661758025439125,0.06644541978836059,0.058977730178832996,0.0730799045562746,0.8676519097892413
6.566781496062991,0.176616318225861,0.049397652053833,0.0203894748687746,0.8676519097892413
6.567387189582071,0.25086192369461097,-0.091908500289917,0.113795236587525,0.8676519097892413
6.567992883101151,0.0544703221321106,-0.223634574508667,0.118585275650025,0.8676519097892413
6.5685985766202295,0.07363047838211059,-0.044008109664917,-0.15444695091247498,0.8676519097892413
6.569204270139309,0.0592603611946106,0.015867378616333,0.017994455337524598,0.8676519097892413
6.569809963658389,-0.055700576305389396,0.054187691116333,0.135350412368775,0.8676519097892413
6.570415657177468,0.11434581041336099,0.015867378616333,0.147325510025025,0.8676519097892413
6.5710213506965465,-0.048515517711639394,-0.015267875289917,0.38922248268127496,0.8676519097892413
6.571627044215626,-0.0628856348991394,0.027842476272583,0.0563147678375246,0.8676519097892413
6.572232737734706,0.186196396350861,0.111668159866333,0.0563147678375246,0.8676519097892413
6.5728384312537855,-0.0413304591178894,-0.000897758102416984,0.281446603775025,0.8676519097892413
6.573444124772864,-0.046120498180389394,-0.106278617477417,0.0491297092437746,0.8676519097892413
6.574049818291944,0.0041749119758606006,0.035027534866333,0.00362433815002463,0.8676519097892413
6.574655511811024,0.11913584947586099,-0.060773246383667004,-0.0442760524749754,0.8676519097892413
6.5752612053301025,0.12153086900711099,-0.029637992477417,0.135350412368775,0.8676519097892413
6.575866898849181,-0.0628856348991394,-0.051193168258667,0.116190256118775,0.8676519097892413
6.576472592368262,-0.0652806544303894,-0.106278617477417,0.240731271743775,0.8676519097892413
6.577078285887341,0.10716075181961099,-0.214054496383667,0.334137033462525,0.8676519097892413
6.5776839794064195,0.344267685413361,-0.072748344039917,-0.26940788841247504,0.8676519097892413
6.5782896729255,0.162246201038361,0.023052437210082998,0.46825812721252497,0.8676519097892413
6.578895366444579,0.135900986194611,-0.084723441696167,0.305396799087525,0.8676519097892413
6.579501059963658,0.0951856541633606,0.011077339553832999,0.382037424087525,0.8676519097892413
6.580106753482737,0.0784205174446106,0.011077339553832999,0.30779181861877497,0.8676519097892413
6.580712447001817,-0.0341454005241394,-0.055983207321167,-0.183187185287475,0.8676519097892413
6.581318140520896,0.042495224475860606,-0.123043754196167,0.22875617408752502,0.8676519097892413
6.5819238340399755,-0.0437254786491394,0.205073921585083,0.0730799045562746,0.8676519097892413
6.582529527559054,-0.223351943492889,-0.120648734664917,-0.113731618881225,0.8676519097892413
