Time (s),Accel X (m/s^2),Accel Y (m/s^2),Accel Z (m/s^2),CI Value
3.10775,-0.103491413497925,0.0120618235588074,-0.13702234182357798,1.0114941690934214
3.108355693519079,-0.0340358470916748,0.0863074290275574,0.399462033176422,1.0114941690934214
3.1089613870381583,0.193491008377075,0.014456843090057401,0.260550900363922,1.0114941690934214
3.109567080557238,-0.223242390060425,-0.18432977800369302,0.116849728488922,1.0114941690934214
3.110172774076317,-0.24719258537292502,-0.217860051441193,0.0905045136451723,1.0114941690934214
3.1107784675953964,0.200676066970825,-0.11726923112869299,-0.184922732448578,1.0114941690934214
3.1113841611144757,-0.163366901779175,0.0647522532463074,0.171935177707672,1.0114941690934214
3.1119898546335554,0.0282346607208252,-0.162774602222443,0.0306290253639222,1.0114941690934214
3.1125955481526346,0.06894999275207521,-0.0334435475349426,0.0473941620826723,1.0114941690934214
3.113201241671714,-0.230427448654175,-0.00470331315994262,0.205465451145172,1.0114941690934214
3.113806935190793,-0.0819362377166748,-0.12445428972244299,0.255760861301422,1.0114941690934214
3.114412628709873,0.00907450447082519,8.67259025573771e-05,0.234205685520172,1.0114941690934214
3.115018322228952,-0.156181843185425,-0.08373895769119259,0.159960080051422,1.0114941690934214
3.1156240157480313,0.0833201099395752,0.040802057933807395,0.028234005832672198,1.0114941690934214
3.1162297092671105,0.159960734939575,0.0120618235588074,0.20786047067642202,1.0114941690934214
3.11683540278619,-0.0292458080291748,-0.32084589128494295,0.298871212863922,1.0114941690934214
3.1174410963052694,0.0306296802520752,-0.0262584889411926,-0.06756677541732771,1.0114941690934214
3.1180467898243487,-0.170551960372925,-0.019073430347442598,-0.0531966582298277,1.0114941690934214
3.118652483343428,0.10248026618957501,-0.0573937428474426,0.00428381052017225,1.0114941690934214
3.119258176862507,0.042604777908325196,0.17013311262130698,0.459337521457672,1.0114941690934214
3.119863870381587,0.174330852127075,-0.155589543628693,-0.06517175588607771,1.0114941690934214
3.120469563900666,0.0162595630645752,0.0192468821525574,-0.034036501979827695,1.0114941690934214
3.1210752574197453,-0.046010944747924803,0.196478327465057,0.104874630832672,1.0114941690934214
3.1216809509388246,0.06415995368957521,-0.0358385670661926,-0.0795418730735777,1.0114941690934214
3.1222866444579043,-0.134626667404175,0.16534307355880698,0.24857580270767202,1.0114941690934214
3.1228923379769835,0.0114695240020752,-0.162774602222443,0.126429806613922,1.0114941690934214
3.1234980314960628,-0.055591022872924806,-0.177144719409943,0.18391027536392202,1.0114941690934214
3.124103725015142,0.229416301345825,-0.0430236256599426,0.121639767551422,1.0114941690934214
3.1247094185342217,0.186305949783325,-0.167564641284943,0.234205685520172,1.0114941690934214
3.125315112053301,-0.170551960372925,0.040802057933807395,-0.0460115996360777,1.0114941690934214
3.12592080557238,-0.168156940841675,-0.32803094987869297,-0.0579866972923277,1.0114941690934214
3.1265264990914594,0.06894999275207521,-0.143614445972443,0.0186539277076722,1.0114941690934214
3.127132192610539,-0.139416706466675,-0.08613397722244259,0.169540158176422,1.0114941690934214
3.1277378861296183,-0.0771461986541748,-0.12445428972244299,0.30366125192642196,1.0114941690934214
3.1283435796486976,-0.06277608146667481,-0.12445428972244299,0.191095333957672,1.0114941690934214
3.128949273167777,-0.129836628341675,-0.102899113941193,0.24378576364517202,1.0114941690934214
3.129554966686856,0.121640422439575,0.0767273509025574,0.241390744113922,1.0114941690934214
3.1301606602059358,0.0881101490020752,-0.0669738209724426,0.052184201145172304,1.0114941690934214
3.130766353725015,0.169540813064575,-0.0166784108161926,0.0449991425514223,1.0114941690934214
3.1313720472440942,-0.321438190841675,-0.007098332691192619,0.308451290988922,1.0114941690934214
3.1319777407631735,-0.115466511154175,0.0551721751213074,-0.038826541042327696,1.0114941690934214
3.132583434282253,0.0881101490020752,0.0479871165275574,0.186305294895172,1.0114941690934214
3.1331891278013324,0.0761350513458252,-0.12924432878494302,0.258155880832672,1.0114941690934214
3.1337948213204116,0.0833201099395752,-0.18911981706619302,-0.0963070097923277,1.0114941690934214
3.134400514839491,0.033024699783325194,-0.0238634694099426,0.0210489472389222,1.0114941690934214
3.1350062083585706,0.10008524665832501,-0.136429387378693,0.167145138645172,1.0114941690934214
3.13561190187765,-0.0268507884979248,-0.00230829362869262,0.145589962863922,1.0114941690934214
3.136217595396729,0.140800578689575,0.12223272199630701,0.104874630832672,1.0114941690934214
3.1368232889158083,-0.108281452560425,0.0479871165275574,0.224625607395172,1.0114941690934214
3.1374289824348875,-0.0987013744354248,0.0527771555900574,0.0641592988014223,1.0114941690934214
3.1380346759539672,-0.127441608810425,-0.07415887956619259,0.126429806613922,1.0114941690934214
3.1386403694730465,0.040209758377075196,-0.0669738209724426,0.140799923801422,1.0114941690934214
3.1392460629921257,-0.0747511791229248,-0.141219426441193,0.176725216770172,1.0114941690934214
3.139851756511205,-0.23761250724792501,-0.07894891862869259,0.140799923801422,1.0114941690934214
3.1404574500302846,-0.228032429122925,-0.07415887956619259,0.255760861301422,1.0114941690934214
3.141063143549364,-0.0843312572479248,0.0240369212150574,0.267735958957672,1.0114941690934214
3.141668837068443,0.318032024002075,-0.0669738209724426,0.056974240207672305,1.0114941690934214
3.1422745305875224,-0.172946979904175,-0.141219426441193,0.0641592988014223,1.0114941690934214
3.142880224106602,0.0234446216583252,-0.16995966081619301,0.126429806613922,1.0114941690934214
3.1434859176256813,-0.165761921310425,-0.105294133472443,0.186305294895172,1.0114941690934214
3.1440916111447605,-0.0603810619354248,-0.00230829362869262,0.0330240448951723,1.0114941690934214
3.14469730466384,0.255761516189575,-0.07176386003494259,-0.06756677541732771,1.0114941690934214
3.145302998182919,-0.105886433029175,0.11265264387130701,0.181515255832672,1.0114941690934214
3.1459086917019987,0.0593699146270752,-0.047813664722442605,0.306056271457672,1.0114941690934214
3.146514385221078,0.0138645435333252,-0.153194524097443,0.22223058786392202,1.0114941690934214
3.147120078740157,-0.194502155685425,0.155762995433807,0.155170040988922,1.0114941690934214
3.1477257722592364,-0.21126729240417502,-0.0214684498786926,0.21265050973892202,1.0114941690934214
3.148331465778316,-0.00769063224792481,-0.11487421159744299,-0.17534265432357798,1.0114941690934214
3.1489371592973954,-0.144206745529175,-0.186724797534943,0.119244748020172,1.0114941690934214
3.1495428528164746,-0.108281452560425,-0.0597887623786926,0.38269689645767196,1.0114941690934214
3.150148546335554,-0.0987013744354248,-0.07894891862869259,0.0258389863014222,1.0114941690934214
3.1507542398546335,-0.0364308666229248,-0.34958612565994296,0.164750119113922,1.0114941690934214
3.151359933373713,-0.113071491622925,0.241983698558807,0.126429806613922,1.0114941690934214
3.151965626892792,0.042604777908325196,0.0216419016838074,0.0617642792701723,1.0114941690934214
3.1525713204118713,0.210256145095825,-0.0406286061286926,0.0258389863014222,1.0114941690934214
3.1531770139309505,-0.0867262767791748,0.00248174543380738,0.0833194550514223,1.0114941690934214
3.15378270745003,0.06894999275207521,-0.177144719409943,0.0114688691139222,1.0114941690934214
3.1543884009691094,0.0545798755645752,0.045592096996307396,0.104874630832672,1.0114941690934214
3.1549940944881887,0.315637004470825,0.0887024485588074,-0.038826541042327696,1.0114941690934214
3.155599788007268,0.11445536384582501,-0.052603703784942606,0.0378140839576723,1.0114941690934214
3.1562054815263476,-0.057986042404174806,-0.0597887623786926,0.0210489472389222,1.0114941690934214
3.156811175045427,0.116850383377075,-0.0669738209724426,0.234205685520172,1.0114941690934214
3.157416868564506,-0.000505573654174813,-0.07176386003494259,0.29168615427017197,1.0114941690934214
3.1580225620835853,-0.0699611400604248,0.0336169993400574,-0.129837283229828,1.0114941690934214
3.1586282556026646,0.10248026618957501,-0.411856633472443,0.056974240207672305,1.0114941690934214
3.1592339491217443,0.10008524665832501,-0.007098332691192619,-0.0029012480735777497,1.0114941690934214
3.1598396426408235,-0.172946979904175,-0.0334435475349426,-0.06517175588607771,1.0114941690934214
3.1604453361599028,0.183910930252075,-0.107689153003693,0.15756506052017202,1.0114941690934214
3.161051029678982,-0.0915163158416748,0.167738093090057,0.265340939426422,1.0114941690934214
3.1616567231980617,0.061764934158325194,-0.0981090748786926,-0.122652224636078,1.0114941690934214
3.162262416717141,0.0593699146270752,-0.0166784108161926,-0.0627767363548277,1.0114941690934214
3.16286811023622,-0.189712116622925,-0.0597887623786926,0.167145138645172,1.0114941690934214
3.1634738037552994,0.174330852127075,0.09349248762130741,0.191095333957672,1.0114941690934214
3.164079497274379,-0.0723561595916748,-0.126849309253693,0.0402091034889223,1.0114941690934214
3.1646851907934583,0.0497898365020752,8.67259025573771e-05,0.0641592988014223,1.0114941690934214
3.1652908843125376,-0.0220607494354248,0.0743323313713074,0.27252599802017197,1.0114941690934214
3.165896577831617,0.116850383377075,-0.11247919206619299,0.0402091034889223,1.0114941690934214
3.1665022713506965,-0.00290059318542481,-0.0286535084724426,0.052184201145172304,1.0114941690934214
3.1671079648697757,-0.115466511154175,0.0839124094963074,0.121639767551422,1.0114941690934214
3.167713658388855,-0.115466511154175,0.038407038402557395,0.052184201145172304,1.0114941690934214
3.1683193519079342,-0.376523640060425,-0.13403436784744302,0.169540158176422,1.0114941690934214
3.1689250454270135,0.07374003181457521,-0.19869989519119302,0.102479611301422,1.0114941690934214
3.169530738946093,-0.163366901779175,-0.210674992847443,-0.012481326198577801,1.0114941690934214
3.1701364324651724,-0.103491413497925,0.10307256574630701,-0.127442263698578,1.0114941690934214
3.1707421259842516,0.23181132087707498,-0.052603703784942606,0.14319494333267202,1.0114941690934214
3.171347819503331,0.183910930252075,0.100677546215057,0.298871212863922,1.0114941690934214
3.1719535130224106,-0.20647725334167502,-0.0262584889411926,0.00188879098892225,1.0114941690934214
3.17255920654149,0.0473948169708252,-0.07655389909744259,0.0665543183326723,1.0114941690934214
3.173164900060569,0.205466106033325,-0.0334435475349426,0.145589962863922,1.0114941690934214
3.1737705935796483,-0.050800983810424805,-0.18911981706619302,0.18391027536392202,1.0114941690934214
3.174376287098728,-0.0244557689666748,0.0767273509025574,-0.14660241994857798,1.0114941690934214
3.1749819806178072,-0.0196657299041748,-0.19390985612869302,0.112059689426422,1.0114941690934214
3.1755876741368865,0.06894999275207521,-0.0214684498786926,0.059369259738922306,1.0114941690934214
3.1761933676559657,-0.0939113353729248,-0.0933190358161926,0.00428381052017225,1.0114941690934214
3.1767990611750454,0.10727030525207501,0.0695422923088074,-0.0484066191673277,1.0114941690934214
3.1774047546941246,-0.050800983810424805,0.287489069652557,-0.17055261526107798,1.0114941690934214
3.178010448213204,-0.103491413497925,-0.0430236256599426,0.308451290988922,1.0114941690934214
3.178616141732283,-0.148996784591675,-0.0214684498786926,-0.0268514433860778,1.0114941690934214
3.1792218352513624,-0.105886433029175,0.0216419016838074,0.176725216770172,1.0114941690934214
3.179827528770442,0.23181132087707498,-0.0981090748786926,0.682074337863922,1.0114941690934214
3.1804332222895213,-0.0987013744354248,0.0168518626213074,0.159960080051422,1.0114941690934214
3.1810389158086005,-0.0915163158416748,0.09828252668380741,0.00428381052017225,1.0114941690934214
3.18164460932768,-0.110676472091675,0.0216419016838074,0.0761343964576723,1.0114941690934214
3.1822503028467595,-0.0412209056854248,-0.08613397722244259,0.14319494333267202,1.0114941690934214
3.1828559963658387,0.0258396411895752,-0.00230829362869262,0.231810665988922,1.0114941690934214
3.183461689884918,-0.00769063224792481,0.155762995433807,-0.0891219511985777,1.0114941690934214
3.184067383403997,-0.00769063224792481,-0.167564641284943,0.028234005832672198,1.0114941690934214
3.184673076923077,0.061764934158325194,-0.18432977800369302,0.0833194550514223,1.0114941690934214
3.185278770442156,-0.122651569747925,0.11025762434005701,-0.0436165801048277,1.0114941690934214
3.1858844639612354,-0.156181843185425,0.0216419016838074,0.234205685520172,1.0114941690934214
3.1864901574803146,0.186305949783325,-0.019073430347442598,0.136009884738922,1.0114941690934214
3.1870958509993943,-0.0939113353729248,-0.13882440690994302,-0.034036501979827695,1.0114941690934214
3.1877015445184735,0.07374003181457521,-0.136429387378693,0.056974240207672305,1.0114941690934214
3.188307238037553,-0.0867262767791748,-0.0238634694099426,-0.139417361354828,1.0114941690934214
3.188912931556632,0.0449997974395752,-0.0214684498786926,-0.00529626760482775,1.0114941690934214
3.1895186250757117,0.07134501228332521,0.0671472727775574,0.365931759738922,1.0114941690934214
3.190124318594791,-0.048405964279174804,-0.0286535084724426,0.102479611301422,1.0114941690934214
3.19073001211387,0.033024699783325194,-0.12205927019119299,0.00907384958267225,1.0114941690934214
3.1913357056329494,-0.158576862716675,-0.0238634694099426,0.116849728488922,1.0114941690934214
3.1919413991520287,0.15277567634582498,-0.0214684498786926,0.0905045136451723,1.0114941690934214
3.1925470926711084,0.00907450447082519,-0.11487421159744299,0.234205685520172,1.0114941690934214
3.1931527861901876,0.116850383377075,-0.07415887956619259,0.17912023630142201,1.0114941690934214
3.193758479709267,0.0210496021270752,-0.215465031909943,0.260550900363922,1.0114941690934214
3.194364173228346,0.0761350513458252,0.0623572337150574,-0.0196663847923278,1.0114941690934214
3.194969866747426,-0.13223164787292502,-0.126849309253693,-0.0436165801048277,1.0114941690934214
3.195575560266505,-0.139416706466675,-0.0885289967536926,-0.036431521511077695,1.0114941690934214
3.1961812537855843,0.0473948169708252,-0.00230829362869262,0.0617642792701723,1.0114941690934214
3.1967869473046635,-0.18252705802917502,-0.07176386003494259,0.16235509958267202,1.0114941690934214
3.197392640823743,0.145590617752075,0.146182917308807,0.16235509958267202,1.0114941690934214
3.1979983343428224,-0.0316408275604248,-0.0238634694099426,0.12882482614517202,1.0114941690934214
3.1986040278619017,0.18151591072082499,-0.0669738209724426,0.0258389863014222,1.0114941690934214
3.199209721380981,-0.101096393966675,-0.141219426441193,0.16235509958267202,1.0114941690934214
3.19981541490006,-0.0124806713104248,-0.0909240162849426,0.0354190644264223,1.0114941690934214
3.20042110841914,-0.129836628341675,-0.0118883717536926,0.0330240448951723,1.0114941690934214
3.201026801938219,-0.254377643966675,-0.0214684498786926,-0.0867269316673277,1.0114941690934214
3.2016324954572983,0.0473948169708252,0.00966680402755738,0.174330197238922,1.0114941690934214
3.2022381889763776,-0.204082233810425,-0.181934758472443,0.234205685520172,1.0114941690934214
3.2028438824954573,0.035419719314575195,-0.0621837819099426,-0.18013269338607799,1.0114941690934214
3.2034495760145365,-0.115466511154175,-0.0645788014411926,0.0665543183326723,1.0114941690934214
3.2040552695336157,0.0210496021270752,-0.0981090748786926,0.19349035348892202,1.0114941690934214
3.204660963052695,0.040209758377075196,0.0623572337150574,-0.0292464629173278,1.0114941690934214
3.2052666565717747,0.040209758377075196,-0.047813664722442605,0.0641592988014223,1.0114941690934214
3.205872350090854,-0.0388258861541748,-0.18911981706619302,0.327611447238922,1.0114941690934214
3.206478043609933,-0.0436159252166748,0.0791223704338074,-0.16576257619857798,1.0114941690934214
3.2070837371290124,-0.0292458080291748,0.11265264387130701,-0.06756677541732771,1.0114941690934214
3.207689430648092,-0.0268507884979248,-0.241810246753693,0.46173254098892197,1.0114941690934214
3.208295124167171,-0.0723561595916748,-0.045418645191192604,0.5766934784889219,1.0114941690934214
3.208900817686251,-0.225637409591675,-0.17953973894119302,0.150380001926422,1.0114941690934214
3.20950651120533,-0.0651711009979248,-0.0981090748786926,0.145589962863922,1.0114941690934214
3.2101122047244086,-0.263957722091675,-0.220255070972443,0.421017208957672,1.0114941690934214
3.2107178982434887,-0.0052956127166748105,-0.0597887623786926,-0.0244564238548278,1.0114941690934214
3.211323591762568,-0.0795412181854248,-0.07894891862869259,0.15277502145767202,1.0114941690934214
3.211929285281647,-0.15139180412292502,-0.246600285816193,0.0210489472389222,1.0114941690934214
3.212534978800727,0.0569748950958252,0.00248174543380738,-0.06996179494857771,1.0114941690934214
3.2131406723198057,-0.0292458080291748,-0.07655389909744259,0.150380001926422,1.0114941690934214
3.213746365838886,0.0761350513458252,-0.045418645191192604,0.15756506052017202,1.0114941690934214
3.2143520593579646,0.164750774002075,-0.052603703784942606,0.186305294895172,1.0114941690934214
3.214957752877044,0.0569748950958252,-0.11487421159744299,0.13361486520767202,1.0114941690934214
3.215563446396124,-0.14181172599792502,0.0168518626213074,0.0785294159889223,1.0114941690934214
3.216169139915203,0.0282346607208252,0.198873346996307,0.13840490427017202,1.0114941690934214
3.2167748334342816,-0.0100856517791748,0.040802057933807395,0.00667883005142225,1.0114941690934214
3.2173805269533617,0.00667948493957519,0.0575671946525574,-0.0819368926048277,1.0114941690934214
3.217986220472441,0.16714579353332498,-0.272945500659943,0.126429806613922,1.0114941690934214
3.21859191399152,0.0114695240020752,-0.217860051441193,-0.07235681447982771,1.0114941690934214
3.2191976075106,-0.13223164787292502,0.0072717844963073805,-0.07235681447982771,1.0114941690934214
3.2198033010296787,-0.115466511154175,-0.213070012378693,0.0976895722389223,1.0114941690934214
3.220408994548758,0.155170695877075,-0.0286535084724426,-0.0987020293235777,1.0114941690934214
3.2210146880678376,-0.0052956127166748105,-0.0981090748786926,0.056974240207672305,1.0114941690934214
3.221620381586917,-0.0651711009979248,-0.17474969987869302,0.0306290253639222,1.0114941690934214
3.2222260751059957,0.0545798755645752,-0.100504094409943,-0.302278689479828,1.0114941690934214
3.222831768625076,-0.050800983810424805,-0.141219426441193,0.13840490427017202,1.0114941690934214
3.2234374621441546,-0.0364308666229248,-0.0238634694099426,0.0641592988014223,1.0114941690934214
3.224043155663234,-0.101096393966675,-0.0693688405036926,0.0354190644264223,1.0114941690934214
3.224648849182314,0.0114695240020752,-0.220255070972443,0.38269689645767196,1.0114941690934214
3.225254542701393,-0.14660176506042502,-0.0382335865974426,-0.0436165801048277,1.0114941690934214
3.2258602362204716,0.10966532478332501,-0.150799504566193,0.224625607395172,1.0114941690934214
3.2264659297395517,-0.120256550216675,-0.0382335865974426,0.22223058786392202,1.0114941690934214
3.227071623258631,-0.216057331466675,0.0336169993400574,-0.0029012480735777497,1.0114941690934214
3.2276773167777097,-0.0268507884979248,-0.105294133472443,0.274921017551422,1.0114941690934214
3.22828301029679,-0.050800983810424805,0.191688288402557,0.255760861301422,1.0114941690934214
3.2288887038158687,-0.103491413497925,-0.0909240162849426,0.0761343964576723,1.0114941690934214
3.229494397334949,-0.295092975997925,-0.102899113941193,0.15277502145767202,1.0114941690934214
3.2301000908540276,-0.18731709709167502,-0.00470331315994262,0.13361486520767202,1.0114941690934214
3.230705784373107,-0.19210713615417502,-0.148404485034943,0.0785294159889223,1.0114941690934214
3.231311477892187,0.0952952075958252,-0.08373895769119259,0.320426388645172,1.0114941690934214
3.2319171714112658,-0.0891212963104248,-0.0933190358161926,0.121639767551422,1.0114941690934214
3.2325228649303446,-0.0412209056854248,0.014456843090057401,-0.060381716823577694,1.0114941690934214
3.2331285584494247,-0.129836628341675,-0.014283391284942598,0.0426041230201723,1.0114941690934214
3.233734251968504,-0.0268507884979248,-0.131639348316193,0.0761343964576723,1.0114941690934214
3.2343399454875827,0.037814738845825195,-0.256180363941193,0.15277502145767202,1.0114941690934214
3.234945639006663,0.0186545825958252,-0.160379582691193,0.054579220676422305,1.0114941690934214
3.2355513325257417,0.14798563728332498,0.0815173899650574,-0.0244564238548278,1.0114941690934214
3.236157026044821,-0.055591022872924806,-0.047813664722442605,0.131219845676422,1.0114941690934214
3.2367627195639006,0.277316691970825,-0.141219426441193,0.205465451145172,1.0114941690934214
3.23736841308298,0.131220500564575,-0.00949335222244262,0.0857144745826723,1.0114941690934214
3.2379741066020586,0.035419719314575195,0.182108210277557,-0.115467166042328,1.0114941690934214
3.2385798001211388,0.145590617752075,-0.07415887956619259,-0.0220614043235778,1.0114941690934214
3.2391854936402176,0.0473948169708252,-0.102899113941193,0.672494259738922,1.0114941690934214
3.239791187159297,-0.125046589279175,-0.11726923112869299,0.787455197238922,1.0114941690934214
3.240396880678377,-0.0987013744354248,-0.00470331315994262,0.0186539277076722,1.0114941690934214
3.2410025741974557,-0.00290059318542481,-0.045418645191192604,-0.148997439479828,1.0114941690934214
3.241608267716535,-0.125046589279175,-0.311265813159943,-0.0220614043235778,1.0114941690934214
3.2422139612356147,0.0952952075958252,-0.0981090748786926,-0.00529626760482775,1.0114941690934214
3.242819654754694,-0.168156940841675,-0.186724797534943,-0.00529626760482775,1.0114941690934214
3.2434253482737727,-0.057986042404174806,-0.217860051441193,-0.017271365261077802,1.0114941690934214
3.244031041792853,-0.0987013744354248,-0.08373895769119259,0.159960080051422,1.0114941690934214
3.2446367353119316,0.11206034431457501,0.040802057933807395,0.15277502145767202,1.0114941690934214
3.2452424288310118,0.140800578689575,-0.054998723316192606,-0.0795418730735777,1.0114941690934214
3.2458481223500906,-0.14181172599792502,-0.0909240162849426,0.13361486520767202,1.0114941690934214
3.24645381586917,-0.0316408275604248,-0.100504094409943,0.169540158176422,1.0114941690934214
3.24705950938825,-0.0939113353729248,-0.241810246753693,-0.21605798635482798,1.0114941690934214
3.2476652029073287,0.0976902271270752,0.0240369212150574,-0.0100863066673278,1.0114941690934214
3.248270896426408,-0.122651569747925,-0.246600285816193,0.210255490207672,1.0114941690934214
3.2488765899454877,-0.00769063224792481,-0.28971063737869296,0.0258389863014222,1.0114941690934214
3.249482283464567,-0.0172707103729248,0.0551721751213074,-0.117862185573578,1.0114941690934214
3.2500879769836457,0.17193583259582498,0.014456843090057401,0.0928995331764223,1.0114941690934214
3.250693670502726,0.121640422439575,-0.014283391284942598,0.19828039255142202,1.0114941690934214
3.2512993640218046,-0.0148756908416748,-0.0645788014411926,0.114454708957672,1.0114941690934214
3.251905057540884,0.06655497322082521,-0.18911981706619302,0.159960080051422,1.0114941690934214
3.2525107510599636,-0.115466511154175,-0.148404485034943,0.00667883005142225,1.0114941690934214
3.253116444579043,0.16714579353332498,0.10786260480880701,0.0426041230201723,1.0114941690934214
3.2537221380981216,-0.103491413497925,-0.12205927019119299,0.32282140817642196,1.0114941690934214
3.2543278316172017,-0.0220607494354248,-0.0334435475349426,0.14319494333267202,1.0114941690934214
3.254933525136281,0.195886027908325,-0.141219426441193,0.00428381052017225,1.0114941690934214
3.25553921865536,0.061764934158325194,-0.0238634694099426,0.0665543183326723,1.0114941690934214
3.25614491217444,-0.223242390060425,0.12462774152755701,0.0928995331764223,1.0114941690934214
3.2567506056935187,0.150380656814575,-0.13403436784744302,0.119244748020172,1.0114941690934214
3.257356299212598,0.15756571540832498,-0.220255070972443,0.0881094941139223,1.0114941690934214
3.2579619927316776,-0.153786823654175,-0.162774602222443,0.0761343964576723,1.0114941690934214
3.258567686250757,0.10487528572082501,0.0599622141838074,0.210255490207672,1.0114941690934214
3.2591733797698357,0.042604777908325196,-0.160379582691193,0.131219845676422,1.0114941690934214
3.259779073288916,0.28929178962707497,-0.11247919206619299,0.150380001926422,1.0114941690934214
3.2603847668079946,-0.0364308666229248,0.0719373118400574,0.270130978488922,1.0114941690934214
3.2609904603270747,-0.101096393966675,-0.07655389909744259,0.234205685520172,1.0114941690934214
3.261596153846154,-0.000505573654174813,0.00248174543380738,0.15756506052017202,1.0114941690934214
3.2622018473652328,0.0114695240020752,0.0839124094963074,0.14319494333267202,1.0114941690934214
3.262807540884313,-0.0867262767791748,0.0719373118400574,0.119244748020172,1.0114941690934214
3.2634132344033917,-0.0891212963104248,0.148577936840057,0.145589962863922,1.0114941690934214
3.264018927922471,0.00188944587707519,0.155762995433807,0.059369259738922306,1.0114941690934214
3.2646246214415506,-0.287907917404175,-0.143614445972443,0.14319494333267202,1.0114941690934214
3.26523031496063,-0.103491413497925,-0.0645788014411926,0.0426041230201723,1.0114941690934214
3.2658360084797087,-0.113071491622925,-0.050208684253692605,0.0761343964576723,1.0114941690934214
3.266441701998789,-0.115466511154175,-0.08373895769119259,0.31324133005142196,1.0114941690934214
3.2670473955178676,-0.20647725334167502,0.040802057933807395,0.16235509958267202,1.0114941690934214
3.267653089036947,-0.110676472091675,-0.201094914722443,0.059369259738922306,1.0114941690934214
3.268258782556027,0.0857151294708252,-0.0933190358161926,-0.0268514433860778,1.0114941690934214
3.2688644760751058,-0.0124806713104248,0.17013311262130698,-0.249588259792328,1.0114941690934214
3.269470169594185,0.0545798755645752,0.127022761058807,0.533583126926422,1.0114941690934214
3.2700758631132647,-0.105886433029175,0.043197077465057396,0.485682736301422,1.0114941690934214
3.270681556632344,0.10487528572082501,-0.0909240162849426,-0.113072146511078,1.0114941690934214
3.2712872501514227,-0.120256550216675,-0.146009465503693,0.224625607395172,1.0114941690934214
3.271892943670503,-0.057986042404174806,-0.007098332691192619,0.186305294895172,1.0114941690934214
3.2724986371895817,0.0162595630645752,-0.0909240162849426,0.28210607614517197,1.0114941690934214
3.273104330708661,-0.0340358470916748,-0.12445428972244299,-0.0100863066673278,1.0114941690934214
3.2737100242277406,-0.000505573654174813,0.045592096996307396,0.109664669895172,1.0114941690934214
3.27431571774682,-0.13702168693542502,0.043197077465057396,0.176725216770172,1.0114941690934214
3.2749214112658986,0.14798563728332498,-0.0358385670661926,-0.07235681447982771,1.0114941690934214
3.2755271047849788,-0.000505573654174813,-0.0957140553474426,-0.0268514433860778,1.0114941690934214
3.276132798304058,0.169540813064575,-0.146009465503693,0.301266232395172,1.0114941690934214
3.276738491823137,0.0210496021270752,-0.0310485280036926,0.17912023630142201,1.0114941690934214
3.277344185342217,0.042604777908325196,-0.007098332691192619,-0.0412215605735777,1.0114941690934214
3.2779498788612957,0.310846965408325,-0.136429387378693,0.210255490207672,1.0114941690934214
3.278555572380376,0.0473948169708252,-0.014283391284942598,0.186305294895172,1.0114941690934214
3.2791612658994547,-0.240007526779175,-0.007098332691192619,0.191095333957672,1.0114941690934214
3.279766959418534,0.128825481033325,-0.0885289967536926,0.0641592988014223,1.0114941690934214
3.2803726529376136,0.061764934158325194,0.17971319074630698,-0.108282107448578,1.0114941690934214
3.280978346456693,-0.0987013744354248,-0.08373895769119259,0.00907384958267225,1.0114941690934214
3.2815840399757716,0.284501750564575,-0.12924432878494302,0.32282140817642196,1.0114941690934214
3.2821897334948518,0.12643046150207501,-0.052603703784942606,0.0976895722389223,1.0114941690934214
3.282795427013931,-0.0172707103729248,-0.08134393815994259,0.056974240207672305,1.0114941690934214
3.28340112053301,-0.0220607494354248,-0.08613397722244259,0.140799923801422,1.0114941690934214
3.28400681405209,0.0952952075958252,-0.0382335865974426,0.164750119113922,1.0114941690934214
3.2846125075711687,0.061764934158325194,-0.136429387378693,0.19349035348892202,1.0114941690934214
3.285218201090248,-0.213662311935425,-0.00230829362869262,-0.0076912871360777495,1.0114941690934214
3.2858238946093277,0.042604777908325196,0.12223272199630701,-0.0292464629173278,1.0114941690934214
3.286429588128407,-0.0723561595916748,0.036012018871307394,0.0641592988014223,1.0114941690934214
3.2870352816474857,-0.122651569747925,0.138997858715057,0.0354190644264223,1.0114941690934214
3.287640975166566,-0.0795412181854248,-0.00949335222244262,0.224625607395172,1.0114941690934214
3.2882466686856446,-0.06277608146667481,0.0240369212150574,0.195885373020172,1.0114941690934214
3.288852362204724,-0.0268507884979248,-0.11008417253494299,-0.10109704885482801,1.0114941690934214
3.289458055723804,-0.0963063549041748,-0.0310485280036926,0.0138638886451722,1.0114941690934214
3.290063749242883,0.10008524665832501,-0.0166784108161926,0.219835568332672,1.0114941690934214
3.2906694427619616,0.0114695240020752,-0.162774602222443,0.102479611301422,1.0114941690934214
3.2912751362810417,-0.0316408275604248,0.18450322980880698,-0.10109704885482801,1.0114941690934214
3.291880829800121,0.0210496021270752,0.038407038402557395,0.126429806613922,1.0114941690934214
3.2924865233191998,0.06415995368957521,-0.155589543628693,0.164750119113922,1.0114941690934214
3.29309221683828,-0.170551960372925,0.134207819652557,0.059369259738922306,1.0114941690934214
3.2936979103573587,0.0473948169708252,-0.007098332691192619,0.0617642792701723,1.0114941690934214
3.294303603876439,0.035419719314575195,8.67259025573771e-05,0.18391027536392202,1.0114941690934214
3.2949092973955176,-0.105886433029175,0.0168518626213074,0.339586544895172,1.0114941690934214
3.295514990914597,-0.189712116622925,0.0599622141838074,0.155170040988922,1.0114941690934214
3.296120684433677,0.128825481033325,-0.0909240162849426,0.0857144745826723,1.0114941690934214
3.296726377952756,0.0234446216583252,-0.0430236256599426,0.176725216770172,1.0114941690934214
3.2973320714718346,-0.0867262767791748,0.014456843090057401,0.21744054880142202,1.0114941690934214
3.2979377649909147,0.138405559158325,-0.08134393815994259,-0.0795418730735777,1.0114941690934214
3.298543458509994,-0.14181172599792502,-0.11966425065994299,0.054579220676422305,1.0114941690934214
3.2991491520290728,0.116850383377075,-0.105294133472443,0.595853634738922,1.0114941690934214
3.299754845548153,-0.0340358470916748,-0.16995966081619301,0.624593869113922,1.0114941690934214
3.3003605390672317,-0.125046589279175,-0.148404485034943,-0.0268514433860778,1.0114941690934214
3.300966232586311,-0.25916768302917503,0.0168518626213074,-0.0484066191673277,1.0114941690934214
3.3015719261053906,-0.168156940841675,0.0288269602775574,-0.0244564238548278,1.0114941690934214
3.30217761962447,-0.046010944747924803,0.0216419016838074,-0.108282107448578,1.0114941690934214
3.3027833131435487,-0.0939113353729248,-0.0286535084724426,0.119244748020172,1.0114941690934214
3.303389006662629,-0.050800983810424805,-0.0286535084724426,0.124034787082672,1.0114941690934214
3.3039947001817076,0.0905051685333252,-0.143614445972443,-0.036431521511077695,1.0114941690934214
3.304600393700787,0.155170695877075,-0.13403436784744302,-0.0867269316673277,1.0114941690934214
3.305206087219867,-0.0148756908416748,-0.186724797534943,0.0378140839576723,1.0114941690934214
3.3058117807389458,0.0785300708770752,-0.275340520191193,-0.0915169707298277,1.0114941690934214
3.3064174742580246,-0.0412209056854248,0.036012018871307394,0.164750119113922,1.0114941690934214
3.3070231677771047,0.040209758377075196,0.0623572337150574,0.20307043161392202,1.0114941690934214
3.307628861296184,-0.0963063549041748,-0.08134393815994259,0.176725216770172,1.0114941690934214
3.3082345548152627,-0.254377643966675,-0.0406286061286926,0.0162589081764222,1.0114941690934214
3.308840248334343,0.0138645435333252,0.0671472727775574,0.0928995331764223,1.0114941690934214
3.3094459418534217,-0.0675661205291748,-0.107689153003693,0.186305294895172,1.0114941690934214
3.310051635372502,0.11206034431457501,-0.26097040300369295,0.346771603488922,1.0114941690934214
3.3106573288915806,-0.0316408275604248,-0.12205927019119299,-0.0316414824485778,1.0114941690934214
3.31126302241066,-0.0148756908416748,0.136602839183807,-0.134627322292328,1.0114941690934214
3.31186871592974,0.121640422439575,-0.0981090748786926,0.23899572458267201,1.0114941690934214
3.3124744094488188,0.0881101490020752,-0.07655389909744259,0.0761343964576723,1.0114941690934214
3.3130801029678976,0.121640422439575,0.045592096996307396,0.24378576364517202,1.0114941690934214
3.3136857964869777,0.07374003181457521,-0.105294133472443,0.028234005832672198,1.0114941690934214
3.314291490006057,-0.00769063224792481,0.043197077465057396,0.20786047067642202,1.0114941690934214
3.3148971835251357,-0.122651569747925,-0.205884953784943,0.24378576364517202,1.0114941690934214
3.315502877044216,0.138405559158325,-0.00230829362869262,-0.17534265432357798,1.0114941690934214
3.3161085705632947,-0.163366901779175,-0.18432977800369302,0.15277502145767202,1.0114941690934214
3.316714264082374,-0.218452350997925,-0.08373895769119259,-0.034036501979827695,1.0114941690934214
3.3173199576014536,-0.101096393966675,-0.052603703784942606,-0.0316414824485778,1.0114941690934214
3.317925651120533,0.0449997974395752,-0.332820988941193,-0.012481326198577801,1.0114941690934214
3.3185313446396116,0.116850383377075,0.10786260480880701,-0.034036501979827695,1.0114941690934214
3.3191370381586918,0.0569748950958252,0.045592096996307396,0.102479611301422,1.0114941690934214
3.3197427316777706,0.00428446540832519,-0.0933190358161926,0.0306290253639222,1.0114941690934214
3.32034842519685,0.0306296802520752,0.0695422923088074,0.114454708957672,1.0114941690934214
3.32095411871593,0.0929001880645752,-0.0286535084724426,0.102479611301422,1.0114941690934214
3.3215598122350087,-0.180132038497925,-0.052603703784942606,0.0665543183326723,1.0114941690934214
3.322165505754088,0.0186545825958252,-0.00230829362869262,0.0354190644264223,1.0114941690934214
3.3227711992731677,-0.0364308666229248,-0.30887079362869296,0.056974240207672305,1.0114941690934214
3.323376892792247,0.0449997974395752,0.0240369212150574,-0.0819368926048277,1.0114941690934214
3.3239825863113257,0.0809250904083252,0.148577936840057,-0.0220614043235778,1.0114941690934214
3.324588279830406,0.033024699783325194,-0.287315617847443,0.0952945527076723,1.0114941690934214
3.3251939733494846,0.124035441970825,-0.126849309253693,0.174330197238922,1.0114941690934214
3.3257996668685648,-0.0052956127166748105,-0.167564641284943,0.14319494333267202,1.0114941690934214
3.3264053603876436,0.0593699146270752,-0.07176386003494259,0.0833194550514223,1.0114941690934214
3.327011053906723,-0.0651711009979248,-0.148404485034943,0.270130978488922,1.0114941690934214
3.327616747425803,0.0545798755645752,-0.141219426441193,0.267735958957672,1.0114941690934214
3.3282224409448817,0.06415995368957521,0.0240369212150574,-0.10349206838607801,1.0114941690934214
3.328828134463961,0.0809250904083252,-0.100504094409943,-0.153787478542328,1.0114941690934214
3.3294338279830407,0.14798563728332498,-0.00470331315994262,0.399462033176422,1.0114941690934214
3.33003952150212,0.17193583259582498,-0.0238634694099426,0.552743283176422,1.0114941690934214
3.3306452150211987,0.191095988845825,-0.203489934253693,0.17912023630142201,1.0114941690934214
3.331250908540279,-0.120256550216675,0.16534307355880698,-0.14181238088607798,1.0114941690934214
3.3318566020593576,-0.0220607494354248,-0.0957140553474426,0.0857144745826723,1.0114941690934214
3.332462295578437,-0.0196657299041748,-0.246600285816193,0.224625607395172,1.0114941690934214
3.3330679890975166,0.06894999275207521,-0.12205927019119299,-0.0268514433860778,1.0114941690934214
3.333673682616596,-0.105886433029175,-0.11487421159744299,0.052184201145172304,1.0114941690934214
3.3342793761356746,-0.00769063224792481,0.17492315168380698,-0.012481326198577801,1.0114941690934214
3.3348850696547547,0.0976902271270752,-0.0334435475349426,0.0114688691139222,1.0114941690934214
3.335490763173834,-0.0196657299041748,0.0623572337150574,0.210255490207672,1.0114941690934214
3.3360964566929128,0.0138645435333252,-0.08134393815994259,0.20786047067642202,1.0114941690934214
3.336702150211993,-0.0915163158416748,-0.177144719409943,0.049789181613922304,1.0114941690934214
3.3373078437310717,0.10487528572082501,-0.0669738209724426,0.0330240448951723,1.0114941690934214
3.337913537250151,-0.302278034591675,-0.0166784108161926,0.270130978488922,1.0114941690934214
3.3385192307692306,-0.218452350997925,0.040802057933807395,-0.060381716823577694,1.0114941690934214
3.33912492428831,0.0449997974395752,-0.304080754566193,-0.0484066191673277,1.0114941690934214
3.3397306178073887,0.0234446216583252,-0.172354680347443,-0.00050622854232775,1.0114941690934214
3.340336311326469,-0.110676472091675,0.043197077465057396,0.0330240448951723,1.0114941690934214
3.3409420048455476,-0.0963063549041748,8.67259025573771e-05,0.112059689426422,1.0114941690934214
3.341547698364627,0.145590617752075,-0.153194524097443,0.13840490427017202,1.0114941690934214
3.342153391883707,-0.0196657299041748,-0.0262584889411926,0.131219845676422,1.0114941690934214
3.3427590854027858,0.0114695240020752,-0.0214684498786926,-0.0555916777610777,1.0114941690934214
3.343364778921866,-0.055591022872924806,-0.162774602222443,0.253365841770172,1.0114941690934214
3.3439704724409447,0.24139139900207499,0.0479871165275574,0.17912023630142201,1.0114941690934214
3.344576165960024,0.00667948493957519,-0.014283391284942598,0.150380001926422,1.0114941690934214
3.3451818594791036,-0.0963063549041748,0.0168518626213074,0.0449991425514223,1.0114941690934214
3.345787552998183,0.0186545825958252,-0.07176386003494259,0.12882482614517202,1.0114941690934214
3.3463932465172617,0.0785300708770752,0.0791223704338074,0.253365841770172,1.0114941690934214
3.346998940036342,0.174330852127075,-0.18432977800369302,0.17912023630142201,1.0114941690934214
3.3476046335554206,-0.21126729240417502,-0.19869989519119302,0.0928995331764223,1.0114941690934214
3.3482103270745,-0.0412209056854248,0.09588750715255741,-0.108282107448578,1.0114941690934214
3.34881602059358,-0.0196657299041748,-0.196304875659943,0.052184201145172304,1.0114941690934214
3.3494217141126588,0.0593699146270752,-0.0310485280036926,0.306056271457672,1.0114941690934214
3.350027407631738,-0.120256550216675,0.17492315168380698,-0.194502810573578,1.0114941690934214
3.3506331011508177,0.10487528572082501,0.0336169993400574,-0.0915169707298277,1.0114941690934214
3.351238794669897,0.0545798755645752,-0.131639348316193,0.380301876926422,1.0114941690934214
3.3518444881889757,0.0306296802520752,0.09349248762130741,0.0378140839576723,1.0114941690934214
3.352450181708056,-0.0675661205291748,0.00966680402755738,-0.034036501979827695,1.0114941690934214
3.3530558752271347,-0.13702168693542502,0.0120618235588074,0.150380001926422,1.0114941690934214
3.353661568746214,-0.180132038497925,-0.19390985612869302,-0.06517175588607771,1.0114941690934214
3.3542672622652936,-0.0364308666229248,-0.34958612565994296,-0.134627322292328,1.0114941690934214
3.354872955784373,0.229416301345825,-0.0286535084724426,0.0689493378639223,1.0114941690934214
3.3554786493034516,-0.316648151779175,-0.143614445972443,0.167145138645172,1.0114941690934214
3.3560843428225318,-0.115466511154175,-0.13403436784744302,0.124034787082672,1.0114941690934214
3.356690036341611,-0.00290059318542481,-0.17474969987869302,0.22223058786392202,1.0114941690934214
3.35729572986069,0.0449997974395752,-0.0430236256599426,0.0665543183326723,1.0114941690934214
3.35790142337977,-0.180132038497925,-0.0669738209724426,0.497657833957672,1.0114941690934214
3.3585071168988487,-0.105886433029175,0.0168518626213074,0.619803830051422,1.0114941690934214
3.359112810417929,-0.0651711009979248,0.0503821360588074,0.22223058786392202,1.0114941690934214
3.3597185039370077,-0.184922077560425,-0.311265813159943,0.435387326145172,1.0114941690934214
3.360324197456087,0.284501750564575,-0.165169621753693,-0.10349206838607801,1.0114941690934214
3.360929890975167,-0.103491413497925,-0.186724797534943,-0.117862185573578,1.0114941690934214
3.361535584494246,0.0234446216583252,-0.00230829362869262,0.0833194550514223,1.0114941690934214
3.3621412780133246,-0.0172707103729248,-0.105294133472443,0.00188879098892225,1.0114941690934214
3.3627469715324048,-0.0244557689666748,-0.160379582691193,0.159960080051422,1.0114941690934214
3.363352665051484,-0.053196003341674805,-0.0885289967536926,0.0952945527076723,1.0114941690934214
3.363958358570563,-0.101096393966675,-0.148404485034943,0.0258389863014222,1.0114941690934214
3.364564052089643,0.15756571540832498,0.10786260480880701,0.219835568332672,1.0114941690934214
3.3651697456087217,-0.13223164787292502,-0.0909240162849426,0.17912023630142201,1.0114941690934214
3.365775439127801,0.133615520095825,-0.0693688405036926,0.241390744113922,1.0114941690934214
3.3663811326468807,-0.115466511154175,0.0527771555900574,0.19828039255142202,1.0114941690934214
3.36698682616596,0.06655497322082521,0.00487676496505738,0.126429806613922,1.0114941690934214
3.3675925196850387,-0.046010944747924803,-0.131639348316193,0.174330197238922,1.0114941690934214
3.368198213204119,-0.117861530685425,-0.186724797534943,0.00667883005142225,1.0114941690934214
3.3688039067231976,0.033024699783325194,-0.217860051441193,0.0857144745826723,1.0114941690934214
3.369409600242277,-0.148996784591675,-0.11726923112869299,0.145589962863922,1.0114941690934214
3.370015293761357,-0.057986042404174806,-0.11726923112869299,0.049789181613922304,1.0114941690934214
3.370620987280436,-0.0843312572479248,-0.287315617847443,0.227020626926422,1.0114941690934214
3.3712266807995146,-0.055591022872924806,0.222823542308807,-0.0867269316673277,1.0114941690934214
3.3718323743185947,-0.17773701896667501,-0.0334435475349426,-0.0771468535423277,1.0114941690934214
3.372438067837674,0.00667948493957519,-0.11726923112869299,0.00667883005142225,1.0114941690934214
3.3730437613567528,-0.117861530685425,0.0192468821525574,0.119244748020172,1.0114941690934214
3.373649454875833,0.0569748950958252,-0.052603703784942606,0.258155880832672,1.0114941690934214
3.3742551483949117,0.0497898365020752,-0.162774602222443,0.049789181613922304,1.0114941690934214
3.374860841913992,-0.000505573654174813,-0.0310485280036926,-0.012481326198577801,1.0114941690934214
3.3754665354330706,-0.000505573654174813,0.0503821360588074,-0.10349206838607801,1.0114941690934214
3.37607222895215,-0.172946979904175,-0.22983514909744301,0.150380001926422,1.0114941690934214
3.37667792247123,0.0473948169708252,-0.052603703784942606,0.0449991425514223,1.0114941690934214
3.377283615990309,-0.158576862716675,-0.014283391284942598,0.059369259738922306,1.0114941690934214
3.3778893095093876,-0.110676472091675,0.038407038402557395,0.107269650363922,1.0114941690934214
3.3784950030284677,-0.0963063549041748,-0.16995966081619301,0.14319494333267202,1.0114941690934214
3.379100696547547,0.06415995368957521,-0.0621837819099426,-0.0508016386985777,1.0114941690934214
3.3797063900666258,0.14798563728332498,-0.0885289967536926,0.181515255832672,1.0114941690934214
3.380312083585706,0.0114695240020752,-0.217860051441193,0.181515255832672,1.0114941690934214
3.3809177771047847,-0.158576862716675,-0.11966425065994299,0.059369259738922306,1.0114941690934214
3.381523470623864,-0.304673054122925,-0.0262584889411926,-0.0963070097923277,1.0114941690934214
3.3821291641429436,0.00188944587707519,0.0120618235588074,-0.16097253713607798,1.0114941690934214
3.382734857662023,-0.13702168693542502,-0.208279973316193,0.234205685520172,1.0114941690934214
3.3833405511811017,-0.0316408275604248,-0.136429387378693,-0.158577517604828,1.0114941690934214
3.383946244700182,-0.0244557689666748,-0.126849309253693,-0.060381716823577694,1.0114941690934214
3.3845519382192606,-0.0963063549041748,-0.0310485280036926,-0.06996179494857771,1.0114941690934214
3.38515763173834,-0.0244557689666748,-0.0166784108161926,-0.0412215605735777,1.0114941690934214
3.38576332525742,-0.20168721427917502,-0.00230829362869262,-0.0484066191673277,1.0114941690934214
3.3863690187764988,-0.0939113353729248,0.0647522532463074,0.00188879098892225,1.0114941690934214
3.3869747122955776,-0.120256550216675,-0.0406286061286926,-0.0316414824485778,1.0114941690934214
3.3875804058146577,-0.0891212963104248,0.0791223704338074,-0.0891219511985777,1.0114941690934214
3.388186099333737,-0.122651569747925,0.0887024485588074,-0.14181238088607798,1.0114941690934214
3.3887917928528157,0.0929001880645752,0.0695422923088074,0.31324133005142196,1.0114941690934214
3.389397486371896,-0.0196657299041748,-0.107689153003693,0.6581241425514219,1.0114941690934214
3.3900031798909747,-0.0795412181854248,0.00248174543380738,0.20786047067642202,1.0114941690934214
3.390608873410055,-0.048405964279174804,-0.0382335865974426,0.33240148630142197,1.0114941690934214
3.3912145669291336,-0.115466511154175,-0.0118883717536926,0.0449991425514223,1.0114941690934214
3.391820260448213,-0.0819362377166748,-0.222650090503693,-0.0292464629173278,1.0114941690934214
3.392425953967293,-0.0244557689666748,-0.215465031909943,-0.0100863066673278,1.0114941690934214
3.3930316474863718,-0.223242390060425,0.11983770246505701,0.124034787082672,1.0114941690934214
3.3936373410054506,-0.13223164787292502,-0.08613397722244259,0.29168615427017197,1.0114941690934214
3.3942430345245307,0.0785300708770752,0.0767273509025574,0.164750119113922,1.0114941690934214
3.39484872804361,-0.122651569747925,0.10307256574630701,0.205465451145172,1.0114941690934214
3.3954544215626887,-0.0100856517791748,0.10546758527755701,0.0426041230201723,1.0114941690934214
3.396060115081769,-0.0412209056854248,-0.0334435475349426,-0.129837283229828,1.0114941690934214
3.3966658086008477,0.16235575447082498,-0.11966425065994299,-0.036431521511077695,1.0114941690934214
3.397271502119927,-0.110676472091675,0.0288269602775574,0.0258389863014222,1.0114941690934214
3.3978771956390066,-0.048405964279174804,0.00966680402755738,-0.00529626760482775,1.0114941690934214
3.398482889158086,0.0785300708770752,-0.13403436784744302,0.229415646457672,1.0114941690934214
3.3990885826771646,-0.25916768302917503,-0.050208684253692605,0.0833194550514223,1.0114941690934214
3.3996942761962448,-0.0292458080291748,0.0288269602775574,-0.0555916777610777,1.0114941690934214
3.4002999697153236,-0.06277608146667481,0.043197077465057396,0.0138638886451722,1.0114941690934214
3.400905663234403,-0.290302936935425,-0.0358385670661926,0.126429806613922,1.0114941690934214
3.401511356753483,-0.19210713615417502,-0.265760442066193,0.049789181613922304,1.0114941690934214
3.4021170502725617,-0.0412209056854248,-0.052603703784942606,-0.213662966823578,1.0114941690934214
3.402722743791641,0.00428446540832519,-0.332820988941193,0.0449991425514223,1.0114941690934214
3.4033284373107207,-0.175341999435425,0.0288269602775574,-0.0867269316673277,1.0114941690934214
3.4039341308298,-0.0292458080291748,0.0887024485588074,0.0689493378639223,1.0114941690934214
3.4045398243488787,-0.0364308666229248,-0.246600285816193,0.31324133005142196,1.0114941690934214
3.405145517867959,0.0138645435333252,-0.0430236256599426,-0.110677126979828,1.0114941690934214
3.4057512113870376,0.0138645435333252,-0.136429387378693,0.00907384958267225,1.0114941690934214
3.4063569049061178,0.0833201099395752,-0.13882440690994302,0.0737393769264223,1.0114941690934214
3.4069625984251966,-0.0220607494354248,0.11265264387130701,-0.0148763457298278,1.0114941690934214
3.407568291944276,-0.0891212963104248,0.0887024485588074,0.102479611301422,1.3760335906733794
3.408173985463356,0.037814738845825195,-0.246600285816193,0.0881094941139223,1.3760335906733794
3.4087796789824347,0.10966532478332501,0.09349248762130741,0.0306290253639222,1.3760335906733794
3.409385372501514,-0.156181843185425,0.100677546215057,-0.0412215605735777,1.3760335906733794
3.4099910660205937,-0.0891212963104248,0.0288269602775574,0.0402091034889223,1.3760335906733794
3.410596759539673,0.23181132087707498,0.11025762434005701,0.24378576364517202,1.3760335906733794
3.4112024530587517,-0.213662311935425,0.143787897777557,0.0617642792701723,1.3760335906733794
3.411808146577832,0.06415995368957521,0.155762995433807,0.219835568332672,1.3760335906733794
3.4124138400969106,-0.103491413497925,-0.237020207691193,0.40425207223892196,1.3760335906733794
3.41301953361599,-0.101096393966675,-0.047813664722442605,-0.148997439479828,1.3760335906733794
3.4136252271350696,0.159960734939575,-0.107689153003693,-0.0100863066673278,1.3760335906733794
3.414230920654149,-0.189712116622925,-0.0118883717536926,0.176725216770172,1.3760335906733794
3.414836614173228,-0.0100856517791748,0.0479871165275574,0.219835568332672,1.3760335906733794
3.4154423076923077,-0.13223164787292502,-0.0262584889411926,0.325216427707672,1.3760335906733794
3.416048001211387,-0.0699611400604248,0.045592096996307396,0.119244748020172,1.3760335906733794
3.4166536947304658,-0.055591022872924806,-0.227440129566193,0.227020626926422,1.3760335906733794
3.417259388249546,0.00188944587707519,0.026431940746307402,0.24378576364517202,1.3760335906733794
3.4178650817686247,-0.00290059318542481,-0.19390985612869302,0.715604611301422,1.3760335906733794
3.418470775287704,0.0905051685333252,-0.0118883717536926,-0.00050622854232775,1.3760335906733794
3.4190764688067836,0.15277567634582498,0.09349248762130741,-0.122652224636078,1.3760335906733794
3.419682162325863,-0.15139180412292502,-0.0909240162849426,0.107269650363922,1.3760335906733794
3.4202878558449417,-0.0364308666229248,0.0695422923088074,-0.00529626760482775,1.3760335906733794
3.420893549364022,0.0449997974395752,-0.107689153003693,0.26294591989517196,1.3760335906733794
3.421499242883101,0.0593699146270752,0.0336169993400574,0.0258389863014222,1.3760335906733794
3.42210493640218,-0.0412209056854248,0.153367975902557,0.0857144745826723,1.3760335906733794
3.42271062992126,0.164750774002075,-0.177144719409943,0.28210607614517197,1.3760335906733794
3.4233163234403388,0.0593699146270752,-0.246600285816193,0.14798498239517202,1.3760335906733794
3.423922016959419,0.0952952075958252,-0.0406286061286926,-0.14660241994857798,1.3760335906733794
3.4245277104784977,-0.0891212963104248,-0.0693688405036926,0.167145138645172,1.3760335906733794
3.425133403997577,0.0497898365020752,0.0288269602775574,0.15756506052017202,1.3760335906733794
3.4257390975166566,0.06894999275207521,0.0312219798088074,0.0617642792701723,1.3760335906733794
3.426344791035736,-0.19689717521667502,-0.0957140553474426,-0.0412215605735777,1.3760335906733794
3.4269504845548147,0.0976902271270752,0.0120618235588074,0.0737393769264223,1.3760335906733794
3.427556178073895,-0.046010944747924803,-0.0358385670661926,0.0186539277076722,1.3760335906733794
3.428161871592974,-0.105886433029175,-0.047813664722442605,-0.0579866972923277,1.3760335906733794
3.428767565112053,0.0833201099395752,-0.08613397722244259,0.119244748020172,1.3760335906733794
3.429373258631133,0.0449997974395752,0.0863074290275574,0.236600705051422,1.3760335906733794
3.4299789521502118,-0.0771461986541748,0.150972956371307,0.29168615427017197,1.3760335906733794
3.430584645669291,-0.165761921310425,-0.165169621753693,0.210255490207672,1.3760335906733794
3.4311903391883707,-0.0124806713104248,-0.0621837819099426,-0.15139245901107798,1.3760335906733794
3.43179603270745,-0.0364308666229248,0.10546758527755701,0.18391027536392202,1.3760335906733794
3.4324017262265287,0.0473948169708252,0.150972956371307,0.24857580270767202,1.3760335906733794
3.433007419745609,0.21744120368957498,-0.11726923112869299,0.126429806613922,1.3760335906733794
3.4336131132646877,0.0569748950958252,-0.050208684253692605,0.301266232395172,1.3760335906733794
3.434218806783767,-0.050800983810424805,-0.07415887956619259,0.215045529270172,1.3760335906733794
3.434824500302847,0.0210496021270752,-0.0933190358161926,0.0234439667701722,1.3760335906733794
3.435430193821926,-0.199292194747925,-0.11487421159744299,-0.0819368926048277,1.3760335906733794
3.4360358873410046,-0.0963063549041748,-0.143614445972443,0.0114688691139222,1.3760335906733794
3.4366415808600848,-0.0843312572479248,0.00248174543380738,-0.07475183401107771,1.3760335906733794
3.437247274379164,-0.18252705802917502,-0.17474969987869302,0.231810665988922,1.3760335906733794
3.4378529678982437,-0.048405964279174804,0.036012018871307394,-0.110677126979828,1.3760335906733794
3.438458661417323,-0.0819362377166748,0.0599622141838074,-0.13702234182357798,1.3760335906733794
3.4390643549364017,0.10008524665832501,-0.0118883717536926,0.231810665988922,1.3760335906733794
3.439670048455482,-0.0244557689666748,-0.11008417253494299,0.0162589081764222,1.3760335906733794
3.4402757419745607,-0.0172707103729248,0.172528132152557,0.19349035348892202,1.3760335906733794
3.44088143549364,-0.216057331466675,0.10546758527755701,0.274921017551422,1.3760335906733794
3.44148712901272,-0.230427448654175,-0.107689153003693,0.0641592988014223,1.3760335906733794
3.442092822531799,-0.0843312572479248,0.00248174543380738,0.126429806613922,1.3760335906733794
3.4426985160508776,0.06894999275207521,-0.007098332691192619,-0.0508016386985777,1.3760335906733794
3.4433042095699578,0.10248026618957501,0.0910974680900574,0.296476193332672,1.3760335906733794
3.443909903089037,-0.0148756908416748,-0.12205927019119299,0.25097082223892203,1.3760335906733794
3.444515596608116,-0.0603810619354248,-0.08134393815994259,0.0665543183326723,1.3760335906733794
3.445121290127196,-0.165761921310425,-0.165169621753693,0.0905045136451723,1.3760335906733794
3.4457269836462747,-0.0244557689666748,-0.12924432878494302,-0.0268514433860778,1.3760335906733794
3.446332677165354,-0.050800983810424805,0.0623572337150574,0.267735958957672,1.3760335906733794
3.4469383706844337,0.0234446216583252,-0.0118883717536926,0.056974240207672305,1.3760335906733794
3.447544064203513,0.0306296802520752,-0.052603703784942606,0.0402091034889223,1.3760335906733794
3.4481497577225917,0.07134501228332521,-0.12924432878494302,-0.14181238088607798,1.3760335906733794
3.448755451241672,0.203071086502075,0.026431940746307402,-0.17534265432357798,1.3760335906733794
3.4493611447607506,-0.048405964279174804,0.036012018871307394,-0.0627767363548277,1.3760335906733794
3.44996683827983,0.0186545825958252,-0.0166784108161926,0.416227169895172,1.3760335906733794
3.45057253179891,-0.139416706466675,-0.050208684253692605,0.059369259738922306,1.3760335906733794
3.451178225317989,0.0258396411895752,0.0503821360588074,-0.28551355276107804,1.3760335906733794
3.4517839188370676,0.037814738845825195,-0.220255070972443,0.140799923801422,1.3760335906733794
3.4523896123561477,-0.0603810619354248,0.0887024485588074,-0.10349206838607801,1.3760335906733794
3.452995305875227,-0.0268507884979248,-0.0310485280036926,0.186305294895172,1.3760335906733794
3.4536009993943058,0.16714579353332498,-0.186724797534943,0.215045529270172,1.3760335906733794
3.454206692913386,0.124035441970825,0.16534307355880698,0.0138638886451722,1.3760335906733794
3.4548123864324647,-0.110676472091675,-0.11726923112869299,0.27252599802017197,1.3760335906733794
3.455418079951545,0.0976902271270752,-0.0382335865974426,0.0402091034889223,1.3760335906733794
3.4560237734706236,0.10487528572082501,0.0887024485588074,0.0857144745826723,1.3760335906733794
3.456629466989703,0.042604777908325196,0.23000860090255698,0.224625607395172,1.3760335906733794
3.457235160508783,0.00428446540832519,-0.150799504566193,0.0952945527076723,1.3760335906733794
3.457840854027862,-0.00290059318542481,-0.186724797534943,0.0928995331764223,1.3760335906733794
3.4584465475469406,-0.101096393966675,0.0647522532463074,0.0162589081764222,1.3760335906733794
3.4590522410660207,0.033024699783325194,-0.241810246753693,-0.0555916777610777,1.3760335906733794
3.4596579345851,-0.0244557689666748,-0.213070012378693,-0.0508016386985777,1.3760335906733794
3.4602636281041788,-0.0196657299041748,0.026431940746307402,0.0473941620826723,1.3760335906733794
3.460869321623259,-0.0316408275604248,-0.0573937428474426,0.171935177707672,1.3760335906733794
3.4614750151423377,-0.172946979904175,-0.045418645191192604,0.200675412082672,1.3760335906733794
3.462080708661417,-0.134626667404175,-0.0669738209724426,0.159960080051422,1.3760335906733794
3.4626864021804966,-0.18252705802917502,-0.0981090748786926,0.210255490207672,1.3760335906733794
3.463292095699576,0.033024699783325194,-0.0286535084724426,0.107269650363922,1.3760335906733794
3.4638977892186547,-0.046010944747924803,-0.232230168628693,0.028234005832672198,1.3760335906733794
3.464503482737735,-0.129836628341675,-0.00470331315994262,-0.144207400417328,1.3760335906733794
3.4651091762568136,0.121640422439575,0.0216419016838074,-0.10349206838607801,1.3760335906733794
3.465714869775893,-0.117861530685425,-0.19869989519119302,0.107269650363922,1.3760335906733794
3.466320563294973,-0.172946979904175,-0.0262584889411926,-0.0579866972923277,1.3760335906733794
3.4669262568140518,-0.0675661205291748,0.0240369212150574,-0.060381716823577694,1.3760335906733794
3.4675319503331306,0.22702128181457498,-0.12205927019119299,-0.06996179494857771,1.3760335906733794
3.4681376438522107,-0.156181843185425,0.0671472727775574,-0.0412215605735777,1.3760335906733794
3.46874333737129,-0.168156940841675,-0.0286535084724426,0.052184201145172304,1.3760335906733794
3.4693490308903687,-0.125046589279175,-0.0645788014411926,0.236600705051422,1.3760335906733794
3.469954724409449,-0.156181843185425,0.0168518626213074,0.15756506052017202,1.3760335906733794
3.4705604179285277,-0.0436159252166748,-0.13882440690994302,0.17912023630142201,1.3760335906733794
3.471166111447607,-0.18731709709167502,0.045592096996307396,0.20786047067642202,1.3760335906733794
3.4717718049666866,0.00188944587707519,0.00966680402755738,0.0976895722389223,1.3760335906733794
3.472377498485766,-0.297487995529175,0.0336169993400574,0.114454708957672,1.3760335906733794
3.472983192004846,-0.0388258861541748,-0.0981090748786926,-0.18013269338607799,1.3760335906733794
3.4735888855239248,-0.14660176506042502,-0.0981090748786926,0.0330240448951723,1.3760335906733794
3.4741945790430036,-0.218452350997925,0.0839124094963074,0.26294591989517196,1.3760335906733794
3.4748002725620837,-0.170551960372925,-0.210674992847443,0.12882482614517202,1.3760335906733794
3.475405966081163,-0.168156940841675,-0.0669738209724426,-0.017271365261077802,1.3760335906733794
3.4760116596002417,-0.170551960372925,0.16534307355880698,0.0928995331764223,1.3760335906733794
3.476617353119322,-0.101096393966675,-0.105294133472443,0.107269650363922,1.3760335906733794
3.4772230466384006,-0.103491413497925,-0.0238634694099426,0.22223058786392202,1.3760335906733794
3.47782874015748,-0.228032429122925,-0.0573937428474426,-0.0819368926048277,1.3760335906733794
3.4784344336765596,0.10727030525207501,-0.0334435475349426,0.227020626926422,1.3760335906733794
3.479040127195639,-0.223242390060425,-0.08373895769119259,0.365931759738922,1.3760335906733794
3.4796458207147176,0.00188944587707519,-0.19869989519119302,0.47370763864517196,1.3760335906733794
3.4802515142337977,-0.139416706466675,0.0288269602775574,0.210255490207672,1.3760335906733794
3.4808572077528765,-0.213662311935425,-0.047813664722442605,-0.22084802541732798,1.3760335906733794
3.481462901271956,-0.0052956127166748105,-0.177144719409943,0.241390744113922,1.3760335906733794
3.482068594791036,-0.158576862716675,-0.007098332691192619,0.0402091034889223,1.3760335906733794
3.4826742883101147,0.00428446540832519,0.0815173899650574,0.119244748020172,1.3760335906733794
3.483279981829194,-0.127441608810425,-0.11726923112869299,0.131219845676422,1.3760335906733794
3.4838856753482736,-0.0963063549041748,0.040802057933807395,0.124034787082672,1.3760335906733794
3.484491368867353,-0.117861530685425,-0.0310485280036926,0.028234005832672198,1.3760335906733794
3.4850970623864317,-0.0220607494354248,-0.0406286061286926,0.0928995331764223,1.3760335906733794
3.485702755905512,0.037814738845825195,-0.07894891862869259,0.16235509958267202,1.3760335906733794
3.4863084494245906,-0.0388258861541748,-0.11966425065994299,0.171935177707672,1.3760335906733794
3.4869141429436707,-0.0100856517791748,-0.181934758472443,0.14319494333267202,1.3760335906733794
3.4875198364627495,-0.0963063549041748,-0.0382335865974426,-0.0843319121360777,1.3760335906733794
3.488125529981829,-0.0148756908416748,0.191688288402557,0.00188879098892225,1.3760335906733794
3.488731223500909,-0.184922077560425,-0.146009465503693,-0.034036501979827695,1.3760335906733794
3.4893369170199877,-0.0124806713104248,0.014456843090057401,-0.0196663847923278,1.3760335906733794
3.489942610539067,0.133615520095825,0.040802057933807395,0.0952945527076723,1.3760335906733794
3.4905483040581466,0.0234446216583252,-0.0238634694099426,0.0737393769264223,1.3760335906733794
3.491153997577226,-0.0292458080291748,-0.045418645191192604,0.109664669895172,1.3760335906733794
3.4917596910963047,0.061764934158325194,0.00487676496505738,0.140799923801422,1.3760335906733794
3.492365384615385,0.0473948169708252,-0.201094914722443,0.246180783176422,1.3760335906733794
3.4929710781344636,-0.0891212963104248,0.0527771555900574,-0.017271365261077802,1.3760335906733794
3.493576771653543,0.00428446540832519,0.17492315168380698,0.0449991425514223,1.3760335906733794
3.4941824651726225,-0.24240254631042502,-0.191514836597443,0.195885373020172,1.3760335906733794
3.494788158691702,-0.0412209056854248,-0.181934758472443,-0.232823123073578,1.3760335906733794
3.495393852210781,0.10727030525207501,-0.0645788014411926,-0.16576257619857798,1.3760335906733794
3.4959995457298607,-0.0052956127166748105,0.0288269602775574,0.126429806613922,1.3760335906733794
3.49660523924894,-0.134626667404175,0.0671472727775574,0.0162589081764222,1.3760335906733794
3.4972109327680188,0.10248026618957501,0.16534307355880698,0.27252599802017197,1.3760335906733794
3.497816626287099,0.0545798755645752,-0.07176386003494259,0.459337521457672,1.3760335906733794
3.4984223198061777,-0.302278034591675,0.11025762434005701,-0.153787478542328,1.3760335906733794
3.499028013325257,-0.184922077560425,0.201268366527557,0.0473941620826723,1.3760335906733794
3.4996337068443366,-0.0819362377166748,0.0503821360588074,0.124034787082672,1.3760335906733794
3.500239400363416,0.121640422439575,0.0168518626213074,-0.117862185573578,1.3760335906733794
3.5008450938824947,-0.00290059318542481,-0.210674992847443,-0.0316414824485778,1.3760335906733794
3.501450787401575,-0.055591022872924806,0.00248174543380738,0.056974240207672305,1.3760335906733794
3.502056480920654,-0.23761250724792501,0.0623572337150574,0.380301876926422,1.3760335906733794
3.502662174439733,0.10487528572082501,0.0216419016838074,0.205465451145172,1.3760335906733794
3.503267867958813,0.145590617752075,0.0479871165275574,0.234205685520172,1.3760335906733794
3.5038735614778918,0.07134501228332521,-0.210674992847443,0.0785294159889223,1.3760335906733794
3.504479254996972,0.23660135993957498,-0.00949335222244262,-0.06517175588607771,1.3760335906733794
3.5050849485160507,-0.19689717521667502,0.036012018871307394,0.0210489472389222,1.3760335906733794
3.50569064203513,0.00667948493957519,-0.18911981706619302,-0.13702234182357798,1.3760335906733794
3.5062963355542096,-0.208872272872925,-0.08134393815994259,-0.153787478542328,1.3760335906733794
3.506902029073289,0.06415995368957521,-0.11008417253494299,0.00428381052017225,1.3760335906733794
3.5075077225923676,-0.0316408275604248,-0.19390985612869302,0.0881094941139223,1.4518478323845387
3.508113416111448,0.0545798755645752,-0.0669738209724426,-0.16097253713607798,1.4518478323845387
3.508719109630527,0.200676066970825,-0.11726923112869299,-0.182527712917328,1.4518478323845387
3.509324803149606,0.0210496021270752,-0.0382335865974426,0.26294591989517196,1.4518478323845387
3.509930496668686,-0.0388258861541748,-0.0118883717536926,0.545558224582672,1.4518478323845387
3.5105361901877647,-0.225637409591675,-0.052603703784942606,0.159960080051422,1.4518478323845387
3.511141883706844,-0.053196003341674805,0.0767273509025574,0.0833194550514223,1.4518478323845387
3.5117475772259237,-0.101096393966675,-0.13403436784744302,0.112059689426422,1.4518478323845387
3.512353270745003,-0.0220607494354248,-0.0693688405036926,0.00188879098892225,1.4518478323845387
3.5129589642640817,0.10727030525207501,-0.205884953784943,0.0665543183326723,1.4518478323845387
3.513564657783162,-0.0388258861541748,0.0910974680900574,0.0354190644264223,1.4518478323845387
3.5141703513022406,-0.24719258537292502,0.16055303449630698,0.0905045136451723,1.4518478323845387
3.51477604482132,0.11206034431457501,-0.08134393815994259,0.0186539277076722,1.4518478323845387
3.5153817383404,0.00428446540832519,-0.155589543628693,0.114454708957672,1.4518478323845387
3.515987431859479,-0.0148756908416748,-0.105294133472443,0.0138638886451722,1.4518478323845387
3.5165931253785576,0.136010539627075,-0.014283391284942598,-0.144207400417328,1.4518478323845387
3.5171988188976377,-0.057986042404174806,-0.28971063737869296,0.0976895722389223,1.4518478323845387
3.517804512416717,-0.0196657299041748,-0.11247919206619299,-0.0220614043235778,1.4518478323845387
3.518410205935796,-0.158576862716675,-0.0981090748786926,-0.07475183401107771,1.4518478323845387
3.519015899454876,0.00428446540832519,-0.050208684253692605,0.0306290253639222,1.4518478323845387
3.5196215929739547,0.00667948493957519,0.0072717844963073805,0.16235509958267202,1.4518478323845387
3.520227286493035,-0.26874776115417504,0.0791223704338074,-0.06517175588607771,1.4518478323845387
3.5208329800121136,0.0449997974395752,-0.105294133472443,-0.036431521511077695,1.4518478323845387
3.521438673531193,0.0952952075958252,-0.181934758472443,0.229415646457672,1.4518478323845387
3.522044367050273,-0.0412209056854248,-0.0166784108161926,-0.0292464629173278,1.4518478323845387
3.522650060569352,-0.165761921310425,-0.210674992847443,0.100084591770172,1.4518478323845387
3.5232557540884306,0.23660135993957498,-0.0214684498786926,0.0689493378639223,1.4518478323845387
3.5238614476075107,-0.15139180412292502,0.043197077465057396,0.102479611301422,1.4518478323845387
3.52446714112659,-0.115466511154175,0.0120618235588074,0.181515255832672,1.4518478323845387
3.525072834645669,0.145590617752075,-0.160379582691193,0.0473941620826723,1.4518478323845387
3.525678528164749,-0.134626667404175,-0.0118883717536926,0.171935177707672,1.4518478323845387
3.5262842216838277,0.11206034431457501,-0.12205927019119299,0.0641592988014223,1.4518478323845387
3.526889915202907,0.0258396411895752,-0.203489934253693,0.0138638886451722,1.4518478323845387
3.5274956087219866,-0.0292458080291748,0.0336169993400574,0.21744054880142202,1.4518478323845387
3.528101302241066,-0.117861530685425,-0.105294133472443,0.20307043161392202,1.4518478323845387
3.5287069957601447,-0.0220607494354248,0.0791223704338074,0.0330240448951723,1.4518478323845387
3.529312689279225,-0.0987013744354248,-0.205884953784943,0.0354190644264223,1.4518478323845387
3.5299183827983036,-0.00290059318542481,0.12223272199630701,-0.113072146511078,1.4518478323845387
3.530524076317383,0.0449997974395752,-0.0885289967536926,0.145589962863922,1.4518478323845387
3.531129769836463,0.07134501228332521,-0.160379582691193,0.286896115207672,1.4518478323845387
3.531735463355542,-0.0244557689666748,-0.0334435475349426,0.00907384958267225,1.4518478323845387
3.5323411568746206,-0.06277608146667481,-0.232230168628693,0.0713443573951723,1.4518478323845387
3.5329468503937007,-0.048405964279174804,0.0168518626213074,0.0641592988014223,1.4518478323845387
3.53355254391278,-0.20647725334167502,0.0839124094963074,0.0928995331764223,1.4518478323845387
3.5341582374318588,-0.0771461986541748,0.09588750715255741,0.164750119113922,1.4518478323845387
3.534763930950939,-0.0412209056854248,-0.0238634694099426,0.0928995331764223,1.4518478323845387
3.5353696244700177,0.265341594314575,0.203663386058807,0.119244748020172,1.4518478323845387
3.535975317989098,-0.158576862716675,0.09588750715255741,0.100084591770172,1.4518478323845387
3.5365810115081766,0.0162595630645752,-0.0118883717536926,0.14798498239517202,1.4518478323845387
3.537186705027256,0.22702128181457498,0.00248174543380738,0.059369259738922306,1.4518478323845387
3.537792398546336,-0.0987013744354248,0.0719373118400574,-0.242403201198578,1.4518478323845387
3.538398092065415,0.121640422439575,-0.052603703784942606,-0.283118533229828,1.4518478323845387
3.5390037855844936,0.119245402908325,0.043197077465057396,0.0378140839576723,1.4518478323845387
3.5396094791035737,-0.048405964279174804,-0.0118883717536926,0.832960568332672,1.4518478323845387
3.540215172622653,-0.057986042404174806,-0.33761102800369297,0.13361486520767202,1.4518478323845387
3.5408208661417317,-0.050800983810424805,-0.0693688405036926,-0.22563806447982798,1.4518478323845387
3.541426559660812,-0.115466511154175,0.00966680402755738,0.052184201145172304,1.4518478323845387
3.5420322531798907,-0.311858112716675,-0.045418645191192604,-0.06756677541732771,1.4518478323845387
3.54263794669897,-0.256772663497925,-0.225045110034943,-0.110677126979828,1.4518478323845387
3.5432436402180496,-0.0867262767791748,-0.0214684498786926,-0.0939119902610777,1.4518478323845387
3.543849333737129,-0.0220607494354248,0.134207819652557,0.22223058786392202,1.4518478323845387
3.5444550272562076,0.0569748950958252,-0.07415887956619259,-0.115467166042328,1.4518478323845387
3.5450607207752878,0.0833201099395752,-0.0118883717536926,0.0905045136451723,1.4518478323845387
3.5456664142943666,0.124035441970825,-0.213070012378693,0.155170040988922,1.4518478323845387
3.546272107813446,0.0976902271270752,-0.0981090748786926,-0.204082888698578,1.4518478323845387
3.546877801332526,-0.14660176506042502,-0.12924432878494302,0.0258389863014222,1.4518478323845387
3.5474834948516047,-0.129836628341675,0.00487676496505738,0.20786047067642202,1.4518478323845387
3.5480891883706835,-0.0052956127166748105,0.026431940746307402,0.286896115207672,1.4518478323845387
3.5486948818897637,-0.0100856517791748,-0.0909240162849426,0.224625607395172,1.4518478323845387
3.549300575408843,-0.0843312572479248,8.67259025573771e-05,0.234205685520172,1.4518478323845387
3.5499062689279217,-0.261562702560425,-0.32084589128494295,0.20307043161392202,1.4518478323845387
3.550511962447002,0.200676066970825,0.0192468821525574,-0.0460115996360777,1.4518478323845387
3.5511176559660806,-0.113071491622925,0.138997858715057,0.112059689426422,1.4518478323845387
3.55172334948516,-0.105886433029175,0.014456843090057401,-0.0196663847923278,1.4518478323845387
3.5523290430042396,-0.0412209056854248,-0.13882440690994302,0.0473941620826723,1.4518478323845387
3.552934736523319,-0.120256550216675,0.0336169993400574,0.126429806613922,1.4518478323845387
3.553540430042399,0.193491008377075,-0.0166784108161926,0.219835568332672,1.4518478323845387
3.5541461235614777,0.0497898365020752,-0.162774602222443,0.100084591770172,1.4518478323845387
3.5547518170805565,0.136010539627075,-0.050208684253692605,0.0330240448951723,1.4518478323845387
3.5553575105996367,0.06415995368957521,-0.13882440690994302,0.124034787082672,1.4518478323845387
3.555963204118716,-0.113071491622925,0.17971319074630698,-0.0268514433860778,1.4518478323845387
3.5565688976377947,-0.00290059318542481,-0.232230168628693,0.131219845676422,1.4518478323845387
3.557174591156875,0.24139139900207499,-0.26815546159744297,-0.0436165801048277,1.4518478323845387
3.5577802846759536,0.00667948493957519,0.27790899152755705,-0.012481326198577801,1.4518478323845387
3.558385978195033,-0.0172707103729248,-0.0933190358161926,0.056974240207672305,1.4518478323845387
3.5589916717141126,-0.160971882247925,-0.167564641284943,0.234205685520172,1.4518478323845387
3.559597365233192,-0.0172707103729248,0.0527771555900574,0.270130978488922,1.4518478323845387
3.5602030587522706,0.18151591072082499,-0.019073430347442598,0.289291134738922,1.4518478323845387
3.5608087522713507,-0.204082233810425,-0.08373895769119259,0.231810665988922,1.4518478323845387
3.56141444579043,0.10487528572082501,-0.12924432878494302,0.327611447238922,1.4518478323845387
3.562020139309509,0.042604777908325196,-0.201094914722443,0.36353674020767196,1.4518478323845387
3.562625832828589,0.07134501228332521,-0.0166784108161926,-0.18013269338607799,1.4518478323845387
3.5632315263476677,-0.050800983810424805,-0.08613397722244259,0.124034787082672,1.4518478323845387
3.563837219866747,-0.046010944747924803,-0.00470331315994262,0.210255490207672,1.4518478323845387
3.5644429133858266,0.0186545825958252,-0.047813664722442605,0.150380001926422,1.4518478323845387
3.565048606904906,0.0881101490020752,0.0503821360588074,-0.10109704885482801,1.4518478323845387
3.5656543004239847,0.0282346607208252,0.0192468821525574,0.0928995331764223,1.4518478323845387
3.566259993943065,-0.19210713615417502,-0.186724797534943,0.164750119113922,1.4518478323845387
3.5668656874621436,-0.0412209056854248,0.143787897777557,-0.110677126979828,1.4518478323845387
3.5674713809812237,-0.13223164787292502,-0.18432977800369302,0.346771603488922,1.4518478323845387
3.568077074500303,0.06655497322082521,0.00487676496505738,-0.0531966582298277,1.4518478323845387
3.568682768019382,-0.194502155685425,-0.0430236256599426,-0.17534265432357798,1.4518478323845387
3.569288461538462,-0.120256550216675,0.014456843090057401,0.684469357395172,1.4518478323845387
3.5698941550575407,0.0114695240020752,0.191688288402557,0.00907384958267225,1.4518478323845387
3.57049984857662,-0.122651569747925,-0.0669738209724426,-0.184922732448578,1.4518478323845387
3.5711055420956996,-0.0100856517791748,-0.162774602222443,0.16235509958267202,1.4518478323845387
3.571711235614779,-0.0196657299041748,-0.141219426441193,-0.017271365261077802,1.4518478323845387
3.5723169291338577,-0.055591022872924806,-0.00949335222244262,0.215045529270172,1.4518478323845387
3.572922622652938,-0.134626667404175,0.0910974680900574,0.24857580270767202,1.4518478323845387
3.5735283161720166,-0.115466511154175,-0.0573937428474426,0.260550900363922,1.4518478323845387
3.574134009691096,-0.0124806713104248,-0.148404485034943,0.116849728488922,1.4518478323845387
3.574739703210176,-0.00290059318542481,-0.0621837819099426,-0.0316414824485778,1.4518478323845387
3.5753453967292548,-0.228032429122925,-0.313660832691193,0.0234439667701722,1.4518478323845387
3.575951090248334,0.0857151294708252,-0.0406286061286926,0.0426041230201723,1.4518478323845387
3.5765567837674137,-0.0819362377166748,-0.148404485034943,0.0857144745826723,1.4518478323845387
3.577162477286493,0.0545798755645752,-0.141219426441193,0.224625607395172,1.4518478323845387
3.5777681708055717,0.179120891189575,0.00248174543380738,0.0306290253639222,1.4518478323845387
3.578373864324652,-0.0987013744354248,-0.153194524097443,0.16235509958267202,1.4518478323845387
3.5789795578437307,0.10008524665832501,-0.00230829362869262,0.229415646457672,1.4518478323845387
3.57958525136281,-0.160971882247925,0.043197077465057396,0.21744054880142202,1.4518478323845387
3.5801909448818896,0.0976902271270752,0.0575671946525574,0.0905045136451723,1.4518478323845387
3.580796638400969,0.0234446216583252,-0.0430236256599426,-0.017271365261077802,1.4518478323845387
3.5814023319200476,-0.13223164787292502,0.026431940746307402,0.100084591770172,1.4518478323845387
3.5820080254391278,-0.0699611400604248,0.136602839183807,0.167145138645172,1.4518478323845387
3.582613718958207,-0.158576862716675,0.0479871165275574,0.0905045136451723,1.4518478323845387
3.583219412477286,-0.0891212963104248,-0.0382335865974426,0.109664669895172,1.4518478323845387
3.583825105996366,-0.316648151779175,-0.0358385670661926,0.186305294895172,1.4518478323845387
3.5844307995154447,-0.30946309318542503,-0.014283391284942598,0.17912023630142201,1.4518478323845387
3.585036493034525,-0.134626667404175,-0.177144719409943,0.25097082223892203,1.4518478323845387
3.5856421865536037,-0.00290059318542481,0.0240369212150574,-0.012481326198577801,1.4518478323845387
3.586247880072683,-0.0675661205291748,0.11504766340255701,-0.036431521511077695,1.4518478323845387
3.5868535735917626,-0.0675661205291748,0.301859186840057,0.0833194550514223,1.4518478323845387
3.587459267110842,-0.13702168693542502,-0.007098332691192619,0.0928995331764223,1.4518478323845387
3.5880649606299206,-0.0891212963104248,-0.272945500659943,0.119244748020172,1.4518478323845387
3.5886706541490008,0.00428446540832519,0.100677546215057,0.056974240207672305,1.4518478323845387
3.58927634766808,-0.048405964279174804,-0.323240910816193,0.255760861301422,1.4518478323845387
3.589882041187159,0.0785300708770752,-0.102899113941193,0.052184201145172304,1.4518478323845387
3.590487734706239,-0.189712116622925,-0.08373895769119259,0.0330240448951723,1.4518478323845387
3.5910934282253177,-0.0436159252166748,-0.007098332691192619,0.306056271457672,1.4518478323845387
3.591699121744397,0.00428446540832519,-0.284920598316193,0.22223058786392202,1.4518478323845387
3.5923048152634767,0.0521848560333252,-0.241810246753693,-0.0029012480735777497,1.4518478323845387
3.592910508782556,-0.184922077560425,0.0479871165275574,-0.177737673854828,1.4518478323845387
3.5935162023016347,-0.172946979904175,-0.227440129566193,0.00667883005142225,1.4518478323845387
3.594121895820715,0.10487528572082501,-0.07655389909744259,-0.0029012480735777497,1.4518478323845387
3.5947275893397936,-0.290302936935425,-0.0334435475349426,0.12882482614517202,1.4518478323845387
3.595333282858873,0.0114695240020752,-0.0166784108161926,0.159960080051422,1.4518478323845387
3.595938976377953,-0.180132038497925,-0.0166784108161926,0.049789181613922304,1.4518478323845387
3.596544669897032,-0.0148756908416748,0.153367975902557,-0.0100863066673278,1.4518478323845387
3.5971503634161106,-0.160971882247925,-0.07655389909744259,0.210255490207672,1.4518478323845387
3.5977560569351907,0.121640422439575,0.0671472727775574,0.028234005832672198,1.4518478323845387
3.59836175045427,0.351562297439575,-0.131639348316193,0.389881955051422,1.4518478323845387
3.598967443973349,-0.000505573654174813,-0.019073430347442598,0.0426041230201723,1.4518478323845387
3.599573137492429,-0.0124806713104248,0.0072717844963073805,0.5383731659889219,1.4518478323845387
3.6001788310115077,0.0545798755645752,-0.13403436784744302,0.346771603488922,1.4518478323845387
3.600784524530587,0.0545798755645752,0.0527771555900574,-0.110677126979828,1.4518478323845387
3.6013902180496666,-0.218452350997925,-0.210674992847443,0.31324133005142196,1.4518478323845387
3.601995911568746,0.17193583259582498,-0.0430236256599426,-0.15618249807357798,1.4518478323845387
3.602601605087826,-0.0148756908416748,-0.11247919206619299,0.13840490427017202,1.4518478323845387
3.603207298606905,-0.0699611400604248,-0.17953973894119302,0.0641592988014223,1.4518478323845387
3.6038129921259836,0.10248026618957501,-0.052603703784942606,-0.0076912871360777495,1.4518478323845387
3.6044186856450637,-0.00290059318542481,-0.148404485034943,0.131219845676422,1.4518478323845387
3.605024379164143,0.116850383377075,-0.0382335865974426,0.0354190644264223,1.4518478323845387
3.6056300726832218,0.0449997974395752,-0.0693688405036926,0.056974240207672305,1.4518478323845387
3.606235766202302,-0.0891212963104248,-0.07176386003494259,0.200675412082672,1.4518478323845387
3.6068414597213807,-0.144206745529175,-0.160379582691193,-0.168157595729828,1.4518478323845387
3.60744715324046,0.0306296802520752,0.014456843090057401,0.12882482614517202,0.962694022156367
3.6080528467595396,-0.0795412181854248,0.0072717844963073805,0.298871212863922,0.962694022156367
3.608658540278619,-0.129836628341675,-0.11247919206619299,0.181515255832672,0.962694022156367
3.6092642337976977,-0.139416706466675,-0.0981090748786926,0.0689493378639223,0.962694022156367
3.609869927316778,-0.0867262767791748,-0.153194524097443,-0.00050622854232775,0.962694022156367
3.6104756208358566,-0.0436159252166748,-0.126849309253693,0.126429806613922,0.962694022156367
3.611081314354936,-0.108281452560425,0.00248174543380738,0.15277502145767202,0.962694022156367
3.611687007874016,0.0282346607208252,0.038407038402557395,-0.0460115996360777,0.962694022156367
3.6122927013930948,0.00428446540832519,-0.131639348316193,0.0881094941139223,0.962694022156367
3.6128983949121736,0.10008524665832501,0.0743323313713074,0.0761343964576723,0.962694022156367
3.6135040884312537,-0.0675661205291748,-0.237020207691193,0.119244748020172,0.962694022156367
3.614109781950333,0.035419719314575195,0.0312219798088074,0.112059689426422,0.962694022156367
3.6147154754694126,0.191095988845825,0.0767273509025574,-0.0076912871360777495,0.962694022156367
3.615321168988492,0.00428446540832519,-0.0573937428474426,0.119244748020172,0.962694022156367
3.6159268625075707,-0.129836628341675,-0.203489934253693,0.0330240448951723,0.962694022156367
3.61653255602665,0.00907450447082519,-0.0909240162849426,-0.134627322292328,0.962694022156367
3.6171382495457296,0.0282346607208252,-0.0334435475349426,-0.0196663847923278,0.962694022156367
3.617743943064809,-0.20168721427917502,-0.11966425065994299,0.140799923801422,0.962694022156367
3.618349636583889,0.06894999275207521,0.09828252668380741,0.200675412082672,0.962694022156367
3.6189553301029678,0.124035441970825,-0.11726923112869299,0.112059689426422,0.962694022156367
3.6195610236220466,0.040209758377075196,-0.165169621753693,0.12882482614517202,0.962694022156367
3.6201667171411267,-0.189712116622925,-0.23462518815994302,-0.0843319121360777,0.962694022156367
3.620772410660206,0.0258396411895752,0.0072717844963073805,0.0809244355201723,0.962694022156367
3.6213781041792847,-0.0172707103729248,-0.00949335222244262,0.308451290988922,0.962694022156367
3.621983797698365,-0.0220607494354248,0.00248174543380738,-0.0268514433860778,0.962694022156367
3.6225894912174437,0.040209758377075196,-0.11966425065994299,0.0761343964576723,0.962694022156367
3.623195184736523,-0.323833210372925,-0.13882440690994302,0.0833194550514223,0.962694022156367
3.6238008782556026,-0.110676472091675,0.0216419016838074,-0.0460115996360777,0.962694022156367
3.624406571774682,-0.00290059318542481,-0.222650090503693,0.0761343964576723,0.962694022156367
3.6250122652937606,0.0138645435333252,-0.07894891862869259,-0.0963070097923277,0.962694022156367
3.6256179588128408,-0.271142780685425,0.0839124094963074,-0.0579866972923277,0.962694022156367
3.6262236523319196,0.16235575447082498,-0.256180363941193,0.22223058786392202,0.962694022156367
3.626829345850999,0.07134501228332521,0.043197077465057396,-0.0579866972923277,0.962694022156367
3.627435039370079,-0.0939113353729248,-0.045418645191192604,-0.0484066191673277,0.962694022156367
3.6280407328891577,0.0282346607208252,-0.18911981706619302,-0.110677126979828,0.962694022156367
3.6286464264082365,-0.0340358470916748,-0.0573937428474426,0.337191525363922,0.962694022156367
3.6292521199273167,0.00907450447082519,0.158158014965057,0.6964444550514219,0.962694022156367
3.629857813446396,-0.20168721427917502,0.00248174543380738,-0.18013269338607799,0.962694022156367
3.6304635069654747,-0.0675661205291748,-0.232230168628693,-0.21605798635482798,0.962694022156367
3.631069200484555,-0.204082233810425,-0.0166784108161926,-0.0100863066673278,0.962694022156367
3.6316748940036336,0.06894999275207521,-0.105294133472443,-0.06996179494857771,0.962694022156367
3.6322805875227138,0.0306296802520752,0.136602839183807,0.114454708957672,0.962694022156367
3.6328862810417926,0.0114695240020752,-0.007098332691192619,0.056974240207672305,0.962694022156367
3.633491974560872,0.150380656814575,-0.146009465503693,0.267735958957672,0.962694022156367
3.634097668079951,0.159960734939575,-0.24420526628494302,0.315636349582672,0.962694022156367
3.6347033615990307,0.267736613845825,0.0120618235588074,-0.0436165801048277,0.962694022156367
3.6353090551181095,-0.0699611400604248,-0.186724797534943,0.00907384958267225,0.962694022156367
3.6359147486371897,0.10248026618957501,0.12941778059005699,-0.0484066191673277,0.962694022156367
3.636520442156269,-0.15139180412292502,-0.00470331315994262,0.0354190644264223,0.962694022156367
3.6371261356753477,-0.0939113353729248,-0.126849309253693,0.20307043161392202,0.962694022156367
3.637731829194428,0.00428446540832519,-0.00949335222244262,0.169540158176422,0.962694022156367
3.6383375227135066,-0.0388258861541748,-0.13403436784744302,0.24857580270767202,0.962694022156367
3.638943216232586,0.16235575447082498,0.198873346996307,0.181515255832672,0.962694022156367
3.6395489097516656,-0.134626667404175,-0.186724797534943,0.18391027536392202,0.962694022156367
3.640154603270745,0.0114695240020752,-0.0382335865974426,0.00188879098892225,0.962694022156367
3.640760296789824,-0.0292458080291748,-0.08134393815994259,0.0665543183326723,0.962694022156367
3.6413659903089037,-0.00290059318542481,-0.186724797534943,0.0785294159889223,0.962694022156367
3.6419716838279825,0.00188944587707519,-0.0693688405036926,0.059369259738922306,0.962694022156367
3.6425773773470618,0.124035441970825,-0.014283391284942598,-0.038826541042327696,0.962694022156367
3.643183070866142,-0.0843312572479248,-0.301685735034943,0.049789181613922304,0.962694022156367
3.6437887643852207,-0.32862324943542504,-0.162774602222443,0.124034787082672,0.962694022156367
3.6443944579043,0.0857151294708252,-0.177144719409943,0.0306290253639222,0.962694022156367
3.6450001514233796,0.0761350513458252,-0.054998723316192606,0.028234005832672198,0.962694022156367
3.645605844942459,0.210256145095825,0.0192468821525574,-0.038826541042327696,0.962694022156367
3.6462115384615377,-0.13223164787292502,-0.00949335222244262,0.195885373020172,0.962694022156367
3.646817231980618,-0.00290059318542481,-0.0669738209724426,0.0713443573951723,0.962694022156367
3.647422925499697,0.183910930252075,-0.208279973316193,0.13361486520767202,0.962694022156367
3.648028619018776,0.11445536384582501,-0.0334435475349426,0.0234439667701722,0.962694022156367
3.6486343125378555,0.138405559158325,-0.220255070972443,0.00667883005142225,0.962694022156367
3.6492400060569348,0.143195598220825,-0.0597887623786926,0.131219845676422,0.962694022156367
3.649845699576015,-0.0196657299041748,-0.054998723316192606,0.215045529270172,0.962694022156367
3.6504513930950937,-0.0795412181854248,-0.19390985612869302,0.20307043161392202,0.962694022156367
3.651057086614173,0.040209758377075196,-0.203489934253693,0.258155880832672,0.962694022156367
3.6516627801332526,-0.050800983810424805,-0.150799504566193,0.028234005832672198,0.962694022156367
3.652268473652332,-0.055591022872924806,-0.050208684253692605,-0.144207400417328,0.962694022156367
3.6528741671714107,-0.156181843185425,-0.0286535084724426,-0.06996179494857771,0.962694022156367
3.653479860690491,-0.0436159252166748,-0.371141301441193,-0.0076912871360777495,0.962694022156367
3.65408555420957,-0.165761921310425,-0.31845087175369297,0.119244748020172,0.962694022156367
3.654691247728649,-0.0364308666229248,-0.0597887623786926,-0.148997439479828,0.962694022156367
3.6552969412477285,-0.0771461986541748,-0.27055048112869295,0.124034787082672,0.962694022156367
3.6559026347668078,-0.0268507884979248,-0.00230829362869262,-0.06996179494857771,0.962694022156367
3.656508328285887,0.186305949783325,-0.0933190358161926,0.0617642792701723,0.962694022156367
3.6571140218049667,-0.050800983810424805,-0.143614445972443,0.119244748020172,0.962694022156367
3.657719715324046,-0.115466511154175,-0.0981090748786926,0.0785294159889223,0.962694022156367
3.6583254088431247,0.0210496021270752,-0.107689153003693,-0.0316414824485778,0.962694022156367
3.658931102362205,0.0521848560333252,0.09349248762130741,-0.115467166042328,0.962694022156367
3.6595367958812837,0.00667948493957519,-0.07894891862869259,0.47370763864517196,0.962694022156367
3.660142489400363,0.174330852127075,0.038407038402557395,0.301266232395172,0.962694022156367
3.660748182919443,-0.144206745529175,-0.052603703784942606,0.19349035348892202,0.962694022156367
3.661353876438522,0.119245402908325,-0.0262584889411926,0.0162589081764222,0.962694022156367
3.6619595699576006,0.15756571540832498,0.0815173899650574,0.136009884738922,0.962694022156367
3.6625652634766808,-0.189712116622925,-0.0597887623786926,0.370721798801422,0.962694022156367
3.66317095699576,0.0114695240020752,-0.146009465503693,0.176725216770172,0.962694022156367
3.663776650514839,-0.0651711009979248,-0.00949335222244262,0.186305294895172,0.962694022156367
3.664382344033919,0.06894999275207521,-0.102899113941193,0.224625607395172,0.962694022156367
3.6649880375529977,-0.103491413497925,-0.0382335865974426,0.00428381052017225,0.962694022156367
3.665593731072078,-0.055591022872924806,0.0551721751213074,0.145589962863922,0.962694022156367
3.6661994245911567,0.128825481033325,-0.019073430347442598,0.34437658395767196,0.962694022156367
3.666805118110236,-0.0436159252166748,0.0767273509025574,-0.0076912871360777495,0.962694022156367
3.667410811629316,-0.0963063549041748,-0.0358385670661926,0.253365841770172,0.962694022156367
3.668016505148395,-0.0723561595916748,-0.162774602222443,0.349166623020172,0.962694022156367
3.6686221986674736,0.138405559158325,-0.143614445972443,0.16235509958267202,0.962694022156367
3.6692278921865538,-0.18731709709167502,0.00248174543380738,-0.017271365261077802,0.962694022156367
3.669833585705633,-0.13702168693542502,-0.0166784108161926,-0.0436165801048277,0.962694022156367
3.670439279224712,-0.0340358470916748,-0.105294133472443,0.200675412082672,0.962694022156367
3.671044972743792,-0.172946979904175,0.12223272199630701,0.124034787082672,0.962694022156367
3.6716506662628707,0.00188944587707519,-0.136429387378693,0.0617642792701723,0.962694022156367
3.67225635978195,-0.048405964279174804,-0.08373895769119259,0.12882482614517202,0.962694022156367
3.6728620533010297,0.06655497322082521,0.11983770246505701,0.00428381052017225,0.962694022156367
3.673467746820109,0.035419719314575195,-0.11966425065994299,-0.0148763457298278,0.962694022156367
3.6740734403391877,-0.103491413497925,0.0312219798088074,0.200675412082672,0.962694022156367
3.674679133858268,0.0258396411895752,-0.047813664722442605,0.124034787082672,0.962694022156367
3.6752848273773466,0.255761516189575,-0.0406286061286926,0.22223058786392202,0.962694022156367
3.675890520896426,-0.129836628341675,0.00966680402755738,0.358746701145172,0.962694022156367
3.676496214415506,-0.0388258861541748,-0.263365422534943,0.0857144745826723,0.962694022156367
3.677101907934585,0.0258396411895752,-0.0430236256599426,0.145589962863922,0.962694022156367
3.6777076014536636,0.119245402908325,0.136602839183807,0.0689493378639223,0.962694022156367
3.6783132949727437,0.27013163337707496,0.09349248762130741,-0.158577517604828,0.962694022156367
3.678918988491823,0.16714579353332498,0.0312219798088074,0.052184201145172304,0.962694022156367
3.6795246820109018,0.10008524665832501,-0.162774602222443,0.30366125192642196,0.962694022156367
3.680130375529982,-0.0603810619354248,-0.07415887956619259,0.267735958957672,0.962694022156367
3.6807360690490607,0.07374003181457521,-0.0334435475349426,0.224625607395172,0.962694022156367
3.68134176256814,-0.0172707103729248,0.09828252668380741,0.22223058786392202,0.962694022156367
3.6819474560872196,0.260551555252075,0.09828252668380741,0.155170040988922,0.962694022156367
3.682553149606299,0.0833201099395752,-0.32084589128494295,0.109664669895172,0.962694022156367
3.683158843125379,-0.103491413497925,-0.148404485034943,0.049789181613922304,0.962694022156367
3.683764536644458,0.0114695240020752,-0.00470331315994262,0.14798498239517202,0.962694022156367
3.6843702301635366,-0.225637409591675,-0.26097040300369295,0.0928995331764223,0.962694022156367
3.6849759236826167,0.164750774002075,-0.0430236256599426,0.049789181613922304,0.962694022156367
3.685581617201696,-0.170551960372925,-0.11247919206619299,0.0330240448951723,0.962694022156367
3.6861873107207748,-0.0436159252166748,-0.019073430347442598,-0.0771468535423277,0.962694022156367
3.686793004239855,0.291686809158325,0.0192468821525574,0.121639767551422,0.962694022156367
3.6873986977589337,0.0857151294708252,-0.0286535084724426,0.14319494333267202,0.962694022156367
3.688004391278013,-0.048405964279174804,-0.07655389909744259,0.00428381052017225,0.962694022156367
3.6886100847970926,0.0881101490020752,-0.0430236256599426,0.00907384958267225,0.962694022156367
3.689215778316172,0.06415995368957521,0.138997858715057,0.490472775363922,0.962694022156367
3.6898214718352507,-0.273537800216675,0.0695422923088074,0.0952945527076723,0.962694022156367
3.690427165354331,-0.0771461986541748,0.00248174543380738,-0.25677331838607803,0.962694022156367
3.6910328588734096,0.0186545825958252,-0.11008417253494299,0.195885373020172,0.962694022156367
3.691638552392489,-0.194502155685425,-0.00949335222244262,0.0138638886451722,0.962694022156367
3.692244245911569,-0.208872272872925,-0.0310485280036926,0.104874630832672,0.962694022156367
3.6928499394306478,0.119245402908325,-0.08373895769119259,0.0881094941139223,0.962694022156367
3.6934556329497266,0.0114695240020752,-0.08134393815994259,0.145589962863922,0.962694022156367
3.6940613264688067,-0.0651711009979248,-0.105294133472443,0.140799923801422,0.962694022156367
3.694667019987886,0.133615520095825,-0.181934758472443,0.176725216770172,0.962694022156367
3.6952727135069647,0.11445536384582501,0.00487676496505738,-0.07235681447982771,0.962694022156367
3.695878407026045,0.219836223220825,0.0695422923088074,0.16235509958267202,0.962694022156367
3.6964841005451237,-0.0915163158416748,-0.18911981706619302,0.28450109567642196,0.962694022156367
3.697089794064203,-0.00769063224792481,-0.0358385670661926,-0.0220614043235778,0.962694022156367
3.6976954875832826,0.037814738845825195,-0.11726923112869299,0.310846310520172,0.962694022156367
3.698301181102362,-0.0843312572479248,-0.08373895769119259,0.049789181613922304,0.962694022156367
3.698906874621442,-0.148996784591675,-0.12924432878494302,0.114454708957672,0.962694022156367
3.6995125681405208,-0.0364308666229248,-0.0885289967536926,0.241390744113922,0.962694022156367
3.7001182616595996,-0.0915163158416748,0.0192468821525574,0.109664669895172,0.962694022156367
3.7007239551786797,-0.189712116622925,-0.18911981706619302,0.20786047067642202,0.962694022156367
3.701329648697759,0.00428446540832519,0.0336169993400574,0.028234005832672198,0.962694022156367
3.7019353422168377,-0.19689717521667502,-0.00470331315994262,0.0378140839576723,0.962694022156367
3.702541035735918,0.0521848560333252,-0.11487421159744299,0.054579220676422305,0.962694022156367
3.7031467292549967,0.0545798755645752,0.0288269602775574,0.20307043161392202,0.962694022156367
3.703752422774076,-0.0723561595916748,-0.0118883717536926,0.17912023630142201,0.962694022156367
3.7043581162931556,-0.101096393966675,-0.256180363941193,-0.06517175588607771,0.962694022156367
3.704963809812235,-0.000505573654174813,-0.181934758472443,0.0354190644264223,0.962694022156367
3.7055695033313136,0.0449997974395752,-0.0621837819099426,-0.0436165801048277,0.962694022156367
3.7061751968503938,-0.134626667404175,-0.019073430347442598,0.109664669895172,0.962694022156367
3.7067808903694726,-0.057986042404174806,-0.050208684253692605,0.0402091034889223,0.962694022156367
3.707386583888552,-0.0196657299041748,-0.007098332691192619,-0.06996179494857771,0.9736694731512873
3.707992277407632,-0.158576862716675,-0.0573937428474426,0.186305294895172,0.9736694731512873
3.7085979709267107,0.0952952075958252,-0.282525578784943,0.169540158176422,0.9736694731512873
3.7092036644457895,0.219836223220825,0.131812800121307,0.0665543183326723,0.9736694731512873
3.7098093579648697,-0.251982624435425,0.0863074290275574,0.102479611301422,0.9736694731512873
3.710415051483949,0.159960734939575,-0.07415887956619259,0.200675412082672,0.9736694731512873
3.7110207450030277,0.0952952075958252,0.10307256574630701,0.215045529270172,0.9736694731512873
3.711626438522108,-0.213662311935425,-0.07415887956619259,0.171935177707672,0.9736694731512873
3.7122321320411866,0.10008524665832501,-0.00949335222244262,0.18870031442642202,0.9736694731512873
3.7128378255602668,-0.0100856517791748,-0.16995966081619301,0.14319494333267202,0.9736694731512873
3.7134435190793456,0.210256145095825,-0.162774602222443,0.174330197238922,0.9736694731512873
3.714049212598425,-0.110676472091675,0.11744268293380701,0.0857144745826723,0.9736694731512873
3.714654906117504,-0.0172707103729248,-0.050208684253692605,0.0330240448951723,0.9736694731512873
3.7152605996365837,0.145590617752075,-0.08373895769119259,0.114454708957672,0.9736694731512873
3.7158662931556625,-0.0436159252166748,-0.08373895769119259,-0.0316414824485778,0.9736694731512873
3.7164719866747427,-0.050800983810424805,-0.17474969987869302,0.124034787082672,0.9736694731512873
3.717077680193822,-0.000505573654174813,0.045592096996307396,-0.060381716823577694,0.9736694731512873
3.7176833737129007,-0.170551960372925,0.09828252668380741,0.0881094941139223,0.9736694731512873
3.718289067231981,-0.0891212963104248,-0.107689153003693,0.631778927707672,0.9736694731512873
3.7188947607510596,0.195886027908325,-0.07894891862869259,0.454547482395172,0.9736694731512873
3.719500454270139,0.0833201099395752,0.0695422923088074,0.20307043161392202,0.9736694731512873
3.7201061477892186,0.0809250904083252,-0.07655389909744259,0.0234439667701722,0.9736694731512873
3.720711841308298,-0.158576862716675,-0.215465031909943,-0.0148763457298278,0.9736694731512873
3.721317534827377,-0.053196003341674805,-0.0310485280036926,0.124034787082672,0.9736694731512873
3.7219232283464567,-0.170551960372925,-0.0645788014411926,0.052184201145172304,0.9736694731512873
3.7225289218655355,-0.103491413497925,0.026431940746307402,0.0785294159889223,0.9736694731512873
3.7231346153846148,-0.0124806713104248,0.0791223704338074,0.0833194550514223,0.9736694731512873
3.723740308903695,-0.21126729240417502,0.0336169993400574,0.0449991425514223,0.9736694731512873
3.7243460024227737,0.0833201099395752,0.143787897777557,0.126429806613922,0.9736694731512873
3.724951695941853,-0.0124806713104248,-0.0334435475349426,0.18391027536392202,0.9736694731512873
3.725557389460933,-0.0244557689666748,-0.107689153003693,0.124034787082672,0.9736694731512873
3.726163082980012,-0.129836628341675,0.0336169993400574,0.0952945527076723,0.9736694731512873
3.7267687764990907,0.0186545825958252,0.0839124094963074,0.0354190644264223,0.9736694731512873
3.727374470018171,-0.0148756908416748,-0.11966425065994299,0.102479611301422,0.9736694731512873
3.72798016353725,-0.00290059318542481,-0.07176386003494259,0.327611447238922,0.9736694731512873
3.728585857056329,0.136010539627075,-0.11726923112869299,0.286896115207672,0.9736694731512873
3.7291915505754085,-0.0244557689666748,-0.29929071550369296,0.224625607395172,0.9736694731512873
3.7297972440944878,-0.0052956127166748105,0.0288269602775574,0.0186539277076722,0.9736694731512873
3.730402937613568,-0.168156940841675,-0.0597887623786926,0.0665543183326723,0.9736694731512873
3.7310086311326467,0.0234446216583252,-0.07655389909744259,0.102479611301422,0.9736694731512873
3.731614324651726,-0.244797565841675,-0.143614445972443,-0.00050622854232775,0.9736694731512873
3.732220018170806,-0.0747511791229248,0.00248174543380738,0.0689493378639223,0.9736694731512873
3.732825711689885,-0.0987013744354248,-0.052603703784942606,0.346771603488922,0.9736694731512873
3.7334314052089637,-0.342993366622925,-0.196304875659943,0.19349035348892202,0.9736694731512873
3.734037098728044,-0.0172707103729248,0.11504766340255701,0.107269650363922,0.9736694731512873
3.734642792247123,-0.0915163158416748,-0.0166784108161926,0.210255490207672,0.9736694731512873
3.735248485766202,0.061764934158325194,-0.050208684253692605,0.0162589081764222,0.9736694731512873
3.7358541792852815,-0.144206745529175,0.0168518626213074,0.23899572458267201,0.9736694731512873
3.7364598728043608,0.0976902271270752,0.0743323313713074,0.246180783176422,0.9736694731512873
3.73706556632344,0.205466106033325,-0.0214684498786926,-0.132232302761078,0.9736694731512873
3.7376712598425197,-0.050800983810424805,-0.047813664722442605,-0.0220614043235778,0.9736694731512873
3.738276953361599,-0.0699611400604248,-0.0166784108161926,0.298871212863922,0.9736694731512873
3.7388826468806777,0.0569748950958252,0.131812800121307,0.136009884738922,0.9736694731512873
3.739488340399758,-0.0292458080291748,0.10786260480880701,0.0210489472389222,0.9736694731512873
3.7400940339188367,-0.175341999435425,-0.157984563159943,0.14319494333267202,0.9736694731512873
3.740699727437916,0.116850383377075,-0.0334435475349426,0.00428381052017225,0.9736694731512873
3.741305420956996,0.00907450447082519,-0.107689153003693,0.0210489472389222,0.9736694731512873
3.741911114476075,-0.053196003341674805,-0.00949335222244262,0.112059689426422,0.9736694731512873
3.7425168079951536,0.00188944587707519,-0.07655389909744259,0.140799923801422,0.9736694731512873
3.7431225015142338,0.327612102127075,-0.054998723316192606,0.131219845676422,0.9736694731512873
3.743728195033313,0.16235575447082498,-0.0358385670661926,-0.0771468535423277,0.9736694731512873
3.744333888552392,0.23181132087707498,-0.162774602222443,0.167145138645172,0.9736694731512873
3.744939582071472,-0.0220607494354248,-0.054998723316192606,0.28450109567642196,0.9736694731512873
3.7455452755905507,-0.283117878341675,-0.162774602222443,0.0905045136451723,0.9736694731512873
3.746150969109631,0.124035441970825,0.036012018871307394,0.028234005832672198,0.9736694731512873
3.7467566626287097,-0.129836628341675,0.0479871165275574,0.0473941620826723,0.9736694731512873
3.747362356147789,0.260551555252075,-0.12924432878494302,0.0905045136451723,0.9736694731512873
3.747968049666869,-0.129836628341675,-0.0981090748786926,-0.22084802541732798,0.9736694731512873
3.748573743185948,-0.0939113353729248,0.150972956371307,0.18391027536392202,0.9736694731512873
3.7491794367050266,-0.0843312572479248,0.00487676496505738,0.665309201145172,0.9736694731512873
3.7497851302241068,-0.307068073654175,0.0503821360588074,0.24857580270767202,0.9736694731512873
3.750390823743186,0.0929001880645752,0.0288269602775574,0.0354190644264223,0.9736694731512873
3.750996517262265,-0.225637409591675,-0.102899113941193,0.0785294159889223,0.9736694731512873
3.751602210781345,-0.0436159252166748,-0.0358385670661926,0.21744054880142202,0.9736694731512873
3.7522079043004237,-0.0292458080291748,-0.105294133472443,0.121639767551422,0.9736694731512873
3.752813597819503,-0.0148756908416748,0.0767273509025574,0.0737393769264223,0.9736694731512873
3.7534192913385827,-0.0699611400604248,-0.205884953784943,0.0737393769264223,0.9736694731512873
3.754024984857662,0.11445536384582501,-0.00230829362869262,0.131219845676422,0.9736694731512873
3.7546306783767407,-0.249587604904175,-0.13882440690994302,0.215045529270172,0.9736694731512873
3.755236371895821,-0.115466511154175,-0.17953973894119302,0.0114688691139222,0.9736694731512873
3.7558420654148996,0.0545798755645752,-0.0957140553474426,-0.0963070097923277,0.9736694731512873
3.756447758933979,-0.050800983810424805,-0.26815546159744297,-0.034036501979827695,0.9736694731512873
3.757053452453059,0.11206034431457501,0.0288269602775574,0.114454708957672,0.9736694731512873
3.757659145972138,-0.170551960372925,-0.172354680347443,0.171935177707672,0.9736694731512873
3.7582648394912166,0.15756571540832498,-0.102899113941193,-0.0029012480735777497,0.9736694731512873
3.7588705330102967,-0.0987013744354248,0.0216419016838074,0.171935177707672,0.9736694731512873
3.759476226529376,0.248576457595825,0.038407038402557395,0.167145138645172,0.9736694731512873
3.7600819200484548,0.138405559158325,-0.143614445972443,0.0905045136451723,0.9736694731512873
3.760687613567535,0.0186545825958252,-0.23462518815994302,0.231810665988922,0.9736694731512873
3.7612933070866137,0.06655497322082521,-0.0597887623786926,-0.0436165801048277,0.9736694731512873
3.761899000605693,-0.000505573654174813,0.11504766340255701,0.0186539277076722,0.9736694731512873
3.7625046941247726,0.191095988845825,0.0288269602775574,0.056974240207672305,0.9736694731512873
3.763110387643852,-0.189712116622925,-0.0933190358161926,-0.0029012480735777497,0.9736694731512873
3.763716081162932,-0.158576862716675,-0.0669738209724426,0.126429806613922,0.9736694731512873
3.764321774682011,-0.144206745529175,-0.153194524097443,0.274921017551422,0.9736694731512873
3.7649274682010896,-0.0052956127166748105,-0.08134393815994259,0.15277502145767202,0.9736694731512873
3.7655331617201697,0.0593699146270752,-0.11726923112869299,0.100084591770172,0.9736694731512873
3.766138855239249,0.0952952075958252,-0.0382335865974426,0.056974240207672305,0.9736694731512873
3.7667445487583278,-0.19210713615417502,0.043197077465057396,0.109664669895172,0.9736694731512873
3.767350242277408,-0.134626667404175,0.0336169993400574,0.19828039255142202,0.9736694731512873
3.7679559357964867,0.133615520095825,-0.0382335865974426,0.23899572458267201,0.9736694731512873
3.768561629315566,0.0449997974395752,0.0336169993400574,0.0426041230201723,0.9736694731512873
3.7691673228346456,0.037814738845825195,0.040802057933807395,0.0186539277076722,0.9736694731512873
3.769773016353725,-0.24240254631042502,-0.07655389909744259,0.327611447238922,0.9736694731512873
3.7703787098728037,-0.0963063549041748,-0.00949335222244262,0.150380001926422,0.9736694731512873
3.770984403391884,-0.0388258861541748,-0.237020207691193,-0.012481326198577801,0.9736694731512873
3.7715900969109626,-0.0100856517791748,-0.160379582691193,-0.148997439479828,0.9736694731512873
3.772195790430042,0.040209758377075196,0.026431940746307402,0.0473941620826723,0.9736694731512873
3.772801483949122,0.0282346607208252,0.0671472727775574,-0.0412215605735777,0.9736694731512873
3.7734071774682008,0.0952952075958252,-0.0286535084724426,0.255760861301422,0.9736694731512873
3.7740128709872796,-0.0987013744354248,-0.177144719409943,0.301266232395172,0.9736694731512873
3.7746185645063597,-0.103491413497925,0.026431940746307402,-0.00050622854232775,0.9736694731512873
3.775224258025439,-0.0436159252166748,-0.0669738209724426,0.25097082223892203,0.9736694731512873
3.7758299515445177,-0.144206745529175,-0.00230829362869262,0.056974240207672305,0.9736694731512873
3.776435645063598,-0.144206745529175,-0.102899113941193,-0.16097253713607798,0.9736694731512873
3.7770413385826767,0.10727030525207501,-0.08134393815994259,0.100084591770172,0.9736694731512873
3.777647032101756,-0.0172707103729248,-0.107689153003693,0.792245236301422,0.9736694731512873
3.7782527256208356,-0.194502155685425,-0.12445428972244299,0.140799923801422,0.9736694731512873
3.778858419139915,0.121640422439575,0.10307256574630701,0.0857144745826723,0.9736694731512873
3.7794641126589936,0.0881101490020752,-0.0957140553474426,0.753924923801422,0.9736694731512873
3.7800698061780738,-0.0603810619354248,0.0503821360588074,0.34437658395767196,0.9736694731512873
3.7806754996971526,-0.14181172599792502,-0.105294133472443,-0.0412215605735777,0.9736694731512873
3.7812811932162327,-0.0172707103729248,0.0791223704338074,0.0641592988014223,0.9736694731512873
3.781886886735312,-0.057986042404174806,0.0192468821525574,0.171935177707672,0.9736694731512873
3.7824925802543907,0.0809250904083252,-0.08613397722244259,0.00907384958267225,0.9736694731512873
3.783098273773471,0.10248026618957501,-0.172354680347443,0.131219845676422,0.9736694731512873
3.7837039672925497,0.00907450447082519,-0.126849309253693,-0.0771468535423277,0.9736694731512873
3.784309660811629,0.0593699146270752,-0.0430236256599426,0.0641592988014223,0.9736694731512873
3.7849153543307086,-0.25916768302917503,-0.052603703784942606,0.0234439667701722,0.9736694731512873
3.785521047849788,-0.17773701896667501,-0.0238634694099426,-0.0148763457298278,0.9736694731512873
3.786126741368867,-0.0963063549041748,-0.34958612565994296,-0.0220614043235778,0.9736694731512873
3.7867324348879468,-0.0364308666229248,-0.050208684253692605,-0.16576257619857798,0.9736694731512873
3.7873381284070256,-0.0891212963104248,-0.28971063737869296,0.112059689426422,0.9736694731512873
3.787943821926105,-0.101096393966675,-0.136429387378693,-0.0531966582298277,0.9736694731512873
3.788549515445185,-0.0124806713104248,0.043197077465057396,-0.06517175588607771,0.9736694731512873
3.7891552089642637,0.121640422439575,-0.0238634694099426,-0.12504724416732801,0.9736694731512873
3.7897609024833425,0.06415995368957521,-0.0334435475349426,-0.0843319121360777,0.9736694731512873
3.7903665960024227,-0.0915163158416748,-0.11726923112869299,0.19349035348892202,0.9736694731512873
3.790972289521502,-0.0651711009979248,0.177318171215057,0.16235509958267202,0.9736694731512873
3.7915779830405807,-0.172946979904175,0.0551721751213074,0.126429806613922,0.9736694731512873
3.792183676559661,-0.0412209056854248,-0.246600285816193,-0.038826541042327696,0.9736694731512873
3.79278937007874,-0.18731709709167502,-0.24420526628494302,-0.07235681447982771,0.9736694731512873
3.7933950635978197,0.10487528572082501,0.00248174543380738,-0.0627767363548277,0.9736694731512873
3.7940007571168985,0.0306296802520752,-0.0621837819099426,0.100084591770172,0.9736694731512873
3.794606450635978,-0.0100856517791748,-0.0957140553474426,0.169540158176422,0.9736694731512873
3.795212144155058,0.07374003181457521,-0.052603703784942606,0.267735958957672,0.9736694731512873
3.7958178376741367,0.0952952075958252,-0.07176386003494259,0.0426041230201723,0.9736694731512873
3.7964235311932155,0.21744120368957498,-0.26097040300369295,0.00667883005142225,0.9736694731512873
3.7970292247122956,-0.297487995529175,0.138997858715057,-0.148997439479828,0.9736694731512873
3.797634918231375,-0.00290059318542481,0.172528132152557,0.0905045136451723,0.9736694731512873
3.7982406117504537,-0.134626667404175,-0.27055048112869295,0.255760861301422,0.9736694731512873
3.798846305269534,-0.0795412181854248,-0.0262584889411926,-0.0484066191673277,0.9736694731512873
3.799451998788613,0.0306296802520752,-0.13403436784744302,0.215045529270172,0.9736694731512873
3.800057692307692,0.229416301345825,0.0072717844963073805,0.114454708957672,0.9736694731512873
3.8006633858267715,0.16235575447082498,0.00248174543380738,0.28450109567642196,0.9736694731512873
3.801269079345851,-0.0316408275604248,-0.0382335865974426,0.0785294159889223,0.9736694731512873
3.80187477286493,0.0545798755645752,-0.0358385670661926,0.00428381052017225,0.9736694731512873
3.8024804663840097,-0.278327839279175,-0.208279973316193,0.279711056613922,0.9736694731512873
3.8030861599030885,-0.0723561595916748,-0.0334435475349426,0.059369259738922306,0.9736694731512873
3.8036918534221678,-0.189712116622925,-0.153194524097443,0.15277502145767202,0.9736694731512873
3.804297546941248,-0.19210713615417502,-0.11726923112869299,0.21265050973892202,0.9736694731512873
3.8049032404603267,-0.122651569747925,-0.07176386003494259,0.18391027536392202,0.9736694731512873
3.805508933979406,-0.19210713615417502,-0.0118883717536926,0.112059689426422,0.9736694731512873
3.806114627498486,-0.0987013744354248,-0.222650090503693,0.171935177707672,0.9736694731512873
3.806720321017565,0.00907450447082519,-0.0573937428474426,-0.0819368926048277,0.9736694731512873
3.8073260145366437,0.0162595630645752,0.10307256574630701,-0.06756677541732771,1.2683757345402684
3.807931708055724,0.0809250904083252,-0.08373895769119259,0.124034787082672,1.2683757345402684
3.808537401574803,0.12643046150207501,-0.047813664722442605,-0.117862185573578,1.2683757345402684
3.809143095093882,-0.24719258537292502,-0.0382335865974426,0.375511837863922,1.2683757345402684
3.809748788612962,0.0545798755645752,-0.148404485034943,0.852120724582672,1.2683757345402684
3.8103544821320408,0.11206034431457501,-0.165169621753693,0.246180783176422,1.2683757345402684
3.810960175651121,0.0258396411895752,-0.107689153003693,-0.189712771511078,1.2683757345402684
3.8115658691701997,0.174330852127075,-0.306475774097443,0.186305294895172,1.2683757345402684
3.812171562689279,0.188700969314575,-0.16995966081619301,-0.0819368926048277,1.2683757345402684
3.812777256208359,-0.0148756908416748,0.11265264387130701,-0.328623904323578,1.2683757345402684
3.813382949727438,-0.115466511154175,-0.0238634694099426,-0.362154177761078,1.2683757345402684
3.8139886432465167,-0.127441608810425,-0.07894891862869259,-0.0915169707298277,1.2683757345402684
3.814594336765597,-0.0412209056854248,0.162948054027557,0.164750119113922,1.2683757345402684
3.815200030284676,-0.053196003341674805,-0.0933190358161926,0.102479611301422,1.2683757345402684
3.815805723803755,-0.362153522872925,0.0336169993400574,0.0306290253639222,1.2683757345402684
3.816411417322835,0.155170695877075,0.00487676496505738,0.056974240207672305,1.2683757345402684
3.8170171108419138,0.145590617752075,-0.313660832691193,0.119244748020172,1.2683757345402684
3.817622804360993,-0.168156940841675,-0.155589543628693,-0.10109704885482801,1.2683757345402684
3.8182284978800727,0.11206034431457501,-0.0933190358161926,0.059369259738922306,1.2683757345402684
3.818834191399152,0.0138645435333252,0.10546758527755701,0.0162589081764222,1.2683757345402684
3.8194398849182307,-0.046010944747924803,-0.0286535084724426,0.0114688691139222,1.2683757345402684
3.820045578437311,-0.165761921310425,-0.11008417253494299,0.21744054880142202,1.2683757345402684
3.8206512719563896,-0.0364308666229248,0.0695422923088074,0.15756506052017202,1.2683757345402684
3.821256965475469,-0.0436159252166748,-0.26815546159744297,0.176725216770172,1.2683757345402684
3.821862658994549,0.119245402908325,-0.17474969987869302,-0.0292464629173278,1.2683757345402684
3.822468352513628,-0.163366901779175,-0.157984563159943,-0.0148763457298278,1.2683757345402684
3.8230740460327066,-0.0723561595916748,-0.203489934253693,0.224625607395172,1.2683757345402684
3.8236797395517867,-0.0987013744354248,-0.150799504566193,0.0737393769264223,1.2683757345402684
3.824285433070866,-0.160971882247925,-0.0382335865974426,0.14319494333267202,1.2683757345402684
3.824891126589945,-0.06277608146667481,8.67259025573771e-05,0.210255490207672,1.2683757345402684
3.825496820109025,-0.19689717521667502,-0.220255070972443,-0.0627767363548277,1.2683757345402684
3.8261025136281037,0.06415995368957521,-0.00230829362869262,-0.0579866972923277,1.2683757345402684
3.826708207147184,-0.249587604904175,-0.105294133472443,0.107269650363922,1.2683757345402684
3.8273139006662626,0.18151591072082499,-0.181934758472443,0.231810665988922,1.2683757345402684
3.827919594185342,-0.158576862716675,-0.220255070972443,0.0809244355201723,1.2683757345402684
3.828525287704422,-0.144206745529175,-0.296895695972443,-0.0987020293235777,1.2683757345402684
3.829130981223501,-0.0987013744354248,0.0719373118400574,0.0905045136451723,1.2683757345402684
3.8297366747425796,-0.0963063549041748,0.273118952465057,0.174330197238922,1.2683757345402684
3.8303423682616597,0.0857151294708252,0.17013311262130698,0.298871212863922,1.2683757345402684
3.830948061780739,-0.251982624435425,-0.222650090503693,-0.0555916777610777,1.2683757345402684
3.831553755299818,-0.295092975997925,-0.16995966081619301,-0.491485232448578,1.2683757345402684
3.832159448818898,-0.402868854904175,0.0312219798088074,-0.24000818166732799,1.2683757345402684
3.8327651423379767,-0.0100856517791748,0.325809382152557,0.131219845676422,1.2683757345402684
3.833370835857056,0.07374003181457521,0.294674128246307,0.634173947238922,1.2683757345402684
3.8339765293761356,0.346772258377075,0.0216419016838074,0.495262814426422,1.2683757345402684
3.834582222895215,0.128825481033325,-0.483707219409943,-0.144207400417328,1.2683757345402684
3.8351879164142937,-0.25916768302917503,-0.672913762378693,-0.46514001760482804,1.2683757345402684
3.835793609933374,-0.577705280685425,0.194083307933807,-0.369339236354828,1.2683757345402684
3.8363993034524526,-0.326228229904175,0.361734675121307,-0.163367556667328,1.2683757345402684
3.837004996971532,0.437783000564575,0.699432429027557,0.361141720676422,1.2683757345402684
3.837610690490612,0.840146281814575,0.177318171215057,1.1562882050514198,1.2683757345402684
3.838216384009691,0.658124797439575,-0.634593449878693,-0.19689783010482798,1.2683757345402684
3.8388220775287696,-0.881872761154175,-0.435806828784943,-1.08305505666733,1.2683757345402684
3.8394277710478497,-1.1573000072479198,-0.0262584889411926,-0.06517175588607771,1.2683757345402684
3.840033464566929,-0.457954304122925,0.455140436840057,0.38269689645767196,1.2683757345402684
3.8406391580860078,0.708420207595825,0.8503186594963069,0.993426876926422,1.2683757345402684
3.841244851605088,1.3742356372833302,0.18450322980880698,0.770690060520172,1.2683757345402684
3.8418505451241667,0.773085734939575,-0.347191106128693,-0.0148763457298278,1.2683757345402684
3.842456238643246,-0.730986530685425,-1.19502802019119,-0.982464236354828,1.2683757345402684
3.8430619321623256,-1.7033644603729199,-0.538792668628693,-1.58840417776108,1.2683757345402684
3.843667625681405,-0.644765827560425,0.553336237621307,-0.10349206838607801,1.2683757345402684
3.844273319200485,0.631779582595825,0.943724421215057,1.44848058786392,1.2683757345402684
3.844879012719564,1.39339579353333,1.05150030012131,1.49877599802017,1.2683757345402684
3.8454847062386426,0.828171184158325,-0.177144719409943,0.22223058786392202,1.2683757345402684
3.8460903997577227,-0.280722858810425,-1.4920104420661902,-1.6075643340110801,1.2683757345402684
3.846696093276802,-1.7249196361541699,-0.881280461597443,-1.61474939260483,1.2683757345402684
3.8473017867958808,-1.17646016349792,0.900614069652557,-0.378919314479828,1.2683757345402684
3.847907480314961,0.660519816970825,1.43230840559006,1.0700675019264199,1.2683757345402684
3.8485131738340397,1.83886942634583,0.876663874340057,1.5059610566139199,1.2683757345402684
3.849118867353119,1.73588358650208,-0.737579289722443,0.579088498020172,1.2683757345402684
3.8497245608721986,-0.35975850334167503,-1.49440546159744,-1.0686849394798301,1.2683757345402684
3.850330254391278,-1.93328633537292,-0.344796086597443,-1.91173181447983,1.2683757345402684
3.8509359479103566,-2.20631856193542,0.998809870433807,-1.0686849394798301,1.2683757345402684
3.851541641429437,0.27971171150207497,1.02276006574631,0.603038693332672,1.2683757345402684
3.8521473349485156,2.4855246997833302,0.373709772777557,2.04963049020767,1.2683757345402684
3.852753028467595,2.44480936775208,-0.474127141284943,0.818590451145172,1.2683757345402684
3.853358721986675,-0.046010944747924803,-1.0297716725349402,-1.0854500761985801,1.2683757345402684
3.8539644155057537,-2.67095235099792,-0.311265813159943,-1.73210534963608,1.2683757345402684
3.8545701090248325,-2.89129414787292,0.47909063215255704,-1.37285241994858,1.2683757345402684
3.8551758025439127,0.119245402908325,0.42879522199630704,0.514422970676422,1.2683757345402684
3.855781496062992,2.57174540290833,0.574891413402557,1.8484488495826699,1.2683757345402684
3.8563871895820707,2.59090555915833,0.12223272199630701,1.49638097848892,1.2683757345402684
3.856992883101151,0.00188944587707519,-0.577112981128693,-0.13702234182357798,1.2683757345402684
3.8575985766202296,-2.5440163158416698,-1.13036249284744,-2.29972497854233,1.2683757345402684
3.8582042701393098,-2.72603780021667,-0.7088390553474431,-2.24942956838608,1.2683757345402684
3.8588099636583886,-0.29988301506042503,0.407240046215057,0.459337521457672,1.2683757345402684
3.859415657177468,2.01610087165833,1.51613408918381,2.40888341989517,1.2683757345402684
3.860021350696547,2.43522928962708,1.11377080793381,1.97538488473892,1.2683757345402684
3.8606270442156267,0.713210246658325,-0.876490422534943,-0.0891219511985777,1.2683757345402684
3.8612327377347055,-1.67222920646667,-2.18177606706619,-2.80507409963608,1.2683757345402684
3.8618384312537857,-2.84099873771667,-1.08006708269119,-2.51527673635483,1.2683757345402684
3.862444124772865,-1.42075215568542,1.2023865305900598,0.164750119113922,1.2683757345402684
3.8630498182919437,1.3502854419708301,2.21068975324631,2.11190099802017,1.2683757345402684
