Time (s),Accel X (m/s^2),Accel Y (m/s^2),Accel Z (m/s^2)
3.933375,0.177041434192657,0.23979553012847898,0.0370559105873106
3.933980693519079,-0.11275592908859301,0.117649534034729,0.0394509301185606
3.9345863870381583,0.153091238880157,-0.014076540184021,0.149621828556061
3.935192080557238,0.0501053990364075,-0.038026735496521,0.0993264183998106
3.9357977740763173,-0.0864107142448425,-0.145802614402771,0.0562160668373106
3.9364034675953965,0.0764506138801575,-0.083532106590271,0.18554712152481098
3.9370091611144757,-0.0552754603385925,0.031428830909729,0.0298708519935606
3.9376148546335554,-0.10317585096359301,-0.035631715965270996,0.101721437931061
3.9382205481526347,-0.0600654994010925,-0.22723327846527103,0.38912378168106104
3.938826241671714,0.047710379505157496,-0.018866579246521,0.0370559105873106
3.939431935190793,0.0884257115364075,0.076934202003479,-0.152150632381439
3.940037628709873,-0.016955147838592498,0.115254514503479,-0.0587448706626894
3.940643322228952,-0.117545968151093,-0.023656618309021,0.0586110863685606
3.9412490157480313,-0.004980050182342539,-0.040421755027771,0.113696535587311
3.9418547092671106,-0.18460651502609302,0.096094358253479,0.211892336368561
3.9424604027861903,-0.028930245494842497,0.227820432472229,0.16638696527481098
3.9430660963052695,0.0620804966926575,0.103279416847229,-0.106645261287689
3.9436717898243487,-0.11275592908859301,-0.196098024559021,-0.235976315975189
3.944277483343428,-0.268432198619843,-0.28950378627777096,0.518454836368561
3.9448831768625072,-0.050485421276092506,-0.15777771205902102,0.209497316837311
3.945488870381587,-0.004980050182342539,0.060169065284729,0.0011306176185605702
3.946094563900666,-0.124731026744843,0.218240354347229,0.24542260980606098
3.9467002574197454,0.0237601841926575,-0.093112184715271,0.305298098087311
3.9473059509388246,0.00220500841140746,-0.052396852684021,0.353198488712311
3.9479116444579043,-0.016955147838592498,0.067354123878479,0.08495630121231061
3.9485173379769836,-0.00258503065109254,0.043403928565979,-0.0132394995689394
3.949123031496063,-0.045695382213592504,0.163154905128479,-0.0036594214439394303
3.949728725015142,-0.0624605189323425,0.036218869972229,0.202312258243561
3.9503344185342217,-0.0864107142448425,-0.20807312221527102,0.06340112543106059
3.950940112053301,-0.0241402064323425,0.072144162940979,0.13525171136856098
3.95154580557238,0.0357352818489075,0.052984006690979,0.142436769962311
3.9521514990914595,-0.25645710096359303,-0.014076540184021,0.08256128168106061
3.952757192610539,-0.0576704798698425,0.00747863559722901,0.06579614496231061
3.9533628861296184,0.126746024036407,-0.23441833705902101,-0.0252145972251894
3.9539685796486976,-0.0552754603385925,-0.229628297996521,-0.0300046362876894
3.954574273167777,0.0572904576301575,-0.085927126121521,-0.149755612850189
3.955179966686856,-0.122336007213593,0.134414670753479,0.168781984806061
3.955785660205936,-0.170236397838593,-0.059581911277771,0.07537622308731061
3.956391353725015,-0.0600654994010925,-0.040421755027771,0.013105715274810598
3.9569970472440943,0.117165945911407,0.00268859653472901,0.168781984806061
3.9576027407631735,-0.0121651087760925,-0.014076540184021,0.06340112543106059
3.958208434282253,-0.0864107142448425,0.031428830909729,0.36038354730606104
3.9588141278013325,0.143511160755157,-0.057186891746521,0.22626245355606098
3.9594198213204117,0.102795828723907,-0.109877321434021,0.025080812931060598
3.960025514839491,-0.004980050182342539,-0.12903747768402102,0.149621828556061
3.9606312083585706,-0.10317585096359301,0.09848937778472901,0.16638696527481098
3.96123690187765,-0.07204059705734249,0.033823850440979,0.142436769962311
3.961842595396729,-0.10557087049484301,-0.057186891746521,0.09214135980606061
3.9624482889158084,0.0788456334114075,-0.018866579246521,0.207102297306061
3.9630539824348876,0.157881277942657,0.057774045753479004,0.149621828556061
3.9636596759539673,-0.167841378307343,0.062564084815979,0.211892336368561
3.9642653694730465,-0.00258503065109254,0.081724241065979,0.159201906681061
3.9648710629921258,0.0764506138801575,-0.045211794090271,-0.0539548316001894
3.965476756511205,-0.07922565565109249,-0.196098024559021,0.43941919183731104
3.9660824500302847,-0.07443561658859249,-0.172147829246521,0.149621828556061
3.966688143549364,-0.227716866588593,-0.16735779018402103,0.008315676212310571
3.967293837068443,-0.07683063611984249,0.22542541294097898,0.204707277774811
3.9678995305875224,0.026155203723907502,0.23021545200347898,0.295718019962311
3.968505224106602,-0.124731026744843,-0.124247438621521,0.0993264183998106
3.9691109176256814,-0.0217451869010925,-0.085927126121521,0.0993264183998106
3.9697166111447606,0.045315359973907496,0.079329221534729,0.257397707462311
3.97032230466384,0.16985637559890698,0.10088439731597901,0.159201906681061
3.970927998182919,0.16506633653640698,0.108069455909729,0.27176782464981103
3.9715336917019988,0.0213651646614075,-0.155382692527771,0.152016848087311
3.972139385221078,-0.19897663221359302,-0.24878845424652102,0.255002687931061
3.9727450787401573,0.09800578966140751,-0.071557008934021,0.207102297306061
3.9733507722592365,-0.0145601283073425,0.16075988559722898,0.149621828556061
3.973956465778316,-0.165446358776093,0.069749143409729,-0.0707199683189394
3.9745621592973954,0.131536063098907,-0.164962770652771,0.396308840274811
3.9751678528164747,0.0213651646614075,-0.026051637840270998,0.156806887149811
3.975773546335554,-0.0983858119010925,0.120044553565979,-0.0635349097251894
3.9763792398546336,-0.0864107142448425,0.120044553565979,0.255002687931061
3.976984933373713,0.0189701451301575,0.086514280128479,-0.0659299292564394
3.977590626892792,-0.177421456432343,-0.059581911277771,-0.0611398901939394
3.9781963204118713,-0.0313252650260925,-0.17454284877777101,-0.00605444097518943
3.9788020139309506,-0.0409053431510925,-0.040421755027771,0.013105715274810598
3.9794077074500303,0.00939006700515746,-0.042816774559021,0.08016626214981061
3.9800134009691095,0.136326102161407,-0.097902223777771,0.25979272699356104
3.9806190944881887,-0.0265352259635925,-0.141012575340271,0.168781984806061
3.981224788007268,0.153091238880157,-0.16735779018402103,0.11848657464981101
3.9818304815263477,-0.050485421276092506,-0.045211794090271,0.08735132074356061
3.982436175045427,-0.048090401744842505,0.096094358253479,0.0969313988685606
3.983041868564506,-0.0265352259635925,0.088909299659729,0.168781984806061
3.9836475620835854,-0.07683063611984249,-0.131432497215271,0.108906496524811
3.9842532556026646,0.162671317005157,-0.014076540184021,0.0370559105873106
3.9848589491217443,-0.0241402064323425,0.153574827003479,0.31008813714981104
3.9854646426408236,-0.136706124401093,0.108069455909729,0.147226809024811
3.986070336159903,-0.0361153040885925,-0.052396852684021,-0.00126440191268943
3.986676029678982,-0.00258503065109254,-0.021261598777771,0.111301516056061
3.9872817231980617,0.030945242786407503,-0.18891296596527102,0.168781984806061
3.987887416717141,0.0548954380989075,-0.042816774559021,0.355593508243561
3.98849311023622,0.0165751255989075,0.048193967628479,0.298113039493561
3.9890988037552995,0.121955984973907,-0.14819763393402102,0.111301516056061
3.989704497274379,0.129141043567657,-0.196098024559021,0.216682375431061
3.9903101907934584,-0.218136788463593,-0.150592653465271,0.26937280511856104
3.9909158843125376,-0.242086983776093,-0.112272340965271,0.197522219181061
3.991521577831617,-0.06725055799484249,-0.107482301902771,0.178362062931061
3.9921272713506966,0.0525004185676575,0.139204709815979,0.101721437931061
3.992732964869776,-0.10796589002609301,-0.150592653465271,0.0418459496498106
3.993338658388855,-0.0337202845573425,-0.100297243309021,0.307693117618561
3.9939443519079343,-0.07204059705734249,0.124834592628479,0.250212648868561
3.9945500454270135,-0.251667061901093,-0.00689148159027099,0.197522219181061
3.995155738946093,-0.0624605189323425,0.127229612159729,0.348408449649811
3.9957614324651725,0.014180106067657499,-0.236813356590271,0.357988527774811
3.9963671259842517,0.0548954380989075,-0.181727907371521,-0.0443747534751894
3.996972819503331,0.162671317005157,-0.12903747768402102,-0.0850900855064394
3.9975785130224106,-0.06964557752609249,-0.253578493309021,0.403493898868561
3.99818420654149,-0.299567452526093,-0.155382692527771,0.027475832462310598
3.998789900060569,-0.0409053431510925,-0.17933288784027102,0.113696535587311
3.9993955935796484,-0.000190011119842542,0.041008909034729,0.16638696527481098
4.000001287098728,-0.10796589002609301,-0.095507204246521,0.142436769962311
4.000606980617807,-0.0217451869010925,-0.083532106590271,-0.144965573787689
4.0012126741368865,-0.0912007533073425,-0.047606813621521,0.0514260277748106
4.001818367655966,0.0812406529426575,0.120044553565979,0.403493898868561
4.002424061175045,0.12435100450515699,-0.00449646205902099,0.243027590274811
4.003029754694125,-0.131916085338593,-0.191307985496521,0.396308840274811
4.003635448213204,-0.12952106580734302,0.00508361606597901,0.257397707462311
4.004241141732283,-0.028930245494842497,-0.016471559715271,0.736401613712311
4.004846835251363,0.09561077013015751,0.00747863559722901,0.8944729027748111
4.005452528770442,0.21536174669265698,-0.00928650112152099,0.324458254337311
4.006058222289521,-0.0241402064323425,-0.131432497215271,0.34122339105606103
4.006663915808601,-0.06725055799484249,-0.105087282371521,0.216682375431061
4.00726960932768,-0.050485421276092506,-0.088322145652771,0.223867434024811
4.0078753028467595,-0.232506905651093,0.13680969028472897,0.18554712152481098
4.008480996365838,-0.0624605189323425,-0.040421755027771,-0.0276096167564394
4.009086689884918,-0.131916085338593,-0.291898805809021,0.015500734806060599
4.009692383403998,-0.175026436901093,-0.040421755027771,0.0322658715248106
4.0102980769230765,-0.122336007213593,0.16075988559722898,0.0993264183998106
4.010903770442156,0.0908207310676575,0.124834592628479,0.187942141056061
4.011509463961236,-0.11275592908859301,-0.121852419090271,0.14004175043106099
4.012115157480315,-0.0528804408073425,0.024243772315979,-0.018029538631439402
4.012720850999394,-0.0361153040885925,-0.119457399559021,0.202312258243561
4.013326544518473,0.133931082630157,-0.15777771205902102,0.346013430118561
4.013932238037553,0.0764506138801575,-0.00689148159027099,0.19033716058731098
4.0145379315566325,-0.0217451869010925,-0.176937868309021,0.137646730899811
4.015143625075711,0.0333402623176575,-0.164962770652771,0.276557863712311
4.015749318594791,-0.175026436901093,0.00747863559722901,0.192732180118561
4.01635501211387,-0.191791573619843,0.084119260597229,0.159201906681061
4.0169607056329495,-0.20376667127609302,0.10088439731597901,0.17117700433731098
4.017566399152029,-0.0600654994010925,0.14638976840972898,0.0945363793373106
4.018172092671108,-0.0888057337760925,0.069749143409729,0.36038354730606104
4.018777786190188,0.0333402623176575,0.074539182472229,0.28134790277481103
4.019383479709267,-0.0624605189323425,0.036218869972229,0.0993264183998106
4.019989173228346,0.026155203723907502,0.074539182472229,-0.0132394995689394
4.020594866747426,0.0237601841926575,-0.018866579246521,0.0178957543373106
4.021200560266505,-0.043300362682342504,-0.114667360496521,0.12088159418106101
4.021806253785584,0.0596854771614075,-0.059581911277771,0.14004175043106099
4.022411947304664,-0.00977008924484254,0.074539182472229,0.262187746524811
4.023017640823743,-0.0313252650260925,0.050588987159729,0.111301516056061
4.0236233343428225,-0.0600654994010925,-0.13861755580902102,0.0226857933998106
4.024229027861902,0.107585867786407,-0.033236696434020996,0.128066652774811
4.024834721380981,0.0836356724739075,-0.057186891746521,0.101721437931061
4.025440414900061,-0.048090401744842505,0.105674436378479,0.211892336368561
4.0260461084191395,-0.050485421276092506,0.062564084815979,0.17117700433731098
4.026651801938219,0.00699504747390746,-0.224838258934021,0.0945363793373106
4.027257495457299,0.126746024036407,-0.270343630027771,-0.101855222225189
4.027863188976378,0.0788456334114075,-0.20328308315277102,0.0442409691810606
4.028468882495457,-0.045695382213592504,-0.076347047996521,0.192732180118561
4.029074576014536,0.131536063098907,0.086514280128479,0.07058618402481061
4.029680269533616,0.157881277942657,0.134414670753479,0.108906496524811
4.0302859630526955,-0.11036090955734301,-0.205678102684021,0.113696535587311
4.030891656571774,0.0716605748176575,-0.13382751674652102,0.0538210473060606
4.031497350090854,-0.0528804408073425,0.033823850440979,0.142436769962311
4.032103043609934,0.0788456334114075,0.158364866065979,-0.0539548316001894
4.0327087371290125,0.181831473255157,0.139204709815979,0.484924562931061
4.033314430648092,0.00699504747390746,-0.040421755027771,0.18554712152481098
4.033920124167171,-0.146286202526093,-0.042816774559021,-0.568884030818939
4.034525817686251,-0.11036090955734301,-0.097902223777771,0.678921144962311
4.035131511205329,-0.07683063611984249,-0.038026735496521,0.427444094181061
4.035737204724409,-0.119940987682343,-0.00928650112152099,0.06819116449356061
4.036342898243489,-0.23969196424484301,-0.27752868862152097,0.233447512149811
4.036948591762568,-0.251667061901093,-0.12903747768402102,0.0178957543373106
4.037554285281647,-0.117545968151093,0.120044553565979,0.255002687931061
4.038159978800727,-0.278012276744843,-0.038026735496521,0.41067895746231103
4.038765672319806,-0.0337202845573425,-0.054791872215271,0.113696535587311
4.0393713658388855,0.030945242786407503,-0.042816774559021,0.214287355899811
4.039977059357965,0.114770926380157,-0.131432497215271,0.302903078556061
4.040582752877044,0.0788456334114075,0.13201965122222897,0.209497316837311
4.041188446396124,0.145906180286407,0.112859494972229,0.125671633243561
4.041794139915202,0.133931082630157,-0.13382751674652102,0.025080812931060598
4.042399833434282,-0.016955147838592498,-0.011681520652771001,0.11609155511856101
4.043005526953362,0.0189701451301575,-0.016471559715271,0.142436769962311
4.043611220472441,-0.0265352259635925,-0.08113708705902099,0.317273195743561
4.04421691399152,-0.0864107142448425,0.213450315284729,0.357988527774811
4.0448226075106,-0.0912007533073425,0.17033996372222898,0.192732180118561
4.045428301029679,0.0932157505989075,0.16554992465972898,0.101721437931061
4.046033994548758,-0.10317585096359301,-0.047606813621521,0.357988527774811
4.046639688067838,-0.196581612682343,-0.141012575340271,0.25260766839981097
4.047245381586917,-0.0409053431510925,0.18471008090972899,0.255002687931061
4.047851075105996,-0.043300362682342504,-0.014076540184021,0.228657473087311
4.048456768625075,-0.119940987682343,-0.059581911277771,0.324458254337311
4.049062462144155,-0.0337202845573425,0.050588987159729,0.159201906681061
4.049668155663234,-0.275617257213593,0.086514280128479,0.0466359887123106
4.050273849182314,-0.237296944713593,-0.085927126121521,0.08974634027481061
4.050879542701393,0.112375906848907,0.055379026222229004,0.298113039493561
4.051485236220472,0.16985637559890698,-0.018866579246521,0.223867434024811
4.052090929739552,0.00699504747390746,-0.114667360496521,-0.041979733943939404
4.052696623258631,0.105190848255157,-0.16256775112152103,0.049031008243560596
4.05330231677771,-0.0888057337760925,-0.028446657371520998,0.08735132074356061
4.05390801029679,-0.285197335338593,0.017058713722229002,0.286137941837311
4.054513703815869,0.030945242786407503,-0.114667360496521,0.18554712152481098
4.055119397334948,-0.0361153040885925,-0.047606813621521,0.288532961368561
4.055725090854028,-0.0576704798698425,-0.00449646205902099,0.106511476993561
4.056330784373107,0.047710379505157496,-0.13382751674652102,0.243027590274811
4.056936477892187,0.030945242786407503,0.021848752784729,0.16159692621231098
4.057542171411266,-0.151076241588593,0.105674436378479,0.0226857933998106
4.058147864930345,-0.08401569471359249,-0.22244323940277103,0.298113039493561
4.058753558449425,-0.10796589002609301,-0.13382751674652102,0.111301516056061
4.059359251968504,-0.11275592908859301,-0.205678102684021,0.12327661371231101
4.059964945487583,0.0165751255989075,-0.00928650112152099,0.33164331293106103
4.060570639006663,0.200991629505157,-0.085927126121521,0.156806887149811
4.061176332525742,-0.175026436901093,-0.136222536277771,0.295718019962311
4.0617820260448205,-0.227716866588593,0.124834592628479,0.12088159418106101
4.062387719563901,0.196201590442657,-0.14340759487152102,0.025080812931060598
4.06299341308298,-0.18460651502609302,-0.085927126121521,0.578330324649811
4.063599106602059,0.09800578966140751,-0.07874206752777099,0.156806887149811
4.064204800121139,0.0764506138801575,-0.12903747768402102,0.013105715274810598
4.064810493640218,-0.206161690807343,0.041008909034729,0.07777124261856061
4.065416187159297,-0.0912007533073425,0.139204709815979,0.0011306176185605702
4.0660218806783766,-0.0552754603385925,0.163154905128479,0.334038332462311
4.066627574197456,-0.0241402064323425,-0.045211794090271,-0.0036594214439394303
4.067233267716535,0.0357352818489075,-0.332614137840271,0.18075708246231098
4.067838961235615,-0.141496163463593,-0.126642458152771,0.336433351993561
4.0684446547546935,-0.0552754603385925,-0.028446657371520998,0.015500734806060599
4.069050348273773,0.0908207310676575,-0.00449646205902099,0.144831789493561
4.069656041792853,-0.158261300182343,0.194290159034729,-0.00844946050643943
4.070261735311932,-0.043300362682342504,-0.033236696434020996,0.0610061058998106
4.070867428831012,-0.14389118299484302,-0.126642458152771,0.238237551212311
4.071473122350091,-0.177421456432343,-0.085927126121521,0.276557863712311
4.07207881586917,0.0381303013801575,0.10088439731597901,0.08256128168106061
4.0726845093882496,0.265657156848907,0.043403928565979,-0.00126440191268943
4.073290202907329,-0.299567452526093,-0.155382692527771,0.154411867618561
4.073895896426408,-0.220531807994843,-0.291898805809021,-0.12101537847518899
4.074501589945488,0.0117850865364075,-0.176937868309021,-0.08988012456893939
4.0751072834645665,-0.06725055799484249,0.120044553565979,0.216682375431061
4.075712976983646,0.00699504747390746,0.086514280128479,0.257397707462311
4.076318670502726,-0.170236397838593,-0.016471559715271,0.0945363793373106
4.076924364021805,0.121955984973907,0.00987365512847901,0.19512719964981098
4.0775300575408835,-0.292382393932343,-0.246393434715271,0.204707277774811
4.078135751059964,-0.06725055799484249,0.143994748878479,-0.0611398901939394
4.078741444579043,-0.00258503065109254,-0.00689148159027099,0.152016848087311
4.079347138098122,-0.160656319713593,-0.279923708152771,0.08495630121231061
4.079952831617202,-0.122336007213593,0.041008909034729,0.008315676212310571
4.080558525136281,-0.218136788463593,0.14159972934722898,-0.08748510503768939
4.08116421865536,0.143511160755157,0.017058713722229002,0.214287355899811
4.0817699121744395,-0.227716866588593,0.067354123878479,0.381938723087311
4.082375605693519,-0.167841378307343,0.055379026222229004,-0.161730710506439
4.082981299212598,-0.0265352259635925,-0.323034059715271,0.31966821527481104
4.083586992731678,0.22015178575515698,0.081724241065979,-0.0850900855064394
4.0841926862507565,0.0525004185676575,-0.306268922996521,0.12327661371231101
4.084798379769836,-0.222926827526093,0.376311643409729,0.00352563714981057
4.085404073288916,0.0908207310676575,0.105674436378479,-0.0635349097251894
4.086009766807995,-0.11036090955734301,-0.593671266746521,0.0945363793373106
4.086615460327075,-0.14389118299484302,0.232610471534729,-0.271901608943939
4.087221153846154,-0.00737506971359254,-0.21765320034027102,0.542405031681061
4.087826847365233,0.0932157505989075,0.15596984653472898,-0.180890866756439
4.0884325408843125,0.0812406529426575,-0.097902223777771,0.13046167230606098
4.089038234403392,-0.10317585096359301,-0.6846820089340211,0.25979272699356104
4.089643927922471,-0.170236397838593,0.462532346534729,-0.0443747534751894
4.090249621441551,0.045315359973907496,0.21584533481597898,0.511269777774811
4.0908553149606295,-0.182211495494843,-0.500265505027771,-0.15933569097518901
4.091461008479709,0.09800578966140751,-0.14819763393402102,0.453789309024811
4.092066701998789,0.145906180286407,0.13201965122222897,0.013105715274810598
4.092672395517868,0.0572904576301575,-0.014076540184021,0.336433351993561
4.0932780890369465,0.0620804966926575,-0.038026735496521,0.00352563714981057
4.093883782556027,0.0572904576301575,-0.756532594871521,-0.425182858943939
4.094489476075106,-0.0409053431510925,0.093699338722229,0.307693117618561
4.095095169594185,0.09561077013015751,0.6924542215347289,0.475344484806061
4.095700863113265,0.251287039661407,-0.881073610496521,0.745981691837311
4.096306556632344,-0.222926827526093,-0.026051637840270998,-0.566489011287689
4.096912250151423,0.33990276231765804,0.31164611606597903,0.111301516056061
4.0975179436705025,0.0596854771614075,-0.32782409877777097,0.22626245355606098
4.098123637189582,0.0908207310676575,0.558333127784729,-0.473083249568939
4.098729330708661,-0.270827218151093,-0.7086322042465211,0.262187746524811
4.099335024227741,0.373433035755158,-0.356564333152771,-0.00126440191268943
4.0999407177468195,0.17464641466140698,1.11158263950348,-0.195260983943939
4.100546411265899,-0.225321847057343,-0.272738649559021,-0.829941159725189
4.101152104784979,0.318347586536408,-1.12057556362152,0.6741311058998111
4.101757798304058,-0.222926827526093,0.43139709262847903,-0.18807592535018902
4.102363491823136,0.042920340442657495,0.361941526222229,-0.619179440975189
4.102969185342217,-0.0217451869010925,0.024243772315979,0.8130422387123111
4.103574878861296,0.445283621692658,0.072144162940979,-0.171310788631439
4.1041805723803755,-0.352257882213592,-1.5564691183090198,0.06819116449356061
4.104786265899455,-0.574994698619843,1.55226623325348,-0.11622533941268899
4.105391959418534,0.284817313098907,0.979856565284729,1.34952661371231
4.105997652937614,-0.548649483776093,-1.77681091518402,-1.13410864019394
4.1066033464566924,0.335112723255158,0.582283323097229,-1.16045385503769
4.107209039975772,-0.436083565807342,-0.093112184715271,1.19145532464981
4.107814733494852,0.258472098255157,0.7858599832534789,-1.12692358160019
4.108420427013931,-0.00977008924484254,-0.083532106590271,0.978298586368561
4.109026120533009,-0.32830768690109197,-2.1983343526840198,-0.6215744605064389
4.10963181405209,1.0392484654426601,0.936746213722229,0.353198488712311
4.110237507571169,-0.8001265345573431,2.34741271762848,0.11848657464981101
4.110843201090248,0.404568289661408,-1.85824157924652,-0.6024143042564389
4.111448894609328,-0.517514229869843,-1.29780700893402,1.6249538598060602
4.112054588128407,0.497974051380158,2.61086486606598,-2.1879172339439403
4.112660281647486,0.126746024036407,-1.5852093526840199,1.5531032738685602
4.1132659751665654,-0.294777413463593,1.5498712137222301,-1.14847875738144
4.113871668685645,0.356667899036408,-2.1743841573715197,0.506479738712311
4.114477362204724,-0.850421944713593,-1.07028015346527,-0.0779050269126894
4.115083055723804,0.9961381138801569,4.77356750278473,0.25260766839981097
4.115688749242882,-0.32830768690109197,-2.4905267354965197,1.06451928949356
4.116294442761962,-0.167841378307343,-1.4534832784652698,-2.6669211401939403
4.116900136281042,0.303977469348907,0.9080059793472289,2.36501489496231
4.117505829800121,-0.34986286268234196,0.522407834815979,-1.06704809331894
4.1181115233192,0.38061809434890803,0.8313653543472289,0.825017336368561
4.11871721683828,-0.424108468151092,-1.10860046596527,0.0562160668373106
4.119322910357359,-0.0121651087760925,-2.03068298549652,-1.2730197730064399
4.1199286038764384,-0.313937569713592,2.9509576395034802,1.3231813988685601
4.120534297395518,0.483603934192658,1.03494201450348,-0.0683249487876894
4.121139990914597,-0.6612154017448431,-3.44374450893402,0.5735402855873111
4.121745684433677,-0.0888057337760925,1.7726080301284801,-1.3855856909751898
4.122351377952755,0.318347586536408,-0.109877321434021,1.01901391839981
4.122957071471835,-0.345072823619842,0.773884885597229,-0.152150632381439
4.123562764990915,0.471628836536408,0.7259844949722289,-0.588044187068939
4.124168458509994,-0.745041085338593,-4.08321472377777,0.0466359887123106
4.124774152029073,0.926682547473907,2.64918517856598,0.585515383243561
4.125379845548153,-0.0265352259635925,2.9844879129409803,1.23456567621231
4.125985539067232,-0.747436104869843,-3.57068054409027,-1.7999240698814398
4.1265912325863106,0.105190848255157,-1.45827331752777,1.8309255394935602
4.127196926105391,-0.0648555384635925,2.74259094028473,-0.999987546443939
4.12780261962447,0.325532645130158,-0.270343630027771,0.698081301212311
4.128408313143549,-0.0552754603385925,1.22175353794098,-0.09227514410018939
4.129014006662629,-0.048090401744842505,-3.59463073940277,-1.27062475347519
4.129619700181708,-0.10796589002609301,-1.3936077901840198,0.860942629337311
4.130225393700787,0.605749930286407,7.7697369363784805,0.293323000431061
4.130831087219867,-0.687560616588593,-4.19578064174652,1.5243630394935601
4.131436780738946,-0.10557087049484301,-3.17071228237152,-2.61902074956894
4.132042474258025,0.660835379505157,3.05633849887848,0.999853762149811
4.132648167777105,-0.656425362682343,-0.814013063621521,0.616650637149811
4.1332538612961836,0.30876750841140804,2.57493957309723,-0.5018234839439389
4.133859554815263,-0.792941475963593,-2.8833099386215197,0.23584253168106098
4.134465248334343,0.102795828723907,-3.35991882534027,-1.8550095191001899
4.135070941853422,0.35906291856765804,6.7183233621597305,2.5661965355873098
4.135676635372501,-0.00977008924484254,-0.631991579246521,-1.1365036597251899
4.136282328891581,-0.0552754603385925,-5.68548279018402,-0.976037351131439
4.13688802241066,-0.0361153040885925,2.99167297153473,1.08128442621231
4.13749371592974,0.373433035755158,0.464927366065979,-0.511403562068939
4.138099409448819,-0.507934151744842,0.347571409034729,1.35910669183731
4.138705102967898,-0.124731026744843,0.8122051980972289,-1.3089450659751898
4.139310796486978,-0.567809640026093,-6.11179626674652,0.06340112543106059
4.1399164900060565,0.198596609973907,4.85260314731598,0.686106203556061
4.140522183525136,0.828486746692657,3.58084777622223,1.11002466058731
4.141127877044216,-1.25039020643234,-6.31776794643402,-1.23230444097519
4.141733570563295,0.584194754505157,1.1211627176284802,-0.5425388159751889
4.1423392640823735,0.157881277942657,1.01338683872223,1.0860744652748102
4.142944957601454,-0.416923409557342,0.714009397315979,-0.324592038631439
4.143550651120533,0.23452190294265698,1.55945129184723,0.623835695743561
4.144156344639612,-0.917482491588593,-5.84834411830902,-1.7352585425376899
4.144762038158692,0.653650320911407,0.364336545753479,0.9950637230873111
4.145367731677771,0.761426199817657,8.16731017856598,1.58902856683731
4.14597342519685,-1.37493122205734,-5.08912292690277,-0.880236569881439
4.1465791187159295,-0.050485421276092506,-3.6018157979965197,-0.410812741756439
4.147184812235009,0.553059500598907,3.6335382059097303,-0.0515598120689394
4.147790505754088,-0.289987374401093,-0.857123415184021,1.1603200707435601
4.148396199273168,0.406963309192658,3.2144097879409803,-0.00126440191268943
4.1490018927922465,-0.634870186901093,-4.1790155050277695,-1.54605199956894
4.149607586311326,0.189016531848907,-4.30355652065277,-0.135385495662689
4.150213279830406,0.962607840442657,10.217446897316,2.0177370629310603
4.150818973349485,-1.16895954236984,-1.98038757534027,-0.020424558162689403
4.151424666868565,-0.574994698619843,-7.26619568080902,-1.9076999487876898
4.152030360387644,0.921892508411407,4.48377013950348,0.705266359806061
4.152636053906723,-0.19897663221359302,0.062564084815979,0.137646730899811
4.1532417474258025,0.37103801622390803,1.97139465122223,0.772326906681061
4.153847440944882,-0.153471261119843,-0.512240602684021,-1.2945749487876899
4.154453134463961,-0.299567452526093,-7.82184021205902,-0.611994382381439
4.155058827983041,0.392593192005158,8.37807189731598,2.90628930902481
4.1556645215021195,-0.452848702526092,3.3772711160659803,-0.22879125738143902
4.156270215021199,-0.45763874158859197,-9.58457458705902,-1.6634079566001898
4.156875908540279,0.605749930286407,3.31979064731598,0.19033716058731098
4.157481602059358,0.143511160755157,1.03494201450348,0.42025903558731104
4.1580872955784365,-0.376208077526092,0.23500549106597898,0.738796633243561
4.158692989097517,-0.158261300182343,2.7018756082534803,0.00352563714981057
4.159298682616596,-0.273222237682343,-8.43496521205902,-1.6418527808189398
4.159904376135675,0.133931082630157,3.4802569559097303,0.659760988712311
4.160510069654755,1.17097453966141,8.20084045200348,1.7710500512123102
4.161115763173834,-1.14021930799484,-8.48526062221527,-1.2179343237876898
4.161721456692913,-0.0145601283073425,-0.335009157371521,-1.38798071050644
4.1623271502119925,0.826091727161407,2.6252349832534803,0.8944729027748111
4.162932843731072,-0.440873604869842,-1.16368591518402,0.156806887149811
4.163538537250151,0.615330008411407,4.40712951450348,-0.130595456600189
4.164144230769231,-0.9797529994010931,-7.17518493862152,-1.32331518316269
4.1647499242883095,1.10630901231766,-2.23186462612152,-0.21921117925643901
4.165355617807389,0.782981375598907,11.450881955909699,1.8836159691810601
4.165961311326469,-1.51623737440109,-4.33469177455902,-1.4191159644126898
4.166567004845548,-0.46721881971359197,-6.73210632534027,0.757956789493561
4.1671726983646264,0.29200237169265697,5.70523010044098,-0.42757787847518897
4.167778391883707,0.129141043567657,-1.3672625753402698,0.434629152774811
4.168384085402786,-0.0576704798698425,3.0108331277847302,0.908843019962311
4.1689897789218655,-0.06725055799484249,-2.03547302455902,-1.43348608160019
4.169595472440945,-0.584574776744843,-9.36662780971527,-0.406022702693939
4.170201165960024,0.668020438098907,12.768142698097199,1.9434914574623101
4.170806859479104,-0.752226143932343,1.98815978794098,2.15185815668106
4.1714125529981825,-1.19051471815109,-11.8430780050278,-3.96981176519394
4.172018246517262,1.4416117466926601,5.05857482700348,0.563960207462311
4.172623940036342,-0.869582100963593,1.1091876199722301,1.2273806176185602
4.173229633555421,0.495579031848908,1.1810382059097302,-0.216816159725189
4.1738353270744994,-0.170236397838593,2.08156554965973,0.324458254337311
4.17444102059358,-0.812101632213593,-10.501867067527801,-3.02138403081894
4.175046714112659,0.548269461536407,6.46684631137848,2.65002221918106
4.175652407631738,-0.534279366588593,8.63433898715973,0.657365969181061
4.176258101150818,0.280027274036407,-12.104135133934,-1.86937963628769
4.176863794669897,0.0908207310676575,1.6983624246597302,0.669341066837311
4.177469488188976,0.811721609973907,4.62747131137848,-0.671869870662689
4.1780751817080555,-0.41931842908859196,-3.31680847377777,1.77344507074356
4.178680875227135,-0.44805866346359197,5.89443664340973,-0.892211667537689
4.179286568746214,-0.371418038463592,-8.88522888393402,-0.918556882381439
4.179892262265294,-0.208556710338593,-1.02237976284027,0.104116457462311
4.180497955784372,1.8224198521614101,13.254331662941,2.34106469964981
4.181103649303452,-1.44917682752609,-8.73673767299652,-1.1317136206626899
4.181709342822532,-0.215741768932343,-3.48924988002777,-2.00829076910019
4.182315036341611,0.383013113880158,5.48009826450348,2.58056665277481
4.18292072986069,-1.0037031947135902,-2.36838073940277,-0.944902097225189
4.18352642337977,0.7566361607551569,4.59394103794098,1.21301050043106
4.184132116898849,-0.759411202526093,-4.1790155050277695,-0.817966062068939
4.1847378104179285,0.7757963170051569,-7.34762634487152,-0.9808273901939389
4.185343503937008,0.8165116490364069,13.496228635597198,2.61649194574356
4.185949197456087,-0.864792061901093,-0.7709027120590211,-0.415602780818939
4.186554890975167,-1.08034381971359,-11.1341522237778,-0.846706296443939
4.187160584494245,1.00332317247391,7.34821349887848,-1.41193090581894
4.187766278013325,-0.06964557752609249,-1.71693542690277,1.9171462426185601
4.188371971532405,0.0548954380989075,2.5222491434097303,-0.324592038631439
4.188977665051484,-0.07683063611984249,1.4420953348159802,-0.516193601131439
4.189583358570562,-1.3988814173698398,-12.4657830831528,-1.9076999487876898
4.190189052089643,1.89187541856766,11.4460919168472,2.4895559105873097
4.190794745608722,-0.460033761119842,6.49798156528473,2.7721682152748097
4.191400439127801,-1.14979938611984,-14.499154665184,-5.3158127417564405
4.192006132646881,1.20929485216141,3.5066021707534802,2.42728540277481
4.19261182616596,0.0165751255989075,4.91487365512848,-0.7820407691001889
4.193217519685039,0.600959891223907,-2.55998230190277,1.14834497308731
4.193823213204118,-0.19418659315109302,5.4944683816909805,-0.0850900855064394
4.194428906723198,-0.723485909557343,-10.9665008565903,-3.0022238745689402
4.195034600242277,0.521924246692657,1.5666363504409802,2.86317895746231
4.195640293761357,-0.050485421276092506,15.1008917215347,0.590305422306061
4.196245987280436,-0.594154854869843,-14.144691774559,-0.913766843318939
4.196851680799515,0.148301199817657,-1.3169671651840198,-1.34487035894394
4.197457374318595,0.658440359973907,8.28227111606598,0.990273684024811
4.198063067837674,-0.371418038463592,-5.37173523159027,0.947163332462311
4.198668761356753,0.236916922473907,6.53390685825348,0.106511476993561
4.199274454875833,-0.836051827526093,-6.13814148159027,-0.604809323787689
4.199880148394912,0.0189701451301575,-6.14772155971527,-1.24667455816269
4.200485841913991,1.4200565709114101,15.208667600441,3.63437524652481
4.201091535433071,-0.922272530651093,-5.61123718471527,-1.41193090581894
4.20169722895215,-0.242086983776093,-8.52358093471527,-1.26822973394394
4.20230292247123,0.30876750841140804,8.52895812778473,1.5914235863685602
4.202908615990308,-0.464823800182342,-3.44374450893402,-0.746115476131439
4.203514309509388,0.39019817247390803,2.64679015903473,1.1459499535560602
4.204120003028468,-0.361837960338592,0.723589475440979,-1.28020483160019
4.204725696547547,-0.361837960338592,-12.0897650167465,-0.959272214412689
4.205331390066625,1.33623088731766,13.398032834816,2.25484399652481
4.205937083585706,-0.342677804088592,4.16523254184723,0.757956789493561
4.206542777104785,-1.62880329236984,-14.9158880636215,-2.0609811987876903
4.2071484706238635,1.04643352403641,6.77580383090973,0.372358644962311
4.207754164142944,-0.201371651744843,1.26486388950348,0.760351809024811
4.208359857662023,0.28242229356765697,-1.19003113002777,0.113696535587311
4.208965551181102,-0.0600654994010925,5.19748595981598,-0.305431882381439
4.209571244700182,-1.45636188611984,-13.6489227315903,-2.7267966284751903
4.210176938219261,2.06910686388016,6.52672179965973,2.9014992699623097
4.21078263173834,-0.749831124401093,14.413521116066,2.31471948480606
4.21138832525742,-1.44438678846359,-17.037875368309,-3.7638400855064402
4.211994018776499,1.70506389513016,-0.109877321434021,0.298113039493561
4.212599712295578,-0.287592354869843,8.75169494419098,0.132856691837311
4.213205405814658,0.612934988880157,-5.74535827846527,1.29444116449356
4.2138110993337365,-0.261247140026093,6.9913555887222305,0.132856691837311
4.214416792852816,-1.1929097376823399,-8.87325378627777,-1.3688205542564398
4.215022486371896,0.830881766223907,-3.53475525112152,0.7340065941810611
4.215628179890975,-0.749831124401093,18.137776487159698,1.60579370355606
4.216233873410054,0.09561077013015751,-11.5149603292465,-0.892211667537689
4.216839566929134,0.706340750598907,-6.08305603237152,-2.07056127691269
4.217445260448213,0.040525320911407495,11.2688604715347,1.1555300316810602
4.218050953967293,0.0692655552864075,-5.88666443080902,0.0466359887123106
4.218656647486372,0.028550223255157502,3.82753478794098,0.825017336368561
4.219262341005451,-0.615710030651093,-1.1445257589340199,-0.956877194881439
4.219868034524531,-0.222926827526093,-10.731788942527801,-1.57479223394394
4.2204737280436095,1.0943339146614102,15.651746213722198,3.25596216058731
4.221079421562689,-0.191791573619843,-0.514635622215271,-0.635944577693939
4.221685115081769,-0.764201241588593,-13.387865602684,-2.60465063238144
4.222290808600848,0.00220500841140746,9.29057433872223,1.8476906762123102
4.2228965021199265,-0.416923409557342,-1.2810418722152699,-0.130595456600189
4.223502195639007,0.414148367786408,-0.612831422996521,0.726821535587311
4.224107889158086,0.191411551380157,4.63465636997223,-0.530563718318939
4.224713582677165,-0.452848702526092,-13.119623415184,-2.19270727300644
4.225319276196245,0.840461844348907,8.85947082309723,2.46800073480606
4.225924969715324,-0.371418038463592,10.7802764871597,1.9770217308998101
4.226530663234403,-1.5186323939323398,-16.9684198019028,-1.96518041753769
4.2271363567534825,1.13025920763016,4.09577697544098,-1.3640305151939398
4.227742050272562,-0.285197335338593,4.84062804965973,1.0908645043373102
4.228347743791641,0.404568289661408,-4.46641784877777,0.214287355899811
4.228953437310721,0.16506633653640698,7.41287902622223,-0.13778051519393902
4.2295591308297995,-2.11020221815109,-11.6035760519028,-2.49447973394394
4.230164824348879,2.31818889513016,0.8696856668472289,1.99618188714981
4.230770517867959,-0.531884347057343,18.032395627784698,3.2415920433998098
4.231376211387038,-1.4324116908073399,-15.4140521261215,-3.69677953863144
4.231981904906118,1.47035198106766,-5.06038269252777,0.24063257074356098
4.232587598425197,-0.400158272838592,12.545405881691,0.906448000431061
4.233193291944276,0.644070242786407,-6.32255798549652,0.544800051212311
4.2337989854633555,0.0357352818489075,5.08731506137848,0.147226809024811
4.234404678982435,-0.644450265026093,-4.6580194112777695,-1.85261449956894
4.235010372501514,0.275237234973907,-8.27449890346527,0.283742922306061
4.235616066020594,-0.795336495494843,18.7700616434097,3.00927514886856
4.2362217595396725,0.0692655552864075,-6.15011657924652,-0.827546140193939
4.236827453058752,0.883572195911407,-12.0011492940903,-2.75553686285019
4.237433146577832,0.172251395130157,12.5310357645035,1.6225588402748101
4.238038840096911,-0.117545968151093,-3.15873718471527,-0.214421140193939
4.2386445336159895,0.22494182481765698,0.639763791847229,0.288532961368561
4.23925022713507,-0.704325753307343,3.09226379184723,-0.176100827693939
4.239855920654149,-0.196581612682343,-12.8082708761215,-1.9699704566001899
4.240461614173228,0.802141531848907,12.3011138895035,2.73384790277481
4.241067307692308,0.315952567005158,5.62379943637848,-0.42757787847518897
4.241673001211387,-0.08162067518234249,-16.336134645652802,-1.8214792456626898
4.242278694730466,-0.402553292369842,8.24874084262848,0.7938820824623111
4.2428843882495455,-0.596549874401093,2.06240539340973,-0.0228195776939394
4.243490081768625,0.344692801380158,-4.55024353237152,0.848967531681061
4.244095775287704,0.46923381700515804,7.29791808872223,-0.714980222225189
4.244701468806784,-0.996518136119843,-12.305316774559,-1.1532687964439399
4.2453071623258625,1.12786418809891,4.34485900669098,1.51238794183731
4.245912855844942,0.332717703723908,15.2038775613785,3.03083032464981
4.246518549364022,-1.80363971815109,-15.9816717550278,-2.85133764410019
4.247124242883101,1.58770793809891,-0.8834686300277711,-0.535353757381439
4.247729936402179,-0.500749093151092,8.62236388950348,0.9136330590248111
4.24833562992126,0.383013113880158,-5.48909118862152,-0.635944577693939
4.248941323440339,0.41893840684890804,6.13633361606598,1.00464380121231
4.2495470169594185,-1.8395650111198398,-7.62305359096527,-2.96390356206894
4.250152710478498,2.2367582310676597,-4.52629333705902,1.5962136254310602
4.250758403997577,-1.57132282361984,19.7639947488785,2.2069436058998098
4.251364097516657,-0.486378975963592,-10.6838885519028,-1.87416967535019
4.2519697910357355,1.73859416856766,-10.674308473777801,-0.6215744605064389
4.252575484554815,-0.651635323619843,14.085403440284699,-0.26711156988143897
4.253181178073895,0.392593192005158,-5.01487732143402,1.9171462426185601
4.253786871592974,0.196201590442657,2.93179748325348,-1.02393774175644
4.254392565112052,-0.364232979869842,-0.852333376121521,-1.04549291753769
4.254998258631133,0.0501053990364075,-11.462269899559,-0.918556882381439
4.255603952150212,-0.790546456432343,16.894761350441,2.53745630121231
4.256209645669291,0.112375906848907,-0.737372438621521,0.551985109806061
4.256815339188371,1.36736614122391,-15.3853118917465,-3.86203588628769
4.25742103270745,-0.294777413463593,10.8736822488785,2.3195095238685597
4.258026726226529,-0.282802315807343,0.357151487159729,-0.810781003475189
4.2586324197456085,0.09800578966140751,-3.17550232143402,0.9327932152748111
4.259238113264688,-0.558229561901093,5.88964660434723,-0.207236081600189
4.259843806783767,-0.000190011119842542,-12.6142742940903,-1.90530492925644
4.260449500302847,0.280027274036407,7.42724914340973,2.40812524652481
4.261055193821925,0.248892020130157,11.024568479347199,-0.0252145972251894
4.261660887341005,0.030945242786407503,-17.066615602684,-1.2945749487876899
4.262266580860085,-0.345072823619842,4.88852844028473,-0.544933835506439
4.262872274379164,-0.613315011119843,5.46812316684723,0.851362551212311
4.263477967898244,0.129141043567657,-6.38722351284027,0.08256128168106061
4.264083661417323,0.991348074817657,7.78889709262848,-0.18328588628768902
4.264689354936402,-1.0084932337760901,-10.2408099386215,-1.4023508276939398
4.2652950484554815,0.7159208287239069,-0.385304567527771,0.09214135980606061
4.265900741974561,-0.0576704798698425,17.0719927957535,4.17804468011856
4.26650643549364,-1.4922871790885899,-12.781925661277802,-3.46206762456894
4.26711212901272,1.34102092638016,-5.49148620815277,-0.604809323787689
4.267717822531798,-0.903112374401093,10.7012408426285,1.01901391839981
4.268323516050878,0.325532645130158,-5.05798767299652,-0.343752194881439
4.268929209569958,0.926682547473907,4.15804748325348,1.15792505121231
4.269534903089037,-1.51144733533859,-3.95867370815277,-2.86331274175644
4.270140596608115,1.58052287950516,-8.22899353237152,1.27767602777481
4.270746290127196,-1.03244342908859,19.1891900613785,2.3434597191810598
4.271351983646275,-1.10189899549484,-6.08545105190277,-0.997592526912689
4.271957677165354,1.32665080919266,-13.9578802511215,-2.40586401128769
4.272563370684434,-0.289987374401093,13.1154205301285,1.07649438714981
4.273169064203513,-0.215741768932343,-2.08337341518402,1.29444116449356
4.273774757722592,0.531504324817657,0.37152160434722903,-0.635944577693939
4.274380451241671,-0.172631417369843,1.46604553012848,0.405888918399811
4.274986144760751,-0.0241402064323425,-11.7233270284653,-1.07902319097519
4.27559183827983,-1.2743404017448399,13.5201788309097,3.4044533715248098
4.27619753179891,-0.642055245494843,3.70778381137848,0.288532961368561
4.276803225317989,2.4259647740364096,-17.0714056417465,-2.9854587378501902
4.277408918837068,-0.46721881971359197,8.94329650669098,1.03338403558731
4.278014612356148,-0.757016182994843,3.24315002231598,-0.37967748785018895
4.278620305875227,0.500369070911408,-4.94542175502777,1.30402124261856
4.279225999394306,-0.536674386119843,6.47163635044098,-0.595229245662689
4.279831692913386,-0.12952106580734302,-11.143732301902801,-1.6634079566001898
4.280437386432465,0.22015178575515698,4.39275939731598,1.6345339379310602
4.281043079951544,0.028550223255157502,12.806463010597199,1.01901391839981
4.281648773470624,0.375828055286408,-15.6319989034653,-1.5987424292564398
4.282254466989703,0.172251395130157,1.80853332309723,-0.216816159725189
4.282860160508783,-1.23841510877609,7.1973272684097305,1.13636987543106
4.283465854027861,0.0525004185676575,-6.67223083705902,-0.0300046362876894
4.284071547546941,1.0105082310676599,6.27524474887848,0.152016848087311
4.284677241066021,-0.962987862682343,-7.37636657924652,-2.08014135503769
4.2852829345851,0.684785574817657,-3.35991882534027,0.959138430118561
4.285888628104179,-0.287592354869843,17.3522100809097,3.3373928246498097
4.286494321623259,-0.836051827526093,-9.44326843471527,-2.8465476050376903
4.287100015142338,1.32665080919266,-8.473285524559019,-0.607204343318939
4.2877057086614165,-0.666005440807343,10.770696409034699,0.712451418399811
4.288311402180497,-0.19897663221359302,-4.15267029018402,0.08735132074356061
4.288917095699576,1.0105082310676599,2.80007140903473,0.525639894962311
4.289522789218655,-0.5414644251823431,-2.23186462612152,-1.92686010503769
4.290128482737735,1.2188749302864101,-9.22292663784027,0.336433351993561
4.290734176256814,-1.42522663221359,17.5342315652847,2.22849878168106
4.291339869775893,-1.5186323939323398,-2.46178650112152,0.0514260277748106
4.291945563294973,2.3397440709114097,-15.052404176902801,-2.3507785620689403
4.292551256814052,-0.443268624401092,10.6916607645035,0.578330324649811
4.293156950333131,-0.421713448619842,-0.038026735496521,0.966323488712311
4.293762643852211,0.452468680286408,-1.0511199972152698,-0.09706518316268939
4.2943683373712895,-0.141496163463593,2.22766174106598,-0.152150632381439
4.294974030890369,0.30876750841140804,-11.0431414815903,-1.7400485816001898
4.295579724409449,-1.54497760877609,10.332407834816,2.46560571527481
4.296185417928528,-0.5031441126823419,6.74706359653473,0.860942629337311
4.2967911114476065,2.0906620396614097,-16.0247821065903,-2.97827367925644
4.297396804966687,0.121955984973907,5.87767150669098,0.125671633243561
4.298002498485766,-0.9198775111198431,4.93163879184723,0.779511965274811
4.298608192004846,-0.07443561658859249,-4.66520446987152,0.312483156681061
4.299213885523925,-0.31872760877609196,5.42022277622223,-0.125805417537689
4.299819579043004,0.313557547473908,-9.45763855190277,-1.53168188238144
4.300425272562084,-0.13910114393234302,2.1366509988784803,0.810647219181061
4.3010309660811625,-0.639660225963593,13.2878619363785,1.5195730004310601
4.301636659600242,0.943447684192657,-12.8465911886215,-1.3760056128501899
4.302242353119322,0.505159109973908,-1.05830505580902,-0.5233786597251889
4.302848046638401,-1.1929097376823399,7.8559576395034805,0.611860598087311
4.3034537401574795,-0.548649483776093,-5.71422302455902,0.0442409691810606
4.30405943367656,1.25959026231766,5.10408019809723,-0.26950658941268896
4.304665127195639,-0.33788776502609197,-5.90342956752777,-1.17242895269394
4.305270820714718,0.713525809192657,-4.59095886440277,0.432234133243561
4.305876514233798,-0.694745675182343,15.764312131691,3.6271901879310597
4.306482207752877,-1.43480671033859,-6.05671081752777,-2.29808813238144
4.307087901271956,1.8607401646614101,-9.21574157924652,-1.01196264410019
4.3076935947910355,-0.630080147838593,8.80678039340973,1.01182885980606
4.308299288310115,-0.292382393932343,-2.23186462612152,-0.23837133550643902
4.308904981829194,0.926682547473907,1.4468853738784802,1.2417507348060601
4.309510675348274,-0.18939655408859302,-1.3241522237777699,-1.5939523901939399
4.3101163688673525,1.1374442662239101,-8.79900818080902,-0.11622533941268899
4.310722062386432,-1.50905231580734,14.202759397316001,1.79021020746231
4.311327755905512,-1.14500934705734,0.8098101785659789,0.9351882348060611
4.311933449424591,1.79846965684891,-14.1422967550278,-2.5663303198814402
4.312539142943671,0.5961698521614069,7.41287902622223,-0.35812231206893896
4.31314483646275,-0.8408418665885931,1.92828429965973,1.3447365746498101
4.313750529981829,0.397383231067658,-0.464340212059021,-0.611994382381439
4.3143562235009085,0.397383231067658,1.53550109653473,0.187942141056061
4.314961917019988,0.0884257115364075,-9.77138611049652,-2.22863256597519
4.315567610539067,-1.12584919080734,8.21042053012848,2.65002221918106
4.316173304058147,-1.74615924940109,7.55418517856598,1.00224878168106
4.3167789975772255,2.81156291856766,-13.6345526144028,-2.72919164800644
4.317384691096305,1.01290325059891,2.62283996372223,0.293323000431061
4.317990384615385,-1.52342243299484,5.64774963169098,-0.554513913631439
4.318596078134464,-0.278012276744843,-3.72875183315277,1.5914235863685602
4.3192017716535425,-0.234901925182343,4.51251037387848,-0.295851804256439
4.319807465172623,0.406963309192658,-7.94398620815277,-1.3927707495689399
4.320413158691702,-0.371418038463592,0.5894683816909789,0.583120363712311
4.321018852210781,-0.663610421276093,12.166992795753501,1.3615017113685601
4.321624545729861,1.13983928575516,-9.93424743862152,-0.7221652808189389
4.32223023924894,0.792561453723907,-2.08576843471527,-1.3472653784751898
4.322835932768019,-1.54497760877609,5.98784240512848,0.880102785587311
4.3234416262870985,-0.891137276744843,-3.59463073940277,-0.250346433162689
4.324047319806178,1.21647991075516,4.02632140903473,-0.25992651128768895
4.324653013325257,0.114770926380157,-4.96697693080902,-1.51970678472519
4.325258706844337,0.828486746692657,-4.28679138393402,0.24063257074356098
4.3258644003634155,-1.36535114393234,12.6292315652847,3.01646020746231
4.326470093882495,-0.613315011119843,-2.86175476284027,-1.49815160894394
4.327075787401575,1.59728801622391,-8.86367370815277,-0.482663327693939
4.327681480920654,-0.41931842908859196,5.93036193637848,-0.509008542537689
4.328287174439732,-0.699535714244843,-0.560140993309021,0.817832277774811
4.328892867958813,0.210571707630157,1.74865783481598,0.367568605899811
4.329498561477892,0.823696707630157,-2.1743841573715197,-1.23230444097519
4.3301042549969715,0.531504324817657,-7.58712829799652,-0.947297116756439
4.330709948516051,-1.53779255018234,12.2843487527847,0.877707766056061
4.33131564203513,-2.04553669080734,1.4037750223159802,1.9291213402748102
4.33192133555421,1.71703899278641,-11.1485223409653,-2.9495334448814403
4.3325270290732885,1.26677532091141,3.71736388950348,0.556775148868561
4.333132722592368,-1.29829059705734,2.84557678012848,0.690896242618561
4.333738416111448,-0.0217451869010925,0.881660764503479,-0.13299047613143902
4.334344109630527,0.27284221544265697,-0.205678102684021,0.765141848087311
4.334949803149605,0.277632254505157,-7.7715448019027695,-1.33529028081894
4.335555496668686,-1.33182087049484,6.56983215122223,3.0715456566810597
4.336161190187765,-2.6993770228385903,6.93627013950348,0.437024172306061
4.336766883706844,2.79958782091141,-9.96777771205902,-2.1280417456626903
4.337372577225924,1.7625443638801601,0.412236936378479,0.111301516056061
4.337978270745003,-1.3390059290885898,4.51251037387848,-0.566489011287689
4.338583964264082,-0.792941475963593,-1.18045105190277,1.59860864496231
4.3391896577831615,-0.172631417369843,2.90545226840973,-0.717375241756439
4.339795351302241,0.864412039661407,-7.1129144308090195,-0.8012009253501889
4.34040104482132,-0.558229561901093,1.0445220926284802,0.28134790277481103
4.3410067383404,-1.2192549525260898,9.83424377231598,1.41898218011856
4.341612431859479,0.7566361607551569,-6.9596331808090195,-0.0300046362876894
4.342218125378558,1.54459758653641,-2.63901794643402,-1.69454321050644
4.342823818897638,-1.2360200892448399,3.18327453403473,0.801067141056061
4.343429512416717,-1.37493122205734,-0.773297731590271,-0.444343015193939
4.344035205935796,1.0105082310676599,2.93419250278473,0.504084719181061
4.344640899454876,0.699155692005157,-5.20887390346527,-1.5173117651939398
4.345246592973955,0.749451102161407,-2.69649841518402,0.42025903558731104
4.3458522864930345,-1.5737178431510899,10.4737139871597,2.77935327386856
4.346457980012114,-1.0084932337760901,-1.97320251674652,-1.23709448003769
4.347063673531193,1.36497112169266,-7.08177917690277,-0.276691648006439
4.347669367050273,-0.213346749401093,3.02041320590973,-0.976037351131439
4.348275060569351,-0.6803755579948431,0.579888303565979,1.0788894066810601
4.348880754088431,0.102795828723907,2.63481506137848,0.33882837152481105
4.349486447607511,0.9961381138801569,-3.71677673549652,-0.988012448787689
4.35009214112659,0.9961381138801569,-5.66871765346527,-0.17849584722518902
4.350697834645668,-1.4204365931510898,10.399468381691,0.772326906681061
4.351303528164749,-2.83110309705734,1.25528381137848,2.04408227777481
4.351909221683828,1.7625443638801601,-7.86974060268402,-2.11367162847519
4.352514915202907,2.2271781529426598,0.584678342628479,-0.394047605037689
4.353120608721987,-1.32463581190109,2.7354058816909803,-0.559303952693939
4.353726302241066,-0.117545968151093,2.7880963113784802,0.748376711368561
4.354331995760145,0.588984793567657,-2.02349792690277,0.559170168399811
4.354937689279225,0.653650320911407,-6.25310241909027,-1.75920873785019
4.355543382798304,-1.26955036268234,5.93515197544098,2.2428688988685597
4.356149076317383,-2.7999678431510904,5.57110900669098,0.266977785587311
4.356754769836463,2.82114299669266,-7.19434509487152,-0.669474851131439
4.357360463355542,1.98767619981766,-0.871493532371521,-1.03591283941269
4.357966156874621,-0.991728097057343,2.99885803012848,-0.0323996558189394
4.358571850393701,-1.1545894251823399,1.5570562723159802,0.999853762149811
4.35917754391278,-0.402553292369842,0.682874143409729,-0.626364499568939
4.359783237431859,1.45598186388016,-6.43033386440277,-0.018029538631439402
4.360388930950939,-0.285197335338593,2.28514220981598,-0.40841772222518896
4.360994624470018,-1.6335933314323399,6.85244445590973,1.41419214105606
4.361600317989097,0.830881766223907,-4.08081970424652,0.197522219181061
4.362206011508177,2.03078655138016,-2.46657654018402,-1.2658347144126898
4.362811705027256,-0.905507393932343,1.0397320535659802,0.362778566837311
4.363417398546336,-1.86112018690109,1.2936041238784801,-0.101855222225189
4.364023092065414,0.612934988880157,1.17864318637848,-0.0371896948814394
4.364628785584494,1.24282512559891,-5.39568542690277,-0.846706296443939
4.365234479103574,0.871597098255157,-0.021261598777771,0.504084719181061
4.365840172622653,-1.32463581190109,7.16379699497223,2.21412866449356
4.366445866141732,-1.62161823377609,-1.5804193136215199,-0.616784421443939
4.367051559660812,1.7026688755989101,-3.92993347377777,-0.475478269100189
4.367657253179891,0.5362943638801569,-0.375724489402771,-0.334172116756439
4.3682629466989695,-1.03004840955734,1.94983947544098,-0.0347946753501894
4.36886864021805,-0.40734333143234197,3.5497125223159802,0.211892336368561
4.369474333737129,1.35778606309891,-5.83157898159027,-0.937717038631439
4.370080027256208,1.0560136021614102,-2.83780456752777,-0.7413254370689389
4.370685720775288,-1.7365791712760899,8.01402892856598,1.57226343011856
4.371291414294367,-2.7329072962760903,1.36305969028473,1.53394311761856
4.371897107813446,1.35060100450516,-4.92147155971527,-1.43827612066269
4.372502801332526,2.40440959825516,-2.42586120815277,-1.1891940894126898
4.373108494851605,-0.792941475963593,2.55338439731598,-0.28866674566268896
4.373714188370684,-0.967777901744843,4.58675597934723,0.961533449649811
4.374319881889764,0.677600516223907,-3.39344909877777,-0.15933569097518901
4.3749255754088425,1.10870403184891,-5.41484558315277,-1.13410864019394
4.375531268927922,-1.03244342908859,5.51123351840973,1.2752810082435602
4.376136962447002,-3.0059395228385903,3.17608947544098,0.877707766056061
4.376742655966081,1.84637004747391,-4.27960632534027,-0.846706296443939
4.3773483494851595,3.17560588731766,-2.08576843471527,-0.746115476131439
4.37795404300424,-1.12345417127609,1.6313018777847301,-0.204841062068939
4.378559736523319,-1.49468219861984,3.65509338169098,0.916028078556061
4.3791654300423986,-0.31872760877609196,-0.732582399559021,-0.252741452693939
4.379771123561478,1.34102092638016,-5.71661804409027,-1.0718381323814399
4.380376817080557,0.256077078723907,2.17497131137848,0.5543801293373111
4.380982510599637,-1.80842975721359,5.64774963169098,1.0956545433998102
4.3815882041187155,0.404568289661408,-2.21030945034027,0.07537622308731061
4.382193897637795,2.02360149278641,-3.22819275112152,-1.2275144019126898
4.382799591156875,-0.613315011119843,-0.284713747215271,-0.195260983943939
4.383405284675954,-2.21797809705734,2.92940246372223,0.750771730899811
4.3840109781950325,0.442888602161408,1.68399230747223,0.08495630121231061
4.384616671714113,1.48232707872391,-5.66153259487152,-1.21074926519394
4.385222365233192,1.18773967638016,-0.236813356590271,-0.22879125738143902
4.385828058752271,-1.88267536268234,5.89683166294098,1.84529565668106
4.386433752271351,-1.85872516736984,0.6517388895034789,0.22147241449356098
4.38703944579043,1.4416117466926601,-3.29525329799652,-0.0635349097251894
4.387645139309509,0.588984793567657,-2.11690368862152,-1.24667455816269
4.3882508328285885,-0.974962960338593,2.11749084262848,0.223867434024811
4.388856526347668,-1.02765339002609,3.6862286355972302,0.128066652774811
4.389462219866747,1.47035198106766,-5.27832946987152,-0.382072507381439
4.390067913385827,1.03685344591141,-2.97911071987152,-0.49942846441268895
4.3906736069049055,-0.855211983776093,7.26917785434723,0.956743410587311
4.391279300423985,-3.3412422572135902,1.2576788309097302,2.23568384027481
4.391884993943065,0.739871024036407,-3.4485345479965197,-1.8597995581626898
4.392490687462144,3.20674114122391,-3.7814422628402697,-0.350937253475189
4.393096380981224,-0.998913155651093,2.19413146762848,-0.609599362850189
4.393702074500303,-1.09231891736984,5.81540099887848,1.3471315941810602
4.394307768019382,0.37103801622390803,-4.30595154018402,0.13046167230606098
4.3949134615384615,1.2236649693489101,-4.92865661830902,-1.99871069097519
4.395519155057541,-0.618105050182343,4.99869933872223,2.34824975824356
4.39612484857662,-3.61666950330734,2.96053771762848,-0.018029538631439402
4.3967305420957,1.50867229356766,-2.26299988002777,0.0107106957435606
4.3973362356147785,3.4941434849739097,-2.77553405971527,-0.865866452693939
4.397941929133858,-0.558229561901093,0.017058713722229002,-1.3544504370689399
4.398547622652938,-2.00721637830734,4.63705138950348,1.8093703637123102
4.399153316172017,-1.0084932337760901,-0.200888063621521,-1.00717260503769
4.3997590096910955,1.64039836778641,-5.89863952846527,0.250212648868561
4.400364703210176,0.557849539661407,2.74977599887848,0.422654055118561
4.400970396729255,-2.04553669080734,3.6862286355972302,0.283742922306061
4.401576090248334,-0.630080147838593,-1.48940857143402,0.5136647973060611
4.402181783767414,2.5433207310676598,-1.3888177511215198,-0.6239694800376889
4.402787477286493,-0.10317585096359301,-2.34922058315277,0.025080812931060598
4.403393170805572,-2.5532808314323403,3.65269836215973,-0.212026120662689
4.4039988643246515,-0.07922565565109249,1.50915588169098,0.5136647973060611
4.404604557843731,1.41766155138016,-6.35608825893402,-1.23230444097519
4.40521025136281,1.79128459825516,0.6732940652847289,0.348408449649811
4.40581594488189,-1.87070026502609,5.1615606668472305,1.4644875512123101
4.4064216384009685,-2.0838570033073402,0.24458556919097899,0.19991723871231099
4.407027331920048,1.49190715684891,-1.89895691127777,0.798672121524811
4.407633025439128,0.998533133411407,-3.27130310268402,-1.98913061285019
4.408238718958207,-0.879162179088593,1.15708801059723,0.662156008243561
4.408844412477286,-1.13063922986984,5.36513732700348,0.0322658715248106
4.409450105996366,1.28593547716141,-6.01360046596527,-0.532958737850189
4.410055799515445,1.5134623326301602,-2.61267273159027,-0.13778051519393902
4.4106614930345245,-0.361837960338592,6.95543029575348,0.7555617699623111
4.411267186553604,-3.77953083143234,-0.145802614402771,1.8405056176185601
4.411872880072683,0.502764090442658,-0.818803102684021,-1.43348608160019
4.412478573591763,3.44863811388016,-4.1191400167465195,-0.26711156988143897
4.4130842671108415,-0.273222237682343,0.115254514503479,-1.41193090581894
4.413689960629921,-1.50426227674484,7.15900695590973,1.4980178246498101
4.414295654149001,0.09561077013015751,-4.31553161830902,-0.209631101131439
4.41490134766808,1.84397502794266,-5.20647888393402,-1.4742014136314399
4.415507041187158,-0.871977120494843,5.57350402622223,1.8357155785560602
4.416112734706239,-3.17119587049484,1.48281066684723,0.33164331293106103
4.416718428225318,0.342297781848908,-1.4055828878402699,0.36038354730606104
4.417324121744397,3.96835735216141,-1.73849060268402,-0.9808273901939389
4.417929815263477,0.284817313098907,-2.20551941127777,-0.894606687068939
4.418535508782556,-2.6131563197135903,5.94233703403473,0.9327932152748111
4.419141202301635,-0.713905831432343,0.055379026222229004,-0.240766355037689
4.4197468958207144,1.1757645787239102,-6.93089294643402,-0.312616940975189
4.420352589339794,1.4200565709114101,3.4970220926284803,0.266977785587311
4.420958282858873,-2.09822712049484,3.27907531528473,0.820227297306061
4.421563976377953,-1.31505573377609,-0.952924196434021,0.24063257074356098
4.422169669897032,2.9720292271614097,-0.500265505027771,-0.413207761287689
4.422775363416111,0.22015178575515698,-3.86287292690277,-0.5425388159751889
4.423381056935191,-2.3736543665885903,3.39164123325348,0.06340112543106059
4.42398675045427,-1.13542926893234,2.74977599887848,0.8345974144935611
4.424592443973349,1.50867229356766,-6.46386413784027,-1.7879489722251898
4.425198137492429,2.20801799669266,0.397866819190979,0.456184328556061
4.425803831011508,-1.66233356580734,4.85260314731598,0.748376711368561
4.426409524530587,-2.59878620252609,-0.35895935268402096,0.346013430118561
4.427015218049667,0.953027762317657,0.014663694190979,0.302903078556061
4.427620911568746,2.1170072545051597,-3.89400818080902,-1.5292868628501899
4.428226605087826,-1.15698444471359,-0.047606813621521,0.0993264183998106
4.428832298606904,-1.81561481580734,6.68479308872223,-0.420392819881439
4.429437992125984,1.41287151231766,-6.76324157924652,0.27176782464981103
4.430043685645064,1.88708537950516,-1.95643738002777,-1.2490695776939398
4.430649379164143,-0.658820382213593,7.00812072544098,1.2968361840248102
4.431255072683221,-3.94478717908859,-1.2690667745590198,1.8572707543373101
4.431860766202302,0.581799734973907,0.577493284034729,-0.779645749568939
4.432466459721381,3.08938518419266,-3.7550970479965198,-0.758090573787689
4.43307215324046,0.598564871692657,-2.06660827846527,-1.73286352300644
4.43367784675954,-1.53779255018234,8.28227111606598,2.61649194574356
4.434283540278619,-0.565414620494843,-3.17550232143402,-1.2514645972251899
4.434889233797698,2.19125285997391,-6.8398822042465195,-0.753300534725189
4.435494927316778,-0.11515094861984301,6.22973937778473,2.25723901605606
4.436100620835857,-3.4681782923698403,1.00141174106598,-0.149755612850189
4.436706314354936,-1.03004840955734,-1.1373407003402698,0.968718508243561
4.437312007874016,4.27491985216141,0.158364866065979,-1.73286352300644
4.437917701393095,1.55896770372391,-4.71549988002777,-0.877841550350189
4.438523394912174,-3.08976520643234,6.57462219028473,0.750771730899811
4.439129088431254,-1.53779255018234,1.07326232700348,0.286137941837311
4.4397347819503326,1.95175090684891,-7.72364441127777,-0.47787328863143896
4.440340475469413,1.22126994981766,4.61549621372223,0.0418459496498106
4.440946168988492,-1.6767036829948399,1.9091241434097301,0.465764406681061
4.441551862507571,-1.4970772181510899,-1.72891052455902,0.0298708519935606
4.4421575560266495,2.6989970005989097,1.59058654575348,0.144831789493561
4.44276324954573,1.19252971544266,-4.74903015346527,-0.576069089412689
4.443368943064809,-2.24911335096359,2.92221740512848,-0.0515598120689394
4.443974636583889,-1.27673542127609,3.95447082309723,0.944768312931061
4.444580330102967,1.43442668809891,-7.90327087612152,-1.39037573003769
4.445186023622047,2.6654667271614096,1.0493121316909801,0.264582766056061
4.445791717141127,-1.32703083143234,5.30526183872223,0.8537575707435611
4.4463974106602056,-2.85026325330734,-1.87740173549652,0.645390871524811
4.447003104179284,0.885967215442657,1.7726080301284801,0.865732668399811
4.447608797698365,1.92301067247391,-3.7646771261215197,-2.46573949956894
4.448214491217444,-0.412133370494842,-2.35640564174652,0.09214135980606061
4.4488201847365225,-1.9114155970573399,8.42357726840973,0.35080346918106103
4.449425878255603,0.507554129505158,-6.09982116909027,-0.714980222225189
4.450031571774682,1.9972562779426601,-3.82215759487152,-0.362912351131439
4.450637265293761,0.438098563098908,7.85835265903473,1.6896193871498102
4.451242958812841,-4.1411787806510905,-2.01631286830902,1.02859399652481
4.45184865233192,-1.44917682752609,0.9056109598159789,-0.475478269100189
4.452454345850999,3.6474247349739097,-1.80555114955902,0.0945363793373106
4.4530600393700785,1.42484660997391,-4.32032165737152,-1.70412328863144
4.453665732889158,-2.0335615931510898,8.74929992465973,1.8093703637123102
4.454271426408237,-0.912692452526093,-2.0115228292465197,-0.9616672339439389
4.454877119927317,2.3038187779426598,-7.97033142299652,-1.17721899175644
4.4554828134463955,0.117165945911407,7.64280090122223,1.5531032738685602
4.456088506965475,-3.53523883924484,-0.00449646205902099,0.42983911371231104
4.456694200484555,-1.6000630579948398,-1.5037786886215199,0.44899926996231104
4.457299894003634,4.23899455919266,2.07438049106598,-0.827546140193939
4.457905587522713,2.13856243028641,-6.35369323940277,-1.14368871831894
4.458511281041793,-2.85744831190109,5.81061095981598,1.0788894066810601
4.459116974560872,-2.04793171033859,3.4371466043472303,0.243027590274811
4.459722668079951,0.8763871373176569,-9.79533630580902,-1.3424753394126898
4.46032836159903,1.95175090684891,4.43826476840973,0.45857934808731105
4.46093405511811,-1.62880329236984,3.32937072544098,0.453789309024811
4.46153974863719,-2.66824176893234,-3.0030609151840197,-0.413207761287689
4.4621454421562685,2.6654667271614096,3.58803283481598,0.276557863712311
4.462751135675348,1.7745194615364102,-5.42682068080902,-0.41799780035018896
4.463356829194428,-2.35928424940109,1.16187804965973,-0.5425388159751889
4.463962522713507,-2.14852253065109,6.23213439731598,1.1339748558998102
4.4645682162325855,1.25001018419266,-8.95468445034027,-1.28020483160019
4.465173909751666,3.0079545201301596,0.167944944190979,0.156806887149811
4.465779603270745,-0.704325753307343,6.95543029575348,0.7148464379310611
4.466385296789824,-3.30771198377609,-3.4389544698715198,0.604675539493561
4.466990990308904,0.0333402623176575,2.76654113559723,0.34122339105606103
4.467596683827983,2.85467327013016,-2.47136657924652,-1.31852514410019
4.468202377347062,-0.043300362682342504,-4.62688415737152,-0.190470944881439
4.4688080708661415,-2.24192829236984,9.53486633090973,0.353198488712311
4.469413764385221,0.35906291856765804,-5.48669616909027,-0.772460690975189
4.4700194579043,2.4858402623176596,-5.75493835659027,-0.853891355037689
4.47062515142338,0.902732352161407,9.86058898715973,2.42728540277481
4.4712308449424585,-4.43576618299484,-3.47966980190277,0.7148464379310611
4.471836538461538,-1.3174507533073399,0.383496702003479,-0.976037351131439
4.472442231980618,3.35283733263016,1.00620178012848,0.432234133243561
4.473047925499697,2.3301639927864097,-6.74887146205902,-1.9795505347251898
4.473653619018776,-1.29350055799484,8.26311095981598,1.83811059808731
4.474259312537856,-1.69107380018234,0.536777952003479,-1.0933933081626899
4.474865006056935,2.4762601841926597,-9.98454284877777,-1.15566381597519
4.4754706995760145,0.521924246692657,8.16491515903473,1.8309255394935602
4.476076393095094,-3.2190962611198404,0.6708990457534789,-0.24316137456893902
4.476682086614173,-2.21318805799484,-3.6952215597152698,0.444209230899811
4.477287780133253,3.8605814732551598,4.61310119419098,-0.688635007381439
4.4778934736523315,3.5468339146614096,-7.03148376674652,-0.705400144100189
4.478499167171411,-3.2023311244010904,4.30174865512848,0.197522219181061
4.479104860690491,-2.34970417127609,5.34837219028473,0.563960207462311
4.47971055420957,0.842856863880157,-10.583297731590301,-1.00477758550644
4.4803162477286484,2.1696976841926596,4.66818664340973,0.353198488712311
4.480921941247729,-0.977357979869843,3.59282287387848,1.08846948480606
4.481527634766808,-3.19035602674484,-5.30706970424652,-0.492243405818939
4.482133328285887,2.60798625841141,5.51602355747223,0.705266359806061
4.482739021804967,2.0499467076301596,-4.71310486049652,-1.1245285620689398
4.483344715324046,-1.23841510877609,-1.08704529018402,-0.413207761287689
4.483950408843125,-2.63710651502609,7.77452697544098,1.65369409418106
4.4845561023622045,0.727895926380157,-8.62417175502777,-1.79273901128769
4.485161795881284,3.41989787950516,-1.41755798549652,1.5531032738685602
4.485767489400363,-0.766596261119843,8.46189758090973,0.42025903558731104
4.486373182919443,-3.35561237440109,-4.62209411830902,0.31008813714981104
4.486978876438522,-0.776176339244843,2.68750549106598,1.1507399926185602
4.487584569957601,3.2115311802864097,-0.641571657371521,-1.55323705816269
4.488190263476681,0.830881766223907,-6.84467224330902,-0.5616989722251889
4.48879595699576,-2.25629840955734,10.2485821512222,-0.11622533941268899
4.489401650514839,-0.567809640026093,-4.52389831752777,0.19033716058731098
4.490007344033919,2.4762601841926597,-6.38722351284027,-1.6107175269126899
4.490613037552998,1.6380033482551601,10.1551763895035,2.7386379418373097
4.4912187310720775,-4.44295124158859,-3.40781921596527,-0.353332273006439
4.491824424591157,-2.07667194471359,-0.6056463644027711,-0.9832224097251889
4.492430118110236,3.44624309434891,2.98927795200348,1.05972925043106
4.493035811629316,2.44033489122391,-7.48653747768402,-3.01419897222519
4.493641505148394,-1.5138423548698399,6.53630187778473,2.67636743402481
4.494247198667474,-2.15331256971359,2.83360168247223,-1.43827612066269
4.494852892186554,2.23436321153641,-11.261088258934,-0.729350339412689
4.495458585705633,1.09672893419266,8.54572326450348,1.84529565668106
4.496064279224711,-3.1185054408073403,1.91870422153473,-0.616784421443939
4.496669972743792,-2.8622383509635902,-6.08066101284027,1.30641626214981
4.497275666262871,3.3672074498176596,7.00333068637848,-1.12692358160019
4.49788135978195,3.97554241075516,-7.4122918722152695,-0.940112058162689
4.49848705330103,-2.11259723768234,1.8660137918472302,-0.25513647222518904
4.499092746820109,-3.0322847376823403,8.35891174106598,1.19624536371231
4.499698440339188,0.17943645372390699,-11.893373415184,-0.928136960506439
4.500304133858268,2.79000774278641,2.9677227762222302,0.36996362543106104
4.500909827377347,-0.886347237682343,6.36386047153473,1.04296411371231
4.501515520896426,-3.4346480189323403,-6.28663269252777,-1.3328952612876899
4.502121214415506,1.5996830357551601,4.88134338169098,1.54591821527481
4.502726907934585,2.84988323106766,-2.8665448019027697,-1.0981833472251898
4.503332601453664,-1.24799518690109,-3.81257751674652,-0.41799780035018896
4.503938294972744,-3.15682575330734,9.37919006137848,0.789092043399811
4.504543988491823,0.727895926380157,-8.00386169643402,-1.34008031988144
4.505149682010902,3.6833500279426596,-3.64732116909027,0.0514260277748106
4.505755375529982,0.366247977161408,10.725191037941,0.561565187931061
4.506361069049061,-3.9304170619010903,-5.71901306362152,0.858547609806061
4.5069667625681396,-0.831261788463593,1.9378643777847302,-0.0443747534751894
4.50757245608722,2.9289188755989097,2.21089660434723,-0.492243405818939
4.508178149606299,1.03685344591141,-8.15714294643402,-0.829941159725189
4.508783843125379,-1.56174274549484,9.32170959262848,1.0693093285560602
4.509389536644457,-1.28871051893234,-2.3540106222152697,-0.853891355037689
4.509995230163537,3.06064494981766,-9.03851013393402,-1.16045385503769
4.510600923682617,1.70985393419266,11.2976007059097,2.83922876214981
4.511206617201696,-4.335175362682341,-2.19593933315277,-1.4239060034751898
4.511812310720774,-2.12936237440109,-3.21861267299652,0.41067895746231103
4.512418004239855,2.02360149278641,5.76989562778473,0.44899926996231104
4.513023697758934,4.27252483263016,-8.59782654018402,-2.71242651128769
4.5136293912780125,-1.2575752650260899,4.74482726840973,1.49083276605606
4.514235084797093,-3.20712116346359,5.84893127231598,-1.8717746558189399
4.514840778316172,2.5624808873176597,-13.083698122215301,0.334038332462311
4.515446471835251,0.965002859973907,8.24634582309723,1.15792505121231
4.516052165354331,-2.23234821424484,3.07310363559723,0.551985109806061
4.51665785887341,-3.38674762830734,-7.80268005580902,0.24063257074356098
4.517263552392489,2.3900394810676597,8.28706115512848,-0.832336179256439
4.517869245911569,5.00300578966141,-6.3944085714340195,-0.360517331600189
4.518474939430648,-1.54976764783859,-0.21765320034027102,-0.918556882381439
4.519080632949727,-3.66935993299484,9.30015441684723,1.6728542504310602
4.519686326468807,0.200991629505157,-10.8467498800278,-1.97236547613144
4.5202920199878855,2.9384989537239097,1.9977398660659802,0.8753127465248111
4.520897713506965,-0.0864107142448425,7.29791808872223,1.4764626488685602
4.521503407026045,-3.59032428846359,-8.24096863002777,-1.3688205542564398
4.522109100545124,0.991348074817657,5.59984924106598,1.22259057855606
4.5227147940642025,3.1516556920051597,-1.08225525112152,-0.595229245662689
4.523320487583283,-0.366627999401092,-5.46753601284027,-0.885026608943939
4.523926181102362,-3.0921602259635903,10.0042901590347,1.1507399926185602
4.524531874621442,-0.0337202845573425,-7.70687927455902,-1.3041550269126898
4.52513756814052,3.91566692247391,-4.44965271205902,-0.10904028081893899
4.5257432616596,0.639280203723907,11.958626096534699,1.0405690941810601
4.52634895517868,-3.59271930799484,-6.12856140346527,-0.226396237850189
4.5269546486977585,-1.36535114393234,0.860105588722229,0.173572023868561
4.527560342216838,2.67983684434891,3.71496886997223,-0.0755100073814394
4.528166035735918,1.8224198521614101,-8.96426452846527,-0.966457273006439
4.528771729254997,-1.81082477674484,8.12659484653473,1.1722951683998102
4.5293774227740755,-1.70065387830734,-0.402069704246521,-1.2275144019126898
4.529983116293156,2.4834452427864098,-10.2312298604965,-1.3688205542564398
4.530588809812235,2.35171916856766,11.6688287332535,3.04759546136856
4.531194503331314,-3.9831074915885902,-1.73370056362152,-0.8012009253501889
4.531800196850394,-2.79757282361984,-5.28551452846527,-0.12341039800643899
4.532405890369473,2.1505375279426597,8.20563049106598,1.1890603051185602
4.533011583888552,3.45821819200516,-8.25054870815277,-2.27653295660019
4.5336172774076315,-0.416923409557342,2.44800353794098,0.528034914493561
4.534222970926711,-3.17359089002609,7.19253722934723,-0.5425388159751889
4.53482866444579,1.8343949498176602,-12.968737184715302,-0.221606198787689
4.53543435796487,1.36976116075516,7.56616027622223,1.39742700433731
4.5360400514839485,-2.64429157361984,4.62986633090973,0.353198488712311
4.536645745003028,-3.03707477674484,-9.88155700893402,-0.221606198787689
4.537251438522108,1.1374442662239101,8.48824279575348,-0.0323996558189394
4.537857132041187,5.46763957872391,-4.48318298549652,-0.544933835506439
4.538462825560266,-0.572599679088593,-2.94079040737152,-0.885026608943939
4.539068519079346,-3.7603706751823402,10.6078350809097,1.2537258324623102
4.539674212598425,-0.182211495494843,-10.5377923604965,-1.20356420660019
4.540279906117504,2.55769084825516,0.19189513950347897,0.49929468011856104
4.540885599636584,0.27284221544265697,9.23788390903473,1.8357155785560602
4.541491293155663,-3.4609932337760902,-8.22659851284027,-1.8118991675376899
4.542096986674743,0.287212332630157,4.56041076450348,0.858547609806061
4.5427026801938215,3.16363078966141,0.246980588722229,-0.350937253475189
4.543308373712901,0.145906180286407,-7.18476501674652,-1.14368871831894
4.543914067231981,-3.38674762830734,9.80310851840973,1.5866335473060602
4.54451976075106,-0.630080147838593,-6.00881042690277,-0.820361081600189
4.5451254542701385,3.67137493028641,-5.90821960659027,0.09214135980606061
4.545731147789219,1.29312053575516,12.737007444191,1.0740993676185602
4.546336841308298,-3.78911090955734,-6.52134460659027,0.374753664493561
4.546942534827377,-1.98566120252609,-0.5266107198715211,-0.5832541480064389
4.547548228346457,2.32537395372391,5.99023742465973,0.348408449649811
4.548153921865536,2.2199930943489097,-9.27801208705902,-0.791620847225189
4.548759615384615,-1.21685993299484,6.71113830356598,0.288532961368561
4.5493653089036945,-2.22995319471359,0.5271978738784789,-0.434762937068939
4.549971002422774,2.51458049669266,-10.657543337059,-0.868261472225189
4.550576695941853,2.44751994981766,11.6424835184097,3.17213647699356
4.551182389460933,-3.8537764369010903,-0.663126833152771,-0.815571042537689
4.5517880829800115,-2.99156940565109,-6.96442321987152,-0.235976315975189
4.552393776499091,1.39131633653641,8.48584777622223,1.7494948754310602
4.552999470018171,4.25815471544266,-7.12967956752777,-2.5902805151939403
4.55360516353725,0.0525004185676575,0.7475396707534789,0.561565187931061
4.554210857056329,-3.41309284315109,8.51937804965973,-0.125805417537689
4.554816550575409,1.79128459825516,-12.8178509542465,-0.865866452693939
4.555422244094488,1.46795696153641,6.1530987527847305,1.3734768090248102
4.5560279376135675,-1.98087116346359,5.98784240512848,0.302903078556061
4.556633631132647,-3.11371540174484,-11.4263446065903,-0.09467016363143939
4.557239324651726,0.550664481067657,8.770855100440981,0.322063234806061
4.557845018170806,5.41973918809891,-2.33006042690277,-0.37967748785018895
4.5584507116898845,0.423728445911408,-5.48909118862152,-1.31373510503769
4.559056405208964,-4.062143136119841,10.7084259012222,1.01182885980606
4.559662098728044,-1.28631549940109,-9.11515075893402,-1.5268918433189398
4.560267792247123,2.97921428575516,-1.02716980190277,0.437024172306061
4.560873485766201,0.694365652942657,10.3683331277847,2.10156274652481
4.561479179285282,-3.1089253626823403,-8.96186950893402,-2.56154028081894
4.562084872804361,-0.170236397838593,3.05633849887848,0.858547609806061
4.56269056632344,3.25703655138016,3.0443634012222303,0.214287355899811
4.56329625984252,0.780586356067657,-8.36311462612152,-1.0981833472251898
4.563901953361599,-3.41548786268234,8.94090148715973,0.844177492618561
4.564507646880678,-1.05399860486984,-3.6353460714340198,-1.99871069097519
4.5651133403997575,3.68574504747391,-7.43145202846527,0.06819116449356061
4.565719033918837,1.85355510606766,12.1095123270035,1.5866335473060602
4.566324727437916,-3.71486530408859,-5.31425476284027,-0.0635349097251894
4.566930420956996,-2.1173872767448403,-1.66424499721527,0.08495630121231061
4.567536114476075,2.0379716099739102,7.02488586215973,0.173572023868561
4.568141807995154,2.56487590684891,-8.94031433315277,-1.1915891089439399
4.568747501514234,-0.733065987682343,4.81907287387848,0.616650637149811
4.569353195033313,-2.9125337611198403,1.92828429965973,-1.0981833472251898
4.569958888552392,2.51218547716141,-10.7964544698715,-0.846706296443939
4.570564582071472,2.85706828966141,11.0580987527847,2.65002221918106
4.571170275590551,-2.99396442518234,0.5056426980972291,-0.889816648006439
4.5717759691096305,-3.16401081190109,-8.45891540737152,-0.370097409725189
4.57238166262871,0.129141043567657,9.33128967075348,1.20822046136856
4.572987356147789,4.50963176622391,-5.62321228237152,-1.3424753394126898
4.573593049666869,0.711130789661407,-1.38642273159027,0.187942141056061
4.574198743185947,-3.60948444471359,9.00796203403473,-0.614389401912689
4.574804436705027,1.04882854356766,-12.1209002706528,0.348408449649811
4.575410130224107,2.18885784044266,4.93163879184723,1.47406762933731
4.576015823743186,-1.50186725721359,7.17816711215973,0.482529543399811
4.576621517262264,-3.36758747205734,-11.5245404073715,-0.0826950659751894
4.577227210781345,0.0740555943489075,8.00923888950348,-0.125805417537689
4.577832904300424,4.86888469591141,-0.8643084737777711,-0.0635349097251894
4.578438597819503,1.4966971959114101,-6.15969665737152,-1.45025121831894
4.579044291338583,-4.07411823377609,10.169546506691,1.0261989769935602
4.579649984857662,-1.48510212049484,-7.72603943080902,-1.5005466284751898
4.580255678376741,2.8618583287239097,-2.74918884487152,0.475344484806061
4.580861371895821,1.09193889513016,11.460462034034698,1.65848413324356
4.5814670654149,-2.9221138392448402,-8.53795105190277,-1.96518041753769
4.582072758933979,-1.44678180799484,1.0157818582534799,0.700476320743561
4.582678452453059,3.0654349888801598,5.08013000278473,0.152016848087311
4.583284145972138,1.52543743028641,-8.74871277065277,-0.6814499487876889
4.583889839491217,-3.31968708143234,7.98049865512848,0.178362062931061
4.584495533010297,-1.7581343470573398,-2.21270446987152,-1.15087377691269
4.585101226529376,3.11573039903641,-9.15826111049652,-0.8227561011314389
4.585706920048455,2.6055912388801596,12.612466428566,1.6728542504310602
4.586312613567535,-3.26699665174484,-2.9862957784652697,0.372358644962311
4.586918307086614,-2.35209919080734,-4.75142517299652,-0.695820065975189
4.5875240006056925,1.5829178990364101,8.04755920200348,0.9327932152748111
4.588129694124773,2.18885784044266,-7.54162292690277,-0.7820407691001889
4.588735387643852,0.12435100450515699,2.61086486606598,0.324458254337311
4.589341081162932,-3.42746296033859,3.74370910434723,-0.7437204566001889
4.58994677468201,1.92780071153641,-11.462269899559,-1.21074926519394
4.59055246820109,3.2881718052864097,9.70012267856598,2.35543481683731
4.59115816172017,-2.93408893690109,2.72582580356598,-0.293456784725189
4.591763855239249,-2.9987544642448403,-10.4443865987778,-0.185680905818939
4.592369548758327,-0.654030343151093,9.24506896762848,0.844177492618561
4.592975242277408,4.0881083287239095,-3.12760193080902,-1.01675268316269
4.593580935796487,2.1074271763801598,-3.44134948940277,-0.607204343318939
4.5941866293155655,-3.39393268690109,9.29536437778473,-0.729350339412689
4.594792322834646,0.687180594348907,-10.7198138448715,-0.29824682378768896
4.595398016353725,2.1170072545051597,3.18806457309723,0.367568605899811
4.596003709872804,-1.06597370252609,8.70379455356598,1.2704909691810602
4.596609403391884,-3.2214912806510902,-11.8119427511215,-0.956877194881439
4.597215096910963,-1.42762165174484,5.96868224887848,-0.09706518316268939
4.597820790430042,4.63417278184891,1.83727355747223,0.5950954613685611
4.598426483949122,2.56727092638016,-6.86383239955902,-1.61311254644394
4.599032177468201,-3.83222126111984,8.950481565284731,1.21780053949356
4.59963787098728,-2.21797809705734,-5.82439392299652,-1.32810522222519
4.60024356450636,2.5960111607551597,-3.6018157979965197,0.482529543399811
4.6008492580254385,1.36257610216141,11.4269317605972,2.2763991723060597
4.601454951544518,-2.52454059705734,-7.63263366909027,-2.85852270269394
4.602060645063598,-1.20488483533859,-0.5840911886215211,1.2154055199623102
4.602666338582677,2.48823528184891,6.97938049106598,0.343618410587311
4.6032720321017555,2.14574748888016,-8.48047058315277,-1.0263327612876898
4.603877725620836,-2.82870807752609,5.75073547153473,0.286137941837311
4.604483419139915,-2.13654743299484,-0.617621462059021,-0.592834226131439
4.605089112658994,2.45230998888016,-9.08641052455902,-0.130595456600189
4.605694806178073,3.0582499302864097,11.434116819191,1.1124196801185602
4.606300499697153,-2.30898883924484,-2.65099304409027,0.786697023868561
4.606906193216233,-2.9125337611198403,-4.91428650112152,-0.829941159725189
4.6075118867353115,1.10870403184891,7.84877258090973,1.4429323754310601
4.608117580254391,2.4666801060676598,-6.75126648159027,-1.10536840581894
4.608723273773471,0.747056082630157,1.39658996372223,-0.36770239019393897
4.60932896729255,-3.13287555799484,3.58563781528473,-0.600019284725189
4.6099346608116285,1.4631669224739101,-10.5282122823715,-0.9832224097251889
4.610540354330709,3.0678300084114096,8.84031066684723,2.34585473871231
4.611146047849788,-2.00961139783859,3.6862286355972302,-0.276691648006439
4.611751741368867,-3.2622066126823404,-10.609642946434,-0.21921117925643901
4.612357434887947,-0.977357979869843,8.83791564731598,0.362778566837311
4.612963128407026,3.89411174669266,-2.2414447042465198,-0.11383031988143899
4.613568821926105,2.4091996373176596,-3.72875183315277,-1.15566381597519
4.6141745154451845,-2.99635944471359,7.94217834262848,-0.0755100073814394
4.614780208964264,-0.10796589002609301,-9.56301941127777,-0.628759519100189
4.615385902483343,2.01881145372391,2.39052306919098,0.899262941837311
4.615991596002423,-0.555834542369843,9.20195861606598,1.9458864769935602
4.6165972895215015,-3.08976520643234,-10.8156146261215,-1.86937963628769
4.617202983040581,-1.43480671033859,4.30653869419098,0.183152101993561
4.617808676559661,4.047392996692659,3.49941711215973,1.00224878168106
4.61841437007874,3.1684208287239097,-7.50330261440277,-1.44785619878769
4.619020063597819,-3.28615680799484,7.64519592075348,0.408283937931061
4.619625757116899,-3.17119587049484,-4.54305847377777,-0.650314694881439
4.620231450635978,2.4259647740364096,-4.5646136495590195,0.599885500431061
4.6208371441550575,1.60686809434891,11.156294553566001,1.90277612543106
4.621442837674137,-1.7796895228385898,-6.11419128627777,-1.86219457769394
4.622048531193216,-1.96171100721359,-1.86542663784027,0.877707766056061
4.622654224712296,1.84397502794266,7.20690734653473,-0.149755612850189
4.6232599182313745,2.7325272740364097,-7.96793640346527,-0.09467016363143939
4.623865611750454,-2.43113483533859,4.91487365512848,-0.16412573003768902
4.624471305269534,-2.45269001111984,0.347571409034729,-1.2442795386314398
4.625076998788613,1.4368217076301601,-8.97384460659027,-0.714980222225189
4.6256826923076915,4.04499797716141,10.543169553566,1.9937868676185602
4.626288385826772,-2.21797809705734,-1.38642273159027,0.504084719181061
4.626894079345851,-3.25981159315109,-5.83876404018402,-1.4406711401939398
4.62749977286493,0.627305106067657,7.03207092075348,2.04647729730606
4.62810546638401,2.1002421177864097,-4.31792663784027,-1.9915256323814399
4.628711159903089,1.2236649693489101,0.510432737159729,0.0298708519935606
4.629316853422168,-3.75318561658859,3.19285461215973,-0.813176023006439
4.6299225469412475,1.6811136998176601,-9.95580261440277,-0.9832224097251889
4.630528240460327,2.94328899278641,7.28354797153473,1.9171462426185601
4.631133933979406,-1.68628376111984,4.9819342020034805,-0.853891355037689
4.631739627498486,-2.79038776502609,-11.1485223409653,1.1651101098060601
4.6323453210175645,-1.37972126111984,7.97091857700348,-1.00717260503769
4.632951014536644,3.0750150670051597,-0.576906130027771,0.896867922306061
4.633556708055724,3.0678300084114096,-4.16943542690277,-0.465898190975189
4.634162401574803,-2.29461872205734,7.00572570590973,-0.600019284725189
4.634768095093882,-1.29350055799484,-8.31760925502777,0.0993264183998106
4.635373788612962,2.0834769810676597,2.00731994419098,0.911238039493561
4.635979482132041,-0.10796589002609301,8.09306457309723,2.99730005121231
4.6365851756511205,-2.94845905408859,-9.30196228237152,-2.70763647222519
4.6371908691702,-1.64796344861984,2.3522027566909802,0.698081301212311
4.637796562689279,2.93610393419266,4.28498351840973,0.427444094181061
4.638402256208359,3.61868450059891,-6.29621277065277,-1.0933933081626899
4.6390079497274375,-3.0658150111198403,5.82737609653473,0.403493898868561
4.639613643246517,-3.07060505018234,-3.77186218471527,-1.77597387456894
4.640219336765597,2.20801799669266,-4.0592645284652695,1.12439477777481
4.640825030284676,1.53741252794266,10.9910382059097,0.968718508243561
4.641430723803754,-1.41325153455734,-6.47823425502777,-0.482663327693939
4.642036417322835,-2.26827350721359,-2.1049285909652697,0.22147241449356098
4.642642110841914,1.3218607701301601,6.97219543247223,0.274162844181061
4.643247804360993,2.4594950474739097,-6.69857605190277,-0.382072507381439
4.643853497880073,-0.982148018932343,3.93052062778473,-0.0467697730064394
4.644459191399152,-3.29094684705734,-0.08113708705902099,-0.712585202693939
4.645064884918231,0.991348074817657,-8.41101501674652,-1.16524389410019
4.6456705784373105,3.76478069200516,9.99231506137848,2.47997583246231
4.64627627195639,-1.64077839002609,-0.6272015401840211,-0.571279050350189
4.646881965475469,-2.88858356580734,-6.67223083705902,-0.865866452693939
4.647487658994549,-0.38818317518234197,7.59969054965973,1.65848413324356
4.648093352513628,2.53853069200516,-4.01136413784027,-0.633549558162689
4.648699046032707,1.63081828966141,-0.636781618309021,-0.147360593318939
4.649304739551787,-3.0155196009635903,3.8826202371597303,-1.44785619878769
4.649910433070866,0.337507742786408,-9.75701599330902,-0.619179440975189
4.650516126589945,2.8091678990364097,7.11589660434723,1.61537378168106
4.651121820109025,-0.567809640026093,5.43698791294098,0.525639894962311
4.651727513628104,-3.24065143690109,-10.971290895652801,-0.144965573787689
4.6523332071471835,-1.4922871790885899,6.55067199497223,0.0514260277748106
4.652938900666263,2.6989970005989097,0.603838498878479,1.4764626488685602
4.653544594185342,3.1085453404426597,-4.02333923549652,-1.6586179175376898
4.654150287704422,-1.54497760877609,5.2549664285659805,-0.274296628475189
4.6547559812235,-1.40127643690109,-7.56796814174652,-0.640734616756439
4.65536167474258,2.0212064732551602,1.7462628152847302,0.602280519962311
4.65596736826166,0.172251395130157,8.950481565284731,2.7458230004310598
4.656573061780739,-2.71853717908859,-9.27322204799652,-1.95081030035019
4.657178755299817,-1.76771442518234,1.44928039340973,0.609465578556061
4.657784448818898,2.0499467076301596,5.02264953403473,0.609465578556061
4.658390142337977,4.30845012559891,-5.50825134487152,-1.26343969488144
4.658995835857056,-1.56653278455734,4.69213683872223,0.628625734806061
4.659601529376136,-3.6214595423698404,-3.1563421651840198,-1.4358811011314399
4.660207222895215,1.50388225450516,-4.18141052455902,0.939978273868561
4.660812916414294,1.49430217638016,10.4425787332535,1.11960473871231
4.661418609933374,-0.689955636119843,-5.29988464565277,-0.425182858943939
4.662024303452453,-2.15570758924484,-2.83780456752777,-0.18807592535018902
4.662629996971532,0.8356718052864069,7.18774719028473,-0.32698705816268897
4.663235690490612,3.0845951451301596,-6.27705261440277,0.805857180118561
4.663841384009691,-0.895927315807343,3.3605059793472303,-0.719770261287689
4.66444707752877,-3.1688008509635903,-0.339799196434021,-0.0323996558189394
4.66505277104785,0.519529227161407,-7.57994323940277,-0.748510495662689
4.665658464566929,3.93722209825516,9.40074523715973,2.51350610589981
4.666264158086008,-0.936642647838593,-0.464340212059021,0.015500734806060599
4.666869851605088,-3.42267292127609,-6.35129821987152,-1.67298803472519
4.667475545124167,-0.445663643932342,5.96628722934723,2.47518579339981
4.6680812386432455,1.93977580919266,-2.16719909877777,-1.85261449956894
4.668686932162326,1.62842327013016,-0.100297243309021,0.255002687931061
4.669292625681405,-2.53412067518234,3.11142394809723,-1.0550729956626899
4.669898319200485,-0.127126046276093,-9.58457458705902,-1.20356420660019
4.670504012719563,2.84988323106766,6.22973937778473,2.20454858636856
4.671109706238643,-0.675585518932343,5.9135967996597305,0.305298098087311
4.671715399757723,-2.98438434705734,-11.0263763448715,0.298113039493561
4.672321093276802,-1.3605611048698398,5.80582092075348,-0.870656491756439
4.67292678679588,1.80804973497391,1.2672589090347302,1.1435549340248101
4.673532480314961,3.75759563341141,-3.32159851284027,-0.652709714412689
4.67413817383404,-1.15698444471359,5.21904113559723,-0.652709714412689
4.6747438673531185,-2.05511676893234,-7.6781390401840195,-1.01435766363144
4.675349560872199,1.81523479356766,1.73189269809723,0.302903078556061
4.675955254391278,0.177041434192657,8.54093322544098,2.59972680902481
4.676560947910357,-1.96889606580734,-9.131915895652769,-1.9963156714439398
4.677166641429437,-1.6503584681510899,0.864895627784729,0.07777124261856061
4.677772334948516,1.15181438341141,5.01067443637848,0.642995851993561
4.678378028467595,4.01146770372391,-4.31313659877777,-1.01675268316269
4.678983721986675,-1.08752887830734,4.03829650669098,-0.0587448706626894
4.679589415505754,-3.54721393690109,-3.59702575893402,-1.4095358862876899
4.680195109024833,1.09672893419266,-3.77186218471527,0.48971460199356104
4.680800802543913,1.68829875841141,9.66419738559723,1.3902419457435602
4.6814064960629915,-0.5031441126823419,-4.85201599330902,-0.09946020269393939
4.682012189582071,-2.4431099329948402,-3.4485345479965197,-0.171310788631439
4.682617883101151,0.153091238880157,6.35667541294098,-0.0108444800376894
4.68322357662023,2.61756633653641,-4.76579529018402,0.207102297306061
4.683829270139309,0.16506633653640698,3.0108331277847302,-0.370097409725189
4.684434963658389,-3.5017085658073404,-0.090717165184021,-0.8012009253501889
4.685040657177468,0.210571707630157,-7.56557312221527,-0.305431882381439
4.685646350696547,3.36241741075516,8.830730588722231,1.5914235863685602
4.686252044215626,-0.340282784557342,0.704429319190979,-0.350937253475189
4.686857737734706,-2.57483600721359,-6.41117370815277,0.0562160668373106
4.687463431253786,-1.3509810267448399,5.84893127231598,1.01901391839981
4.6880691247728645,2.63672649278641,-2.42825622768402,-0.482663327693939
4.688674818291944,1.4966971959114101,0.062564084815979,-0.38686254644393897
4.689280511811024,-1.86351520643234,2.88389709262848,-0.779645749568939
4.689886205330103,-0.364232979869842,-9.29477722377777,-0.748510495662689
4.6904918988491815,2.47865520372391,5.9734722879409805,0.968718508243561
4.691097592368262,0.545874442005157,5.47530822544098,1.5052028832435602
4.691703285887341,-3.3148970423698403,-9.67319030971527,-0.844311276912689
4.69230897940642,-1.2958955775260899,3.9927911355972303,0.0514260277748106
4.6929146729255,1.1158890904426602,1.69596740512848,0.7747219262123111
4.693520366444579,3.43187297716141,-1.92530212612152,-0.9209519019126889
4.694126059963658,0.112375906848907,3.45630676059723,0.219077394962311
4.6947317534827375,-2.49819538221359,-6.76324157924652,-2.7363767066001903
4.695337447001817,1.90864055528641,0.9870416238784789,2.06084741449356
4.695943140520896,0.533899344348907,8.94569152622223,2.50153100824356
4.696548834039976,-2.73530231580734,-7.75717468471527,-2.05379614019394
4.6971545275590545,-1.72220905408859,-0.6248065206527711,0.556775148868561
4.697760221078134,0.632095145130157,5.02743957309723,-0.415602780818939
4.698365914597214,3.79591594591141,-3.87005798549652,0.324458254337311
4.698971608116293,-0.00977008924484254,3.75089416294098,-0.291061765193939
4.699577301635372,-3.67894001111984,-3.65929626674652,-1.51970678472519
4.700182995154452,0.150696219348907,-3.39823913784027,0.365173586368561
4.700788688673531,1.81044475450516,9.09657775669098,1.5650783715248102
4.7013943821926105,-0.345072823619842,-3.9443035909652697,0.106511476993561
4.70200007571169,-1.96889606580734,-2.85456970424652,-0.978432370662689
4.702605769230769,-0.146286202526093,5.26454650669098,0.276557863712311
4.703211462749849,2.19125285997391,-3.79341736049652,0.0993264183998106
4.7038171562689275,0.897942313098907,2.17018127231598,0.06340112543106059
4.704422849788007,-3.25741657361984,-0.459550172996521,-0.676659909725189
4.705028543307087,-0.6013399134635931,-6.52373962612152,-1.08860326910019
4.705634236826166,3.41510784044266,7.40808898715973,2.10156274652481
4.7062399303452445,0.227336844348907,1.1738531473159801,-0.719770261287689
4.706845623864325,-2.61794635877609,-6.03036560268402,0.0370559105873106
4.707451317383404,-1.29829059705734,5.12324035434723,1.0453591332435601
4.708057010902483,1.87032024278641,-1.52772888393402,-0.47787328863143896
4.708662704421563,2.46189006700516,-0.433204958152771,0.163991945743561
4.709268397940642,-2.25869342908859,2.2061065652847303,-1.54605199956894
4.709874091459721,-0.771386300182343,-7.78112488002777,-0.216816159725189
4.7104797849788005,2.49063030138016,5.69325500278473,1.01182885980606
4.71108547849788,0.354272879505158,4.38796935825348,0.472949465274811
4.711691172016959,-2.23953327283859,-8.07571228237152,-0.334172116756439
4.712296865536039,-1.92339069471359,3.53055236606598,-0.214421140193939
4.7129025590551175,0.974582938098907,0.881660764503479,1.0573342308998102
4.713508252574197,2.6055912388801596,-0.7469525167465211,-0.552118894100189
4.714113946093277,0.184226492786407,2.19173644809723,-0.8012009253501889
4.714719639612356,-1.88267536268234,-5.81481384487152,-1.54605199956894
4.715325333131435,0.47881389513015804,2.32106750278473,0.731611574649811
4.715931026650515,0.979372977161407,5.96868224887848,1.8476906762123102
4.716536720169594,-1.83237995252609,-5.89145446987152,-0.805990964412689
4.7171424136886735,-1.98326618299484,0.402656858253479,-0.13299047613143902
4.717748107207753,0.524319266223907,2.56296447544098,0.243027590274811
4.718353800726832,3.54922893419266,-1.34810241909027,-0.293456784725189
4.718959494245912,0.648860281848907,2.2492169168472302,-0.0755100073814394
4.7195651877649905,-3.3053169642448403,-3.72635681362152,-2.00589574956894
4.72017088128407,-0.330702706432342,-1.7911810323715198,0.762746828556061
4.72077657480315,1.97809612169266,6.86202453403473,1.14834497308731
4.721382268322229,-0.048090401744842505,-2.67494323940277,0.17596704339981098
4.721987961841307,-1.89704547986984,-2.6102777120590197,-0.324592038631439
4.722593655360388,-0.08162067518234249,3.5233673074722303,-0.731745358943939
4.723199348879467,1.61405315294266,-2.36359070034027,1.2489357933998102
4.723805042398546,1.45119182481766,2.20371154575348,-0.37728246831893897
4.724410735917626,-2.88139850721359,-1.64747986049652,0.18554712152481098
4.725016429436705,-0.733065987682343,-4.73466003627777,-0.252741452693939
4.725622122955784,3.14926067247391,5.63577453403473,1.94109643793106
4.726227816474864,0.270447195911407,1.83727355747223,-0.48745336675643897
4.726833509993943,-2.40957965955734,-4.72268493862152,0.125671633243561
4.727439203513022,-1.73897419080734,2.93658752231598,0.748376711368561
4.728044897032102,1.24522014513016,-0.44757507534027097,-0.645524655818939
4.728650590551181,2.08826702013016,-0.263158571434021,-0.0036594214439394303
4.72925628407026,-1.14979938611984,1.48760070590973,-1.3544504370689399
4.72986197758934,-1.4204365931510898,-7.21350525112152,-1.01196264410019
4.730467671108419,2.4427299107551597,4.72087707309723,0.798672121524811
4.731073364627498,0.375828055286408,5.62619445590973,1.8692458519935602
4.731679058146578,-2.6634517298698404,-7.49132751674652,-0.9017917456626889
4.732284751665657,-0.962987862682343,1.6265118387222302,-0.281481687068939
4.732890445184736,0.114770926380157,2.27556213169098,0.628625734806061
4.733496138703816,3.13249553575516,-0.517030641746521,-0.11622533941268899
4.734101832222895,0.897942313098907,2.3522027566909802,-0.195260983943939
4.734707525741975,-2.6203413783073404,-6.68181091518402,-2.23821264410019
4.735313219261053,1.05840862169266,1.46125549106598,0.829807375431061
4.735918912780133,0.335112723255158,7.88469787387848,2.11593286371231
4.736524606299213,-1.47312702283859,-6.09742614955902,-1.5005466284751898
4.737130299818292,-1.4156465540885899,-1.27625183315277,0.563960207462311
4.73773599333737,-0.146286202526093,3.74131408481598,-0.22879125738143902
4.738341686856451,3.39834270372391,-1.53730896205902,0.365173586368561
4.73894738037553,1.05840862169266,2.9078472879409802,-0.104250241756439
4.739553073894609,-2.63710651502609,-4.18620056362152,-1.3975607886314398
4.740158767413689,-0.673190499401093,-2.75876892299652,0.8345974144935611
4.740764460932768,1.4799320591926601,8.63912902622223,0.559170168399811
4.741370154451847,0.268052176380157,-3.20424255580902,0.836992434024811
4.741975847970927,-1.68867878065109,-2.89528503627777,-1.11255346441269
4.742581541490006,-0.426503487682342,3.88980529575348,-0.0036594214439394303
4.743187235009085,1.72182903184891,-2.67973327846527,0.731611574649811
4.743792928528165,1.7529642857551602,2.7018756082534803,-0.420392819881439
4.744398622047244,-2.47185016736984,-1.63550476284027,-0.324592038631439
4.745004315566323,-1.29829059705734,-5.79325866909027,-1.54126196050644
4.745610009085403,2.2463383091926596,6.50516662387848,1.99139184808731
4.746215702604482,0.897942313098907,2.0600103738784803,-0.149755612850189
4.746821396123562,-1.9928462611198399,-5.07954284877777,-0.453923093318939
4.747427089642641,-1.73897419080734,2.99646301059723,0.441814211368561
4.74803278316172,1.2236649693489101,-0.6272015401840211,-0.166520749568939
4.7486384766807985,1.7745194615364102,0.263745725440979,0.26937280511856104
4.749244170199879,-0.357047921276092,1.4373052957534802,-0.873051511287689
4.749849863718958,-1.33661090955734,-7.75477966518402,-0.978432370662689
4.750455557238038,2.03318157091141,4.57957092075348,0.729216555118561
4.751061250757116,0.893152274036407,5.67648986606598,1.72314966058731
4.751666944276196,-2.61794635877609,-7.60628845424652,-0.5640939917564389
4.752272637795276,-1.14261432752609,1.6600421121597302,-0.149755612850189
4.7528783313143546,-0.481588936901092,1.8779888895034802,0.255002687931061
4.753484024833433,2.5888261021614096,-0.251183473777771,0.183152101993561
4.754089718352514,1.46077190294266,2.5653594949722303,0.255002687931061
4.754695411871593,-2.52214557752609,-6.61235534877777,-3.03096410894394
4.7553011053906715,0.629700125598907,0.757119748878479,1.9554665551185602
4.755906798909752,0.608144949817657,8.40920715122223,2.5159011254310597
4.756512492428831,-1.57611286268234,-5.81002380580902,-1.66580297613144
4.75711818594791,-1.1761446009635899,-2.01631286830902,0.42025903558731104
4.75772387946699,-0.048090401744842505,3.96165588169098,-0.300641843318939
4.758329572986069,2.52416057481766,-2.03786804409027,0.36996362543106104
4.758935266505148,2.0643168248176598,3.36290099887848,-0.331777097225189
4.7595409600242276,-2.38562946424484,-4.00657409877777,-1.07423315191269
4.760146653543307,-1.32224079236984,-2.95755554409027,-0.0850900855064394
4.760752347062386,1.49909221544266,8.36849181919098,1.6680642113685602
4.761358040581466,0.22015178575515698,-2.75876892299652,-0.08748510503768939
4.7619637341005445,-1.03004840955734,-3.42458435268402,-0.868261472225189
4.762569427619624,-0.646845284557343,3.93052062778473,0.542405031681061
4.763175121138704,1.29072551622391,-2.27736999721527,-0.235976315975189
4.763780814657783,2.3565092076301597,1.90672912387848,-0.00126440191268943
4.764386508176862,-2.02637653455734,-1.3552874776840198,-0.5233786597251889
4.764992201695942,-1.31505573377609,-6.10700622768402,-1.01196264410019
4.765597895215021,1.8607401646614101,6.68239806919098,1.6560891137123102
4.7662035887341,0.749451102161407,2.32346252231598,0.156806887149811
4.766809282253179,-1.61922321424484,-5.43879577846527,-0.27908666753768896
4.767414975772259,-1.3988814173698398,2.9246124246597303,-0.00605444097518943
4.768020669291339,0.526714285755157,-0.7469525167465211,0.08974634027481061
4.7686263628104175,1.91822063341141,0.618208616065979,-0.291061765193939
4.769232056329497,0.232126883411407,1.6049566629409802,-0.7413254370689389
4.769837749848577,-1.9162056361198399,-7.79070495815277,-1.58437231206894
4.770443443367656,1.84637004747391,4.02632140903473,1.1555300316810602
4.7710491368867345,0.998533133411407,6.16746886997223,1.84290063714981
4.771654830405815,-2.3808394251823404,-7.11051941127777,-1.69454321050644
4.772260523924894,-0.951012765026093,1.17864318637848,0.415468996524811
4.772866217443973,-0.531884347057343,1.7414727762222302,0.39151880121231103
4.773471910963053,2.4068046177864098,-0.282318727684021,0.125671633243561
4.774077604482132,1.40089641466141,2.6683453348159802,-0.415602780818939
4.774683298001211,-2.16289264783859,-6.74887146205902,-2.05619115972519
4.7752889915202905,0.749451102161407,1.75584289340973,1.68722436761856
4.77589468503937,-0.06964557752609249,6.96261535434723,1.34234155511856
4.776500378558449,-0.697140694713593,-6.45188904018402,-1.1293186011314398
4.777106072077529,-1.20488483533859,-1.05830505580902,0.698081301212311
4.7777117655966075,-0.301962472057343,3.56887267856598,-0.465898190975189
4.778317459115687,2.20801799669266,-1.79357605190277,1.12439477777481
4.778923152634767,1.5398075474739101,3.80837463169098,-0.350937253475189
4.779528846153846,-1.89225544080734,-5.1370233175277695,-1.39995580816269
4.780134539672925,-2.1341524134635903,-2.93839538784027,-0.235976315975189
4.780740233192005,1.58531291856766,8.10503967075348,2.03210718011856
4.781345926711084,0.0572904576301575,-2.7036834737777697,-0.12820043706893902
4.7819516202301635,-1.26236530408859,-2.2941351339340197,-1.21074926519394
4.782557313749243,-0.673190499401093,2.32825256137848,1.11481469964981
4.783163007268322,0.555454520130157,-1.97799255580902,-0.894606687068939
4.783768700787402,2.11221721544266,1.9761846902847302,0.956743410587311
4.7843743943064805,-1.67909870252609,-1.0630950948715199,-1.03591283941269
4.78498008782556,-1.51623737440109,-5.80762878627777,-1.3760056128501899
4.78558578134464,1.92780071153641,5.99263244419098,1.5315480980873102
4.786191474863719,0.747056082630157,2.20371154575348,0.312483156681061
4.7867971683827975,-1.79884967908859,-5.36934021205902,0.19033716058731098
4.787402861901878,-1.4922871790885899,3.54492248325348,-0.506613523006439
4.788008555420957,0.462048758411408,-1.21158630580902,0.769931887149811
4.788614248940036,1.8343949498176602,0.982251584815979,-0.6024143042564389
4.789219942459116,0.117165945911407,1.7079425027847301,-0.32698705816268897
4.789825635978195,-1.7916646204948399,-8.37029968471527,-0.954482175350189
4.790431329497274,1.66913860216141,4.85020812778473,0.33164331293106103
4.7910370230163535,1.00332317247391,5.77708068637848,2.65960229730606
4.791642716535433,-2.25629840955734,-7.00513855190277,-1.75441869878769
4.792248410054512,-0.895927315807343,0.903215940284729,0.762746828556061
4.792854103573592,-0.534279366588593,2.1127008035659802,-0.350937253475189
4.793459797092671,2.23915325059891,-0.32782409877777097,0.24542260980606098
4.79406549061175,1.90385051622391,3.12818908481598,0.07777124261856061
4.79467118413083,-1.3773262415885899,-7.08417419643402,-2.8297824683189403
4.795276877649909,-0.275617257213593,-0.25597351284027103,1.96504663324356
4.795882571168988,0.593774832630157,9.369609983253481,1.5028078637123101
4.796488264688068,-0.828866768932343,-6.56445495815277,0.08016626214981061
4.797093958207147,-1.2527852259635899,-1.30020202846527,-0.880236569881439
4.7976996517262265,-0.201371651744843,3.4371466043472303,0.247817629337311
4.798305345245306,1.48951213731766,-2.30611023159027,0.0202907738685606
4.798911038764385,2.5624808873176597,4.17960265903473,-0.693425046443939
4.799516732283465,-1.99524128065109,-5.00529724330902,-1.1101584448814399
4.8001224258025434,-1.5401875697135898,-3.24495788784027,-0.611994382381439
4.800728119321623,1.63560832872391,8.98161681919098,2.61409692621231
4.801333812840703,-0.330702706432342,-2.83540954799652,-0.887421628475189
4.801939506359782,-0.850421944713593,-3.6880365011215197,-0.315011960506439
4.80254519987886,-0.757016182994843,4.26821838169098,0.784302004337311
4.803150893397941,0.509949149036408,-2.45220642299652,-0.592834226131439
4.80375658691702,2.08587200059891,2.29711730747223,0.0610061058998106
4.804362280436099,-1.4108565150260899,-0.782877809715271,-1.0933933081626899
4.804967973955179,-1.4372017298698399,-7.30212097377777,-0.952087155818939
4.805573667474258,1.4631669224739101,7.22127746372223,1.49083276605606
4.806179360993337,1.2571952427864101,2.64918517856598,0.563960207462311
4.806785054512417,-1.50665729627609,-6.53092468471527,-0.161730710506439
4.807390748031496,-1.08513385877609,4.28977355747223,-0.36770239019393897
4.807996441550575,0.107585867786407,-1.58281433315277,0.348408449649811
4.808602135069655,1.6763236607551601,0.13201965122222897,-0.0252145972251894
4.809207828588734,0.553059500598907,2.54380431919098,0.453789309024811
4.809813522107813,-2.00721637830734,-7.90806091518402,-2.5902805151939403
4.810419215626893,1.36257610216141,3.86825011997223,0.923213137149811
4.811024909145972,1.0991239537239101,5.94473205356598,2.70989770746231
4.811630602665051,-1.62880329236984,-7.03148376674652,-2.01308080816269
4.812236296184131,-1.2791304408073398,1.5067608621597302,0.496899660587311
4.81284198970321,-0.47919391736984196,2.11030578403473,0.16638696527481098
4.8134476832222886,2.2702885045051597,-1.1277606222152698,0.549590090274811
4.814053376741369,1.6547684849739102,3.69580871372223,-0.611994382381439
4.814659070260448,-1.17374958143234,-6.94047302455902,-1.95560033941269
4.815264763779528,-0.187001534557343,-0.502660524559021,1.84529565668106
4.815870457298606,0.725500906848907,9.03909728794098,1.7207546410560601
4.816476150817686,-0.783361397838593,-5.72859314174652,0.0011306176185605702
4.817081844336766,-1.45636188611984,-2.16001404018402,-0.240766355037689
4.817687537855845,0.177041434192657,3.60719299106598,-0.202446042537689
4.818293231374923,1.1757645787239102,-2.38514587612152,0.46097436761856103
4.818898924894004,2.4666801060676598,4.46940002231598,-0.633549558162689
4.819504618413083,-1.37493122205734,-4.33229675502777,-0.520983640193939
4.8201103119321616,-1.87549030408859,-3.3958441183090198,-1.44306615972519
4.820716005451242,1.3937113560676602,8.59601867465973,2.25244897699356
4.821321698970321,-0.016955147838592498,-2.31569030971527,0.0322658715248106
4.8219273924894,-0.287592354869843,-3.1228118917465197,-1.01914770269394
4.82253308600848,-0.958197823619843,3.2407550027847303,0.971113527774811
4.823138779527559,0.591379813098907,-2.0019427511215198,-0.786830808162689
4.823744473046638,2.14814250841141,2.17497131137848,0.678921144962311
4.824350166565718,-0.745041085338593,-0.22244323940277103,-1.00717260503769
4.824955860084797,-1.41325153455734,-7.10333435268402,-1.3041550269126898
4.825561553603876,1.01290325059891,5.83456115512848,0.997458742618561
4.826167247122956,1.50627727403641,3.10663390903473,0.911238039493561
4.8267729406420345,-1.37014118299484,-5.4962762472152695,0.0442409691810606
4.827378634161115,-1.4539668665885899,2.64679015903473,-0.0323996558189394
4.827984327680194,-0.14389118299484302,-0.8068280050277711,0.266977785587311
4.828590021199273,1.48472209825516,0.103279416847229,-0.355727292537689
4.8291957147183515,1.07277873888016,2.13425597934723,-0.291061765193939
4.829801408237432,-1.98566120252609,-7.1991351339340195,-2.3076682105064403
4.830407101756511,1.1757645787239102,2.73061584262848,0.968718508243561
4.831012795275591,1.39610637559891,6.42613097934723,2.50871606683731
4.831618488794669,-2.00242633924484,-6.13335144252777,-1.87895971441269
4.832224182313749,-1.1162691126823399,0.26135070590972903,0.789092043399811
4.832829875832829,-0.555834542369843,2.33064758090973,0.027475832462310598
4.8334355693519075,2.02599651231766,-0.5242157003402711,-0.0323996558189394
4.834041262870987,1.78649455919266,3.01322814731598,0.27895288324356105
4.834646956390067,-0.831261788463593,-6.1549066183090195,-2.44897436285019
4.835252649909146,-0.431293526744842,-0.955319215965271,1.13157983636856
4.8358583434282245,0.335112723255158,8.88342101840973,1.34952661371231
4.836464036947305,-0.548649483776093,-4.73945007534027,-0.276691648006439
4.837069730466384,-1.14500934705734,-2.5072918722152697,-0.19765600347518902
4.837675423985463,-0.170236397838593,3.35332092075348,-0.286271726131439
4.838281117504543,1.18294963731766,-1.7600457784652699,0.530429934024811
4.838886811023622,2.39243450059891,4.03590148715973,-0.509008542537689
4.839492504542701,-1.25518024549484,-3.54673034877777,-0.6838449683189389
4.8400981980617805,-2.01200641736984,-4.66280945034027,-0.734140378475189
4.84070389158086,1.3386259068489101,7.68112121372223,1.96265161371231
4.841309585099939,0.531504324817657,-0.34698425502777097,0.142436769962311
4.841915278619019,-0.45763874158859197,-3.81976257534027,-0.571279050350189
4.8425209721380975,-1.17374958143234,3.11381896762848,0.149621828556061
4.843126665657177,0.212966727161407,-1.91332702846527,0.0298708519935606
4.843732359176257,2.13137737169266,1.6384869363784802,0.33882837152481105
4.844338052695336,-0.802521554088593,0.694849241065979,-1.3257102026939398
4.844943746214415,-1.79405964002609,-7.1392596456527695,-0.365307370662689
4.845549439733495,1.70745891466141,5.59745422153473,0.7531667504310611
4.846155133252574,0.945842703723907,3.50420715122223,0.906448000431061
4.846760826771653,-1.04441852674484,-5.49388122768402,-0.382072507381439
4.847366520290733,-1.44678180799484,2.64679015903473,0.29092798089981103
4.847972213809812,-0.11515094861984301,-0.330219118309021,0.669341066837311
4.848577907328892,2.0116263951301603,-0.016471559715271,0.163991945743561
4.8491836008479705,0.41893840684890804,2.46476867465973,-0.825151120662689
4.84978929436705,-1.54258258924484,-7.09614929409027,-1.9795505347251898
4.85039498788613,1.0105082310676599,2.50069396762848,1.14115991449356
4.851000681405209,0.960212820911407,6.71592834262848,1.7375197777748101
4.8516063749242875,-1.26236530408859,-5.90342956752777,-1.0383078589439398
4.852212068443368,-1.6982588587760898,-0.176937868309021,0.465764406681061
4.852817761962447,-0.7402510462760931,1.8276934793472301,0.19991723871231099
4.853423455481526,2.1170072545051597,-0.5864862081527711,0.415468996524811
4.854029149000606,1.72422405138016,3.4970220926284803,-0.23837133550643902
4.854634842519685,-0.833656807994843,-5.7956536886215195,-2.45615942144394
4.855240536038764,-0.986938057994843,-1.6402948019027699,0.686106203556061
4.8558462295578435,0.804536551380157,8.99838195590973,1.55070825433731
4.856451923076923,-0.857607003307343,-4.70591980190277,0.353198488712311
4.857057616596002,-1.1761446009635899,-2.27976501674652,-0.8634714331626889
4.857663310115082,-0.0935957728385925,3.41559142856598,0.381938723087311
4.8582690036341605,0.8356718052864069,-2.1312738058090197,0.26937280511856104
4.85887469715324,2.71097209825516,3.51857726840973,-0.365307370662689
4.85948039067232,-1.1162691126823399,-3.2760931417465198,-0.758090573787689
4.860086084191399,-2.21797809705734,-3.95627868862152,-1.71130834722519
4.860691777710478,1.15181438341141,7.87751281528473,2.50153100824356
4.861297471229558,0.23931194200515699,-1.0463299581527699,0.125671633243561
4.861903164748637,-0.18939655408859302,-4.32750671596527,-1.22511938238144
4.8625088582677165,-1.02765339002609,3.65030334262848,0.492109621524811
4.863114551786796,0.191411551380157,-1.68101013393402,0.08974634027481061
4.863720245305875,2.19125285997391,1.89714904575348,0.317273195743561
4.864325938824954,-1.2192549525260898,0.177525022315979,-0.592834226131439
4.8649316323440335,-1.40846149549484,-6.95723816127777,-1.1460837378501898
4.865537325863113,0.725500906848907,5.24778136997223,0.28134790277481103
4.866143019382193,1.74817424669266,3.7628692605972303,1.6465090355873102
4.866748712901272,-0.986938057994843,-5.50106628627777,0.437024172306061
4.86735440642035,-1.72460407361984,3.12818908481598,-1.3712155737876899
4.867960099939431,-0.119940987682343,-0.9265789815902711,0.9950637230873111
4.86856579345851,1.95654094591141,-0.107482301902771,-0.420392819881439
4.869171486977589,0.967397879505157,2.48153381137848,-0.041979733943939404
4.869777180496669,-2.26827350721359,-7.00513855190277,-2.14001684331894
4.870382874015748,1.3553910435676602,2.61086486606598,0.592700441837311
4.870988567534827,1.06798869981766,6.12196349887848,2.42489038324356
4.8715942610539065,-1.81082477674484,-5.82678894252777,-2.5663303198814402
4.872199954572986,-1.38211628065109,-0.476315309715271,1.4596975121498101
4.872805648092065,-0.47919391736984196,2.90305724887848,-0.315011960506439
4.873411341611145,1.60926311388016,-1.2044012472152699,0.19033716058731098
4.874017035130224,2.2535233677864097,3.2503350809097302,0.556775148868561
4.874622728649303,-0.8408418665885931,-5.98965027065277,-1.1915891089439399
4.875228422168383,-1.02765339002609,-1.40797790737152,0.437024172306061
4.875834115687462,0.433308524036408,8.54572326450348,1.7423098168373101
4.876439809206541,-0.491169015026092,-4.4185174581527695,0.27895288324356105
4.877045502725621,-1.52581745252609,-2.05702820034027,-1.11734350347519
4.8776511962447,-0.0361153040885925,3.1042388895034803,0.393913820743561
4.8782568897637795,0.854831961536407,-1.90853698940277,0.16638696527481098
4.878862583282859,2.34453410997391,4.51969543247223,-0.19765600347518902
4.879468276801938,-0.970172921276093,-3.2760931417465198,-0.21921117925643901
4.880073970321018,-2.62513141736984,-4.19099060268402,-1.45504125738144
4.880679663840096,1.4032914341926601,7.44880431919098,2.9949050316810597
4.881285357359176,-0.10317585096359301,-0.936159059715271,-0.8419162573814389
4.881891050878256,-0.242086983776093,-3.74551696987152,-0.456318112850189
4.882496744397335,-1.14979938611984,3.37966613559723,0.645390871524811
4.883102437916413,-0.280407296276093,-1.20200622768402,-1.2873898901939398
4.883708131435494,2.48823528184891,0.714009397315979,1.3016262230873101
4.884313824954573,-0.443268624401092,0.6661090066909789,-1.50773168706894
4.884919518473652,-1.69586383924484,-7.09854431362152,-0.489848386287689
4.885525211992732,0.854831961536407,5.05857482700348,0.858547609806061
4.886130905511811,1.41047649278641,4.27779845981598,1.3303664574623102
4.88673659903089,-1.12345417127609,-5.86031921596527,-0.365307370662689
4.88734229254997,-1.29350055799484,2.51027404575348,-0.724560300350189
4.887947986069049,-0.687560616588593,-0.272738649559021,0.803462160587311
4.888553679588128,2.1505375279426597,-0.145802614402771,-0.391652585506439
4.889159373107208,1.34820598497391,2.45039855747223,-0.0300046362876894
4.889765066626287,-2.51496051893234,-6.6339105245590195,-2.4202341284751903
4.890370760145366,1.6164481724739101,1.4420953348159802,1.51717798089981
4.890976453664446,1.0392484654426601,7.14463683872223,1.84290063714981
4.891582147183525,-1.05399860486984,-5.27593445034027,-1.98913061285019
4.892187840702604,-1.3509810267448399,-1.0678851339340198,1.4165871605873102
4.892793534221684,-0.737856026744843,3.34853088169098,-0.659894773006439
4.893399227740763,1.8990604771614101,-1.75765075893402,1.03338403558731
4.8940049212598415,1.38413127794266,3.7365240457534803,-0.331777097225189
4.894610614778922,0.0716605748176575,-5.32622986049652,-1.8286643042564399
4.895216308298001,-1.27194538221359,-2.65099304409027,0.07777124261856061
4.895822001817081,0.45007366075515803,9.46062072544098,1.6129787621498102
4.896427695336159,-0.606129952526093,-3.90837829799652,1.05493921136856
4.897033388855239,-1.39169635877609,-2.99348083705902,-1.5436569800376898
4.897639082374319,0.042920340442657495,3.26470519809723,0.528034914493561
4.898244775893398,0.605749930286407,-1.5636541769027699,-0.0108444800376894
4.898850469412476,2.92412883653641,3.64072326450348,0.07298120355606061
4.899456162931557,-0.977357979869843,-2.02589294643402,-0.9209519019126889
4.900061856450636,-2.51735553846359,-5.63039734096527,-1.32810522222519
4.9006675499697145,1.07038371934891,7.13984679965973,2.4224953637123097
4.901273243488795,0.0548954380989075,1.2073834207534802,-0.511403562068939
4.901878937007874,-0.416923409557342,-4.96697693080902,0.152016848087311
4.902484630526953,-0.723485909557343,3.0778936746597303,0.650180910587311
4.903090324046033,0.0213651646614075,-1.2139813253402698,-0.647919675350189
4.903696017565112,2.1241923130989098,0.697244260597229,1.2034304223060601
4.904301711084191,-0.330702706432342,1.40138000278473,-0.235976315975189
4.904907404603271,-2.31856891736984,-7.09854431362152,-0.973642331600189
4.90551309812235,0.627305106067657,4.06464172153473,0.477739504337311
4.906118791641429,1.70027385606766,5.08731506137848,1.76146997308731
4.906724485160509,-1.01328327283859,-5.74535827846527,-0.873051511287689
4.9073301786795875,-1.08273883924484,1.2337286355972301,-0.573674069881439
4.907935872198667,-1.22883503065109,0.405051877784729,0.159201906681061
4.908541565717747,1.79846965684891,-0.639176637840271,-0.360517331600189
4.909147259236826,0.914707449817657,2.44800353794098,-0.944902097225189
4.9097529527559045,-2.1078071986198403,-6.87101745815277,-2.65734106206894
4.910358646274985,1.61165813341141,0.694849241065979,2.1303029808998097
4.910964339794064,0.871597098255157,8.37328185825348,1.20103540277481
4.911570033313144,-1.03244342908859,-5.88426941127777,-0.954482175350189
4.912175726832222,-1.38930133924484,-1.3073870870590198,0.836992434024811
4.912781420351302,-0.871977120494843,3.5568975809097303,-0.595229245662689
4.913387113870382,2.04755168809891,-1.97799255580902,1.15792505121231
4.9139928073894605,1.78409953966141,4.21792297153473,-0.394047605037689
4.91459850090854,-0.704325753307343,-5.23282409877777,-1.60592748785019
4.91520419442762,-0.768991280651093,-3.38147400112152,-0.262321530818939
4.915809887946699,0.553059500598907,9.47020080356598,1.7327297387123102
4.9164155814657775,-0.436083565807342,-3.49643493862152,0.690896242618561
4.917021274984858,-1.23362506971359,-3.6449261495590197,-1.30655004644394
4.917626968503937,-0.0648555384635925,3.93531066684723,0.942373293399811
