Time (s),Accel X (m/s^2),Accel Y (m/s^2),Accel Z (m/s^2)
4.369625,-1.12231803388596,6.623635048770909,-0.36689266777038604
4.370231060606061,14.725526204395301,-11.185730185604099,-0.342942472457886
4.370837121212121,-0.0206090495109558,0.7151218651771549,-2.60384090995789
4.371443181818182,-11.574183268261,8.6019211815834,2.4736004962921103
4.372049242424242,-0.406207194042206,-6.115473837947841,0.217492097854614
4.372655303030303,7.19079475908279,0.980969033145905,0.397118562698364
4.373261363636364,2.83425423173904,1.1797556542396501,0.6030902423858641
4.373867424242424,-7.41163932294846,-1.0500075293541,-0.824341398239136
4.374473484848485,-5.79021110029221,7.67265360345841,2.3466644611358602
4.375079545454546,11.3940540364265,-6.096313681697841,-2.34517880058289
4.375685606060606,6.36690804033279,-6.18492940435409,-0.690220304489136
4.376291666666667,-11.4951476237297,10.3047800683022,-0.010034757614135501
4.376897727272727,-3.23951529951096,-3.28935079107285,-0.0794903240203855
4.377503787878788,6.65191536455154,-3.04505879888535,1.46769229316711
4.378109848484849,3.4737244465827897,4.2908860253334,-0.47466854667663605
4.378715909090909,-5.73512565107346,-4.0006715918541,0.236652254104614
4.37932196969697,-8.56843375654221,6.45598368158341,1.00784854316711
4.379928030303031,8.46494514970779,0.051701455020904494,0.234257234573364
4.380534090909091,9.84208138017654,-11.200100302791599,-1.8925201091766402
4.381140151515152,-8.410362467479711,7.62475321283341,-0.244746671676636
4.381746212121212,-7.59366080732346,2.1186033104896502,0.811456941604614
4.382352272727273,5.85197884111404,-6.31186543951034,0.0498407306671145
4.382958333333334,5.018512044239039,4.98304666986466,0.512079500198364
4.383564393939394,-3.7113341471672103,-2.28823262701035,-0.951277433395386
4.384170454545455,-10.3311681315422,2.6311374901771503,1.01503360176086
4.384776515151516,5.5382312825202895,3.72326639642715,0.478549226760864
4.385382575757576,13.4465857747078,-11.0827443457603,-3.60256405448914
4.385988636363637,-7.11465690107346,2.8395041893959,0.909652742385864
4.386594696969697,-8.82709586591721,6.66195536127091,0.787506746292114
4.387200757575758,3.70604134111404,-7.78240743169784,0.114506258010864
4.387806818181819,5.84000374345779,2.99518045892715,0.727631258010864
4.388412878787879,-1.5222862956047098,0.660036415958405,-1.25783993339539
4.38901893939394,-8.86781119794846,-1.8259938574791,1.5371478595733599
4.389625,0.911053548145294,8.23548319330215,-0.113020597457886
4.390231060606061,13.439400716114,-8.5943190527916,-2.1272320232391397
4.3908371212121216,-1.84561393232346,-4.759892783260351,-0.0603301677703855
4.391443181818182,-10.700001139354699,11.619645790958401,-1.0925835857391402
4.3920492424242425,0.7074768879890441,-5.92626729497909,1.63773867988586
4.3926553030303035,7.7200940754890395,-0.767395224666595,1.03419375801086
4.3932613636363635,1.48585823564529,4.6309787987709,-0.800391202926636
4.3938674242424245,-9.26059440107346,-4.75031270513535,0.5048944416046139
4.3944734848484845,-2.72219108076096,7.60080301752091,0.6438055744171141
4.3950795454545455,11.7700721028328,-2.69538594732285,-0.254326749801636
4.395685606060606,3.36594856767654,-9.0493727637291,-2.1463921794891396
4.3962916666666665,-10.4030187174797,10.6664280175209,0.109716218948364
4.396897727272727,-2.15936149091721,-1.6224171973228498,1.0246136798858598
4.397503787878788,8.00510139970779,-4.8652736426353504,-0.0148247966766355
4.398109848484848,2.11095833330154,6.04883036127091,0.792296785354614
4.398715909090909,-7.14339713544846,-4.45812032232285,-0.771650968551636
4.399321969696969,-5.85487662763596,4.02024881830215,0.993478425979614
4.39992803030303,9.19542610673904,3.04308084955215,-0.5560992107391359
4.400534090909091,9.09483528642654,-11.8299904395103,-1.44465145683289
4.401140151515151,-10.5347447916985,6.02727518548966,-0.6950103435516359
4.401746212121212,-5.44053824872971,4.300466103458399,0.737211336135864
4.402352272727272,6.7620862629890395,-7.96682393560409,1.70479922676086
4.402958333333333,3.77549690752029,5.9602146386146595,-0.951277433395386
4.403564393939394,-5.38305777997971,-1.8643141699791,0.833012117385864
4.404170454545454,-8.58040885419846,-0.472807822322845,0.104926179885864
4.404776515151515,8.34758919267654,6.5924997948646595,0.45220401191711396
4.405382575757576,10.3186902668953,-10.0217506934166,-2.5463604412078897
4.405988636363636,-7.89543326826096,0.37742411127090497,-1.5117120037078902
4.406594696969697,-7.44277457685471,7.67983866205216,2.79213809394836
4.407200757575758,3.66772102861404,-6.9465456152915905,-0.7333306560516359
4.407806818181818,6.15375130205154,1.4791330956459001,1.48445742988586
4.408412878787879,-2.8634972331047104,2.2694895409584,-0.709380460739136
4.409018939393939,-9.64140250654221,-3.1336745215415998,-0.42676815605163604
4.409625,4.91073616533279,6.95414774408341,2.24607364082336
4.410231060606061,11.813182454395301,-4.8820387793541,-2.4601397380828898
4.410837121212121,-4.9998546549797105,-6.489096884822841,-0.704590421676636
4.411443181818182,-8.635494303417211,10.5227268456459,0.416278718948364
4.412049242424242,1.92414680986404,-4.28567891607285,0.986293367385864
4.412655303030303,8.25897347002029,-1.5864919043541,0.102531160354614
4.413261363636364,-1.0384923502922099,5.313559365177159,-0.11062557792663599
4.413867424242424,-9.473751139354711,-5.849626669979091,0.0354706134796145
4.414473484848485,0.6691565754890441,6.649980263614659,0.387538484573364
4.415079545454546,9.81813118486404,-0.034519248104095505,0.0019403400421144801
4.415685606060606,1.55052376298904,-10.1798219824791,-2.1272320232391397
4.416291666666667,-9.08815299482346,8.40313456048965,0.143246492385864
4.416897727272727,-1.35702994794846,0.346288857364655,0.8210370197296141
4.417503787878788,7.83505501298904,-5.729875693416591,0.686915925979614
4.418109848484849,0.6068860676765441,6.18295145502091,0.0354706134796145
4.418715909090909,-8.19720572919846,-3.10253926763535,-0.661480070114136
4.41932196969697,-3.33052604169846,0.7749973534584049,1.25693057441711
4.419928030303031,10.201334309864,4.8273704003333995,-0.623159757614136
4.420534090909091,5.55260139970779,-9.62657247076035,-2.08891171073914
4.421140151515152,-9.64140250654221,2.9472800683021503,0.0234955158233645
4.421746212121212,-4.25021354169846,5.17225321283341,1.14915469551086
4.422352272727273,6.37169807939529,-7.23634297857284,0.564769929885864
4.422958333333334,3.23182747392654,4.580683388614649,-0.11062557792663599
4.423564393939394,-6.55182731122971,-0.056074423885345503,0.5072894611358639
4.424170454545455,-7.05717643232346,-2.1660866309166,-0.32857235527038603
4.424776515151516,8.65654671220779,5.85483377923966,0.160011629104614
4.425382575757576,9.21219124345779,-7.03037129888534,-0.30701717948913604
4.425988636363637,-9.46417106122971,-1.09072286138535,-2.2230328044891396
4.426594696969697,-5.91954215497971,7.19364969720841,1.1778949298858599
4.427200757575758,4.79577522783279,-5.995722861385341,0.873727449417114
4.427806818181819,5.4184803059577895,1.1246702050209,-0.544124113082886
4.428412878787879,-3.7903697916984602,2.80357889642715,0.612670320510864
4.42901893939394,-9.959940104198461,-4.35752950201035,-0.750095792770386
4.429625,8.69247200517654,6.530229287052159,1.57307315254211
4.430231060606061,7.94283089189529,-2.3960085059166,-0.9177471599578859
4.430837121212122,-6.46081656904221,-6.57052754888534,-4.040852628707889
4.431443181818182,-5.42137809247971,6.60686991205216,3.64237002754211
4.432049242424243,1.2319861653327902,-0.506338095760345,-1.04947323417664
4.4326553030303035,7.97875618486404,-2.6882008887291,1.0796991291046099
4.433261363636364,-2.3509630534172103,4.88245584955215,0.116901277542114
4.4338674242424245,-9.85695426435471,-4.01743672857285,-1.37280087089539
4.434473484848485,3.35876350908279,3.06224100580215,2.53826602363586
4.4350795454545455,8.70923714189529,2.55928690423965,-1.71049862480164
4.4356856060606065,-0.40860221357345605,-8.8673512793541,-1.3704058513641402
4.4362916666666665,-7.35894889326096,5.5410862206459095,-0.31420223808288605
4.4368977272727275,0.0320813801765442,1.8144358300209,0.615065340042114
4.437503787878788,7.506937337207789,-5.40654805669784,1.11083438301086
4.4381098484848485,-1.49354606122971,5.34948465814591,-0.491433683395386
4.438715909090909,-8.99235221357346,-2.7073610449791,0.844987215042114
4.4393219696969695,-0.0421642252922058,-0.000988974666595451,0.770741609573364
4.43992803030303,10.0648181965828,4.8010251854896495,0.8785174884796141
4.440534090909091,2.93245003252029,-8.05783467779159,-2.05777645683289
4.441140151515151,-8.06787467451096,1.0887449120521502,-0.5944195232391359
4.441746212121212,-3.8502452799797102,5.021366982364659,1.0054535236358602
4.442352272727272,6.38606819658279,-5.583779502010341,-0.0339849529266355
4.442958333333333,2.20915413408279,2.82273905267715,1.11322940254211
4.443564393939394,-7.27991324872971,2.9161448143959,-1.0542632732391402
4.444170454545454,-4.91123893232346,-4.99939473638534,0.847382234573364
4.444776515151515,10.4001209309578,4.858505654239649,-0.726145597457886
4.445382575757576,5.41608528642654,-2.65706563482285,-0.132180753707886
4.445988636363636,-9.56476188154221,-4.235383505916601,-1.60751278495789
4.446594696969697,-2.7868566081047104,5.699157509708409,0.928812898635864
4.447200757575757,3.79465706377029,-2.9756032324791,1.3239911212921098
4.447806818181818,4.56106331377029,-0.35066182622909503,-1.06623837089539
4.448412878787879,-5.09565543622971,2.7197532128334,1.20184512519836
4.449018939393939,-7.71580680341721,-3.3492262793541,-1.34406063652039
4.449625,8.97747932939529,4.0226438378334,1.08688418769836
4.450231060606061,5.64361214189529,0.334313759708405,-0.371682706832886
4.450837121212121,-6.94700553388596,-6.7070436621665905,-2.61821102714539
4.451443181818182,-4.19033805341721,4.360341591739649,1.44613711738586
4.452049242424242,2.84622932939529,0.897143349552155,0.104926179885864
4.452655303030303,6.93931770830154,-2.7241261816978497,1.39823672676086
4.453261363636364,-3.9101207682609602,4.42261209955215,-0.685430265426636
4.453867424242424,-8.41994254560471,-3.6941090918541,-0.124995695114136
4.454473484848485,5.84479378252029,1.06479471673965,1.46529727363586
4.455079545454545,6.50581917314529,4.3387864159584,-1.46620663261414
4.455685606060606,-2.9664830729484604,-7.413574423885341,-1.10934872245789
4.456291666666667,-4.44660514326096,2.3844504784584,-0.560889249801636
4.456897727272727,0.149437337207794,3.18199198236465,0.612670320510864
4.457503787878788,6.57287972002029,-4.149162802791601,0.377958406448364
4.458109848484849,-2.20247184247971,3.6490207909584003,0.231862215042114
4.458715909090909,-8.28103141279221,-1.0643776465416,0.152826570510864
4.45932196969697,1.40921761064529,-1.46913594732285,-0.570469327926636
4.45992803030303,8.33561409502029,3.95318827142715,0.732421297073364
4.460534090909091,2.00078743486404,-4.87006368169785,-1.41591122245789
4.461140151515152,-7.69664664716721,-0.997317099666595,-1.76079403495789
4.461746212121212,-1.4025353190422098,4.3818967675208995,1.07730410957336
4.462352272727273,5.41608528642654,-3.7228493262291,1.73114444160461
4.462958333333334,0.460789876270294,2.39642557611465,-0.259116788864136
4.463564393939394,-7.92656852216721,1.8144358300209,0.203121980667114
4.464170454545455,-1.82405875654221,-3.22229024419785,-0.5177788982391359
4.464776515151515,10.8982849934578,2.68861795892715,0.6390155353546141
4.465382575757576,2.54685188798904,-0.6620143652915951,-1.7392388591766401
4.465988636363637,-8.56843375654221,-3.4761623145103497,-0.8339214763641359
4.466594696969697,-2.2910875651359603,2.6143723534584002,1.65450381660461
4.467200757575758,4.52753304033279,-0.9805519629478451,0.054630769729614496
4.467806818181819,3.5407849934577897,-0.7650002051353451,1.23058535957336
4.468412878787879,-6.42010123701096,3.8070920800209,-0.9129571208953859
4.46901893939394,-4.53761588544846,-3.7276393652916,-0.165711027145386
4.469625,10.1007434895515,1.9365818261146501,0.5815350666046141
4.470231060606061,2.38399055986404,2.53533670892715,-0.220796476364136
4.470837121212121,-6.89910514326096,-5.95261250982284,-1.04228817558289
4.471443181818182,-2.1042760416984603,1.7737204979896501,-0.40521298027038605
4.472049242424242,3.15997688798904,2.2934397362709,0.9791083087921141
4.472655303030303,5.31309944658279,-1.48829610357285,0.536029695510864
4.4732613636363645,-4.90165885419846,2.5425217675209,-0.0890704021453855
4.473867424242424,-6.37938590497971,-1.8259938574791,-0.194451261520386
4.4744734848484855,6.575274739551539,-0.262046103572845,0.409093660354614
4.475079545454545,4.60896370439529,3.5388498925209,0.8425921955108641
4.4756856060606065,-3.9077257487297103,-4.11323750982285,-2.2829082927703896
4.4762916666666674,-3.27065055341721,-0.424907431697845,-0.879426847457886
4.4768977272727275,1.96965218095779,3.29216288080215,1.56109805488586
4.477503787878788,5.33465462236404,-2.0415456152916,0.00433535957336448
4.4781098484848485,-4.00592154951096,1.91263163080215,0.296527742385864
4.478715909090909,-7.57929069013596,0.501965126895905,-0.19684628105163599
4.47932196969697,5.2053235676765395,-3.58633321294785,0.8833075275421141
4.47992803030303,7.36323616533279,3.4717893456459,-0.819551359176636
4.480534090909091,-1.88393424482346,-1.0212672949791,-1.24107479667664
4.481140151515152,-5.2728868815422105,-3.29893086919785,-0.539334074020386
4.481746212121212,-0.0637194010734558,3.1269065331459003,0.777926668167114
4.482352272727273,4.0078138020515395,-0.8440358496665951,1.7000091876983598
4.482958333333333,-0.777435221385956,0.485199990177155,-0.620764738082886
4.483564393939394,-6.99251090497971,1.58690897455215,0.777926668167114
4.484170454545455,0.364989095020294,-1.96730000982285,-1.62667294120789
4.484776515151515,10.1989392903328,0.31036356439590496,1.42697696113586
4.485382575757576,0.039266438770294204,1.62522928705215,-1.11174374198914
4.485988636363636,-7.36613395185471,-3.4761623145103497,-1.7775591716766401
4.486594696969697,-0.873236002635956,-0.135110068416595,1.8580804767608599
4.487200757575758,4.36467171220779,1.88389139642715,0.0187054767608645
4.487806818181818,1.9888123372077902,-1.0835378027915998,1.5036175861358598
4.488412878787879,-6.96856070966721,2.77483866205215,-1.53566219902039
4.489018939393939,-2.05637565107346,-2.4822292090416,0.0234955158233645
4.489625,9.98338753252029,-0.673989462947845,0.6988910236358641
4.490231060606061,0.616466145801544,4.74833475580215,-1.02312801933289
4.490837121212121,-7.88345817060471,-4.4700954199791,-0.843501554489136
4.491443181818182,0.35540901689529397,-1.63199727544785,-0.42437313652038605
4.492049242424242,3.56234016923904,3.77116678705215,1.17549991035461
4.492655303030303,3.47851448564529,-0.693149619197845,0.0881610431671145
4.493261363636364,-5.07889029951096,0.983364052677155,0.37316836738586395
4.493867424242424,-5.2657018229484605,-0.26923116216659504,-0.192056241989136
4.494473484848485,7.82786995439529,-2.30260274419785,0.844987215042114
4.495079545454545,2.15167366533279,4.18311014642715,0.33005801582336397
4.495685606060606,-5.1794811198234605,-1.6870827246665998,-1.76558407402039
4.496291666666667,-0.434947428417206,-4.0797072363853495,-0.690220304489136
4.496897727272727,2.76719368486404,4.3148362206458994,0.531239656448364
4.497503787878788,3.28930794267654,-0.235700888729095,0.6030902423858641
4.498109848484848,-4.77951285810471,-0.412932334041595,0.677335847854614
4.498715909090909,-6.2907701823234605,2.01322245111465,0.198331941604614
4.49932196969697,5.72025276689529,-3.69650411138535,0.26299746894836395
4.49992803030303,5.4520105793952895,2.1090232323646503,-1.22430965995789
4.500534090909091,-3.08144401044846,1.52463846673965,-0.9560674724578859
4.501140151515152,-2.81799186201096,-3.9863014746666,-0.40521298027038605
4.501746212121212,0.159017415332794,1.1055100487709,0.753976472854614
4.502352272727273,2.71450325517654,0.35107889642715495,0.631830476760864
4.502958333333333,-1.76897330732346,-0.008174033260345449,0.174381746292114
4.503564393939394,-6.982930826854711,3.3903586815834,0.145641511917114
4.504170454545455,3.67251106767654,-3.76356465826035,-0.692615324020386
4.504776515151515,8.73558235673904,-1.75174825201035,-0.244746671676636
4.505382575757576,-2.8994225260734603,5.0620823143959095,0.387538484573364
4.505988636363636,-6.12311881513596,-3.7228493262291,-0.9345122966766359
4.506594696969697,0.673946614551544,-2.38882344732285,0.179171785354614
4.507200757575758,3.60784554033279,2.76046854486465,1.3742865314483599
4.507806818181818,0.233263020801544,-0.47999288091659503,-0.704590421676636
4.508412878787879,-6.02971305341721,1.8431760643959,1.01263858222961
4.509018939393939,0.0943518879890442,-0.755420127010345,-1.1572491130828901
4.509625,9.45648323564529,-3.29893086919785,0.239047273635864
4.510231060606061,-2.7724864909172102,5.785378212833409,0.0450506916046145
4.510837121212121,-6.2308946940422105,-1.5409865332603498,-1.32250546073914
4.511443181818182,1.89780159502029,-5.55503926763534,0.689310945510864
4.512049242424242,3.64137581377029,4.94472635736466,-0.271091886520386
4.512655303030303,2.33130013017654,0.171452431583405,1.69042910957336
4.513261363636364,-6.55182731122971,1.1749656151771501,-0.659085050582886
4.513867424242424,-2.16894156904221,0.923488564395905,-0.0315899333953855
4.5144734848484855,8.02186653642654,-5.24129170904159,0.828222078323364
4.515079545454545,0.149437337207794,4.120839638614649,-0.5345440349578859
4.515685606060606,-5.55070914716721,1.7521653222084002,-0.263906827926636
4.5162916666666675,1.6511145833015402,-5.950217490291591,-1.68894344902039
4.5168977272727275,3.1815320637702897,3.2897678612709003,0.792296785354614
4.5175037878787885,1.35413216142654,1.6946848534584,0.5839300861358641
4.518109848484848,-4.4346300456047105,-1.6583424902916,0.0474457111358645
4.5187159090909095,-4.97590445966721,3.3232981347084003,0.107321199417114
4.51932196969697,6.28547737627029,-4.0102516699791,-0.663875089645386
4.5199280303030305,4.39580696611404,-0.8248756934165951,0.00673037910461448
4.520534090909091,-5.01901481122971,5.811723427677159,-0.968042570114136
4.521140151515152,-1.20614371747971,-5.66760518560409,-0.632739835739136
4.521746212121212,2.25226448564529,-1.2583742285728499,0.536029695510864
4.522352272727273,1.10984016923904,4.38908182611465,0.203121980667114
4.522958333333333,-3.53649772138596,-2.74328633794785,0.904862703323364
4.523564393939394,-6.21173453779221,4.1855051659584,-0.8339214763641359
4.524170454545455,5.64361214189529,-3.3300661231040998,0.6414105548858641
4.524776515151515,7.40634651689529,-4.161137900447851,-2.15597225761414
4.525382575757576,-5.55070914716721,7.63912333002091,1.41500186347961
4.525988636363636,-3.5580528971672103,-2.6450905371666,0.26299746894836395
4.526594696969697,1.87864143877029,-5.18141622076034,-1.56200741386414
4.527200757575758,1.9552820637702901,4.22622049798965,1.9562762775421099
4.527806818181818,-0.878026041698456,-0.482387900447845,-1.24825985527039
4.528412878787879,-6.084798502635961,0.942648720645905,0.9982684650421141
4.529018939393939,2.64983772783279,1.67312967767715,-1.3153204021453901
4.529625,8.92718391923904,-6.35976583013534,-0.127390714645386
4.530231060606061,-4.95434928388596,5.785378212833409,1.2641156330108598
4.530837121212121,-6.3769908854484605,1.9868772362709002,-1.60032772636414
4.531443181818182,3.6701160481452897,-9.32480000982285,1.01263858222961
4.532049242424242,3.8928528645515397,5.68478739252091,0.16240664863586401
4.532655303030303,-0.487637858104706,2.0443577050209,0.016310457229614498
4.533261363636364,-5.88361686201096,-2.4726491309166,0.715656160354614
4.533867424242424,-0.664869303417206,3.7783518456459,-0.029194913864135502
4.534473484848485,7.866190266895289,-5.969377646541591,-0.0531451091766355
4.535079545454545,-1.5438414713859598,2.7245432518959003,-0.601604581832886
4.535685606060606,-6.48476676435471,5.50516092767716,0.751581453323364
4.536291666666667,3.6174256184577898,-8.34284200201035,-1.75839901542664
4.536897727272727,4.06529427080154,1.7234250878334,0.365983308792114
4.537503787878788,-0.35112174482345604,4.45614237298965,1.06532901191711
4.538109848484848,-5.14116080732346,-3.25103047857285,-0.244746671676636
4.538715909090909,-3.62990348310471,3.69452616205215,0.8833075275421141
4.53932196969697,7.2482752278327895,-3.1863649512291,-1.0806084880828901
4.53992803030303,2.99951057939529,-2.95883809576035,-0.805181241989136
4.540534090909091,-6.44165641279221,8.16842264642716,-0.0555401287078855
4.541140151515152,0.582935872364044,-5.62688985357284,-0.982412687301636
4.541746212121212,3.61263557939529,-3.0857741309166,-0.10583553886413599
4.542352272727273,-0.43015738935470604,6.12786600580216,0.7994818439483641
4.542958333333333,-4.48253043622971,-3.0187135840416,0.0594208087921145
4.543564393939394,-4.38433463544846,2.8826145409584,1.30483096504211
4.544170454545455,7.26025032548904,-0.15427022466659499,-1.05186825370789
4.544776515151515,6.36451302080154,-7.380044150447841,-1.36561581230164
4.545382575757576,-7.33739371747971,8.34565409173965,1.0581439533233599
4.545988636363636,-2.4443688151359604,-0.49915303716659504,0.0977411212921145
4.546594696969697,3.5838953450202897,-8.3356569434166,-0.0387749919891355
4.547200757575758,1.2750965168952901,6.15421122064591,-0.0244048748016355
4.547806818181818,-2.04440055341721,-0.978156943416595,0.5408197345733641
4.548412878787879,-5.86206168622971,0.327128701114655,-0.32857235527038603
4.549018939393939,5.15502815752029,2.2790696190834,0.0139154376983645
4.549625,7.68416878252029,-7.31777364263534,-1.2338897380828902
4.550231060606061,-6.46560660810471,6.24282694330216,0.833012117385864
4.550837121212121,-5.68004020185471,3.8717576073646502,0.0594208087921145
4.551443181818182,4.83649055986404,-10.3019679785728,-1.48057674980164
4.552049242424242,4.35509163408279,4.3435764550209,1.3144110431671099
4.552655303030303,-2.1881017252922104,4.120839638614649,-0.560889249801636
4.553261363636364,-5.399822916698461,-3.6462087012291,1.0749090900421099
4.553867424242424,1.73015022783279,4.472907509708399,0.107321199417114
4.554473484848485,6.81956673173904,-5.3562526465415905,-0.948882413864136
4.555079545454545,-2.99761832685471,-0.180615439510345,0.526449617385864
4.555685606060606,-6.02971305341721,8.8605832909584,0.0187054767608645
4.5562916666666675,4.51795296220779,-9.24336934576035,-0.9776226482391359
4.556897727272727,5.38974007158279,-0.592558798885345,-0.0531451091766355
4.5575037878787885,-2.5066393229484603,6.68590555658341,1.1443646564483598
4.558109848484848,-5.59142447919846,-4.122817587947851,0.0618158283233645
4.5587159090909095,-1.05525748701096,3.1316965722084,0.888097566604614
4.5593219696969705,6.76448128252029,-2.33134297857285,-0.711775480270386
4.5599280303030305,1.9289368489265402,-4.51081075201035,-0.908167081832886
4.5605340909090915,-6.93982047529221,8.79591776361465,1.3575213947296099
4.561140151515152,1.5145984700202901,-3.4162868262290997,-1.60511776542664
4.5617462121212125,5.46398567705154,-6.09391866216659,0.5216595783233641
4.562352272727273,-2.27911246747971,7.6966037987709095,-0.0986504802703855
4.5629583333333334,-4.87770865888596,-2.17327168951035,0.806666902542114
4.563564393939394,-3.55565787763596,0.585790810489655,0.7420013751983641
4.564170454545455,7.92846077470779,1.8455710839271502,-2.01227108573914
4.564776515151515,5.62684700517654,-8.730835166072849,0.200726961135864
4.565382575757576,-8.99714225263596,8.7552024315834,-1.09018856620789
4.565988636363636,-1.99889518232346,1.2611863183021501,1.58983828926086
4.566594696969697,5.03527718095779,-9.8397292090416,-0.5345440349578859
4.567200757575758,0.618861165332794,5.90991922845841,0.255812410354614
4.567806818181818,-3.39758658857346,0.501965126895905,0.418673738479614
4.568412878787879,-5.07649527997971,-1.11946309576035,-0.831526456832886
4.569018939393939,7.0686487629890395,2.8682444237709,1.07730410957336
4.569625,6.6758655598640395,-7.58122579107284,-1.14527401542664
4.570231060606061,-9.24382926435471,5.1219578026771595,-0.141760831832886
4.570837121212121,-4.17836295576096,5.69676249017716,0.9815033283233641
4.571443181818182,6.07232063798904,-10.9198830176353,-0.9560674724578859
4.572049242424242,3.8233972981452897,3.1795969628334,0.236652254104614
4.572655303030303,-3.47901725263596,5.47881571283341,-0.132180753707886
4.573261363636364,-5.69441031904221,-3.5168776465416,0.7611615314483641
4.573867424242424,4.300006184864039,3.60351541986465,0.548004793167114
4.574473484848485,6.99919319658279,-4.85569356451035,-1.39435604667664
4.575079545454545,-5.18187613935471,-1.3805202246666,0.387538484573364
4.575685606060606,-6.27879508466721,9.8138010643959,0.710866121292114
4.576291666666667,5.40650520830154,-8.23746114263535,-0.759675870895386
4.576897727272727,6.12261604814529,-2.2379372168541,-0.944092374801636
4.577503787878788,-4.05142692060471,7.974426064395909,0.500104402542114
4.578109848484848,-6.297955240917211,-4.09407735357285,0.6797308673858641
4.578715909090909,1.61039925127029,2.4658811425209,0.456994050979614
4.57932196969697,7.11894417314529,-1.1074879981041,-0.40760799980163603
4.57992803030303,-0.487637858104706,-6.043623252010341,-0.924932218551636
4.580534090909091,-7.10028678388596,9.4401780175209,-0.0651202068328855
4.581140151515152,2.54445686845779,-2.4750441504478498,-0.10823055839538599
4.581746212121212,5.87832405595779,-7.04953145513534,-0.31420223808288605
4.582352272727273,-2.43957877607346,6.99965311517716,1.1443646564483598
4.582958333333333,-7.19848258466721,-0.8631960059165951,0.456994050979614
4.583564393939394,-1.62527213544846,-0.12313497076034499,0.325267976760864
4.584170454545455,9.68161507158279,0.990549111270905,-0.441138273239136
4.584776515151515,3.20308723955154,-6.714228720760341,-1.8374346599578901
4.585382575757576,-9.79947379560471,7.02120829095841,0.904862703323364
4.585988636363636,-0.734324869823456,2.6526926659584,0.8018768634796141
4.586594696969697,6.36211800127029,-9.7870387793541,-0.5153838787078859
4.587200757575758,-0.5930187174797059,4.17832010736465,0.0953461017608645
4.587806818181818,-5.39024283857346,2.33415506830215,-0.129785734176636
4.588412878787879,-3.07425895185471,-2.18285176763535,1.67126895332336
4.589018939393939,8.27334358720779,3.5580100487709,-1.49255184745789
4.589625,4.6400989583015395,-7.3920192481040905,-0.6974053630828859
4.590231060606061,-9.51207145185471,2.7077781151771503,0.8833075275421141
4.590837121212121,-3.3017858073234603,7.51937235345841,0.7228412189483641
4.591443181818182,6.15854134111404,-10.3546584082603,-0.47706356620788604
4.592049242424242,4.9131311848640395,1.1701755761146502,-0.6734551677703859
4.592655303030303,-4.85854850263596,5.586591591739659,0.835407136917114
4.593261363636364,-6.01055289716721,-2.6738307715416,-0.991992765426636
4.593867424242424,5.76815315752029,2.8969846581459002,1.5587030353546099
4.594473484848485,5.9908899739265395,-3.6509987402916,-0.680640226364136
4.595079545454545,-6.1710192057609605,-1.72300801763535,-0.45550839042663605
4.595685606060606,-6.3506456706047105,9.150380654239651,0.7994818439483641
4.596291666666667,6.98961311845779,-6.149004111385341,-0.606394620895386
4.596897727272727,6.754901204395289,-3.7491945410728498,0.0450506916046145
4.597503787878788,-5.48125358076096,7.948080849552159,-0.702195402145386
4.598109848484848,-6.896710123729711,-3.1480446387291,1.27369571113586
4.5987159090909095,2.52050667314529,1.51984842767715,0.5623749103546141
4.5993219696969705,6.85309700517654,-0.34108174810409503,-0.46748348808288603
4.59992803030303,-0.48045279951095604,-6.14660909185409,-1.40154110527039
4.6005340909090915,-7.73257194013596,7.97203104486466,0.46417910957336395
4.601140151515152,3.35157845048904,-0.527893271541595,0.7611615314483641
4.6017462121212125,7.233905110645289,-7.772827353572841,-0.659085050582886
4.602352272727273,-4.2478185221672105,5.773403115177159,0.44262393379211395
4.6029583333333335,-7.83555777997971,0.796552529239655,0.765951570510864
4.603564393939394,0.0943518879890442,-1.04761250982285,0.43304385566711395
4.604170454545455,10.232469563770302,0.863613076114655,-1.73205380058289
4.604776515151515,2.0534778645515397,-6.09391866216659,-1.42309628105164
4.605382575757576,-9.45459098310471,5.50276590814591,1.20903018379211
4.605988636363636,-0.5044029948234561,3.5963303612709,0.986293367385864
4.606594696969697,6.26392220048904,-8.946386923885349,-0.924932218551636
4.607200757575758,0.46797493486404396,1.9533469628334001,0.0833710041046145
4.607806818181818,-6.93982047529221,3.30174295892715,-0.333362394332886
4.608412878787879,-2.9425328776359603,-1.7325880957603499,-0.129785734176636
4.609018939393939,10.256419759082801,1.6108591698646502,0.114506258010864
4.609625,3.6102405598640397,-4.985024619197841,-1.0542632732391402
4.610231060606061,-10.407808756542199,2.38205545892715,-0.0124297771453855
4.610837121212121,-3.2850206706047103,6.60926493158341,1.02700869941711
4.611443181818182,7.49256722002029,-8.17758565435409,-0.28785702323913603
4.612049242424242,4.62333382158279,-0.549448447322845,-0.45550839042663605
4.612655303030303,-6.11593375654221,5.6943674706459095,0.258207429885864
4.613261363636364,-5.5052037760734605,-1.8523390723228499,0.9815033283233641
4.613867424242424,7.54525764970779,1.6922898339271502,0.533634675979614
4.614473484848485,5.13586800127029,-3.5360378027915997,-1.09018856620789
4.615079545454545,-7.04759635419846,-1.3398048926353499,-0.302227140426636
4.615685606060606,-5.79739615888596,8.06543680658341,0.7635565509796141
4.616291666666667,6.15854134111404,-4.35752950201035,-0.592024503707886
4.616897727272727,7.55723274736404,-3.9240309668541,-0.642319913864136
4.617503787878788,-5.53633902997971,5.88357401361466,0.0905560626983645
4.618109848484848,-7.55294547529221,-0.295576377010345,-0.33815243339538603
4.618715909090909,3.4545642903327898,-0.396167197322845,1.26172061347961
4.61932196969697,7.85661018877029,-0.805715537166595,-0.469878507614136
4.61992803030303,-2.7796715495109603,-4.295258994197851,-1.3799859294891401
4.620534090909091,-8.103799967479711,6.58770975580216,-0.0172198162078855
4.621140151515152,3.71801643877029,0.0852317284584045,0.670150789260864
4.621746212121212,7.1213391926765395,-7.11659200201034,-0.460298429489136
4.622352272727273,-3.0527037760734603,4.4776975487709,-0.0866753826141355
4.622958333333333,-9.49051627607346,2.02759256830215,0.957553133010864
4.623564393939394,0.796092610645294,-1.2416090918540998,0.337243074417114
4.624170454545455,11.132996907520301,-0.887146201229095,-1.2171246013641401
4.624776515151515,0.360199055957794,-4.340764365291601,-2.0673565349578897
4.625382575757576,-9.52165152997971,4.95670145502091,1.5802582111358598
4.625988636363636,-0.595413737010956,3.7065012597084,0.5216595783233641
4.626594696969697,7.19318977861404,-8.014724326229091,-0.283066984176636
4.627200757575758,0.678736653614044,0.698356728458405,-0.512988859176636
4.627806818181818,-8.40557242841721,3.89570780267715,-0.141760831832886
4.628412878787879,-2.25516227216721,-0.233305869197845,0.43064883613586397
4.629018939393939,11.281488118457801,-0.391377158260345,-0.330967374801636
4.629625,2.9587952473640398,-4.06533711919785,-0.9776226482391359
4.630231060606061,-10.604200358104698,2.20003397455215,0.34203311347961396
4.630837121212121,-3.29939078779221,5.81651346673966,0.876122468948364
4.631443181818182,7.35605110673904,-5.7155055762290905,0.0833710041046145
4.632049242424242,5.07120247392654,-2.3816383887290997,-0.843501554489136
4.632655303030303,-6.50153190107346,5.10519266595841,-0.132180753707886
4.633261363636364,-6.19257438154221,0.434904580020905,1.18987002754211
4.633867424242424,8.728397298145289,0.34149881830215495,0.0761859455108645
4.634473484848485,4.86523079423904,-3.3731764746665998,-0.522568937301636
4.635079545454545,-7.96967887372971,-0.9637868262290951,-1.03989315605164
4.635685606060606,-5.55789420576096,6.74578104486466,1.1180194416046099
4.636291666666667,6.429178548145289,-2.3984035254478497,-0.189661222457886
4.636897727272727,8.309268880176539,-4.98741963872909,-0.632739835739136
4.637503787878788,-6.17580924482346,4.26454081048965,-0.0387749919891355
4.638109848484848,-8.043924479198461,1.3258518456459,0.40430362129211395
4.638715909090909,3.7563367512702897,0.0301462792396546,0.892887605667114
4.6393219696969705,7.52849251298904,-1.2176588965416,-0.410003019332886
4.63992803030303,-2.58088492841721,-3.6749489356041,-1.61230282402039
4.640534090909091,-8.15170035810471,4.97825663080216,-0.151340909957886
4.641140151515151,3.89764290361404,1.2132859276771502,1.20184512519836
4.6417462121212125,7.52370247392654,-6.06038838872909,-0.8339214763641359
4.6423522727272735,-4.1017223307609605,2.0635178612709,0.0642108478546145
4.642958333333333,-9.91922477216721,3.2179172753334,1.21382022285461
4.6435643939393945,1.19127083330154,-0.6212990332603451,-0.163316007614136
4.644170454545455,11.916168294239,-2.3337379981041,-0.6159746990203859
4.6447765151515155,0.762562337207794,-2.57563497076035,-2.04580135917664
4.645382575757576,-10.261712565136,3.7544016503334,1.00305850410461
4.6459886363636365,-0.775040201854706,2.3485251854896503,1.59223330879211
4.646594696969697,7.1548694661140395,-4.774262900447851,-0.524963956832886
4.647200757575758,0.671551595020294,-1.4595558691978499,-0.0339849529266355
4.647806818181818,-8.32174674482346,3.9603733300209,-1.23628475761414
4.648412878787879,-1.52468131513596,0.46843485345840497,1.33117617988586
4.649018939393939,11.492249837207801,-1.8307838965416,-0.42437313652038605
4.649625,1.8355310872077901,-2.2355421973228498,-0.991992765426636
4.650231060606061,-10.9347130534172,1.4791330956459001,1.0964642658233599
4.650837121212121,-2.49466422529221,4.3052561425209,0.6030902423858641
4.651443181818182,7.43508675127029,-3.1935500098228498,0.995873445510864
4.652049242424242,5.42566536455154,-3.2677956152916,-1.89012508964539
4.652655303030303,-6.61888785810471,3.1412766503334,0.591115144729614
4.653261363636364,-6.44165641279221,2.4850412987709003,1.2641156330108598
4.653867424242424,9.37744759111404,-1.51703633794785,0.0282855548858645
4.654473484848485,4.25210579423904,-1.95292989263535,-0.5776543865203859
4.655079545454545,-8.18044059247971,0.133132119083405,-1.13808895683289
4.655685606060606,-4.34361930341721,3.20594217767715,1.41979190254211
4.656291666666667,5.48075081377029,-0.0273341895103454,-0.115415616989136
4.656897727272727,7.94043587236404,-4.0533620215415995,-0.752490812301636
4.657503787878788,-5.34234244794846,1.7952756737709001,-0.0267998943328855
4.658109848484849,-8.53969352216721,3.8621775292396503,0.0905560626983645
4.658715909090909,5.34662972002029,-1.5721217871666,1.0054535236358602
4.65932196969697,7.37042122392654,-2.3241579199791,-0.970437589645386
4.65992803030303,-3.1987999674797103,-0.465622763729095,-1.04947323417664
4.660534090909091,-7.26075309247971,2.4131907128334,0.514474519729614
4.661140151515152,3.51922981767654,1.7473752831459002,0.219887117385864
4.661746212121212,8.05060677080154,-4.0581520606041,0.138456453323364
4.662352272727273,-3.77839469404221,-0.599743857479095,-0.438743253707886
4.662958333333333,-10.309612955761,5.047712197208409,0.811456941604614
4.663564393939394,2.01515755205154,-1.2463991309165998,0.0977411212921145
4.664170454545455,12.450257649707801,-4.00306661138535,-0.6135796794891359
4.664776515151515,-1.26362418622971,0.564235634708405,-1.06623837089539
4.665382575757576,-10.012630533886,1.8814963768959,0.30131778144836396
4.665988636363636,0.582935872364044,1.4599729393959,1.67126895332336
4.666594696969697,6.7692713215827895,-2.3049977637290997,-0.5345440349578859
4.667200757575758,0.877523274707794,-2.8558522559166,-0.7381206951141359
4.667806818181818,-8.92768668622971,3.7088962792396503,0.40430362129211395
4.668412878787879,-1.17021842451096,1.9868772362709002,-0.25672176933288604
4.669018939393939,12.1628553059578,-4.30962911138535,0.011520418167114499
4.669625,0.776932454395294,-0.405747275447845,-0.9967828044891359
4.670231060606061,-10.4652892252922,2.16650370111465,-0.230376554489136
4.670837121212121,-1.26362418622971,1.6180442284584,1.59462832832336
4.671443181818182,6.90578743486404,-0.000988974666595451,-0.0627251873016355
4.672049242424242,5.54541634111404,-4.06054708013535,-0.9560674724578859
4.672655303030303,-7.38529410810471,1.32345682611465,-0.113020597457886
4.673261363636364,-5.579449381542211,5.09800760736466,0.816246980667114
4.673867424242424,9.55467903642654,-3.4067067481041,1.01982364082336
4.674473484848485,3.68927620439529,-1.48350606451035,-1.46620663261414
4.675079545454545,-8.28582145185471,1.7354001854896501,-0.239956632614136
4.675685606060606,-4.1017223307609605,1.0863498925209,-0.0794903240203855
4.676291666666667,6.29266243486404,1.6755246972084001,1.15394473457336
4.676897727272727,6.56569466142654,-3.03547872076035,-0.587234464645386
4.677503787878788,-4.920819010448461,-0.7626051856040951,-0.8578716716766359
4.678109848484848,-8.10859000654221,5.193808388614659,1.16352481269836
4.678715909090909,5.40650520830154,-1.4667409277916,0.636620515823364
4.67932196969697,6.83872688798904,-2.8462721777916,-0.560889249801636
4.67992803030303,-4.02508170576096,0.6145310448646549,-1.16922421073914
4.680534090909092,-5.94828238935471,0.616926064395905,0.37316836738586395
4.6811401515151525,2.64025764970779,2.5042014550209,0.06900088691711449
4.681746212121212,7.29617561845779,-2.9564430762291,0.500104402542114
4.6823522727272735,-3.57002799482346,-1.9720900488853499,-0.572864347457886
4.682958333333334,-10.7455065104485,6.1398411034584095,0.325267976760864
4.6835643939393945,2.63067757158279,-1.5577516699790999,0.155221590042114
4.684170454545455,12.0646595051765,-5.24129170904159,-1.5548223552703901
4.6847765151515155,-2.02763541669846,1.94616190423965,0.0019403400421144801
4.685382575757576,-8.81033072919846,1.51984842767715,0.387538484573364
4.6859886363636365,-0.0996446940422058,0.509150185489655,0.9383929767608641
4.686594696969697,5.976519856739039,-1.02366231451035,0.31329287910461395
4.687200757575758,1.42598274736404,-3.9863014746666,-1.48536678886414
4.687806818181818,-9.13126334638596,3.8549924706459002,-0.115415616989136
4.688412878787879,-0.133174967479706,2.7916037987709,0.229467195510864
4.689018939393939,12.174830403614,-6.115473837947841,0.0737909259796145
4.689625,-1.44325065107346,1.5222434472084,-1.34406063652039
4.690231060606061,-9.480936197948461,1.1294602440834,0.895282625198364
4.690837121212121,-0.621758951854706,-0.403352255916595,0.9407879962921141
4.691443181818182,6.09387581377029,2.7197532128334,0.334848054885864
4.692049242424242,4.81014534502029,-4.69762227544785,0.296527742385864
4.692655303030303,-7.68227652997971,0.45885477533340496,-1.76318905448914
4.693261363636364,-4.47774039716721,5.23691874017716,1.79101992988586
4.693867424242424,9.37505257158279,-3.3061159277916,-0.19684628105163599
4.694473484848485,1.69182991533279,-1.39249532232285,-1.2722100505828902
4.695079545454545,-6.42968131513596,1.8671262597084002,1.01503360176086
4.695685606060606,-3.3353160807609603,-0.33868672857284504,-0.807576261520386
4.696291666666667,4.692789387989039,2.0659128808021503,1.39105166816711
4.696897727272727,6.92734261064529,-1.52661641607285,-0.38605282402038604
4.697503787878788,-5.31360221357346,-2.62832540044785,-1.2554449138641401
4.698109848484848,-7.09070670576096,6.290727333927159,1.2641156330108598
4.698715909090909,5.39692513017654,-1.2200539160728499,0.42106875801086396
4.69932196969697,6.44594368486404,-4.11323750982285,-0.551309171676636
4.69992803030303,-4.45139518232346,2.32457499017715,-0.759675870895386
4.700534090909091,-5.37108268232346,-0.40095723638534503,-0.0315899333953855
4.701140151515152,3.4234290364265396,2.1090232323646503,0.0498407306671145
4.701746212121212,6.44354866533279,-0.954206748104095,0.128876375198364
4.702352272727273,-3.5412877604484603,-3.4330519629478498,-0.783626066207886
4.702958333333333,-9.833004069042211,5.912314247989659,1.20184512519836
4.703564393939394,3.09291634111404,-0.6452492285728451,0.203121980667114
4.704170454545455,10.7042884114265,-5.782566123104091,-1.46381161308289
4.704776515151515,-2.46831901044846,3.01913065423965,0.0618158283233645
4.705382575757576,-7.59845084638596,0.882773232364655,-0.218401456832886
4.705988636363636,-0.34154166669845604,-0.28120625982284503,1.94909121894836
4.706594696969697,5.60768684892654,0.985759072208405,0.35161319160461396
4.707200757575758,0.755377278614044,-4.7862379981041006,-1.68894344902039
4.707806818181818,-8.25229117841721,3.05266092767715,0.397118562698364
4.708412878787879,0.422469563770294,3.5196897362709,0.016310457229614498
4.709018939393939,10.843199544238999,-6.043623252010341,-0.290252042770386
4.709625,-1.59413688154221,1.30429666986465,0.991083406448364
4.710231060606061,-8.762430338573461,2.08028299798965,-0.36449764823913605
4.710837121212121,-0.861260904979706,-1.8188087988853499,1.3359662189483599
4.711443181818182,6.01484016923904,4.3747117089271494,0.40430362129211395
4.712049242424242,4.04373909502029,-4.3168141699791,-1.09497860527039
4.712655303030303,-6.19017936201096,-1.9864601660728498,-0.43634823417663604
4.713261363636364,-4.25021354169846,7.45231180658341,1.04616885566711
4.713867424242424,8.27334358720779,-3.9767213965416,-0.254326749801636
4.714473484848485,2.8486243489265397,-2.4103786231041,-0.522568937301636
4.715079545454545,-7.40924430341721,3.6538108300209,-0.690220304489136
4.715685606060606,-2.1210411784172103,-2.2331471777916,0.655780672073364
4.716291666666667,4.70955452470779,2.98081034173965,1.28806582832336
4.716897727272727,5.29633430986404,-0.190195517635345,-1.07342342948914
4.717503787878788,-4.00113151044846,-4.71199239263535,0.0905560626983645
4.718109848484849,-7.11705192060471,7.255920205020909,-0.0699102458953855
4.718715909090909,5.09515266923904,-1.4092604590416,0.794691804885864
4.71932196969697,6.26392220048904,-4.51560079107285,-1.0087579021453899
4.71992803030303,-5.2393566081047105,3.4238889550209,-0.788416105270386
4.720534090909091,-3.9939464518547103,-1.80443868169785,0.246232332229614
4.7211401515151525,2.7815638020515396,1.31866678705215,0.964738191604614
4.721746212121212,4.98977180986404,1.66354959955215,-0.843501554489136
4.722352272727273,-2.75572135419846,-5.497558798885341,-0.141760831832886
4.722958333333333,-8.87260123701096,5.605751747989659,0.935997957229614
4.7235643939393945,3.2605677083015396,1.34261698236465,-1.21951962089539
4.7241704545454555,9.56425911455154,-7.8446779395103405,-0.441138273239136
4.724776515151515,-2.45634391279221,4.75791483392715,-0.812366300582886
4.7253825757575765,-6.68594840497971,0.5354954003334049,0.399513582229614
4.7259886363636365,0.029686360645294202,-2.1157912207603498,0.816246980667114
4.7265946969696975,5.03767220048904,2.76525858392715,0.713261140823364
4.727200757575758,0.676341634082794,-5.16944112310409,-0.603999601364136
4.7278068181818185,-7.59366080732346,2.2694895409584,-1.05186825370789
4.728412878787879,1.20564095048904,4.0944944237709,0.696496004104614
4.7290189393939395,9.83010628252029,-6.64956319341659,-1.42788632011414
4.729625,-2.09230094404221,1.74977030267715,0.749186433792114
4.730231060606061,-7.99123404951096,1.9365818261146501,0.160011629104614
4.730837121212121,0.245238118457794,-3.2917458106041,0.516869539260864
4.731443181818182,4.38862190752029,4.8896409081459,1.27848575019836
4.732049242424242,4.05571419267654,-2.71933614263535,-1.72007870292664
4.732655303030303,-5.43574820966721,-4.2593337012291,0.0929510822296145
4.733261363636364,-3.5652379557609604,8.03430155267716,-0.362102628707886
4.733867424242424,7.72967415361404,-3.52406270513535,0.7827167072296141
4.734473484848485,1.48825325517654,-2.6498805762291,-0.42676815605163604
4.735079545454545,-6.09437858076096,4.8034202050209,-0.663875089645386
4.735685606060606,-2.4443688151359604,-3.89289571294785,-0.117810636520386
4.736291666666667,4.48442268877029,3.1269065331459003,1.04377383613586
4.736897727272727,3.85453255205154,1.35219706048965,0.0737909259796145
4.737503787878788,-3.0431236979484604,-5.55503926763534,-1.92844540214539
4.738109848484848,-5.6584850260734605,5.54348124017716,1.8580804767608599
4.738715909090909,4.15151497392654,0.8731931542396549,-0.45790340995788603
4.73932196969697,5.10712776689529,-5.490373740291591,-0.563284269332886
4.73992803030303,-4.40588981122971,3.3376682518959,0.119296297073364
4.740534090909091,-3.0790489909172103,-0.887146201229095,-0.865056730270386
4.741140151515152,2.61391243486404,-0.0153590918540955,1.70958926582336
4.741746212121212,3.7132263997077897,2.9903904198646503,-0.479458585739136
4.742352272727273,-1.75220817060471,-5.198181357479091,-0.175291105270386
4.742958333333333,-8.156490397167211,4.281305947208399,0.6222503986358641
4.743564393939394,2.3863855793952897,2.0826780175209,-1.1740142498016402
4.744170454545455,9.39421272783279,-8.3596071387291,0.36119326972961396
4.744776515151515,-2.76530143232346,5.55066629877091,-1.75360897636414
4.745382575757576,-5.72315055341721,0.178637490177155,1.6137884845733599
4.745988636363636,0.206917805957794,-2.66664571294785,0.746791414260864
4.746594696969697,3.4809095051765397,3.98671854486465,-0.187266202926636
4.747200757575758,0.7889075520515441,-5.796936240291591,0.516869539260864
4.747806818181818,-6.26921500654221,2.3796604393959,-1.67696835136414
4.748412878787879,1.1721106770515402,3.7591916893959,0.852172273635864
4.749018939393939,8.73558235673904,-7.360883994197841,-0.7979961833953859
4.749625,-3.0024083659172103,2.60718729486465,-0.175291105270386
4.750231060606061,-6.22131461591721,2.0012473534584,0.9791083087921141
4.750837121212121,-0.31998649091720605,-4.18508809576035,0.42106875801086396
4.751443181818182,3.95033333330154,5.74226786127091,1.09406924629211
4.752049242424242,3.6701160481452897,-2.2044069434166,-1.1907793865203902
4.752655303030303,-5.5052037760734605,-4.2928639746666,-1.34166561698914
4.753261363636364,-2.18570670576096,7.67265360345841,1.14196963691711
4.753867424242424,6.51779427080154,-3.3228810645103497,0.334848054885864
4.754473484848485,0.760167317676544,-2.4343288184166,-0.685430265426636
4.755079545454545,-4.96392936201096,5.03094706048966,-0.39802792167663603
4.755685606060606,-1.4576207682609599,-4.4557253027916,-0.153735929489136
4.756291666666667,3.48569954423904,3.2131272362709002,0.7635565509796141
4.756897727272727,2.9611902668952896,1.9054465722084002,0.33005801582336397
4.757503787878788,-2.5401695963859603,-5.72748067388534,-1.11174374198914
4.758109848484848,-4.85136344404221,5.94344950189591,0.41148867988586396
4.758715909090909,3.9431482747077897,-0.336291709041595,0.121691316604614
4.75932196969697,4.153909993457789,-5.57180440435409,-0.527358976364136
4.75992803030303,-4.5807262370109605,5.31834940423966,-0.630344816207886
4.760534090909091,-2.6096251627922102,-2.2091969824791,0.6797308673858641
4.761140151515152,2.13490852861404,-0.056074423885345503,-0.6950103435516359
4.761746212121212,3.20548225908279,3.1652268456459,0.612670320510864
4.762352272727273,-1.85040397138596,-4.7048073340416,-0.35491757011413605
4.762958333333333,-6.70750358076096,3.2227073143959,-0.0699102458953855
4.763564393939394,3.21266731767654,1.1390403222084,0.41388369941711395
4.7641704545454555,7.23630013017654,-5.77298604497909,-1.5500323162078902
4.764776515151515,-2.7461412760734603,4.1759250878333996,0.36119326972961396
4.765382575757576,-4.19752311201096,-0.130320029354095,0.255812410354614
4.765988636363636,0.27637337236404397,-2.5684499121666,0.811456941604614
4.7665946969696975,2.96598030595779,3.6586008690834,1.2808807697296098
4.7672007575757585,0.46557991533279397,-3.8090700293540998,-1.22430965995789
4.7678068181818185,-6.1638341471672105,0.736677040958405,-0.390842863082886
4.7684128787878794,2.5229016926765397,3.7783518456459,-0.204031339645386
4.7690189393939395,7.28180550127029,-6.05080831060409,-0.659085050582886
4.7696250000000004,-3.52931266279221,2.64550760736465,0.0474457111358645
4.770231060606061,-4.85136344404221,1.3737522362709,0.0761859455108645
4.7708371212121214,-0.0206090495109558,-4.5060207129478504,0.7994818439483641
4.771443181818182,3.31565315752029,6.33623270502091,0.634225496292114
4.772049242424242,1.8570862629890401,-1.9265846777915998,-0.402817960739136
4.772655303030303,-3.6682237956047103,-3.9479811621666,-1.62667294120789
4.773261363636364,0.029686360645294202,5.605751747989659,0.9982684650421141
4.773867424242424,4.67123421220779,-2.1900368262291,-0.390842863082886
4.774473484848485,-0.36309684247970603,-1.5529616309165999,-0.441138273239136
4.775079545454545,-3.56044791669846,3.6825510643959003,0.428253816604614
4.775685606060606,-0.763065104198456,-4.11802754888535,-0.184871183395386
4.776291666666667,2.82706917314529,3.1987571190834,1.07730410957336
4.776897727272727,2.07503304033279,2.37726541986465,-0.410003019332886
4.777503787878788,-2.20007682294846,-5.72029561529159,-0.9776226482391359
4.778109848484849,-2.44915885419846,4.9088010643959095,0.500104402542114
4.778715909090909,3.51922981767654,-0.345871787166595,-0.132180753707886
4.77932196969697,2.5588269856452897,-4.1731129981041,0.138456453323364
4.77992803030303,-3.5317076823234603,4.480092568302149,0.689310945510864
4.780534090909091,-1.97734000654221,-2.5109694434166,-0.5752593669891359
4.781140151515152,2.3432752278327897,0.250488076114655,0.677335847854614
4.781746212121212,1.5960291340827901,3.18199198236465,-0.0842803630828855
4.782352272727273,-1.58695182294846,-4.95388936529159,-1.10934872245789
4.782958333333333,-4.50648063154221,2.64550760736465,1.1228094806671098
4.783564393939394,2.88933968095779,1.5749338768959,-1.2770000896453901
4.784170454545455,5.33704964189529,-6.01248799810409,-0.0196148357391355
4.784776515151515,-3.14131949872971,4.11125956048965,-0.172896085739136
4.785382575757576,-2.66471061201096,-0.42730245122909505,0.157616609573364
4.785988636363636,0.0201062825202942,-2.45588399419785,1.1611297931671098
4.786594696969697,1.6942249348640401,4.39866190423965,0.207912019729614
4.787200757575758,-0.30082633466720604,-4.0389919043541,-0.0483550701141355
4.787806818181818,-4.55198600263596,0.6336912011146549,-1.12611385917664
4.788412878787879,3.3875037434577897,2.5042014550209,-0.11062557792663599
4.789018939393939,5.5118860676765395,-5.34188252935409,-0.5968145427703859
4.789625,-3.1892198893547103,3.3616184472084,-0.242351652145386
4.790231060606061,-3.59876822919846,0.830082802677155,0.6438055744171141
4.790837121212121,0.34582893877029397,-4.20424825201035,0.188751863479614
4.791443181818182,2.42710091142654,5.32553446283341,0.667755769729614
4.792049242424242,0.8871033528327941,-1.4571608496666,-0.402817960739136
4.792655303030303,-2.23600211591721,-3.3875465918541,-0.963252531051636
4.793261363636364,0.036871419239044204,4.927961220645909,0.171986726760864
4.793867424242424,3.3012830403327897,-2.65706563482285,0.339638093948364
4.794473484848485,-0.696004557323456,-0.918281455135345,0.418673738479614
4.795079545454545,-3.28981070966721,3.2730027245521502,-0.8554766521453859
4.795685606060606,0.0009461262702941991,-3.83062520513535,0.31329287910461395
4.796291666666667,2.21873421220779,3.05745096673965,0.7827167072296141
4.796897727272727,0.494320149707794,1.4887131737709,0.0809759845733645
4.797503787878788,-1.18219352216721,-4.91317403326034,-1.25783993339539
4.798109848484848,-1.6156920573234599,3.6921311425209002,0.476154207229614
4.798715909090909,2.2331043293952897,0.9330686425209049,1.1826849689483598
4.79932196969697,1.90738167314529,-3.48095235357285,-0.551309171676636
4.79992803030303,-2.63118033857346,2.15692362298965,0.231862215042114
4.800534090909091,-0.616968912792206,-1.1889186621666,-0.208821378707886
4.801140151515152,1.21282600908279,0.494780068302155,0.926417879104614
4.801746212121212,0.7649573567390441,2.4275608300209,0.945578035354614
4.802352272727273,-1.84561393232346,-3.36599141607285,-0.546519132614136
4.802958333333333,-3.47662223310471,1.7809055565834,0.375563386917114
4.803564393939394,3.0785462239265398,-0.314736533260345,-0.9943877849578859
4.804170454545455,4.4341272786140395,-3.8785255957603497,-0.999177824020386
4.804776515151515,-3.00480338544846,4.17832010736465,0.9431830158233641
4.8053825757575765,-1.7785533854484599,-0.211750693416595,0.0977411212921145
4.805988636363636,-0.140360026073456,-2.98757833013535,0.885702547073364
4.806594696969697,0.137462239551544,3.5484299706459,-0.010034757614135501
4.8072007575757585,-0.37028190107345604,-3.0666139746666,0.193541902542114
4.8078068181818185,-2.45155387372971,0.422929482364655,-0.182476163864136
4.8084128787878795,3.62461067705154,1.9437668847084,-0.43395321464538605
4.809018939393939,3.02585579423904,-4.407824912166601,-0.522568937301636
4.8096250000000005,-3.29939078779221,3.1460666893959,0.631830476760864
4.810231060606061,-2.72458610029221,0.11636698236465501,0.375563386917114
4.8108371212121215,0.542220540332794,-2.8941725684165998,-0.239956632614136
4.811443181818182,2.32890511064529,4.6836692284584,1.24974551582336
4.8120492424242425,0.17817757158279401,-0.726679892635345,-0.8578716716766359
4.812655303030303,-2.02763541669846,-2.5013893652915997,-0.666270109176636
4.813261363636364,1.26312141923904,2.53054666986465,0.016310457229614498
4.813867424242424,3.08333626298904,-1.79485860357285,0.231862215042114
4.814473484848485,-1.83603385419846,1.31387674798965,-0.410003019332886
4.815079545454545,-2.5473546549797104,1.64438944330215,-0.199241300582886
4.815685606060606,1.33257698564529,-3.9431911231041,0.6390155353546141
4.816291666666667,1.40682259111404,2.6958030175209,-0.168106046676636
4.816897727272727,-0.32956656904220605,1.70186991205215,0.526449617385864
4.817503787878788,-1.39535026044846,-2.7145461035728498,-0.251931730270386
4.818109848484848,0.31948372392654395,2.2215891503334,-0.29743710136413604
4.818715909090909,2.50374153642654,-0.693149619197845,0.186356843948364
4.81932196969697,-0.645709147167206,-1.7685133887291,-0.706985441207886
4.81992803030303,-2.0946959635734603,2.1545286034584,0.160011629104614
4.820534090909091,0.599701009082794,-1.6870827246665998,0.406698640823364
4.821140151515152,0.8871033528327941,0.37981913080215496,0.126481355667114
4.821746212121212,-0.38944205732345605,1.88389139642715,-0.170501066207886
4.822352272727273,-1.77615836591721,-2.5780299902915997,-0.27588192558288605
4.822958333333333,-0.846890787792206,1.40488749017715,-0.225586515426636
4.823564393939394,3.11207649736404,-1.2463991309165998,-0.33815243339538603
4.824170454545455,2.17801888017654,-1.8667091895103498,-0.702195402145386
4.824776515151515,-2.65513053388596,3.5460349511146503,0.255812410354614
4.825382575757576,-0.23616080732345598,-1.7972536231040999,0.26060244941711397
4.825988636363636,0.31708870439529396,-1.41165547857285,0.6198553791046141
4.826594696969697,-1.02651725263596,2.3221799706459,0.181566804885864
4.827200757575758,-1.2181188151359599,-2.0032253027916,0.32047793769836397
4.827806818181818,-0.724744791698456,0.8348728417396549,-0.00045467948913552396
4.828412878787879,3.9191980793952896,-0.336291709041595,-1.04468319511414
4.829018939393939,1.57207893877029,-2.67622579107285,0.00433535957336448
4.829625,-3.48620231122971,2.9640452050209003,1.23298037910461
4.830231060606061,-1.22051383466721,-0.520708212947845,0.37316836738586395
4.830837121212121,0.42965462236404395,-1.9074245215416,0.212702058792114
4.831443181818182,1.4164026692390401,3.0311057518959,0.131271394729614
4.832049242424242,-0.5331432291984559,-0.676384482479095,0.0282855548858645
4.832655303030303,-1.05525748701096,-0.611718955135345,-0.194451261520386
4.833261363636364,2.86778450517654,1.1318552636146502,-0.402817960739136
4.833867424242424,1.39724251298904,-1.7733034277916,0.459389070510864
4.834473484848485,-2.66231559247971,1.6946848534584,-0.6351348552703859
4.835079545454545,-1.15584830732346,0.231327919864655,0.334848054885864
4.835685606060606,1.4331678059577901,-1.82838887701035,0.531239656448364
4.836291666666667,0.9278186848640441,2.4802512597084,-0.27827694511413603
4.836897727272727,-1.32589469404221,0.207377724552155,0.564769929885864
4.837503787878788,-0.478057779979706,-0.9422316504478451,-1.0925835857391402
4.838109848484849,1.31581184892654,0.485199990177155,0.555189851760864
4.838715909090909,0.712266927051544,0.125947060489655,-0.49622372245788604
4.83932196969697,-0.43015738935470604,-0.535078330135345,-0.26630184745788604
4.83992803030303,-1.2612291666984599,0.176242470645905,0.32047793769836397
4.840534090909091,0.889498372364044,0.166662392520905,-0.632739835739136
4.841140151515151,0.817647786426544,0.00140604486465455,1.57307315254211
4.841746212121212,-0.899581217479706,1.6419944237709,-0.544124113082886
4.842352272727273,-2.3868883463859603,-0.628484091854095,0.365983308792114
4.842958333333333,-0.202630533885956,-0.147085166072845,-0.218401456832886
4.843564393939394,3.46174934892654,-1.43560567388535,-0.9967828044891359
4.844170454545455,1.00445930986404,-1.5457765723228498,-0.153735929489136
4.844776515151515,-1.9965001627922099,2.5233616112709,-0.273486906051636
4.845382575757576,-0.286456217479706,-0.695544638729095,1.30962100410461
4.845988636363636,-0.195445475292206,-1.1553883887290999,-0.163316007614136
4.846594696969697,-1.00975211591721,0.901933388614655,0.35400821113586395
4.847200757575758,-1.49115104169846,-0.33868672857284504,0.409093660354614
4.847806818181818,0.214102864551544,0.547470497989655,-1.18838436698914
4.8484128787878795,4.3742517903327895,-1.3661501074790998,0.121691316604614
4.849018939393939,0.599701009082794,-1.0595876074791,-0.40521298027038605
4.849625,-3.34010611982346,2.4084006737709003,0.112111238479614
4.8502310606060615,-1.31152457685471,-1.6008620215415998,1.09167422676086
4.8508371212121215,1.3900574543952902,-1.0595876074791,-0.0148247966766355
4.8514431818181825,0.923028645801544,2.29583475580215,0.6797308673858641
4.852049242424242,-1.50791617841721,0.5929758690834049,-0.254326749801636
4.8526553030303035,0.26918831377029395,-0.616508994197845,-0.37407772636413605
4.853261363636364,3.0713611653327897,-0.915886435604095,-0.237561613082886
4.8538674242424245,-0.0876695963859558,0.0924167870521545,-0.36449764823913605
4.854473484848485,-2.70063590497971,1.5701438378334,0.34442813301086395
4.8550795454545455,-0.308011393260956,-0.611718955135345,0.437833894729614
4.855685606060606,2.01755257158279,-0.985342002010345,0.0666058673858645
4.856291666666667,0.42725960283279396,1.1582004784584001,0.569559968948364
4.856897727272727,-2.00129020185471,0.571420693302155,0.612670320510864
4.857503787878788,-0.169100260448456,0.777392372989655,-0.671060148239136
4.858109848484848,1.95767708330154,-1.0691676856041,0.425858797073364
4.858715909090909,1.28707161455154,-0.40095723638534503,-0.769255949020386
4.85932196969697,-2.09709098310471,0.434904580020905,-0.113020597457886
4.85992803030303,-0.49242789716720603,0.0133811425209045,0.849777254104614
4.860534090909091,0.982904134082794,0.324733681583405,-0.5944195232391359
4.861140151515152,0.470369954395294,-0.31713155279159505,0.737211336135864
4.861746212121212,-1.2564391276359599,0.784577431583405,0.215097078323364
4.862352272727273,-2.06595572919846,0.475619912052155,-0.232771574020386
4.862958333333333,0.614071126270294,-1.3278297949790998,0.00433535957336448
4.863564393939394,2.6785779622077897,-1.5840968848228498,-1.16922421073914
4.864170454545455,-0.31998649091720605,0.264858193302155,0.5192645587921141
4.864776515151515,-1.84800895185471,1.9293967675209,-0.563284269332886
4.865382575757576,1.1505555012702902,-0.887146201229095,0.5216595783233641
4.865988636363636,0.0799817708015442,-1.6104420996666,0.844987215042114
4.866594696969697,-1.27559928388596,0.8731931542396549,-0.220796476364136
4.867200757575758,-2.44915885419846,1.10790506830215,0.775531648635864
4.867806818181818,1.4930432942390401,-0.240490927791595,-1.26502499198914
4.868412878787879,4.71434456377029,-2.5157594824791,-0.32857235527038603
4.869018939393939,-1.69233268232346,0.784577431583405,-0.898587003707886
4.869625,-2.84194205732346,1.30429666986465,0.730026277542114
4.870231060606061,-0.0421642252922058,-1.48350606451035,1.23537539863586
4.870837121212121,0.882313313770294,0.149897255802155,-0.462693449020386
4.871443181818182,0.300323567676544,0.353473915958405,0.928812898635864
4.872049242424242,-1.7785533854484599,1.0863498925209,-1.24825985527039
4.872655303030303,1.1721106770515402,-0.0800246191978455,0.6030902423858641
4.873261363636364,2.94921516923904,-1.0739577246665999,0.0666058673858645
4.873867424242424,-1.02651725263596,0.327128701114655,-1.18119930839539
4.874473484848485,-2.25516227216721,0.980969033145905,0.40190860176086396
4.875079545454545,0.197337727832794,-0.0872096777915955,0.171986726760864
4.875685606060606,2.18759895830154,-0.422512412166595,0.5192645587921141
4.876291666666667,0.0248963215827942,-0.0943947363853455,0.35161319160461396
4.876897727272727,-2.24318717451096,1.0959299706459,0.387538484573364
4.877503787878788,-0.0397692057609558,0.243303017520905,0.169591707229614
4.878109848484849,2.3025598958015396,-0.9206764746665951,-0.6183697185516359
4.878715909090909,0.630836262989044,-0.060864462947845505,0.198331941604614
4.87932196969697,-1.54863151044846,0.147502236270905,-0.6159746990203859
4.87992803030303,-0.660079264354706,-0.0752345801353455,0.334848054885864
4.880534090909091,1.1984558918952901,0.27922831048965496,0.7036810626983641
4.881140151515151,0.43683968095779396,0.0397263573646545,-0.450718351364136
4.881746212121212,-2.6695006510734602,0.597765908145905,0.627040437698364
4.882352272727273,-1.75460319013596,0.9330686425209049,0.279762605667114
4.882958333333333,2.05587288408279,-1.6487624121666,-0.723750577926636
4.883564393939394,2.4965564778327898,-1.5146413184165999,-0.968042570114136
4.884170454545455,-1.05046744794846,0.803737587833405,0.054630769729614496
4.884776515151515,-1.18219352216721,0.949833779239655,0.35161319160461396
4.885382575757576,0.570960774707794,-0.223725791072845,0.44262393379211395
4.885988636363636,-0.17628531904220598,-0.975761923885345,0.176776765823364
4.886594696969697,-1.42169547529221,-0.034519248104095505,0.119296297073364
4.887200757575759,-2.39646842451096,1.5893039940834002,0.45220401191711396
4.887806818181818,2.6522327473640397,-0.362636923885345,-0.764465909957886
4.888412878787879,4.05092415361404,-2.4534889746666,-0.254326749801636
4.889018939393939,-1.6156920573234599,1.34261698236465,-0.884216886520386
4.8896250000000006,-2.8898424479484603,0.719911904239655,0.988688386917114
4.890231060606061,0.197337727832794,-1.2320290137291,0.854567293167114
4.890837121212121,1.19606087236404,-0.008174033260345449,0.145641511917114
4.8914431818181825,-0.121199869823456,0.44927469720840496,0.346823152542114
4.8920492424242425,-1.75460319013596,1.4168625878334,0.131271394729614
4.892655303030303,1.38287239580154,0.137922158145905,0.174381746292114
4.893261363636364,3.2845179036140397,-2.46546407232285,-0.5560992107391359
4.8938674242424245,-1.35702994794846,1.1582004784584001,-0.182476163864136
4.894473484848485,-2.8299669596672103,1.46715799798965,0.174381746292114
4.895079545454546,0.6452063801765441,-1.0404274512290999,0.46178409004211396
4.895685606060606,2.1133533528327897,0.35826395502090497,-0.273486906051636
4.896291666666667,-0.252925944042206,-0.343476767635345,-0.0890704021453855
4.896897727272727,-2.34856803388596,2.0683079003334,0.571954988479614
4.897503787878788,0.46557991533279397,1.1438303612709,0.346823152542114
4.898109848484848,3.66772102861404,-2.40319356451035,-0.762070890426636
4.898715909090909,-0.5930187174797059,0.121157021427155,0.0498407306671145
4.89932196969697,-2.5042443034172104,1.8120408104896502,-1.25783993339539
4.89992803030303,0.343433919239044,-1.71342793951035,1.29046084785461
4.900534090909091,1.63195442705154,1.4839231347084,-0.568074308395386
4.901140151515151,0.187757649707794,-0.362636923885345,-0.151340909957886
4.901746212121212,-2.37491324872971,-0.192590537166595,1.12520450019836
4.902352272727273,-1.7402330729484599,3.2801877831459,-0.47466854667663605
4.902958333333333,2.4893714192390397,-3.34683125982285,-0.0435650310516355
4.903564393939394,2.24747444658279,-1.9553249121665999,-1.5332671794891402
4.904170454545455,-1.6204820963859599,2.1449485253334,0.0881610431671145
4.904776515151515,-0.676844401073456,0.252883095645905,0.33005801582336397
4.905382575757576,0.422469563770294,-0.132715048885345,0.6390155353546141
4.905988636363636,-0.418182291698456,-1.07156270513535,0.564769929885864
4.906594696969697,-2.1473863932609603,-0.209355673885345,0.30131778144836396
4.907200757575758,-2.43957877607346,2.48743631830215,0.7396063556671141
4.907806818181818,3.33241829423904,-1.5960719824790999,-0.699800382614136
4.908412878787879,3.72520149736404,-2.93967793951035,-1.2003594646453901
4.909018939393939,-2.3533580729484602,2.20482401361465,0.346823152542114
4.909625,-2.80122672529221,0.597765908145905,0.0953461017608645
4.910231060606061,0.714661946582794,-1.7828835059166,0.627040437698364
4.910837121212121,1.29904671220779,0.36784403314590497,0.32287295722961395
4.911443181818182,0.34582893877029397,-0.032124228572845505,-0.0339849529266355
4.912049242424242,-2.45873893232346,2.0251975487709,1.40542178535461
4.912655303030303,1.57686897783279,1.28513651361465,-1.41112118339539
4.913261363636364,3.8233972981452897,-5.37301778326034,0.241442293167114
4.913867424242424,-1.98692008466721,2.9640452050209003,-1.03031307792664
4.914473484848485,-3.2323302409172103,1.8671262597084002,0.727631258010864
4.915079545454545,1.21282600908279,-2.5013893652915997,0.425858797073364
4.915685606060606,2.6354676106452897,1.0336594628334002,-0.40760799980163603
4.916291666666667,-0.44931754560470605,-1.2559792090416,-0.11062557792663599
4.916897727272727,-3.03354361982346,1.7042649315834,-0.00763973808288552
4.917503787878788,0.432049641895294,1.9341868065834,1.48924746894836
4.918109848484848,3.98865364580154,-2.62353536138535,-1.18838436698914
4.918715909090909,-0.8900011393547059,-0.149480185604095,-0.247141691207886
4.91932196969697,-2.51861442060471,1.40488749017715,-0.7740459880828859
4.91992803030303,1.12900032548904,-1.6439723731040998,0.655780672073364
4.920534090909091,1.33976204423904,1.7521653222084002,0.26060244941711397
4.921140151515152,-0.387047037792206,-0.678779502010345,0.054630769729614496
4.921746212121212,-2.6096251627922102,-0.41772237310409505,0.6006952228546141
4.922352272727273,-2.3509630534172103,2.92332987298965,0.0809759845733645
4.922958333333333,3.06657112627029,-3.1384645606041,-0.242351652145386
4.923564393939394,2.4366809895515398,-2.06310079107285,-1.19317440605164
4.924170454545455,-1.7833434245109598,2.63592752923965,-0.35491757011413605
4.924776515151515,-0.693609537792206,-0.31952657232284504,0.6414105548858641
4.925382575757576,0.958953938770294,-0.142295127010345,0.876122468948364
4.925988636363636,-0.358306803417206,-0.714704794979095,0.0402606525421145
4.926594696969697,-1.94620475263596,-1.12904317388535,0.306107820510864
4.927200757575758,-2.87068229169846,3.19157206048965,0.315687898635864
4.927806818181818,3.48809456377029,-1.03324239263535,-1.02312801933289
4.92841287878788,4.25929085283279,-3.7276393652916,-0.6542950115203859
4.929018939393939,-2.81559684247971,2.8874045800209003,-0.960857511520386
4.929625,-2.61202018232346,-0.30994649419784503,1.56109805488586
4.9302310606060615,0.599701009082794,-0.805715537166595,0.207912019729614
4.930837121212122,1.20803597002029,0.980969033145905,0.315687898635864
4.931443181818182,0.0991419270515442,-1.0164772559166,0.0857660236358645
4.932049242424242,-2.48508414716721,2.1186033104896502,-0.378867765426636
4.9326553030303035,1.4930432942390401,1.34740702142715,-0.00763973808288552
4.9332613636363645,3.66532600908279,-2.9851833106041,-0.158525968551636
4.933867424242424,-1.65161735029221,1.5222434472084,-1.08300350761414
4.9344734848484855,-2.6766857096672103,0.9713889550209049,0.40190860176086396
4.9350795454545455,0.697896809864044,-0.951811728572845,0.44262393379211395
4.9356856060606065,2.6785779622077897,1.1270652245521502,-0.532149015426636
4.936291666666667,-0.34154166669845604,-1.1817336035728498,-0.163316007614136
4.9368977272727275,-2.9497179362297103,1.2923215722084,0.713261140823364
4.937503787878788,0.0536365559577942,1.87431131830215,0.727631258010864
4.9381098484848485,3.49288460283279,-2.3912184668541,-1.14287899589539
4.938715909090909,0.27637337236404397,-0.34108174810409503,0.217492097854614
4.93932196969697,-2.42520865888596,1.4216526268959,-0.999177824020386
4.93992803030303,0.28834847002029396,-1.19131368169785,0.933602937698364
4.940534090909091,1.80439583330154,1.3785422753334,0.181566804885864
4.941140151515152,0.0248963215827942,-0.673989462947845,-0.0531451091766355
4.941746212121212,-2.5928600260734602,-0.197380576229095,0.830617097854614
4.942352272727273,-2.3533580729484602,3.00955057611465,0.32047793769836397
4.942958333333333,2.85101936845779,-2.14453145513535,-0.124995695114136
4.943564393939394,2.69773811845779,-2.6690407324791,-1.18598934745789
4.944170454545455,-2.1881017252922104,1.88389139642715,-0.824341398239136
4.944776515151515,-0.8277306315422059,0.27204325189590495,0.971923250198364
4.945382575757576,0.697896809864044,0.327128701114655,0.258207429885864
4.945988636363636,0.115907063770294,-0.729074912166595,-0.0244048748016355
4.946594696969697,-1.60850699872971,-1.1649684668540998,0.44980899238586397
4.947200757575758,-2.96408805341721,2.4227707909584,0.160011629104614
4.947806818181818,3.35636848955154,-1.1266481543540998,-0.419583097457886
4.948412878787879,4.2209705403327895,-2.5947951270103498,-1.18598934745789
4.949018939393939,-2.49466422529221,2.1401584862709,0.777926668167114
4.949625,-3.09102408857346,0.506755165958405,0.548004793167114
4.950231060606061,0.103931966114044,-1.60804708013535,0.36358828926086395
4.950837121212121,1.94330696611404,0.236117958927155,0.38993350410461397
4.951443181818182,-0.0828795573234558,-0.056074423885345503,0.227072175979614
4.952049242424242,-2.8323619791984602,1.9749021386146501,0.516869539260864
4.952655303030303,1.46669807939529,0.628901162052155,0.0929510822296145
4.953261363636364,3.36594856767654,-2.76723653326035,-0.46508846855163605
4.953867424242424,-1.4360655924797099,1.3282468651771502,-0.759675870895386
4.954473484848485,-3.08383902997971,0.9115134667396549,0.104926179885864
4.955079545454545,1.34215706377029,-1.23921407232285,0.193541902542114
4.955685606060606,2.40075569658279,0.765417275333405,0.48333926582336395
4.956291666666667,-0.585833658885956,-0.630879111385345,-0.527358976364136
4.956897727272727,-3.0886290690422102,0.918698525333405,0.8018768634796141
4.957503787878788,-0.193050455760956,2.8299241112709,0.46417910957336395
4.958109848484848,3.67251106767654,-2.9181227637291,-0.8171563396453859
4.958715909090909,0.372174153614044,-0.865591025447845,-0.45550839042663605
4.95932196969697,-2.70542594404221,1.98448221673965,-0.139365812301636
4.95992803030303,-0.49961295576095605,-0.891936240291595,0.0761859455108645
4.960534090909091,1.70380501298904,0.8923533104896549,0.224677156448364
4.961140151515152,0.652391438770294,-0.38898213872909504,0.48333926582336395
4.961746212121212,-2.57609488935471,-0.355451865291595,-0.323782316207886
4.962352272727273,-2.1473863932609603,2.6646677636146503,0.528844636917114
4.962958333333333,2.59714729814529,-2.0822609473228497,-0.46748348808288603
4.963564393939394,2.57319710283279,-3.13127950201035,-0.8961919841766359
4.964170454545455,-2.2072618815422103,2.4371409081459,-0.390842863082886
4.964776515151515,-1.53426139326096,0.394189247989655,0.157616609573364
4.965382575757576,1.8139759114265401,-0.887146201229095,1.55630801582336
4.965988636363636,0.0512415364265442,-0.0632594824790955,-0.6135796794891359
4.966594696969697,-2.40844352216721,-1.2128688574791,0.016310457229614498
4.967200757575758,-2.86828727216721,2.3988205956459,0.897677644729614
4.967806818181818,2.76719368486404,-0.247675986385345,-1.4518365154266402
4.968412878787879,4.85086067705154,-4.09407735357285,-0.680640226364136
4.969018939393939,-2.52579947919846,2.83231913080215,-1.0806084880828901
4.969625,-3.1053942057609603,0.11397196283340501,1.00784854316711
4.970231060606061,0.535035481739044,-1.5457765723228498,0.6821258869171141
4.970837121212121,1.71817513017654,0.803737587833405,0.0139154376983645
4.971443181818183,0.0033411458015441997,-0.906306357479095,0.131271394729614
4.972049242424242,-2.8658922526359603,2.24793436517715,0.00673037910461448
4.972655303030303,1.90977669267654,0.782182412052155,1.05095889472961
4.9732613636363645,3.4042688801765397,-3.0402687598228497,-1.17161923027039
4.973867424242425,-1.5989269206047099,0.7342820214271549,-0.249536710739136
4.974473484848485,-3.14371451826096,1.28034647455215,0.0498407306671145
4.975079545454545,0.779327473926544,-0.956601767635345,-0.659085050582886
4.9756856060606065,2.93245003252029,0.494780068302155,0.9623431720733641
4.9762916666666674,-0.183470377635956,-0.8440358496665951,-0.45550839042663605
4.976897727272727,-3.29460074872971,1.1294602440834,0.179171785354614
4.977503787878788,-0.178680338573456,2.64071756830215,0.40190860176086396
4.978109848484849,3.77549690752029,-3.2055251074791,-0.280671964645386
4.978715909090909,0.563775716114044,-0.836850791072845,1.0054535236358602
4.97932196969697,-2.4371837565422103,2.5880271386146503,-1.1524590740203902
4.97992803030303,-0.123594889354706,-1.8786842871665999,0.947973054885864
4.980534090909091,1.43556282548904,1.14622538080215,1.1443646564483598
4.981140151515152,-0.147545084667206,-0.21893575201034499,-0.6135796794891359
4.981746212121212,-2.4204186198234603,-0.956601767635345,0.557584871292114
4.982352272727273,-2.10667106122971,3.9795334862709,0.030680574417114498
4.982958333333333,2.71689827470779,-2.63311543951035,0.128876375198364
4.983564393939394,3.4042688801765397,-2.9708131934165998,-1.14527401542664
4.984170454545455,-2.72458610029221,2.42995584955215,-0.36689266777038604
4.984776515151515,-1.27080924482346,-0.111159873104095,0.617460359573364
4.985382575757576,1.28228157548904,-0.228515830135345,0.691705965042114
4.985988636363636,0.27637337236404397,0.101996865177155,0.109716218948364
4.986594696969697,-1.8767491862297099,-1.55056661138535,0.0761859455108645
4.987200757575758,-3.26107047529221,2.1976389550209,0.133666414260864
4.987806818181818,3.09052132158279,-0.573398642635345,-0.6734551677703859
4.988412878787879,4.42454720048904,-3.69171407232285,-0.180081144332886
4.989018939393939,-2.43957877607346,2.9975754784584,-1.0327080974578902
4.989625,-2.73177115888596,-0.056074423885345503,0.933602937698364
4.990231060606061,0.451209798145294,-1.9409547949791,0.46417910957336395
4.990837121212121,1.45711800127029,0.844452919864655,-0.175291105270386
4.991443181818182,-0.0685094401359558,-0.44646260747909505,0.6438055744171141
4.992049242424242,-2.92816276044846,3.15804178705215,-0.419583097457886
4.992655303030303,2.2498694661140397,-0.808110556697845,0.571954988479614
4.993261363636364,4.2209705403327895,-3.3731764746665998,-1.5596123943328901
4.993867424242424,-2.59765006513596,2.48743631830215,0.399513582229614
4.994473484848485,-2.69105582685471,1.0288694237709002,0.545609773635864
4.995079545454545,0.709871907520294,-2.02957051763535,-0.242351652145386
4.995685606060606,2.4989514973640397,1.4839231347084,0.169591707229614
4.996291666666667,-0.164310221385956,-1.5146413184165999,-0.438743253707886
4.996897727272727,-3.04791373701096,0.842057900333405,0.46178409004211396
4.997503787878788,0.41767952470779396,2.8706394433021503,0.732421297073364
4.998109848484849,3.6102405598640397,-3.2151051856041,-0.6135796794891359
4.998715909090909,-0.839705729198456,0.0972068261146545,0.128876375198364
4.99932196969697,-2.45155387372971,1.2300510643959002,-0.850686613082886
4.99992803030303,0.8080677083015441,-1.9984352637290999,-0.0483550701141355
5.000534090909091,1.57926399736404,1.8575461815834,0.770741609573364
5.001140151515151,0.542220540332794,0.0732566308021545,-0.778836027145386
5.001746212121212,-3.76641959638596,-1.2703493262291,0.624645418167114
5.002352272727273,-1.5222862956047098,2.97123026361465,0.349218172073364
5.002958333333333,2.67139290361404,-2.8774074316978497,-0.330967374801636
5.003564393939394,2.08940315752029,-2.1612965918541,-1.25783993339539
5.004170454545455,-1.3426598307609598,2.5113865136146503,0.0594208087921145
5.004776515151515,-1.47199088544846,-0.312341513729095,0.212702058792114
5.005382575757576,1.34934212236404,0.34149881830215495,0.751581453323364
5.005988636363636,-0.226580729198456,-0.48957295904159503,0.488129304885864
5.006594696969697,-2.43478873701096,-1.43081563482285,-0.30462215995788605
5.007200757575758,-2.11864615888596,3.1125364159584,0.47136416816711396
5.007806818181818,2.7360584309577898,-0.925466513729095,-0.9129571208953859
5.008412878787879,4.56345833330154,-3.57675313482285,-0.187266202926636
5.009018939393939,-2.5234044596672103,2.4467209862709,0.40430362129211395
5.009625,-3.05030875654221,-0.0991847754478455,1.17549991035461
5.010231060606061,1.02122444658279,-1.43560567388535,1.98022647285461
5.010837121212121,0.817647786426544,1.51026834955215,-0.7979961833953859
5.011443181818182,0.0344763997077942,-1.67989766607285,0.773136629104614
5.012049242424242,-2.03242545576096,2.28625467767715,0.188751863479614
5.012655303030303,1.44514290361404,1.3330369042396502,-0.259116788864136
5.013261363636364,3.50246468095779,-3.40431172857285,0.215097078323364
5.013867424242424,-1.89351432294846,1.9198166893959001,-1.29137020683289
5.0144734848484855,-1.90548942060471,0.42771952142715497,0.895282625198364
5.015079545454546,0.736217122364044,-0.640459189510345,-0.0938604412078855
5.015685606060606,1.81158089189529,1.47673807611465,-0.302227140426636
5.0162916666666675,0.132672200489044,-1.7828835059166,0.672545808792114
5.0168977272727275,-3.26107047529221,1.99406229486465,-0.508198820114136
5.0175037878787885,0.163807454395294,1.80246073236465,1.48924746894836
5.018109848484848,3.5000696614265396,-3.1672047949791,-0.647109952926636
5.0187159090909095,-0.42057731122970604,0.7749973534584049,-0.999177824020386
5.01932196969697,-1.82405875654221,0.6744065331459049,0.718051179885864
5.0199280303030305,-0.0253990885734558,-0.726679892635345,-0.5177788982391359
5.020534090909091,0.937398762989044,1.11748514642715,1.14675967597961
5.0211401515151515,0.578145833301544,-0.8608009863853451,-0.311807218551636
5.021746212121212,-2.3102477213859602,-0.283601279354095,0.689310945510864
5.022352272727273,-1.9414147135734598,3.2634226464271503,0.428253816604614
5.022958333333333,2.2762146809577897,-2.35050313482285,-0.939302335739136
5.023564393939394,2.62109749345779,-2.84866719732285,-0.766860929489136
5.024170454545455,-1.70670279951096,1.9270017479896502,-1.12132382011414
5.024776515151515,-1.38577018232346,-0.197380576229095,0.835407136917114
5.025382575757576,1.1769007161140401,0.557050576114655,0.825827058792114
5.025988636363636,-0.051744303417205796,-0.657224326229095,-0.489038663864136
5.026594696969697,-1.98452506513596,-1.2703493262291,0.0785809650421145
5.027200757575758,-2.9257677409172103,2.5185715722084,0.617460359573364
5.027806818181818,2.9779554036140397,-0.791345419979095,-0.932117277145386
5.028412878787879,4.1275647786140395,-3.57675313482285,-0.532149015426636
5.029018939393939,-2.25995231122971,2.1521335839271503,-0.501013761520386
5.029625,-3.0119884440422102,0.123552040958405,0.9431830158233641
5.030231060606061,0.678736653614044,-1.3038795996666,0.864147371292114
5.030837121212121,1.1984558918952901,0.561840615177155,0.0618158283233645
5.031443181818182,-0.238555826854706,-0.491967978572845,-0.148945890426636
5.032049242424242,-1.98213004560471,2.48743631830215,0.42106875801086396
5.032655303030303,1.07151985673904,0.36065897455215495,-0.903377042770386
5.033261363636364,4.17786018877029,-4.0102516699791,0.258207429885864
5.033867424242424,-1.98692008466721,2.00364237298965,-0.182476163864136
5.034473484848485,-2.86828727216721,1.3210618065834001,-0.5584942302703859
5.035079545454545,0.9637439778327941,-1.72300801763535,0.928812898635864
5.035685606060606,2.34806526689529,1.30908670892715,-0.5345440349578859
5.036291666666667,-0.31280143232345603,-1.1458083106041,-0.0148247966766355
5.036897727272727,-3.18682486982346,0.839662880802155,0.7827167072296141
5.037503787878788,0.796092610645294,2.4179807518959002,0.46417910957336395
5.038109848484848,3.2845179036140397,-2.88698750982285,-0.9536724529266359
5.038715909090909,-0.686424479198456,0.27922831048965496,-0.7333306560516359
5.03932196969697,-2.06595572919846,1.5222434472084,-0.29743710136413604
5.03992803030303,0.37696419267654396,-1.4044704199790998,0.49052432441711397
5.040534090909091,1.2918616536140402,1.5222434472084,0.574350008010864
5.041140151515152,0.532640462207794,-0.7051247168540951,-0.0267998943328855
5.041746212121212,-2.58806998701096,-0.151875205135345,0.325267976760864
5.042352272727273,-2.0372154948234598,3.3089280175209,0.31329287910461395
5.042958333333333,2.37441048173904,-2.70975606451035,-0.38844784355163603
5.043564393939394,2.39357063798904,-2.3984035254478497,-1.0973736248016401
5.044170454545455,-2.1449913737297104,2.4131907128334,-0.402817960739136
5.044776515151515,-1.15584830732346,0.00380106439590455,0.5240545978546141
5.045382575757576,1.88822151689529,0.228932900333405,0.797086824417114
5.045988636363636,-0.614573893260956,-0.5254982520103451,-0.0531451091766355
5.046594696969697,-2.2072618815422103,-1.35896504888535,-0.352522550582886
5.047200757575758,-2.2407921549797103,1.92221170892715,0.8785174884796141
5.047806818181818,2.53487679033279,-0.434487509822845,-1.30095028495789
5.048412878787879,4.09642952470779,-3.0402687598228497,-0.261511808395386
5.049018939393939,-2.1737316081047102,1.75456034173965,-0.663875089645386
5.049625,-2.42281363935471,0.34868387689590497,0.150431550979614
5.050231060606061,0.0943518879890442,-1.24400411138535,1.3024359455108598
5.050837121212121,1.58644905595779,0.916303505802155,-0.505803800582886
5.051443181818182,-0.169100260448456,-0.8224806738853451,0.914442781448364
5.052049242424242,-2.3605431315422103,2.9041697167396503,-0.45550839042663605
5.052655303030303,1.63674446611404,-0.036914267635345506,0.45220401191711396
5.053261363636365,3.61263557939529,-3.0953542090416,-1.28418514823914
5.053867424242424,-1.79771354169846,1.56295877923965,0.054630769729614496
5.054473484848485,-2.7102159831047103,1.54379862298965,0.409093660354614
5.055079545454545,1.08828499345779,-1.1122780371666,0.145641511917114
5.055685606060607,2.2067591145515397,0.6360862206459049,0.167196687698364
5.056291666666667,-0.137965006542206,-1.00450215826035,-1.14527401542664
5.056897727272727,-2.40604850263596,0.494780068302155,1.3024359455108598
5.0575037878787885,-0.26011100263595605,3.5819602440834,0.258207429885864
5.058109848484849,2.78395882158279,-2.8750124121666,-0.462693449020386
5.058715909090909,0.40809944658279396,-0.362636923885345,-0.5153838787078859
5.0593219696969705,-2.2839025065422103,1.15580545892715,-0.6159746990203859
5.0599280303030305,0.18296761064529402,-1.2799294043540999,0.119296297073364
5.0605340909090915,1.45711800127029,2.0156174706459002,0.655780672073364
5.061140151515152,0.113512044239044,-0.733864951229095,0.49291934394836395
5.0617462121212125,-2.2910875651359603,-0.482387900447845,0.0282855548858645
5.062352272727273,-1.96775992841721,2.6287424706459,0.9216278400421141
5.0629583333333334,2.04150276689529,-1.7828835059166,-0.48424862480163605
5.063564393939394,2.7456385090827897,-2.26907247076035,-1.30095028495789
5.064170454545455,-1.3809801432609599,1.1965207909584001,-0.0028496990203855203
5.064776515151515,-1.61808707685471,1.0001291893959,-0.10583553886413599
5.065382575757576,0.6859217122077941,-0.168640341854095,0.9024676837921141
5.065988636363636,0.602096028614044,-1.04761250982285,-0.0411700115203855
5.066594696969697,-1.9366246745109599,-1.1745485449791,-0.180081144332886
5.067200757575758,-3.04791373701096,3.05266092767715,0.454599031448364
5.067806818181818,2.9587952473640398,-0.556633505916595,-0.280671964645386
5.068412878787879,4.76463997392654,-4.134792685604101,-1.15964413261414
5.069018939393939,-2.0683507487297104,2.2024289940834,-0.740515714645386
5.069625,-3.09820914716721,0.7558371972084049,0.646200593948364
5.070231060606061,0.518270345020294,-1.59846700201035,1.1228094806671098
5.070837121212121,1.3780823567390401,0.8755881737709049,-0.453113370895386
5.071443181818182,-0.32238151044845603,-1.2032887793540998,-0.0914654216766355
5.072049242424242,-1.65161735029221,2.65508768548965,0.5192645587921141
5.072655303030303,0.949373860645294,1.0384495018959001,0.306107820510864
5.073261363636364,4.10361458330154,-3.5096925879478498,-1.4781817302703901
5.073867424242424,-1.4025353190422098,1.2013108300209001,-0.00524471855163552
5.074473484848485,-2.9928282877922103,1.8671262597084002,0.0211004962921145
5.075079545454545,0.7649573567390441,-1.7325880957603499,0.26299746894836395
5.075685606060606,2.1899939778327897,0.648061318302155,0.0857660236358645
5.076291666666667,0.37935921220779395,-0.913491416072845,-0.685430265426636
5.076897727272727,-3.0527037760734603,0.825292763614655,0.809061922073364
5.077503787878788,-0.31040641279220604,2.9927854393959,-0.251931730270386
5.078109848484848,3.8760877278327897,-4.01264668951035,0.210307039260864
5.078715909090909,0.130277180957794,0.964203896427155,-0.611184659957886
5.07932196969697,-3.0095934245109603,1.4072825097084,-0.199241300582886
5.07992803030303,0.676341634082794,-2.2762575293541,0.219887117385864
5.080534090909091,1.3517371418952902,1.66354959955215,0.612670320510864
5.081140151515152,0.503900227832794,-0.30036641607284503,0.0187054767608645
5.081746212121212,-2.0539806315422102,-0.729074912166595,0.365983308792114
5.082352272727273,-2.26234733076096,3.2730027245521502,-0.117810636520386
5.082958333333333,2.39117561845779,-2.6403004981041,-0.218401456832886
5.083564393939394,2.02952766923904,-2.8654323340416,-0.872241788864136
5.084170454545455,-1.7019127604484598,2.45869608392715,-1.4302813396453902
5.084776515151515,-1.1366881510734599,-0.673989462947845,0.9791083087921141
5.085382575757576,1.46430305986404,0.585790810489655,-0.230376554489136
5.085988636363636,-0.30322135419845603,-0.32671163091659505,0.104926179885864
5.086594696969697,-2.5665148112297103,-1.4044704199790998,0.112111238479614
5.087200757575758,-1.96057486982346,2.2694895409584,0.41388369941711395
5.087806818181818,2.3792005208015397,-0.5446584082603451,-0.860266691207886
5.088412878787879,4.14672493486404,-3.0666139746666,-0.7740459880828859
5.089018939393939,-1.74741813154221,1.7138450097084001,0.193541902542114
5.089625,-2.85870719404221,0.48999002923965496,-0.146550870895386
5.090231060606061,0.139857259082794,-1.5290114356041,1.07730410957336
5.090837121212121,1.0308045247077902,0.691171669864655,-0.160920988082886
5.091443181818182,-0.0756944987297058,-0.671594443416595,0.239047273635864
5.092049242424242,-1.64682731122971,2.8251340722084,0.236652254104614
5.092655303030303,0.752982259082794,0.44927469720840496,-0.393237882614136
5.093261363636364,3.8138172200202898,-3.44742208013535,-0.393237882614136
5.093867424242424,-1.51270621747971,1.54379862298965,0.35161319160461396
5.094473484848485,-2.7892516276359602,1.7473752831459002,-0.651899991989136
5.095079545454545,0.8463880208015441,-1.6272072363853498,0.988688386917114
5.095685606060606,1.93851692705154,1.00731424798965,-0.283066984176636
5.0962916666666676,0.30750862627029396,-1.1793385840416,-0.19684628105163599
5.096897727272727,-2.93534781904221,0.906723427677155,0.713261140823364
5.097503787878788,-0.456502604198456,3.2897678612709003,-0.34533749198913605
5.0981098484848495,3.7132263997077897,-3.7156642676353497,-0.0531451091766355
5.0987159090909095,0.39851936845779395,0.0493064354896545,-0.963252531051636
5.09932196969697,-2.98803824872971,1.71144999017715,0.0282855548858645
5.09992803030303,0.762562337207794,-1.7373781348228499,0.289342683792114
5.1005340909090915,1.42837776689529,1.5461936425209002,0.935997957229614
5.101140151515152,0.235658040332794,-0.37940206060409504,-0.472273527145386
5.101746212121212,-2.44197379560471,-0.678779502010345,0.212702058792114
5.102352272727273,-2.21684195966721,3.3376682518959,1.19226504707336
5.1029583333333335,2.41512581377029,-2.21159200201035,-0.431558195114136
5.103564393939394,1.41879768877029,-2.3768483496666,-1.1356939373016401
5.104170454545455,-1.03609733076096,1.9677170800209,-0.702195402145386
5.104776515151515,-0.17628531904220598,-0.262046103572845,0.718051179885864
5.105382575757576,0.30990364580154395,0.858823037052155,0.385143465042114
5.105988636363636,0.400914387989044,-0.422512412166595,0.45220401191711396
5.106594696969697,-1.90548942060471,-1.9720900488853499,0.485734285354614
5.107200757575758,-2.88026236982346,3.57477518548965,-0.5752593669891359
5.107806818181818,2.2259192708015396,-1.0452174902915998,-0.124995695114136
5.108412878787879,4.66883919267654,-3.7563795996666,-1.27460507011414
5.109018939393939,-1.53665641279221,2.4898313378334,-0.43634823417663604
5.109625,-3.32334098310471,0.5738157128334049,0.730026277542114
5.110231060606061,0.580540852832794,-1.7349831152916,0.964738191604614
5.110837121212121,1.10505013017654,0.425324501895905,-0.548914152145386
5.111443181818182,-0.17628531904220598,-0.511128134822845,0.119296297073364
5.112049242424242,-2.11864615888596,2.00364237298965,1.18987002754211
5.112655303030303,1.36850227861404,1.3809372948646501,-0.769255949020386
5.113261363636364,3.17913704423904,-3.6509987402916,-0.172896085739136
5.113867424242424,-1.3426598307609598,1.0935349511146502,-0.0699102458953855
5.114473484848485,-2.39167838544846,1.1821506737709,-0.29743710136413604
5.115079545454545,0.563775716114044,-1.2895094824791,0.16240664863586401
5.115685606060606,2.3025598958015396,1.2061008690834,0.0426556720733645
5.116291666666667,-0.0397692057609558,-1.12425313482285,-0.49622372245788604
5.116897727272727,-2.83475699872971,0.540285439395905,0.7611615314483641
5.117503787878788,-0.6528942057609559,3.4622092675209,0.164801668167114
5.118109848484849,3.21985237627029,-2.4726491309166,0.107321199417114
5.118715909090909,0.508690266895294,-1.32543477544785,-0.508198820114136
5.11932196969697,-1.82884879560471,1.4599729393959,-1.34166561698914
5.11992803030303,-0.274481119823456,-1.16736348638535,0.624645418167114
5.120534090909091,0.889498372364044,1.4982932518959,0.0905560626983645
5.121140151515151,0.484740071582794,-0.709914755916595,0.102531160354614
5.121746212121212,-2.13301627607346,-0.8033205176353451,-0.0866753826141355
5.122352272727273,-2.4707140299797103,3.5484299706459,0.109716218948364
5.122958333333333,2.24747444658279,-1.9792751074791,0.054630769729614496
5.123564393939394,3.04022591142654,-2.9181227637291,-1.58835262870789
5.124170454545455,-1.90788444013596,1.44320780267715,-0.369287687301636
5.124776515151515,-0.973826822948456,0.255278115177155,0.5408197345733641
5.125382575757576,0.7841175129890441,0.33910379877090496,0.327662996292114
5.125988636363636,0.37696419267654396,-0.49915303716659504,0.40190860176086396
5.126594696969697,-1.09118277997971,-1.46913594732285,-0.168106046676636
5.127200757575758,-3.19400992841721,2.3030198143959,0.32047793769836397
5.127806818181818,2.28100472002029,0.0229612206459046,-0.462693449020386
5.128412878787879,4.393411946582789,-3.6893190527915998,-0.6183697185516359
5.129018939393939,-1.50791617841721,1.6491794823646502,-0.0507500896453855
5.129625,-2.76051139326096,0.8516379784584049,0.627040437698364
5.130231060606061,-0.336751627635956,-1.4236305762291,0.121691316604614
5.130837121212121,1.86666634111404,0.36065897455215495,0.677335847854614
5.131443181818182,0.494320149707794,-0.48957295904159503,-0.139365812301636
5.132049242424242,-2.16175651044846,1.6707346581459002,-0.31659725761413604
5.132655303030303,0.441629720020294,1.0623996972084,0.909652742385864
5.133261363636364,3.60545052080154,-2.8127419043541,-0.929722257614136
5.133867424242424,-0.925926432323456,0.624111122989655,-0.232771574020386
5.134473484848485,-2.48508414716721,1.6611545800209,-0.28785702323913603
5.135079545454545,0.556590657520294,-1.7014528418541,0.155221590042114
5.135685606060606,2.3528553059577897,1.1270652245521502,0.318082918167114
5.136291666666667,0.34582893877029397,-1.31585469732285,-0.0651202068328855
5.136897727272727,-2.31264274091721,-0.0177541113853454,0.205517000198364
5.137503787878789,-0.9714318034172059,2.83231913080215,1.30962100410461
5.138109848484848,3.15279182939529,-1.8882643652916,-0.929722257614136
5.138715909090909,0.8847083333015441,-1.29190450201035,0.0402606525421145
5.1393219696969705,-2.3006676432609603,2.01322245111465,-1.11653378105164
5.139928030303031,-0.114014811229706,-1.4236305762291,0.289342683792114
5.140534090909091,0.712266927051544,0.968993935489655,0.574350008010864
5.141140151515151,0.9852991536140441,0.305573525333405,-0.10344051933288599
5.1417462121212125,-2.5042443034172104,-1.0883278418540998,0.425858797073364
5.1423522727272735,-2.7197960612297103,3.36880350580215,-0.216006437301636
5.142958333333333,2.04150276689529,-1.9936452246665999,0.478549226760864
5.1435643939393945,2.63307259111404,-2.6259303809166,-1.56200741386414
5.144170454545455,-0.983406901073456,1.3593821190834001,0.289342683792114
5.1447765151515155,-1.20374869794846,0.37023905267715496,0.0474457111358645
5.145382575757576,1.02122444658279,0.31754862298965497,0.8425921955108641
5.1459886363636365,-0.377466959667206,-0.484782919979095,0.246232332229614
5.146594696969697,-1.46720084638596,-1.88586934576035,0.0187054767608645
5.147200757575758,-3.0958141276359603,2.88021952142715,0.7611615314483641
5.147806818181818,1.32778694658279,0.475619912052155,-1.07342342948914
5.148412878787879,5.4184803059577895,-3.90726583013535,-0.8554766521453859
5.149018939393939,-1.37379508466721,1.5414036034584,-0.8363164958953859
5.149625,-3.1485045573234602,1.02647440423965,0.425858797073364
5.150231060606061,-0.664869303417206,-2.1325563574790998,0.957553133010864
5.150837121212121,1.57926399736404,0.683986611270905,-0.182476163864136
5.151443181818182,0.6452063801765441,-0.539868369197845,0.6390155353546141
5.152049242424242,-2.5401695963859603,2.25751444330215,-0.101045499801636
5.152655303030303,0.901473470020294,1.74977030267715,0.31089785957336397
5.153261363636364,3.8066321614265397,-4.194668173885351,-0.544124113082886
5.153867424242424,-0.822940592479706,1.20370584955215,-0.302227140426636
5.154473484848485,-3.1125792643547103,2.2287742089271503,0.706076082229614
5.155079545454545,0.494320149707794,-1.47871602544785,-0.37407772636413605
5.155685606060606,2.50853157548904,0.849242958927155,0.124086336135864
5.156291666666667,0.422469563770294,-1.1745485449791,0.0570257892608645
5.156897727272727,-2.9425328776359603,0.540285439395905,-0.563284269332886
5.157503787878788,-0.154730143260956,2.3173899315834,1.26890567207336
5.158109848484848,3.8066321614265397,-1.9457448340416,-0.845896574020386
5.158715909090909,-0.152335123729706,-0.815295615291595,-0.43634823417663604
5.15932196969697,-1.7234679362297098,1.75456034173965,-0.759675870895386
5.15992803030303,-0.243345865917206,-1.91460958013535,0.36358828926086395
5.160534090909091,1.54333870439529,1.4168625878334,0.864147371292114
5.161140151515152,0.42965462236404395,0.00140604486465455,0.286947664260864
5.161746212121212,-2.56172477216721,-1.12904317388535,0.0570257892608645
5.162352272727273,-1.86237906904221,3.6107004784584,-0.0555401287078855
5.162958333333333,1.63674446611404,-2.5636598731041,0.188751863479614
5.163564393939394,2.4726062825202897,-2.40798360357285,-1.72726376152039
5.164170454545455,-0.760670084667206,1.42404764642715,0.286947664260864
5.164776515151515,-1.19416861982346,0.415744423770905,-0.235166593551636
5.165382575757576,0.980509114551544,0.33191874017715495,0.8425921955108641
5.165988636363636,-0.0421642252922058,-0.46083272466659503,-0.261511808395386
5.166594696969697,-2.53777457685471,-1.6535524512291,-0.165711027145386
5.167200757575758,-2.29827262372971,2.46348612298965,0.569559968948364
5.167806818181818,2.07263802080154,0.0373313378334045,-0.247141691207886
5.168412878787879,4.11558968095779,-3.48574239263535,-1.1141387615203902
5.169018939393939,-0.681634440135956,1.3066916893959002,-0.10583553886413599
5.169625,-3.0622838541984603,0.6528513573646549,0.912047761917114
5.170231060606061,-0.576253580760956,-0.41772237310409505,-0.323782316207886
5.170837121212121,1.18648079423904,-0.178220419979095,1.0365887775421099
5.171443181818182,0.556590657520294,-0.872776084041595,-0.48424862480163605
5.172049242424242,-1.60132194013596,2.14734354486465,-0.0603301677703855
5.172655303030303,0.482345052051544,1.20370584955215,0.576745027542114
5.173261363636364,3.4306140950202897,-2.38882344732285,-0.0699102458953855
5.173867424242424,-0.7510900065422059,0.133132119083405,-0.589629484176636
5.174473484848485,-2.46831901044846,1.39530741205215,-0.441138273239136
5.175079545454545,0.0560315754890442,-0.616508994197845,0.598300203323364
5.175685606060606,2.61391243486404,0.830082802677155,-0.491433683395386
5.176291666666667,0.7266370442390441,-1.07156270513535,0.157616609573364
5.176897727272727,-2.8323619791984602,0.549865517520905,-0.0459600505828855
5.177503787878788,-0.813360514354706,2.5473118065834,0.9383929767608641
5.178109848484848,3.0450159504890397,-1.6391823340415999,-0.362102628707886
5.178715909090909,0.832017903614044,-1.2463991309165998,-0.560889249801636
5.17932196969697,-1.55102652997971,1.4503928612709,0.0019403400421144801
5.17992803030303,-0.487637858104706,-0.654829306697845,0.160011629104614
5.180534090909092,1.12900032548904,0.856428017520905,-0.115415616989136
5.181140151515152,0.882313313770294,0.0205662011146546,0.478549226760864
5.181746212121212,-2.2336070963859602,-1.51703633794785,0.605485261917114
5.1823522727272735,-2.43957877607346,3.1963620995521502,0.236652254104614
5.182958333333334,1.12181526689529,-0.867986044979095,0.36358828926086395
5.183564393939394,3.3036780598640396,-3.3683864356041,-2.00269100761414
5.184170454545455,-1.23488395185471,0.844452919864655,-0.41718807792663604
5.1847765151515155,-1.93183463544846,1.1486204003334002,0.131271394729614
5.185382575757576,0.889498372364044,-0.0536794043540955,0.909652742385864
5.185988636363636,0.202127766895294,-0.321921591854095,0.200726961135864
5.186594696969697,-1.26841422529221,-1.5793068457603499,-0.117810636520386
5.187200757575758,-2.84433707685471,1.6755246972084001,0.593510164260864
5.187806818181818,1.58884407548904,1.1055100487709,-0.522568937301636
5.188412878787879,5.0927576497077895,-3.7587746191978497,-0.7572808513641359
5.189018939393939,-1.11752799482346,1.16538553705215,-0.824341398239136
5.189625,-3.32094596357346,1.15580545892715,0.46178409004211396
5.190231060606061,0.204522786426544,-1.8571291113853499,1.06772403144836
5.190837121212121,0.870338216114044,0.937858681583405,-0.223191495895386
5.191443181818182,0.8056726887702941,-0.760210166072845,0.0330755939483645
5.192049242424242,-1.99889518232346,1.7425852440834,0.512079500198364
5.192655303030303,0.135067220020294,2.5089914940834,-0.0387749919891355
5.193261363636364,4.0078138020515395,-4.520390830135351,-0.340547452926636
5.193867424242424,-0.664869303417206,0.188217568302155,-0.249536710739136
5.194473484848485,-2.9592980143547103,3.00955057611465,0.6030902423858641
5.195079545454545,-0.0421642252922058,-2.0415456152916,0.0139154376983645
5.195685606060606,2.30495491533279,1.0983249901771501,-0.218401456832886
5.196291666666667,0.709871907520294,-1.2966945410728499,0.888097566604614
5.196897727272727,-2.5473546549797104,-0.032124228572845505,-1.01354794120789
5.197503787878788,-1.47199088544846,3.48855448236465,1.14675967597961
5.198109848484848,3.36834358720779,-1.9720900488853499,-0.6159746990203859
5.198715909090909,1.2966516926765401,-1.36375508794785,-0.410003019332886
5.19932196969697,-3.32094596357346,2.0587278222084002,0.239047273635864
5.19992803030303,-0.396627115917206,-1.3278297949790998,-0.812366300582886
5.200534090909091,1.9552820637702901,0.240907997989655,1.14196963691711
5.201140151515152,0.331458821582794,1.2563962792396501,-1.04228817558289
5.201746212121212,-2.07553580732346,-1.76611836919785,0.509684480667114
5.202352272727273,-2.4443688151359604,2.8107639550209003,0.47136416816711396
5.202958333333333,1.1122351887702902,-0.968576865291595,-0.393237882614136
5.203564393939394,2.53487679033279,-3.3564113379478497,-1.3536407146453902
5.204170454545455,-0.497217936229706,1.6611545800209,0.0761859455108645
5.204776515151515,-0.784620279979706,0.638481240177155,-0.28546200370788605
5.205382575757576,0.7457972004890441,-0.578188681697845,1.30483096504211
5.205988636363636,0.0608216145515442,0.691171669864655,-0.273486906051636
5.206594696969697,-0.715164713573456,-2.1181862402916,-0.0699102458953855
5.207200757575758,-2.91139762372971,1.95095194330215,0.31089785957336397
5.207806818181818,1.24635628252029,1.1534104393959002,-0.5560992107391359
5.208412878787879,5.02809212236404,-3.9288210059165998,0.339638093948364
5.209018939393939,-0.640919108104706,1.5174534081459001,-1.90689022636414
5.209625,-3.10060416669846,0.724701943302155,0.409093660354614
5.210231060606061,-0.0493492838859558,-1.2583742285728499,0.909652742385864
5.210837121212121,1.0571497395515401,0.849242958927155,-0.175291105270386
5.211443181818182,0.614071126270294,-1.2176588965416,0.6414105548858641
5.212049242424242,-1.7186778971672099,1.75935038080215,0.0426556720733645
5.212655303030303,0.012921223926544202,2.37247538080215,-0.124995695114136
5.213261363636364,4.03176399736404,-4.0533620215415995,-0.429163175582886
5.213867424242424,-0.763065104198456,0.710331826114655,-1.2602349529266401
5.214473484848485,-3.0287535807609602,2.00843241205215,1.12041446113586
5.215079545454545,0.36977913408279395,-1.36375508794785,-0.0124297771453855
5.215685606060606,2.03671272783279,1.0528196190834,0.0139154376983645
5.216291666666667,0.5494055989265441,-0.736259970760345,-0.771650968551636
5.216897727272727,-1.9150694987297099,-0.391377158260345,-0.259116788864136
5.217503787878788,-1.4576207682609599,3.02871073236465,1.78622989082336
5.218109848484849,2.87017952470779,-0.913491416072845,-1.11653378105164
5.218715909090909,1.2152210286140401,-2.5444997168540997,0.7994818439483641
5.21932196969697,-2.5138243815422103,2.1401584862709,-1.69852352714539
5.21992803030303,-0.24095084638595599,-1.0787477637290999,0.6414105548858641
5.220534090909091,1.61997932939529,0.41813944330215497,1.01503360176086
5.2211401515151525,1.1170252278327901,1.74498026361465,-2.04819637870789
5.221746212121212,-2.25516227216721,-2.8223219824791,1.6568988361358599
5.222352272727273,-2.69584586591721,3.05266092767715,-0.443533292770386
5.222958333333333,1.1122351887702902,-0.149480185604095,0.667755769729614
5.2235643939393945,3.09291634111404,-3.4498170996665998,-1.37280087089539
5.224170454545455,-0.6912145182609559,1.5773288964271501,-1.0806084880828901
5.224776515151515,-1.26362418622971,-0.120739951229095,1.08927920722961
5.2253825757575765,0.8679431965827941,-0.26683614263534505,0.246232332229614
5.2259886363636365,0.0009461262702941991,0.240907997989655,0.988688386917114
5.2265946969696975,-1.63245719404221,-1.28232442388535,-0.891401945114136
5.227200757575758,-2.48268912763596,1.31387674798965,0.193541902542114
5.2278068181818185,1.04756966142654,1.38572733392715,-0.28546200370788605
5.228412878787879,4.59459358720779,-3.68692403326035,-0.7956011638641359
5.2290189393939395,0.25721321611404396,0.00859110345840455,-0.189661222457886
5.229625,-3.89335563154221,2.0683079003334,-0.565679288864136
5.230231060606061,0.0919568684577942,-1.4715309668541,1.58744326972961
5.230837121212121,1.06433479814529,0.36784403314590497,0.191146883010864
5.231443181818182,0.721847005176544,-0.9039113379478451,-0.721355558395386
5.232049242424242,-1.8384288737297099,0.5738157128334049,0.9815033283233641
5.232655303030303,-0.715164713573456,3.35922342767715,-0.7165655193328859
5.233261363636364,4.1275647786140395,-3.3899416113853498,0.176776765823364
5.233867424242424,0.120697102832794,-0.48717793951034505,-0.781231046676636
5.234473484848485,-3.21796012372971,2.8347141503334,-0.208821378707886
5.235079545454545,-0.0948546549797058,-1.64157735357285,0.6988910236358641
5.235685606060606,2.05587288408279,0.8133176659584049,-0.33575741386413605
5.236291666666667,0.8463880208015441,-0.42730245122909505,0.368378328323364
5.236897727272727,-2.1282262370109604,0.236117958927155,-0.49382870292663605
5.237503787878788,-2.16894156904221,2.7628635643959,1.35512637519836
5.238109848484849,2.99951057939529,-1.1386232520103499,-0.927327238082886
5.238715909090909,1.21761604814529,-1.99604024419785,-0.223191495895386
5.23932196969697,-2.3341979166984603,2.44432596673965,-0.565679288864136
5.23992803030303,-0.0445592448234558,-1.0595876074791,0.00673037910461448
5.240534090909091,1.56728889970779,0.28162333002090495,0.47375918769836395
5.241140151515151,0.537430501270294,0.8516379784584049,-0.158525968551636
5.241746212121212,-1.7354430338859599,-2.1373463965416,0.406698640823364
5.242352272727273,-2.7868566081047104,3.6633909081459,0.47375918769836395
5.242958333333333,0.0680066731452942,0.0253562401771546,0.28215762519836396
5.243564393939394,3.9958387043952897,-4.13239766607285,-1.57398251152039
5.244170454545455,-0.30322135419845603,0.650456337833405,-0.25672176933288604
5.244776515151515,-2.17852164716721,1.14622538080215,-0.498618741989136
5.245382575757576,0.793697591114044,-0.47999288091659503,0.952763093948364
5.245988636363636,0.44881477861404395,0.681591591739655,0.0905560626983645
5.246594696969697,-1.28517936201096,-1.9864601660728498,-0.39563290214538605
5.247200757575758,-2.68147574872971,0.6528513573646549,0.610275300979614
5.247806818181818,0.9445838215827941,1.7330051659584,-0.512988859176636
5.248412878787879,4.12995979814529,-3.34683125982285,-0.831526456832886
5.249018939393939,0.300323567676544,0.31036356439590496,-0.27588192558288605
5.249625,-3.47422721357346,1.46715799798965,0.0570257892608645
5.250231060606061,-1.18219352216721,-1.2895094824791,-0.292647062301636
5.250837121212121,1.84032112627029,-0.0488893652915955,1.07251407051086
5.251443181818182,0.570960774707794,-0.28120625982284503,-0.702195402145386
5.252049242424242,-1.56300162763596,1.0767698143959001,0.155221590042114
5.252655303030303,-0.8301256510734559,2.8011838768959,0.385143465042114
5.253261363636364,3.91201302080154,-3.13606954107285,-0.5153838787078859
5.253867424242424,0.937398762989044,-1.6008620215415998,0.265392488479614
5.254473484848485,-3.78557975263596,3.5125046776771502,-1.1907793865203902
5.255079545454545,0.0751917317390442,-1.0260573340416,1.33357119941711
5.255685606060606,1.85948128252029,0.463644814395905,-0.144155851364136
5.256291666666667,1.02361946611404,-0.28839131841659504,-0.31420223808288605
5.256897727272727,-2.01805533857346,-0.513523154354095,0.36358828926086395
5.257503787878788,-1.35463492841721,2.3652903222084003,-0.378867765426636
5.258109848484848,2.98993050127029,-1.36854512701035,0.397118562698364
5.258715909090909,1.34934212236404,-0.30036641607284503,-0.43395321464538605
5.25932196969697,-2.14978141279221,1.4312327050209002,-0.400422941207886
5.25992803030303,-1.46959586591721,-1.3326198340416,-0.0507500896453855
5.260534090909091,1.36131722002029,0.42053446283340495,0.636620515823364
5.261140151515151,1.90977669267654,0.315153603458405,0.631830476760864
5.261746212121212,-1.98452506513596,0.0828367089271545,0.16240664863586401
5.262352272727274,-2.3341979166984603,2.4131907128334,0.243837312698364
5.262958333333333,1.08109993486404,-2.3960085059166,0.650990633010864
5.263564393939394,1.91456673173904,-1.28711446294785,-2.0505913982391397
5.2641704545454555,-0.45171256513595603,0.719911904239655,-0.0459600505828855
5.264776515151516,-1.26841422529221,0.193007607364655,0.205517000198364
5.265382575757576,0.9852991536140441,0.868403115177155,0.385143465042114
5.265988636363636,0.5446155598640441,-0.812900595760345,0.9192328205108641
5.2665946969696975,-2.0611656901359603,-1.1314381934166,-1.05665829277039
5.2672007575757585,-2.2144469401359603,1.9150266503334001,0.770741609573364
5.267806818181818,0.135067220020294,0.0804416893959045,-0.505803800582886
5.2684128787878794,4.30240120439529,-2.70017598638535,-0.745305753707886
5.2690189393939395,0.45599983720779397,0.763022255802155,0.217492097854614
5.2696250000000004,-3.2754405924797103,0.660036415958405,-0.5153838787078859
5.270231060606061,-0.293641276073456,-0.729074912166595,0.751581453323364
5.2708371212121214,1.0523597004890402,0.0780466698646545,0.215097078323364
5.271443181818182,0.353013997364044,-0.650039267635345,0.0498407306671145
5.272049242424242,-2.22642203779221,1.6898948143959,0.253417390823364
5.272655303030303,0.0272913411140442,1.2300510643959002,-0.438743253707886
5.273261363636364,3.8162122395515397,-2.94925801763535,0.00912539863586448
5.273867424242424,-0.32956656904220605,0.9546238183021549,-0.599209562301636
5.274473484848485,-3.0024083659172103,1.26597635736465,-0.151340909957886
5.275079545454545,0.590120930957794,-0.846430869197845,0.435438875198364
5.275685606060606,1.44035286455154,0.137922158145905,-0.165711027145386
5.276291666666667,1.04517464189529,-0.9613918066978451,-0.469878507614136
5.276897727272727,-2.2312120768547103,0.588185830020905,0.684520906448364
5.277503787878788,-1.21093375654221,2.5904221581459,0.296527742385864
5.278109848484848,2.57319710283279,-1.28232442388535,-0.163316007614136
5.278715909090909,0.7074768879890441,-1.2320290137291,-0.323782316207886
5.27932196969697,-1.0983678385734599,0.590580849552155,-0.620764738082886
5.27992803030303,-0.406207194042206,-0.441672568416595,-0.0483550701141355
5.280534090909091,1.67506477861404,0.880378212833405,1.0629339923858598
5.281140151515152,0.681131673145294,0.422929482364655,0.308502840042114
5.281746212121212,-2.3677281901359604,-0.918281455135345,-0.283066984176636
5.282352272727273,-1.99410514326096,2.26709452142715,0.48094424629211396
5.282958333333333,0.5661707356452941,-0.190195517635345,0.0737909259796145
5.283564393939394,2.7815638020515396,-2.9540480566978498,-1.4781817302703901
5.284170454545455,0.226077962207794,-0.137505087947845,-0.479458585739136
5.284776515151515,-1.6037169596672098,1.06958475580215,0.34203311347961396
5.285382575757576,0.551800618457794,0.5546555565834049,0.844987215042114
5.285988636363636,-0.0589293620109558,-0.8033205176353451,-0.0148247966766355
5.286594696969697,-1.61329703779221,-2.2906276465416,0.016310457229614498
5.287200757575758,-2.0611656901359603,1.8192258690834,0.183961824417114
5.287806818181818,-0.0709044596672058,1.6515745018959,-0.11062557792663599
5.288412878787879,4.35269661455154,-3.6318385840416,-1.08300350761414
5.289018939393939,0.8439930012702941,-0.302761435604095,-0.36689266777038604
5.289625,-3.6179283854484603,2.20003397455215,0.612670320510864
5.290231060606061,-0.40141715497970604,-0.8033205176353451,0.0713959064483645
5.290837121212121,1.4547229817390401,-0.36982198247909503,0.37316836738586395
5.291443181818182,0.48953011064529395,-0.42730245122909505,-0.508198820114136
5.292049242424242,-1.51989127607346,0.8348728417396549,0.528844636917114
5.292655303030303,-0.130779947948456,2.81794901361465,0.502499422073364
5.293261363636364,3.4809095051765397,-2.54689473638535,-0.786021085739136
5.293867424242424,0.159017415332794,-1.31106465826035,-0.29504208183288605
5.294473484848485,-2.69824088544846,2.3748704003334002,0.0809759845733645
5.295079545454545,-0.5283531901359559,-0.7626051856040951,0.0977411212921145
5.295685606060606,1.6894348958015402,0.353473915958405,0.030680574417114498
5.296291666666667,1.3780823567390401,-0.0225441504478454,-0.421978116989136
5.296897727272727,-1.86237906904221,-0.5039430762290951,0.935997957229614
5.297503787878788,-1.46001578779221,3.1412766503334,-0.460298429489136
5.298109848484848,3.08573128252029,-1.99604024419785,-0.134575773239136
5.298715909090909,1.3182068684577901,-0.870381064510345,0.0378656330108645
5.29932196969697,-2.52819449872971,2.29104471673965,-0.991992765426636
5.29992803030303,-0.267296061229706,-1.9385597754478499,0.5216595783233641
5.300534090909091,1.49064827470779,0.743862099552155,-0.0675152263641355
5.301140151515152,0.923028645801544,0.604950966739655,0.0618158283233645
5.301746212121212,-2.2934825846672102,-0.851220908260345,-0.227981534957886
5.302352272727273,-1.95338981122971,2.14255350580215,0.7036810626983641
5.302958333333333,1.1769007161140401,-0.197380576229095,0.26060244941711397
5.303564393939394,1.36371223955154,-2.3528981543541,-1.4135162029266402
5.304170454545455,0.120697102832794,-0.606928916072845,0.0282855548858645
5.304776515151515,-0.755880045604706,0.842057900333405,-0.342942472457886
5.3053825757575765,0.113512044239044,0.650456337833405,1.2641156330108598
5.305988636363636,-0.0230040690422058,-0.25965108404159504,0.241442293167114
5.306594696969697,-1.10555289716721,-2.0726808691978498,0.181566804885864
5.3072007575757585,-2.1809166666984603,1.3330369042396502,0.684520906448364
5.3078068181818185,-0.205025553417206,1.3929123925209002,-0.944092374801636
5.308412878787879,4.60417366533279,-2.9708131934165998,-0.27827694511413603
5.309018939393939,1.10744514970779,0.303178505802155,-0.730935636520386
5.3096250000000005,-3.79515983076096,1.3354319237709,-0.029194913864135502
5.310231060606061,-0.123594889354706,-1.4954811621666,1.49164248847961
5.310837121212121,1.43556282548904,-0.032124228572845505,0.730026277542114
5.311443181818182,-0.228975748729706,0.0493064354896545,-0.117810636520386
5.3120492424242425,-1.0001720377922099,0.930673622989655,0.670150789260864
5.312655303030303,0.290743489551544,2.1521335839271503,0.236652254104614
5.313261363636364,3.0378308918952897,-2.47983418951035,-1.2937652263641402
5.313867424242424,0.6092810872077941,-0.767395224666595,0.107321199417114
5.314473484848485,-3.0622838541984603,2.45869608392715,-0.350127531051636
5.315079545454545,0.118302083301544,-0.798530478572845,0.356403230667114
5.315685606060606,1.84271614580154,0.40855936517715497,0.44022891426086397
5.316291666666667,0.978114095020294,-0.48957295904159503,-0.441138273239136
5.316897727272727,-2.02284537763596,0.14510721673965501,0.349218172073364
5.317503787878788,-1.1797985026359599,2.0443577050209,0.0019403400421144801
5.318109848484848,2.98753548173904,-1.6008620215415998,-0.0866753826141355
5.318715909090909,0.360199055957794,0.106786904239655,-0.218401456832886
5.31932196969697,-1.27320426435471,0.473224892520905,-0.0627251873016355
5.31992803030303,-0.777435221385956,-1.4619508887291,-0.764465909957886
5.320534090909091,0.891893391895294,1.16538553705215,0.334848054885864
5.321140151515152,1.12421028642654,0.387004189395905,0.286947664260864
5.321746212121212,-2.00847526044846,-0.678779502010345,-0.0435650310516355
5.322352272727273,-2.61441520185471,2.7963938378334,-0.0220098552703855
5.322958333333333,1.36371223955154,-1.17215352544785,-0.0818853435516355
5.323564393939394,1.91935677080154,-2.28823262701035,-1.05665829277039
5.324170454545455,-0.28166617841720604,0.923488564395905,-1.64583309745789
5.324776515151515,-1.32828971357346,-0.592558798885345,1.1347845783233599
5.325382575757576,0.7050818684577941,1.3450120018959,0.5432147541046141
5.325988636363636,0.223682942676544,-0.9805519629478451,-0.148945890426636
5.326594696969697,-1.8983043620109599,-1.6176271582603499,-0.402817960739136
5.327200757575758,-1.97015494794846,1.79288065423965,0.751581453323364
5.327806818181818,0.6092810872077941,0.166662392520905,-0.235166593551636
5.328412878787879,3.86890266923904,-2.0319655371666,-1.48057674980164
5.329018939393939,0.683526692676544,-0.28839131841659504,0.0642108478546145
5.329625,-2.2336070963859602,0.880378212833405,-0.299832120895386
5.330231060606061,-0.739114908885956,-0.36742696294784505,1.11083438301086
5.330837121212121,0.752982259082794,-0.312341513729095,0.41388369941711395
5.331443181818182,1.0140393879890401,-0.611718955135345,0.0737909259796145
5.332049242424242,-1.78573844404221,1.9246067284584,0.112111238479614
5.332655303030303,0.103931966114044,0.583395790958405,0.536029695510864
5.333261363636364,2.8989197590827898,-2.1038161231041,-0.869846769332886
5.333867424242424,0.0201062825202942,0.133132119083405,-0.0124297771453855
5.334473484848485,-2.12343619794846,1.31866678705215,0.545609773635864
5.335079545454545,-0.5067980143547061,-0.032124228572845505,-0.139365812301636
5.335685606060606,1.7325452473640401,-0.101579794979095,0.22228213691711401
5.336291666666667,0.997274251270294,-0.925466513729095,-0.249536710739136
5.336897727272727,-1.57976676435471,0.157082314395905,0.624645418167114
5.337503787878788,-1.51510123701096,2.96165018548965,0.31329287910461395
5.338109848484849,2.1995740559577897,-0.551843466854095,0.174381746292114
5.338715909090909,1.10026009111404,-1.75174825201035,-0.148945890426636
5.33932196969697,-1.0816027018547099,0.717516884708405,-0.944092374801636
5.33992803030303,-0.566673502635956,-0.245280966854095,0.26299746894836395
5.340534090909091,0.9086585286140441,0.466039833927155,0.854567293167114
5.341140151515152,0.975719075489044,0.46843485345840497,0.114506258010864
5.341746212121212,-1.73783805341721,-0.700334677791595,0.131271394729614
5.342352272727273,-2.04679557294846,1.55337870111465,0.34442813301086395
5.342958333333333,0.47755501298904396,0.214562783145905,0.38035342597961397
5.343564393939394,2.2594495442390397,-2.1133962012291,-1.4733916912078902
5.344170454545454,0.7865125325202941,-0.745840048885345,-0.201636320114136
5.344776515151515,-1.42648551435471,0.918698525333405,0.0642108478546145
5.345382575757576,-0.0038439127922058,0.7941575097084049,-0.0603301677703855
5.345988636363636,0.101536946582794,-0.820085654354095,1.17549991035461
5.346594696969698,-0.798990397167206,-1.1050929785728498,-0.251931730270386
5.347200757575758,-1.97734000654221,0.990549111270905,0.176776765823364
5.347806818181818,-0.346331705760956,1.2779514550209001,-0.192056241989136
5.3484128787878795,3.2414075520515397,-2.5157594824791,-1.0710284099578902
5.34901893939394,1.64632454423904,-1.51224629888535,-0.249536710739136
5.349625,-2.7629064127922103,2.04675272455215,0.0833710041046145
5.3502310606060615,-1.73783805341721,-0.226120810604095,0.375563386917114
5.3508371212121215,1.06433479814529,-0.8847511816978451,0.514474519729614
5.3514431818181825,1.0523597004890402,-0.242885947322845,-0.120205656051636
5.352049242424242,-0.978616862010956,0.463644814395905,-0.0818853435516355
5.3526553030303035,-0.806175455760956,2.5185715722084,0.502499422073364
5.353261363636364,2.04868782548904,-1.3134596777915999,-0.029194913864135502
5.3538674242424245,1.38526741533279,-1.5385915137291,-0.706985441207886
5.354473484848485,-2.02524039716721,1.6372043847084001,0.26060244941711397
5.3550795454545455,-1.43846061201096,0.056491494083404495,-0.47706356620788604
5.355685606060606,1.96725716142654,-0.34108174810409503,0.768346590042114
5.356291666666667,1.0523597004890402,0.133132119083405,-0.0315899333953855
5.356897727272727,-1.55102652997971,-0.709914755916595,-0.400422941207886
5.357503787878788,-2.00129020185471,1.92221170892715,0.797086824417114
5.358109848484849,1.37089729814529,0.37023905267715496,-0.199241300582886
5.358715909090909,2.0630579426765396,-2.13974141607285,-0.120205656051636
5.35932196969697,-1.00735709638596,1.1294602440834,-0.9967828044891359
5.35992803030303,-1.05046744794846,-0.130320029354095,-0.230376554489136
5.360534090909091,0.930213704395294,0.171452431583405,0.636620515823364
5.361140151515151,0.994879231739044,0.7917624901771549,-0.0315899333953855
5.361746212121212,-0.9881969401359559,-1.3733351660728499,0.229467195510864
5.362352272727273,-2.88505240888596,1.8982615136146501,0.514474519729614
5.362958333333333,-0.205025553417206,1.0767698143959001,-0.0842803630828855
