Time (s),Accel X (m/s^2),Accel Y (m/s^2),Accel Z (m/s^2),CI Value
2.547,-0.15718382205963102,-0.0563833439826965,-0.0109800418853761,1.0954394850635236
2.5476056935190794,-0.169158919715881,-0.142604047107697,-0.13552105751037602,1.0954394850635236
2.5482113870381586,-0.0134826501846313,0.0202572810173035,0.185411559677124,1.0954394850635236
2.5488170805572383,0.0990832677841187,0.0897128474235535,-0.0109800418853761,1.0954394850635236
2.5494227740763176,-0.0565930017471313,-0.173739301013947,-0.0109800418853761,1.0954394850635236
2.550028467595397,-0.317650130653381,-0.166554242420197,0.0704506221771239,1.0954394850635236
2.550634161114476,-0.0709631189346313,-0.0108779728889465,0.09200579795837391,1.0954394850635236
2.5512398546335557,0.000887467002868658,-0.0252480900764465,0.22373187217712398,1.0954394850635236
2.551845548152635,0.0990832677841187,-0.0276431096076965,0.23810198936462398,1.0954394850635236
2.552451241671714,-0.0805431970596313,-0.0372231877326965,0.20457171592712398,1.0954394850635236
2.5530569351907935,0.053577896690368707,-0.0539883244514465,0.08961077842712391,1.0954394850635236
2.553662628709873,0.0176526037216187,-0.123443890857697,0.0776356807708739,1.0954394850635236
2.5542683222289524,-0.0949133142471313,0.0154672419548035,0.0512904659271239,1.0954394850635236
2.5548740157480316,0.06315797481536871,-0.00848295335769653,-0.0756455692291261,1.0954394850635236
2.555479709267111,0.046392838096618705,0.029837359142303503,0.11356097373962401,1.0954394850635236
2.5560854027861906,0.12542848262786901,0.0489975153923035,0.503949157333374,1.0954394850635236
2.55669109630527,-0.06377806034088129,-0.144999066638947,0.700340758895874,1.0954394850635236
2.557296789824349,-0.0829382165908813,-0.185714398670197,0.39617327842712396,1.0954394850635236
2.5579024833434283,-0.16197386112213102,-0.144999066638947,0.185411559677124,1.0954394850635236
2.5585081768625075,-0.18831907596588102,0.0992929255485535,0.0129701534271239,1.0954394850635236
2.559113870381587,0.0344177404403687,0.183118609142303,0.20936175498962398,1.0954394850635236
2.5597195639006665,-0.16197386112213102,0.0130722224235535,0.33629779014587396,1.0954394850635236
2.5603252574197457,-0.154788802528381,0.0945028864860535,0.11356097373962401,1.0954394850635236
2.560930950938825,0.0224426427841187,0.07294771070480349,0.24289202842712398,1.0954394850635236
2.5615366444579046,-0.06377806034088129,-0.0276431096076965,0.09919085655212391,1.0954394850635236
2.562142337976984,-0.0733581384658813,-0.0156680119514465,0.274027282333374,1.0954394850635236
2.562748031496063,-0.0206677087783813,0.0921078669548035,0.211756774520874,1.0954394850635236
2.5633537250151424,-0.169158919715881,-0.0731484807014465,0.00578509483337389,1.0954394850635236
2.563959418534222,-0.205084212684631,-0.030038129138946497,0.147091247177124,1.0954394850635236
2.5645651120533013,-0.135628646278381,-0.00129789476394653,0.151881286239624,1.0954394850635236
2.5651708055723805,-0.0589880212783813,-0.144999066638947,0.171041442489624,1.0954394850635236
2.5657764990914598,-0.0541979822158813,-0.0132729924201965,0.09200579795837391,1.0954394850635236
2.5663821926105395,-0.0661730798721313,-0.0563833439826965,0.0441054073333739,1.0954394850635236
2.5669878861296187,-0.229034407997131,-0.142604047107697,0.26684222373962396,1.0954394850635236
2.567593579648698,-0.0853332361221313,-0.0970986760139465,0.127931090927124,1.0954394850635236
2.568199273167777,0.0559729162216187,-0.0468032658576965,0.302767516708374,1.0954394850635236
2.5688049666868564,-0.00629759159088134,-0.0372231877326965,0.20457171592712398,1.0954394850635236
2.569410660205936,-0.0565930017471313,0.00109712476730347,0.147091247177124,1.0954394850635236
2.5700163537250154,-0.205084212684631,-0.101888715076447,0.151881286239624,1.0954394850635236
2.5706220472440946,-0.114073470497131,0.00109712476730347,-0.0756455692291261,1.0954394850635236
2.571227740763174,-0.0733581384658813,-0.0923086369514465,0.058475524520873894,1.0954394850635236
2.5718334342822535,-0.0661730798721313,-0.0156680119514465,0.269237243270874,1.0954394850635236
2.5724391278013328,-0.0589880212783813,0.0801327692985535,0.250077087020874,1.0954394850635236
2.573044821320412,-0.06377806034088129,-0.133023968982697,0.060870544052123894,1.0954394850635236
2.5736505148394913,0.120638443565369,-0.0779385197639465,-0.013375061416626099,1.0954394850635236
2.574256208358571,-0.0302477869033813,-0.128233929920197,-0.0421152957916261,1.0954394850635236
2.57486190187765,-0.0853332361221313,-0.116258832263947,-0.0349302371978761,1.0954394850635236
2.5754675953967294,-0.0901232751846313,0.147193316173553,0.0848207393646239,1.0954394850635236
2.5760732889158087,-0.269749740028381,0.0921078669548035,0.137511169052124,1.0954394850635236
2.576678982434888,-0.0230627283096313,0.07294771070480349,0.0225502315521239,1.0954394850635236
2.5772846759539676,-0.15718382205963102,-0.0156680119514465,0.10158587608337401,1.0954394850635236
2.577890369473047,-0.14760374393463102,-0.0108779728889465,0.297977477645874,1.0954394850635236
2.578496062992126,-0.0278527673721313,-0.061173383045196504,0.15427630577087398,1.0954394850635236
2.5791017565112053,-0.176343978309631,-0.0276431096076965,0.0704506221771239,1.0954394850635236
2.579707450030285,-0.13323362674713102,0.108873003673553,0.262052184677124,1.0954394850635236
2.5803131435493643,0.0990832677841187,0.027442339611053503,0.199781676864624,1.0954394850635236
2.5809188370684435,-0.047012923622131296,-0.0515933049201965,0.319532653427124,1.0954394850635236
2.5815245305875227,-0.0494079431533813,-0.144999066638947,0.283607360458374,1.0954394850635236
2.5821302241066024,0.0320227209091187,-0.0707534611701965,0.039315368270873896,1.0954394850635236
2.5827359176256817,-0.21705931034088102,0.149588335704803,-0.0995957645416261,1.0954394850635236
2.583341611144761,0.06555299434661871,0.0106772028923035,-0.00619000282287611,1.0954394850635236
2.58394730466384,-0.171553939247131,-0.0420132267951965,0.132721129989624,1.0954394850635236
2.5845529981829194,-0.114073470497131,-0.018063031482696498,0.10398089561462401,1.0954394850635236
2.585158691701999,-0.039827865028381294,-0.0899136174201965,-0.0445103153228761,1.0954394850635236
2.5857643852210783,-0.24819456424713102,-0.142604047107697,-0.360652893447876,1.0954394850635236
2.5863700787401576,0.041602799034118704,-0.197689496326447,-0.406158264541626,1.0954394850635236
2.586975772259237,0.106268326377869,-0.0803335392951965,0.482393981552124,1.0954394850635236
2.5875814657783165,-0.0973083337783813,0.0992929255485535,0.6260951534271241,1.0954394850635236
2.5881871592973957,-0.231429427528381,0.192698687267303,0.16864642295837398,1.0954394850635236
2.588792852816475,0.041602799034118704,0.128033159923553,0.240497008895874,1.0954394850635236
2.589398546335554,0.0847131505966187,-0.0779385197639465,-0.00139996376037611,1.0954394850635236
2.590004239854634,-0.0925182947158813,-0.0707534611701965,0.09440081748962391,1.0954394850635236
2.590609933373713,-0.00629759159088134,0.00588716382980347,0.0752406612396239,1.0954394850635236
2.5912156268927924,0.115848404502869,0.0202572810173035,0.10158587608337401,1.0954394850635236
2.5918213204118716,-0.104493392372131,-0.0491982853889465,0.115955993270874,1.0954394850635236
2.592427013930951,-0.0661730798721313,-0.147394086170197,0.161461364364624,1.0954394850635236
2.5930327074500306,-0.104493392372131,-0.238404828357697,0.18780657920837399,1.0954394850635236
2.59363840096911,0.0128625646591187,-0.0970986760139465,0.171041442489624,1.0954394850635236
2.594244094488189,0.0823181310653687,0.123243120861053,0.362643004989624,1.0954394850635236
2.5948497880072683,-0.047012923622131296,0.00588716382980347,0.26684222373962396,1.0954394850635236
2.595455481526348,0.120638443565369,0.029837359142303503,0.039315368270873896,1.0954394850635236
2.596061175045427,-0.037432845497131294,0.240599077892303,0.0225502315521239,1.0954394850635236
2.5966668685645065,-0.135628646278381,-0.061173383045196504,0.0680556026458739,1.0954394850635236
2.5972725620835857,0.06794801387786871,-0.10428373460769699,-0.0636704715728761,1.0954394850635236
2.597878255602665,-0.104493392372131,0.242994097423553,0.0824257198333739,1.0954394850635236
2.5984839491217446,-0.0110876306533813,0.00588716382980347,0.0824257198333739,1.0954394850635236
2.599089642640824,0.108663345909119,0.111268023204803,0.00339007530212389,1.0954394850635236
2.599695336159903,-0.17873899784088101,0.0154672419548035,0.09200579795837391,1.0954394850635236
2.6003010296789824,-0.154788802528381,-0.0228530705451965,-0.0684605106353761,1.0954394850635236
2.600906723198062,0.0799231115341187,0.209463823986053,0.08721575889587391,1.0954394850635236
2.6015124167171413,0.103873306846619,-0.0827285588264465,0.240497008895874,1.0954394850635236
2.6021181102362205,0.0200476232528687,-0.0994936955451965,0.0465004268646239,1.0954394850635236
2.6027238037552998,0.0775280920028687,-0.202479535388947,0.130326110458374,1.0954394850635236
2.6033294972743795,0.16135377559661898,-0.224034711170197,0.0728456417083739,1.0954394850635236
2.6039351907934587,-0.0565930017471313,0.108873003673553,0.000995055770873893,1.0954394850635236
2.604540884312538,-0.0326428064346313,0.0178622614860535,-0.054090393447876105,1.0954394850635236
2.605146577831617,0.0871081701278687,-0.0228530705451965,0.199781676864624,1.0954394850635236
2.605752271350697,-0.22184934940338102,0.116058062267303,0.10877093467712401,1.0954394850635236
2.606357964869776,0.0128625646591187,0.0442074763298035,0.0680556026458739,1.0954394850635236
2.6069636583888554,-0.102098372840881,-0.0875185978889465,0.21894183311462398,1.0954394850635236
2.6075693519079346,0.0104675451278687,0.025047320079803502,0.192596618270874,1.0954394850635236
2.608175045427014,0.185303970909119,-0.164159222888947,0.300372497177124,1.0954394850635236
2.6087807389460935,0.20206910762786898,-0.116258832263947,0.252472106552124,1.0954394850635236
2.6093864324651728,0.168538834190369,-0.00129789476394653,0.307557555770874,1.0954394850635236
2.609992125984252,-0.0805431970596313,-0.156974164295197,0.09919085655212391,1.0954394850635236
2.6105978195033313,0.0895031896591187,-0.00608793382644653,-0.118755920791626,1.0954394850635236
2.611203513022411,-0.0518029626846313,-0.018063031482696498,0.130326110458374,1.0954394850635236
2.61180920654149,0.06555299434661871,-0.156974164295197,0.197386657333374,1.0954394850635236
2.6124149000605694,0.06794801387786871,-0.152184125232697,0.00578509483337389,1.0954394850635236
2.6130205935796487,0.053577896690368707,0.00109712476730347,0.0465004268646239,1.0954394850635236
2.6136262870987284,-0.0733581384658813,0.0777377497673035,0.17822650108337398,1.0954394850635236
2.6142319806178076,-0.19310911502838102,0.106477984142303,0.17822650108337398,1.0954394850635236
2.614837674136887,-0.15718382205963102,-0.0252480900764465,0.15427630577087398,1.0954394850635236
2.615443367655966,-0.305675032997131,-0.0372231877326965,0.192596618270874,1.0954394850635236
2.6160490611750458,-0.0901232751846313,0.128033159923553,0.697945739364624,1.0954394850635236
2.616654754694125,-0.044617904090881295,0.0154672419548035,0.5231093135833741,1.0954394850635236
2.6172604482132042,-0.0877282556533813,-0.123443890857697,0.348272887802124,1.0954394850635236
2.6178661417322835,0.043997818565368704,0.0513925349235535,0.206966735458374,1.0954394850635236
2.6184718352513627,-0.14760374393463102,0.113663042736053,0.190201598739624,1.0954394850635236
2.6190775287704424,0.06315797481536871,0.0130722224235535,0.190201598739624,1.0954394850635236
2.6196832222895217,0.0559729162216187,-0.0539883244514465,0.0441054073333739,1.0954394850635236
2.620288915808601,-0.21226927127838102,0.0489975153923035,0.23331195030212398,1.0954394850635236
2.62089460932768,-0.209874251747131,0.0130722224235535,0.060870544052123894,1.0954394850635236
2.62150030284676,-0.00629759159088134,0.0489975153923035,0.23331195030212398,1.0954394850635236
2.622105996365839,0.0248376623153687,-0.0444082463264465,0.194991637802124,1.0954394850635236
2.6227116898849183,-0.06377806034088129,-0.185714398670197,-0.013375061416626099,1.0954394850635236
2.6233173834039976,0.06555299434661871,0.0346273982048035,0.09440081748962391,1.0954394850635236
2.6239230769230772,-0.114073470497131,0.0106772028923035,0.26684222373962396,1.0954394850635236
2.6245287704421565,-0.12844358768463102,-0.0970986760139465,0.307557555770874,1.0954394850635236
2.6251344639612357,0.0176526037216187,0.101687945079803,0.120746032333374,1.0954394850635236
2.625740157480315,0.0775280920028687,-0.0779385197639465,0.21415179405212398,1.0954394850635236
2.6263458509993947,0.115848404502869,0.0322323786735535,0.151881286239624,1.0954394850635236
2.626951544518474,0.0775280920028687,0.159168413829803,-0.133126037979126,1.0954394850635236
2.627557238037553,-0.190714095497131,-0.166554242420197,0.00339007530212389,1.0954394850635236
2.6281629315566324,-0.0997033533096313,-0.00129789476394653,-0.123545959854126,1.0954394850635236
2.628768625075712,-0.0733581384658813,-0.190504437732697,0.135116149520874,1.0954394850635236
2.6293743185947913,-0.044617904090881295,-0.185714398670197,0.139906188583374,1.0954394850635236
2.6299800121138706,-0.0494079431533813,0.058577593517303496,-0.0445103153228761,1.0954394850635236
2.63058570563295,-0.173948958778381,0.151983355236053,0.171041442489624,1.0954394850635236
2.631191399152029,0.0799231115341187,0.0873178278923035,0.192596618270874,1.0954394850635236
2.6317970926711087,0.0344177404403687,0.108873003673553,0.0441054073333739,1.0954394850635236
2.632402786190188,-0.0589880212783813,-0.061173383045196504,0.22373187217712398,1.0954394850635236
2.633008479709267,-0.0541979822158813,-0.00129789476394653,0.11116595420837401,1.0954394850635236
2.6336141732283465,0.0895031896591187,0.0226523005485535,0.142301208114624,1.0954394850635236
2.634219866747426,-0.109283431434631,-0.106678754138947,0.281212340927124,1.0954394850635236
2.6348255602665054,-0.145208724403381,-0.0396182072639465,0.0632655635833739,1.0954394850635236
2.6354312537855846,-0.109283431434631,0.07055269117355349,0.197386657333374,1.0954394850635236
2.636036947304664,-0.0877282556533813,0.0633676325798035,0.060870544052123894,1.0954394850635236
2.6366426408237436,0.0344177404403687,-0.032433148670196504,0.34587786827087397,1.0954394850635236
2.637248334342823,0.041602799034118704,0.056182573986053495,0.36503802452087397,1.0954394850635236
2.637854027861902,0.118243424034119,0.130428179454803,0.0273402706146239,1.0954394850635236
2.6384597213809813,-0.047012923622131296,0.0801327692985535,0.020155212020873902,1.0954394850635236
2.6390654149000605,-0.130838607215881,0.07055269117355349,-0.0109800418853761,1.0954394850635236
2.63967110841914,-0.06377806034088129,0.156773394298553,0.123141051864624,1.0954394850635236
2.6402768019382195,0.051182877159118706,-0.140209027576447,0.32671771202087396,1.0954394850635236
2.6408824954572987,-0.116468490028381,-0.130628949451447,0.08721575889587391,1.0954394850635236
2.641488188976378,-0.0589880212783813,-0.125838910388947,-0.0229551395416261,1.0954394850635236
2.6420938824954576,0.0272326818466187,-0.0156680119514465,0.324322692489624,1.0954394850635236
2.642699576014537,0.0823181310653687,0.135218218517303,0.32671771202087396,1.0954394850635236
2.643305269533616,0.0775280920028687,0.0897128474235535,0.278817321395874,1.0954394850635236
2.6439109630526954,-0.00869261112213134,0.00828218336105347,0.367433044052124,1.0954394850635236
2.644516656571775,-0.121258529090881,-0.0156680119514465,0.15906634483337398,1.0954394850635236
2.6451223500908543,-0.0110876306533813,-0.0108779728889465,0.23331195030212398,1.0954394850635236
2.6457280436099335,0.041602799034118704,-0.0827285588264465,0.377013122177124,1.0954394850635236
2.6463337371290128,-0.121258529090881,0.056182573986053495,0.0752406612396239,1.0954394850635236
2.6469394306480925,-0.0230627283096313,-0.0731484807014465,0.571009704208374,1.0954394850635236
2.6475451241671712,0.0607629552841187,-0.178529340076447,0.40575335655212397,1.0954394850635236
2.6481508176862514,-0.0302477869033813,-0.00369291429519653,-0.123545959854126,1.0954394850635236
2.64875651120533,-0.0589880212783813,-0.0539883244514465,0.00818011436462389,1.0954394850635236
2.649362204724409,-0.130838607215881,-0.030038129138946497,-0.125940979385376,1.0954394850635236
2.649967898243489,0.111058365440369,0.0777377497673035,0.135116149520874,1.0954394850635236
2.6505735917625683,-0.044617904090881295,-0.00608793382644653,0.28600237998962397,1.0954394850635236
2.651179285281647,-0.0302477869033813,-0.0396182072639465,-0.24569195594787602,1.0954394850635236
2.6517849788007273,0.190094009971619,-0.0970986760139465,-0.212161682510376,1.0954394850635236
2.652390672319806,-0.121258529090881,-0.0707534611701965,0.262052184677124,1.0954394850635236
2.652996365838886,-0.14760374393463102,0.00109712476730347,0.20936175498962398,1.0954394850635236
2.653602059357965,0.0320227209091187,0.0442074763298035,-0.00379498329162611,1.0954394850635236
2.6542077528770442,-0.0110876306533813,0.0825277888298035,-0.0157700809478761,1.0954394850635236
2.6548134463961244,-0.21226927127838102,-0.034828168201446505,0.10637591514587401,1.0954394850635236
2.655419139915203,-0.0182726892471313,0.0106772028923035,0.250077087020874,1.0954394850635236
2.656024833434282,0.17093385372161898,0.161563433361053,0.230916930770874,1.0954394850635236
2.656630526953362,-0.0254577478408813,0.137613238048553,0.0728456417083739,1.0954394850635236
2.6572362204724413,-0.0757531579971313,-0.061173383045196504,0.0225502315521239,1.0954394850635236
2.65784191399152,0.0607629552841187,0.0513925349235535,0.09200579795837391,1.0954394850635236
2.6584476075106003,0.0152575841903687,0.147193316173553,0.202176696395874,1.0954394850635236
2.659053301029679,-0.23861448612213101,-0.0515933049201965,-0.051695373916626104,1.0954394850635236
2.6596589945487583,-0.0781481775283813,-0.020458051013946498,-0.0157700809478761,1.0954394850635236
2.660264688067838,0.14219361934661898,0.0370224177360535,0.10398089561462401,1.0954394850635236
2.6608703815869172,0.00328248653411866,0.0202572810173035,0.15906634483337398,1.0954394850635236
2.661476075105996,0.108663345909119,-0.0707534611701965,0.348272887802124,1.0954394850635236
2.662081768625076,-0.236219466590881,0.00349214429855347,0.10637591514587401,1.0954394850635236
2.662687462144155,-0.00150755252838134,-0.183319379138947,0.259657165145874,1.0954394850635236
2.663293155663234,0.043997818565368704,-0.250379926013947,0.132721129989624,1.0954394850635236
2.6638988491823143,-0.0901232751846313,0.159168413829803,0.0488954463958739,1.0954394850635236
2.664504542701393,0.12542848262786901,0.108873003673553,0.297977477645874,1.0954394850635236
2.665110236220472,-0.28172483768463097,0.0178622614860535,0.331507751083374,1.0954394850635236
2.665715929739552,-0.116468490028381,0.156773394298553,0.20936175498962398,1.0954394850635236
2.6663216232586313,-0.159578841590881,0.0633676325798035,0.180621520614624,1.0954394850635236
2.66692731677771,-0.200294173622131,-0.0635684025764465,0.0297352901458739,1.0954394850635236
2.6675330102967902,0.0200476232528687,-0.0132729924201965,-0.0157700809478761,1.0954394850635236
2.668138703815869,-0.140418685340881,-0.0468032658576965,0.22852191123962398,1.0954394850635236
2.668744397334949,-0.121258529090881,0.0777377497673035,0.0728456417083739,1.0954394850635236
2.669350090854028,-0.0206677087783813,-0.0539883244514465,0.0536854854583739,1.0954394850635236
2.669955784373107,-0.0206677087783813,0.104082964611053,-0.0205601200103761,1.0954394850635236
2.6705614778921873,-0.14760374393463102,0.199883745861053,-0.09241070594787609,1.0954394850635236
2.671167171411266,0.00567750606536866,-0.195294476795197,-0.0995957645416261,1.0954394850635236
2.671772864930345,0.0847131505966187,-0.0827285588264465,-0.0732505496978761,1.0954394850635236
2.672378558449425,-0.0709631189346313,-0.123443890857697,0.120746032333374,1.0954394850635236
2.6729842519685043,-0.102098372840881,-0.142604047107697,0.135116149520874,1.0954394850635236
2.673589945487583,-0.0925182947158813,0.254969195079803,0.000995055770873893,1.0954394850635236
2.6741956390066632,-0.236219466590881,0.00828218336105347,-0.00858502235412611,1.0954394850635236
2.674801332525742,-0.0565930017471313,-0.0635684025764465,0.156671325302124,1.0954394850635236
2.6754070260448213,-0.0877282556533813,-0.0252480900764465,0.518319274520874,1.0954394850635236
2.676012719563901,-0.044617904090881295,-0.116258832263947,-0.0205601200103761,1.0954394850635236
2.67661841308298,0.16614381465911898,-0.0444082463264465,0.367433044052124,1.0954394850635236
2.677224106602059,-0.0230627283096313,-0.149789105701447,0.872782165145874,1.0954394850635236
2.677829800121139,-0.0757531579971313,-0.0444082463264465,-0.157076233291626,1.0954394850635236
2.678435493640218,-0.0853332361221313,-0.0851235783576965,0.0800307003021239,1.0954394850635236
2.679041187159297,-0.03503782596588129,-0.147394086170197,0.132721129989624,1.0954394850635236
2.6796468806783773,0.0559729162216187,-0.0923086369514465,-0.0277451786041261,1.0954394850635236
2.680252574197456,0.00567750606536866,0.0418124567985535,0.341087829208374,1.0954394850635236
2.6808582677165353,-0.0853332361221313,0.0178622614860535,0.123141051864624,1.0954394850635236
2.681463961235615,-0.0110876306533813,0.159168413829803,-0.07804058876037609,1.0954394850635236
2.6820696547546943,0.290684830284119,-0.231219769763947,0.0704506221771239,1.0954394850635236
2.682675348273773,0.0966882482528687,-0.283910199451447,-0.121150940322876,1.0954394850635236
2.683281041792853,-0.123653548622131,0.0346273982048035,-0.128335998916626,1.0954394850635236
2.683886735311932,-0.0781481775283813,-0.125838910388947,0.0680556026458739,1.0954394850635236
2.684492428831012,-0.14281370487213102,-0.0851235783576965,0.18301654014587398,1.0954394850635236
2.685098122350091,0.16614381465911898,0.058577593517303496,0.115955993270874,1.0954394850635236
2.68570381586917,-0.0565930017471313,0.209463823986053,0.161461364364624,1.0954394850635236
2.6863095093882503,-0.135628646278381,0.0154672419548035,0.0632655635833739,1.0954394850635236
2.686915202907329,0.0559729162216187,-0.032433148670196504,0.0297352901458739,1.0954394850635236
2.6875208964264083,-0.0733581384658813,0.147193316173553,0.0632655635833739,1.0954394850635236
2.688126589945488,-0.15718382205963102,0.058577593517303496,0.0297352901458739,1.0954394850635236
2.6887322834645673,0.0272326818466187,0.0154672419548035,0.254867126083374,1.0954394850635236
2.689337976983646,-0.0518029626846313,-0.0899136174201965,0.0441054073333739,1.0954394850635236
2.689943670502726,-0.0685680994033813,0.0394174372673035,0.0417103878021239,1.0954394850635236
2.690549364021805,0.0344177404403687,0.163958452892303,0.123141051864624,1.0954394850635236
2.6911550575408842,0.043997818565368704,-0.020458051013946498,0.180621520614624,1.0954394850635236
2.691760751059964,-0.0206677087783813,-0.0515933049201965,0.0848207393646239,1.0954394850635236
2.692366444579043,-0.135628646278381,0.0825277888298035,-0.0972007450103761,1.0954394850635236
2.692972138098122,-0.03503782596588129,0.298079546642303,-0.08762066688537609,1.0954394850635236
2.693577831617202,-0.20747923221588102,0.0825277888298035,0.15427630577087398,1.0954394850635236
2.6941835251362813,-0.111678450965881,0.0466024958610535,0.0249452510833739,1.0954394850635236
2.69478921865536,0.0296277013778687,0.07055269117355349,0.0560805049896239,1.0954394850635236
2.6953949121744403,-0.0661730798721313,-0.10428373460769699,0.0800307003021239,1.0954394850635236
2.696000605693519,0.0799231115341187,-0.020458051013946498,0.142301208114624,1.0954394850635236
2.6966062992125983,0.218834244346619,-0.0539883244514465,0.257262145614624,1.0954394850635236
2.697211992731678,0.0559729162216187,0.149588335704803,0.226126891708374,1.0954394850635236
2.6978176862507572,0.178118912315369,0.0442074763298035,0.0560805049896239,1.0954394850635236
2.698423379769836,0.07034303340911871,-0.018063031482696498,-0.123545959854126,1.0954394850635236
2.699029073288916,0.0392077795028687,0.0466024958610535,0.032130309677123894,1.0954394850635236
2.699634766807995,-0.154788802528381,-0.178529340076447,0.16385638389587398,1.0954394850635236
2.700240460327075,-0.214664290809631,-0.00369291429519653,0.142301208114624,1.0954394850635236
2.7008461538461543,0.20206910762786898,0.216648882579803,0.14469622764587398,1.0954394850635236
2.701451847365233,0.144588638877869,0.00109712476730347,0.10877093467712401,1.0954394850635236
2.7020575408843133,0.194884049034119,-0.0779385197639465,0.0560805049896239,1.0954394850635236
2.702663234403392,0.115848404502869,0.120848101329803,0.23810198936462398,1.0954394850635236
2.7032689279224713,0.30744996700286903,-0.173739301013947,0.0225502315521239,1.0954394850635236
2.703874621441551,0.42720094356536903,-0.130628949451447,0.08961077842712391,1.0954394850635236
2.7044803149606302,0.163748795127869,0.0106772028923035,-0.00139996376037611,1.0954394850635236
2.705086008479709,0.343375259971619,-0.0731484807014465,0.00578509483337389,1.0954394850635236
2.705691701998789,0.43678102169036903,-0.0396182072639465,-0.00858502235412611,1.0954394850635236
2.706297395517868,0.247574478721619,-0.133023968982697,0.317137633895874,1.0954394850635236
2.706903089036947,0.319425064659119,0.0226523005485535,0.6692055049896241,1.0954394850635236
2.7075087825560273,0.384090592002869,-0.0827285588264465,0.23810198936462398,1.0954394850635236
2.708114476075106,0.283499771690369,0.0130722224235535,-0.09001568641662609,1.0954394850635236
2.7087201695941854,0.343375259971619,0.027442339611053503,-0.049300354385376104,1.0954394850635236
2.709325863113265,0.269129654502869,-0.0635684025764465,0.216546813583374,1.0954394850635236
2.7099315566323443,0.30505494747161904,0.0992929255485535,0.0249452510833739,1.0954394850635236
2.710537250151423,0.563717056846619,0.0801327692985535,0.0417103878021239,1.0954394850635236
2.7111429436705032,0.479891373252869,-0.178529340076447,0.0297352901458739,1.0954394850635236
2.711748637189582,0.388880631065369,0.00828218336105347,-0.255272034072876,1.0954394850635236
2.7123543307086613,0.47510133419036904,-0.0970986760139465,-0.116360901260376,1.0954394850635236
2.712960024227741,0.360140396690369,-0.10428373460769699,-0.0301401981353761,1.0954394850635236
2.71356571774682,0.288289810752869,0.0370224177360535,-0.054090393447876105,1.0954394850635236
2.714171411265899,0.508631607627869,-0.307860394763946,0.412938415145874,1.0954394850635236
2.714777104784979,0.278709732627869,0.027442339611053503,-0.0181651004791261,1.0954394850635236
2.7153827983040584,0.333795181846619,0.128033159923553,0.015365172958373901,1.0954394850635236
2.715988491823137,0.477496353721619,0.0945028864860535,0.230916930770874,1.0954394850635236
2.7165941853422173,0.309844986534119,0.151983355236053,0.0177601924896239,1.0954394850635236
2.717199878861296,0.209254166221619,-0.10428373460769699,0.197386657333374,1.0954394850635236
2.7178055723803762,0.290684830284119,0.058577593517303496,0.0512904659271239,1.0954394850635236
2.718411265899455,0.372115494346619,0.07294771070480349,0.137511169052124,1.0954394850635236
2.7190169594185343,0.214044205284119,0.00588716382980347,-0.0229551395416261,1.0954394850635236
2.719622652937614,0.422410904502869,0.029837359142303503,-0.137916077041626,1.0954394850635236
2.720228346456693,0.281104752159119,-0.00848295335769653,-0.058880432510376106,1.0954394850635236
2.720834039975772,0.21643922481536898,0.0968979060173035,0.15906634483337398,1.0954394850635236
2.721439733494852,0.123033463096619,-0.0420132267951965,0.348272887802124,1.0954394850635236
2.7220454270139314,0.130218521690369,-0.164159222888947,0.060870544052123894,1.0954394850635236
2.72265112053301,0.21643922481536898,-0.0803335392951965,-0.0469053348541261,1.0954394850635236
2.7232568140520903,-0.18352903690338102,-0.0468032658576965,0.060870544052123894,1.0954394850635236
2.723862507571169,0.043997818565368704,-0.0252480900764465,0.132721129989624,1.0954394850635236
2.7244682010902483,0.127823502159119,0.140008257579803,0.309952575302124,1.0954394850635236
2.725073894609328,-0.0206677087783813,-0.00608793382644653,0.08721575889587391,1.0954394850635236
2.7256795881284073,-0.0781481775283813,0.0489975153923035,0.0225502315521239,1.0954394850635236
2.726285281647486,-0.039827865028381294,0.113663042736053,0.0800307003021239,1.0954394850635236
2.726890975166566,-0.044617904090881295,-0.123443890857697,0.130326110458374,1.0954394850635236
2.727496668685645,0.051182877159118706,-0.00608793382644653,0.410543395614624,1.0954394850635236
2.7281023622047242,0.06794801387786871,-0.018063031482696498,0.120746032333374,1.0954394850635236
2.7287080557238044,-0.0925182947158813,-0.0779385197639465,0.216546813583374,1.0954394850635236
2.729313749242883,0.0727380529403687,0.07534273023605349,0.151881286239624,1.0954394850635236
2.729919442761962,0.108663345909119,-0.0420132267951965,0.10637591514587401,1.0954394850635236
2.730525136281042,0.209254166221619,0.0394174372673035,0.293187438583374,1.0954394850635236
2.7311308298001213,0.0392077795028687,0.00828218336105347,0.020155212020873902,1.0954394850635236
2.7317365233192,0.144588638877869,-0.0707534611701965,0.0704506221771239,1.0954394850635236
2.7323422168382803,0.115848404502869,0.027442339611053503,0.171041442489624,1.0954394850635236
2.732947910357359,-0.03503782596588129,-0.00608793382644653,0.192596618270874,1.0954394850635236
2.733553603876439,0.16135377559661898,0.00349214429855347,0.269237243270874,1.0954394850635236
2.734159297395518,-0.0661730798721313,-0.0707534611701965,0.5111342159271239,1.0954394850635236
2.7347649909145972,-0.00390257205963134,-0.020458051013946498,0.324322692489624,1.0954394850635236
2.7353706844336774,0.0799231115341187,0.0130722224235535,0.709920837020874,1.0954394850635236
2.735976377952756,0.12542848262786901,-0.0420132267951965,0.448863708114624,1.0954394850635236
2.736582071471835,0.254759537315369,-0.0851235783576965,0.367433044052124,1.0954394850635236
2.737187764990915,0.008072525596618661,-0.0108779728889465,0.374618102645874,1.0954394850635236
2.7377934585099943,-0.00869261112213134,-0.0396182072639465,0.0752406612396239,1.0954394850635236
2.738399152029073,0.15177369747161898,-0.0875185978889465,0.14469622764587398,1.0954394850635236
2.7390048455481533,0.111058365440369,0.027442339611053503,-0.0373252567291261,1.0954394850635236
2.739610539067232,0.0248376623153687,-0.185714398670197,0.0632655635833739,1.0954394850635236
2.7402162325863113,0.0392077795028687,-0.0755435002326965,0.0177601924896239,1.0954394850635236
2.740821926105391,-0.0182726892471313,0.154378374767303,0.197386657333374,1.0954394850635236
2.7414276196244702,0.043997818565368704,-0.0156680119514465,0.18780657920837399,1.0954394850635236
2.742033313143549,-0.0661730798721313,0.0322323786735535,0.135116149520874,1.0954394850635236
2.742639006662629,0.13261354122161897,0.00109712476730347,0.125536071395874,1.0954394850635236
2.743244700181708,-0.0134826501846313,0.00109712476730347,0.24768206748962399,1.0954394850635236
2.743850393700787,-0.0853332361221313,-0.034828168201446505,0.175831481552124,1.0954394850635236
2.7444560872198673,0.0895031896591187,-0.034828168201446505,0.156671325302124,1.0954394850635236
2.745061780738946,-0.0973083337783813,-0.113863812732697,0.30516253623962397,1.0954394850635236
2.745667474258025,0.16614381465911898,-0.10428373460769699,0.24768206748962399,1.0954394850635236
2.746273167777105,0.0799231115341187,-0.0420132267951965,0.139906188583374,1.0954394850635236
2.7468788612961843,0.0918982091903687,-0.140209027576447,0.034525329208373895,1.0954394850635236
2.747484554815263,0.0248376623153687,0.209463823986053,-0.0732505496978761,1.0954394850635236
2.7480902483343432,-0.0661730798721313,0.027442339611053503,0.0560805049896239,1.0954394850635236
2.748695941853422,0.053577896690368707,-0.243194867420197,0.293187438583374,1.0954394850635236
2.749301635372502,-0.0709631189346313,-0.0707534611701965,0.120746032333374,1.0954394850635236
2.749907328891581,-0.260169661903381,-0.00848295335769653,0.22852191123962398,1.0954394850635236
2.75051302241066,-0.15718382205963102,-0.106678754138947,0.314742614364624,1.0954394850635236
2.7511187159297403,-0.135628646278381,0.108873003673553,0.20936175498962398,1.0954394850635236
2.751724409448819,-0.116468490028381,-0.0491982853889465,0.166251403427124,1.0954394850635236
2.752330102967898,-0.12844358768463102,-0.0108779728889465,0.252472106552124,1.0954394850635236
2.752935796486978,-0.154788802528381,-0.061173383045196504,0.18301654014587398,1.0954394850635236
2.7535414900060573,-0.0901232751846313,-0.130628949451447,0.185411559677124,1.0954394850635236
2.754147183525136,-0.29130491580963097,-0.00129789476394653,0.115955993270874,1.0954394850635236
2.7547528770442162,0.15177369747161898,-0.133023968982697,-0.0636704715728761,1.0954394850635236
2.755358570563295,0.0320227209091187,0.0226523005485535,0.000995055770873893,1.0954394850635236
2.7559642640823743,-0.205084212684631,0.0178622614860535,0.0800307003021239,1.0954394850635236
2.756569957601454,-0.00869261112213134,-0.113863812732697,0.09440081748962391,1.0954394850635236
2.757175651120533,-0.233824447059631,-0.113863812732697,0.288397399520874,1.0954394850635236
2.757781344639612,-0.0134826501846313,-0.125838910388947,0.24768206748962399,1.0954394850635236
2.758387038158692,-0.0733581384658813,-0.209664593982697,0.16385638389587398,1.0954394850635236
2.758992731677771,0.149378677940369,-0.0731484807014465,0.09679583702087391,1.0954394850635236
2.75959842519685,0.21643922481536898,0.0849228083610535,0.142301208114624,1.0954394850635236
2.7602041187159303,-0.0565930017471313,-0.0228530705451965,0.17822650108337398,1.0954394850635236
2.760809812235009,-0.00869261112213134,-0.130628949451447,0.0177601924896239,1.0954394850635236
2.7614155057540883,-0.21226927127838102,-0.0923086369514465,-0.0995957645416261,1.0954394850635236
2.762021199273168,-0.0182726892471313,-0.0970986760139465,-0.0636704715728761,1.0954394850635236
2.7626268927922473,0.008072525596618661,-0.0491982853889465,0.14948626670837398,1.0954394850635236
2.763232586311326,0.00328248653411866,-0.0228530705451965,0.118351012802124,1.0954394850635236
2.763838279830406,-0.0613830408096313,0.0633676325798035,0.17343646202087398,1.0954394850635236
2.764443973349485,-0.042222884559631295,0.060972613048553496,0.135116149520874,1.0954394850635236
2.765049666868565,-0.00869261112213134,0.00588716382980347,0.329112731552124,1.0954394850635236
2.765655360387644,0.0847131505966187,-0.0132729924201965,0.142301208114624,1.0954394850635236
2.766261053906723,0.0895031896591187,0.0346273982048035,-0.125940979385376,1.0954394850635236
2.7668667474258033,-0.0973083337783813,-0.032433148670196504,0.10158587608337401,1.0954394850635236
2.767472440944882,0.008072525596618661,-0.0444082463264465,0.793746520614624,1.0954394850635236
2.7680781344639613,0.16614381465911898,-0.116258832263947,0.434493590927124,1.0954394850635236
2.768683827983041,0.194884049034119,0.06815767164230349,-0.0421152957916261,1.0954394850635236
2.7692895215021203,0.0152575841903687,0.056182573986053495,0.034525329208373895,1.0954394850635236
2.769895215021199,-0.0589880212783813,-0.0372231877326965,0.0704506221771239,1.0954394850635236
2.770500908540279,-0.13323362674713102,0.195093706798553,0.0560805049896239,1.0954394850635236
2.771106602059358,0.0320227209091187,-0.212059613513947,-0.056485412979126105,1.0954394850635236
2.7717122955784372,0.06794801387786871,0.0202572810173035,0.032130309677123894,1.0954394850635236
2.772317989097517,0.06555299434661871,-0.00369291429519653,0.197386657333374,1.0954394850635236
2.772923682616596,0.0200476232528687,-0.123443890857697,0.197386657333374,1.0954394850635236
2.773529376135675,0.06315797481536871,0.027442339611053503,-0.0756455692291261,1.0954394850635236
2.774135069654755,0.0918982091903687,0.0394174372673035,0.0417103878021239,1.0954394850635236
2.7747407631738343,-0.0182726892471313,0.0992929255485535,0.221336852645874,1.0954394850635236
2.775346456692913,-0.0685680994033813,-0.0899136174201965,0.0776356807708739,1.0954394850635236
2.7759521502119933,-0.18352903690338102,-0.233614789295197,0.020155212020873902,1.0954394850635236
2.776557843731072,-0.0925182947158813,-0.0779385197639465,0.240497008895874,1.0954394850635236
2.7771635372501513,-0.0733581384658813,0.269339312267303,-0.0349302371978761,1.0954394850635236
2.777769230769231,0.0942932287216187,0.0897128474235535,0.00578509483337389,1.0954394850635236
2.7783749242883102,0.000887467002868658,-0.0372231877326965,0.23810198936462398,1.0954394850635236
2.778980617807389,-0.0733581384658813,-0.0515933049201965,0.0105751338958739,1.0954394850635236
2.779586311326469,0.218834244346619,-0.0420132267951965,0.142301208114624,1.0954394850635236
2.780192004845548,0.14698365840911898,0.00588716382980347,0.10877093467712401,1.0954394850635236
2.780797698364627,-0.0110876306533813,-0.0491982853889465,0.0632655635833739,1.0954394850635236
2.7814033918837073,-0.154788802528381,-0.147394086170197,0.142301208114624,1.0954394850635236
2.782009085402786,-0.03503782596588129,-0.0468032658576965,-0.0109800418853761,1.0954394850635236
2.7826147789218663,-0.03503782596588129,-0.0683584416389465,0.125536071395874,1.0954394850635236
2.783220472440945,-0.0110876306533813,-0.00848295335769653,0.269237243270874,1.0954394850635236
2.7838261659600243,0.051182877159118706,0.0633676325798035,0.14948626670837398,1.0954394850635236
2.784431859479104,-0.0494079431533813,0.07055269117355349,-0.152286194229126,1.0954394850635236
2.7850375529981832,-0.173948958778381,0.144798296642303,-0.049300354385376104,1.0954394850635236
2.785643246517262,0.0368127599716187,-0.178529340076447,-0.00619000282287611,1.0954394850635236
2.786248940036342,-0.0949133142471313,-0.0707534611701965,-0.0469053348541261,1.0954394850635236
2.786854633555421,-0.118863509559631,-0.0755435002326965,0.18301654014587398,1.0954394850635236
2.7874603270745,0.0559729162216187,-0.0276431096076965,0.240497008895874,1.0954394850635236
2.7880660205935803,0.051182877159118706,0.154378374767303,0.235706969833374,1.0954394850635236
2.788671714112659,0.281104752159119,-0.116258832263947,0.453653747177124,1.0954394850635236
2.7892774076317384,0.168538834190369,-0.111468793201447,0.40575335655212397,1.0954394850635236
2.789883101150818,0.144588638877869,-0.0132729924201965,0.156671325302124,1.0954394850635236
2.7904887946698973,-0.0877282556533813,0.0873178278923035,0.0441054073333739,1.0954394850635236
2.791094488188976,0.0128625646591187,-0.0156680119514465,0.18780657920837399,1.0954394850635236
2.7917001817080562,0.17093385372161898,-0.0563833439826965,0.271632262802124,1.0954394850635236
2.792305875227135,-0.15239378299713102,-0.00369291429519653,0.10158587608337401,1.0954394850635236
2.7929115687462143,-0.0685680994033813,-0.0635684025764465,0.18301654014587398,1.0954394850635236
2.793517262265294,0.0224426427841187,0.0442074763298035,0.28600237998962397,1.0954394850635236
2.794122955784373,-0.130838607215881,0.128033159923553,0.0704506221771239,1.0954394850635236
2.794728649303452,-0.039827865028381294,-0.111468793201447,0.058475524520873894,1.0954394850635236
2.795334342822532,0.12542848262786901,0.00828218336105347,-0.0349302371978761,1.0954394850635236
2.7959400363416114,0.0272326818466187,0.0418124567985535,-0.219346741104126,1.0954394850635236
2.79654572986069,-0.145208724403381,-0.0851235783576965,-0.161866272354126,1.0954394850635236
2.7971514233797703,-0.039827865028381294,-0.0108779728889465,-0.19060650672912602,1.0954394850635236
2.797757116898849,0.139798599815369,-0.061173383045196504,-0.0349302371978761,1.0954394850635236
2.7983628104179292,-0.039827865028381294,0.07534273023605349,-0.0373252567291261,1.0954394850635236
2.798968503937008,-0.044617904090881295,-0.185714398670197,0.132721129989624,1.0954394850635236
2.7995741974560873,-0.176343978309631,0.07055269117355349,0.0273402706146239,1.0954394850635236
2.8001798909751674,0.0727380529403687,0.211858843517303,-0.049300354385376104,1.0954394850635236
2.800785584494246,0.223624283409119,0.0370224177360535,0.0488954463958739,1.0954394850635236
2.801391278013325,-0.209874251747131,0.111268023204803,0.0728456417083739,1.0954394850635236
2.801996971532405,-0.20268919315338102,0.0154672419548035,0.10158587608337401,1.0954394850635236
2.8026026650514844,-0.18352903690338102,0.0801327692985535,0.0728456417083739,1.0954394850635236
2.803208358570563,-0.0805431970596313,0.149588335704803,0.171041442489624,1.0954394850635236
2.8038140520896433,-0.047012923622131296,0.025047320079803502,0.20457171592712398,1.0954394850635236
2.804419745608722,0.053577896690368707,-0.0468032658576965,-0.13552105751037602,1.0954394850635236
2.8050254391278013,-0.15239378299713102,-0.0563833439826965,-0.0301401981353761,1.0954394850635236
2.805631132646881,-0.171553939247131,-0.018063031482696498,0.350667907333374,1.0954394850635236
2.8062368261659603,-0.21705931034088102,0.104082964611053,0.00339007530212389,1.0954394850635236
2.806842519685039,-0.0829382165908813,-0.116258832263947,0.09200579795837391,1.0954394850635236
2.807448213204119,0.0559729162216187,-0.0468032658576965,0.314742614364624,1.0954394850635236
2.808053906723198,0.108663345909119,0.178328570079803,0.0848207393646239,1.0954394850635236
2.8086596002422772,0.127823502159119,-0.0420132267951965,0.0704506221771239,1.0954394850635236
2.8092652937613574,-0.0997033533096313,0.108873003673553,0.000995055770873893,1.0954394850635236
2.809870987280436,-0.149998763465881,0.130428179454803,0.058475524520873894,1.0954394850635236
2.810476680799515,-0.0134826501846313,-0.020458051013946498,0.18780657920837399,1.0954394850635236
2.811082374318595,0.293079849815369,0.128033159923553,0.0776356807708739,1.0954394850635236
2.8116880678376743,0.15177369747161898,0.0489975153923035,0.20936175498962398,1.0954394850635236
2.812293761356753,-0.16197386112213102,0.0466024958610535,0.23331195030212398,1.0954394850635236
2.8128994548758333,0.0272326818466187,-0.00608793382644653,0.161461364364624,1.0954394850635236
2.813505148394912,-0.123653548622131,-0.0947036564826965,0.199781676864624,1.0954394850635236
2.814110841913992,-0.15718382205963102,0.132823198986053,0.10637591514587401,1.0954394850635236
2.814716535433071,-0.0997033533096313,0.0130722224235535,0.0465004268646239,1.0954394850635236
2.8153222289521502,-0.286514876747131,0.173538531017303,0.0177601924896239,1.0954394850635236
2.8159279224712304,0.0559729162216187,0.142403277111053,0.0800307003021239,1.0954394850635236
2.816533615990309,0.06315797481536871,-0.109073773670197,0.197386657333374,1.0954394850635236
2.817139309509388,-0.169158919715881,0.0178622614860535,0.278817321395874,1.0954394850635236
2.817745003028468,-0.03503782596588129,-0.147394086170197,0.15427630577087398,1.0954394850635236
2.8183506965475473,0.043997818565368704,0.156773394298553,0.0129701534271239,1.0954394850635236
2.818956390066626,0.000887467002868658,-0.128233929920197,0.10877093467712401,1.0954394850635236
2.8195620835857063,0.123033463096619,0.0657626521110535,0.0105751338958739,1.0954394850635236
2.820167777104785,-0.0733581384658813,0.116058062267303,0.259657165145874,1.0954394850635236
2.8207734706238643,-0.169158919715881,-0.121048871326447,0.360247985458374,1.0954394850635236
2.821379164142944,-0.0589880212783813,0.231018999767303,0.10877093467712401,1.0954394850635236
2.8219848576620232,-0.21226927127838102,0.0466024958610535,0.324322692489624,1.0954394850635236
2.822590551181102,-0.0613830408096313,-0.212059613513947,0.199781676864624,1.0954394850635236
2.823196244700182,0.16614381465911898,0.0106772028923035,0.307557555770874,1.0954394850635236
2.823801938219261,-0.102098372840881,0.07534273023605349,0.17822650108337398,1.0954394850635236
2.82440763173834,0.0583679357528687,0.0873178278923035,0.0848207393646239,1.0954394850635236
2.8250133252574203,-0.13323362674713102,0.0226523005485535,0.137511169052124,1.0954394850635236
2.825619018776499,0.120638443565369,-0.171344281482697,-0.0325352176666261,1.0954394850635236
2.826224712295578,0.16614381465911898,-0.00608793382644653,0.341087829208374,1.0954394850635236
2.826830405814658,0.046392838096618705,-0.109073773670197,0.403358337020874,1.0954394850635236
2.8274360993337373,-0.0997033533096313,0.0968979060173035,0.317137633895874,1.0954394850635236
2.828041792852816,-0.205084212684631,0.0489975153923035,0.262052184677124,1.0954394850635236
2.8286474863718962,0.127823502159119,0.0370224177360535,0.0752406612396239,1.0954394850635236
2.829253179890975,-0.111678450965881,-0.0468032658576965,0.0680556026458739,1.0954394850635236
2.829858873410055,-0.14281370487213102,-0.113863812732697,0.115955993270874,1.0954394850635236
2.830464566929134,-0.0182726892471313,0.0226523005485535,0.0824257198333739,1.0954394850635236
2.831070260448213,0.103873306846619,0.0202572810173035,0.0728456417083739,1.0954394850635236
2.8316759539672933,0.0200476232528687,-0.0683584416389465,0.034525329208373895,1.0954394850635236
2.832281647486372,0.120638443565369,-0.032433148670196504,0.036920348739623896,1.0954394850635236
2.832887341005451,0.0751330724716187,0.0106772028923035,0.194991637802124,1.0954394850635236
2.833493034524531,-0.0541979822158813,-0.0515933049201965,0.166251403427124,1.0954394850635236
2.8340987280436103,-0.126048568153381,-0.00848295335769653,-0.0756455692291261,1.0954394850635236
2.834704421562689,-0.13323362674713102,-0.0491982853889465,-0.0684605106353761,1.0954394850635236
2.8353101150817692,-0.00390257205963134,-0.0444082463264465,0.252472106552124,1.0954394850635236
2.835915808600848,0.101478287315369,-0.0707534611701965,0.180621520614624,1.0954394850635236
2.8365215021199273,0.0895031896591187,-0.121048871326447,0.264447204208374,1.0954394850635236
2.837127195639007,0.0296277013778687,-0.0755435002326965,0.398568297958374,1.0954394850635236
2.837732889158086,-0.0326428064346313,-0.185714398670197,0.22852191123962398,1.0954394850635236
2.838338582677165,-0.104493392372131,-0.030038129138946497,-0.0277451786041261,1.0954394850635236
2.838944276196245,0.0344177404403687,-0.0132729924201965,0.135116149520874,1.0954394850635236
2.839549969715324,0.204464127159119,-0.0156680119514465,0.274027282333374,1.0954394850635236
2.840155663234403,0.111058365440369,0.214253863048553,0.259657165145874,1.0954394850635236
2.8407613567534833,0.0128625646591187,-0.111468793201447,0.032130309677123894,1.0954394850635236
2.841367050272562,-0.27214475955963097,-0.0827285588264465,-0.128335998916626,1.0954394850635236
2.8419727437916413,-0.0541979822158813,-0.101888715076447,0.036920348739623896,1.0954394850635236
2.842578437310721,-0.135628646278381,0.00109712476730347,0.036920348739623896,1.0954394850635236
2.8431841308298003,-0.114073470497131,-0.00129789476394653,0.319532653427124,1.0954394850635236
2.843789824348879,0.008072525596618661,-0.156974164295197,0.262052184677124,1.0954394850635236
2.844395517867959,-0.236219466590881,-0.0491982853889465,0.18780657920837399,1.0954394850635236
2.845001211387038,-0.0949133142471313,-0.168949261951447,0.0800307003021239,1.0954394850635236
2.845606904906118,-0.109283431434631,-0.0444082463264465,0.151881286239624,1.0954394850635236
2.846212598425197,0.0152575841903687,0.190303667736053,0.250077087020874,1.0954394850635236
2.846818291944276,0.17093385372161898,-0.0252480900764465,0.262052184677124,1.0212447769643986
2.8474239854633563,0.259549576377869,0.154378374767303,0.252472106552124,1.0212447769643986
2.848029678982435,0.245179459190369,0.0873178278923035,-0.0445103153228761,1.0212447769643986
2.8486353725015143,-0.0302477869033813,-0.195294476795197,0.0800307003021239,1.0212447769643986
2.849241066020594,-0.140418685340881,-0.0468032658576965,0.039315368270873896,1.0212447769643986
2.8498467595396733,-0.15718382205963102,-0.0468032658576965,-0.0109800418853761,1.0212447769643986
2.850452453058752,-0.121258529090881,0.0322323786735535,0.058475524520873894,1.0212447769643986
2.851058146577832,0.0152575841903687,-0.032433148670196504,0.202176696395874,1.0212447769643986
2.851663840096911,0.204464127159119,0.0322323786735535,0.125536071395874,1.0212447769643986
2.8522695336159902,0.00567750606536866,0.0777377497673035,-0.0349302371978761,1.0212447769643986
2.85287522713507,-0.06377806034088129,-0.0994936955451965,0.18780657920837399,1.0212447769643986
2.853480920654149,0.041602799034118704,0.056182573986053495,0.18301654014587398,1.0212447769643986
2.8540866141732284,0.0272326818466187,-0.0947036564826965,0.21894183311462398,1.0212447769643986
2.854692307692308,0.0368127599716187,-0.0923086369514465,0.20457171592712398,1.0212447769643986
2.8552980012113873,-0.15239378299713102,0.0633676325798035,0.058475524520873894,1.0212447769643986
2.855903694730466,-0.0589880212783813,-0.0899136174201965,-0.284012268447876,1.0212447769643986
2.8565093882495463,-0.0541979822158813,-0.166554242420197,0.240497008895874,1.0212447769643986
2.857115081768625,-0.044617904090881295,-0.0803335392951965,0.448863708114624,1.0212447769643986
2.8577207752877043,0.051182877159118706,-0.0491982853889465,0.0728456417083739,1.0212447769643986
2.858326468806784,-0.0254577478408813,0.0777377497673035,0.09200579795837391,1.0212447769643986
2.8589321623258632,0.106268326377869,0.060972613048553496,0.257262145614624,1.0212447769643986
2.859537855844942,0.106268326377869,-0.166554242420197,0.09919085655212391,1.0212447769643986
2.860143549364022,-0.0206677087783813,-0.0108779728889465,-0.17623638954162602,1.0212447769643986
2.8607492428831014,-0.0709631189346313,0.108873003673553,-0.0109800418853761,1.0212447769643986
2.86135493640218,0.0559729162216187,0.130428179454803,0.15906634483337398,1.0212447769643986
2.8619606299212603,-0.0853332361221313,-0.144999066638947,0.314742614364624,1.0212447769643986
2.862566323440339,0.0104675451278687,0.111268023204803,-0.106780823135376,1.0212447769643986
2.8631720169594193,0.0607629552841187,0.0418124567985535,-0.113965881729126,1.0212447769643986
2.863777710478498,0.048787857627868705,-0.161764203357697,0.21894183311462398,1.0212447769643986
2.8643834039975773,-0.0110876306533813,0.144798296642303,-0.08522564735412609,1.0212447769643986
2.864989097516657,-0.18831907596588102,0.118453081798553,0.0632655635833739,1.0212447769643986
2.865594791035736,0.0559729162216187,-0.0228530705451965,0.118351012802124,1.0212447769643986
2.866200484554815,0.19727906856536898,-0.212059613513947,0.000995055770873893,1.0212447769643986
2.866806178073895,-0.0685680994033813,-0.140209027576447,-0.133126037979126,1.0212447769643986
2.8674118715929744,-0.0925182947158813,-0.00608793382644653,-0.106780823135376,1.0212447769643986
2.868017565112053,-0.123653548622131,-0.133023968982697,0.14469622764587398,1.0212447769643986
2.8686232586311333,-0.205084212684631,-0.137814008045197,0.039315368270873896,1.0212447769643986
2.869228952150212,0.0128625646591187,0.00349214429855347,-0.0109800418853761,1.0212447769643986
2.8698346456692914,0.046392838096618705,0.0442074763298035,0.192596618270874,1.0212447769643986
2.870440339188371,-0.104493392372131,-0.030038129138946497,0.166251403427124,1.0212447769643986
2.8710460327074503,-0.149998763465881,-0.0947036564826965,0.240497008895874,1.0212447769643986
2.871651726226529,-0.0829382165908813,-0.0731484807014465,0.16864642295837398,1.0212447769643986
2.872257419745609,-0.0709631189346313,-0.0635684025764465,0.0488954463958739,1.0212447769643986
2.872863113264688,-0.0565930017471313,-0.10428373460769699,0.161461364364624,1.0212447769643986
2.8734688067837673,-0.19310911502838102,0.240599077892303,-0.0277451786041261,1.0212447769643986
2.8740745003028474,0.0607629552841187,0.0968979060173035,0.16864642295837398,1.0212447769643986
2.874680193821926,-0.0781481775283813,0.025047320079803502,0.23810198936462398,1.0212447769643986
2.875285887341005,-0.0302477869033813,-0.0396182072639465,0.180621520614624,1.0212447769643986
2.875891580860085,-0.176343978309631,-0.188109418201447,0.21894183311462398,1.0212447769643986
2.8764972743791644,-0.0997033533096313,0.207068804454803,0.09200579795837391,1.0212447769643986
2.877102967898244,-0.0613830408096313,-0.0156680119514465,0.17822650108337398,1.0212447769643986
2.8777086614173233,0.118243424034119,-0.0108779728889465,0.18780657920837399,1.0212447769643986
2.878314354936402,0.053577896690368707,0.0873178278923035,0.147091247177124,1.0212447769643986
2.878920048455482,-0.209874251747131,0.0202572810173035,0.16385638389587398,1.0212447769643986
2.879525741974561,0.0727380529403687,0.00828218336105347,0.09679583702087391,1.0212447769643986
2.8801314354936403,0.0296277013778687,0.0849228083610535,0.16385638389587398,1.0212447769643986
2.8807371290127204,0.07034303340911871,-0.159369183826447,0.10637591514587401,1.0212447769643986
2.881342822531799,0.0296277013778687,-0.152184125232697,-0.09001568641662609,1.0212447769643986
2.881948516050878,-0.0925182947158813,-0.0994936955451965,-0.0684605106353761,1.0212447769643986
2.882554209569958,0.00328248653411866,-0.0659634221076965,0.23331195030212398,1.0212447769643986
2.8831599030890374,0.0751330724716187,0.113663042736053,0.139906188583374,1.0212447769643986
2.883765596608116,0.0368127599716187,-0.030038129138946497,0.0800307003021239,1.0212447769643986
2.8843712901271963,0.0296277013778687,0.192698687267303,0.17822650108337398,1.0212447769643986
2.884976983646275,-0.0685680994033813,0.0418124567985535,0.08721575889587391,1.0212447769643986
2.8855826771653543,-0.13802366580963102,-0.0156680119514465,0.09200579795837391,1.0212447769643986
2.886188370684434,-0.114073470497131,0.06815767164230349,0.132721129989624,1.0212447769643986
2.8867940642035133,-0.0613830408096313,-0.123443890857697,0.5446644893646241,1.0212447769643986
2.887399757722592,-0.109283431434631,-0.128233929920197,0.333902770614624,1.0212447769643986
2.888005451241672,-0.214664290809631,-0.0252480900764465,-0.142706116104126,1.0212447769643986
2.888611144760751,-0.15239378299713102,-0.209664593982697,0.10158587608337401,1.0212447769643986
2.8892168382798302,-0.0326428064346313,-0.106678754138947,0.09200579795837391,1.0212447769643986
2.8898225317989104,0.158958756065369,-0.0755435002326965,0.0752406612396239,1.0212447769643986
2.890428225317989,-0.121258529090881,-0.0851235783576965,0.142301208114624,1.0212447769643986
2.891033918837068,-0.114073470497131,-0.144999066638947,0.17822650108337398,1.0212447769643986
2.891639612356148,0.14219361934661898,-0.10428373460769699,0.032130309677123894,1.0212447769643986
2.8922453058752273,-0.20268919315338102,-0.0515933049201965,-0.0972007450103761,1.0212447769643986
2.892850999394306,0.06794801387786871,-0.144999066638947,0.125536071395874,1.0212447769643986
2.8934566929133863,0.111058365440369,0.142403277111053,-0.0469053348541261,1.0212447769643986
2.894062386432465,0.20685914669036898,-0.018063031482696498,0.036920348739623896,1.0212447769643986
2.894668079951545,0.16614381465911898,-0.144999066638947,0.20457171592712398,1.0212447769643986
2.895273773470624,-0.14760374393463102,0.056182573986053495,-0.113965881729126,1.0212447769643986
2.895879466989703,-0.19789915409088102,-0.0252480900764465,0.00339007530212389,1.0212447769643986
2.8964851605087834,0.23559938106536898,-0.061173383045196504,0.09200579795837391,1.0212447769643986
2.897090854027862,0.101478287315369,-0.0156680119514465,0.17822650108337398,1.0212447769643986
2.897696547546941,-0.264959700965881,-0.125838910388947,0.0752406612396239,1.0212447769643986
2.898302241066021,0.15656373653411898,-0.061173383045196504,0.0417103878021239,1.0212447769643986
2.8989079345851003,-0.00390257205963134,0.0418124567985535,0.199781676864624,1.0212447769643986
2.899513628104179,-0.0997033533096313,0.0633676325798035,0.0704506221771239,1.0212447769643986
2.9001193216232592,-0.0254577478408813,0.00349214429855347,0.10158587608337401,1.0212447769643986
2.900725015142338,0.0248376623153687,0.0202572810173035,0.329112731552124,1.0212447769643986
2.9013307086614173,0.00328248653411866,0.178328570079803,0.139906188583374,1.0212447769643986
2.901936402180497,0.108663345909119,-0.0515933049201965,-0.058880432510376106,1.0212447769643986
2.902542095699576,0.00328248653411866,-0.0755435002326965,0.0560805049896239,1.0212447769643986
2.903147789218655,0.0200476232528687,0.0873178278923035,0.0441054073333739,1.0212447769643986
2.903753482737735,0.0559729162216187,-0.034828168201446505,0.0632655635833739,1.0212447769643986
2.904359176256814,0.0296277013778687,0.0370224177360535,0.0752406612396239,1.0212447769643986
2.904964869775893,-0.159578841590881,0.0992929255485535,0.032130309677123894,1.0212447769643986
2.9055705632949733,-0.121258529090881,0.00109712476730347,0.127931090927124,1.0212447769643986
2.906176256814052,0.127823502159119,-0.111468793201447,0.0512904659271239,1.0212447769643986
2.906781950333131,0.0392077795028687,-0.0827285588264465,-0.0205601200103761,1.0212447769643986
2.907387643852211,-0.0853332361221313,-0.0132729924201965,0.142301208114624,1.0212447769643986
2.9079933373712903,0.0895031896591187,-0.0923086369514465,0.33629779014587396,1.0212447769643986
2.908599030890369,0.0727380529403687,-0.106678754138947,0.293187438583374,1.0212447769643986
2.909204724409449,-0.176343978309631,0.00349214429855347,0.0632655635833739,1.0212447769643986
2.909810417928528,0.0152575841903687,-0.140209027576447,0.0177601924896239,1.0212447769643986
2.9104161114476073,-0.0589880212783813,-0.224034711170197,0.060870544052123894,1.0212447769643986
2.911021804966687,-0.190714095497131,0.0154672419548035,0.0776356807708739,1.0212447769643986
2.911627498485766,-0.0997033533096313,0.0466024958610535,0.0752406612396239,1.0212447769643986
2.9122331920048463,-0.0709631189346313,-0.0755435002326965,0.278817321395874,1.0212447769643986
2.912838885523925,-0.0230627283096313,-0.140209027576447,0.288397399520874,1.0212447769643986
2.913444579043004,-0.00869261112213134,0.266944292736053,0.20457171592712398,1.0212447769643986
2.914050272562084,0.051182877159118706,-0.0228530705451965,0.0488954463958739,1.0212447769643986
2.9146559660811633,-0.0494079431533813,-0.269540082263947,0.16385638389587398,1.0212447769643986
2.915261659600242,-0.18831907596588102,-0.032433148670196504,-0.164261291885376,1.0212447769643986
2.915867353119322,-0.03503782596588129,-0.034828168201446505,0.036920348739623896,1.0212447769643986
2.916473046638401,-0.00150755252838134,0.283709429454803,0.0129701534271239,1.0212447769643986
2.9170787401574803,0.043997818565368704,0.0322323786735535,0.491974059677124,1.0212447769643986
2.91768443367656,0.0823181310653687,-0.0563833439826965,0.290792419052124,1.0212447769643986
2.918290127195639,-0.0925182947158813,-0.0396182072639465,-0.169051330947876,1.0212447769643986
2.918895820714718,-0.0877282556533813,-0.00608793382644653,0.199781676864624,1.0212447769643986
2.919501514233798,-0.0781481775283813,-0.0539883244514465,-0.0972007450103761,1.0212447769643986
2.920107207752877,-0.00629759159088134,-0.0779385197639465,0.14948626670837398,1.0212447769643986
2.920712901271956,0.28589479122161904,-0.128233929920197,0.0848207393646239,1.0212447769643986
2.9213185947910363,0.14698365840911898,0.0777377497673035,-0.00619000282287611,1.0212447769643986
2.921924288310115,0.07034303340911871,0.0849228083610535,-0.00139996376037611,1.0212447769643986
2.9225299818291943,0.053577896690368707,0.0801327692985535,0.21894183311462398,1.0212447769643986
2.923135675348274,0.0990832677841187,0.07055269117355349,0.034525329208373895,1.0212447769643986
2.9237413688673533,0.18051393184661899,-0.173739301013947,0.0129701534271239,1.0212447769643986
2.924347062386432,0.043997818565368704,-0.00608793382644653,0.127931090927124,1.0212447769643986
2.924952755905512,-0.00869261112213134,0.0945028864860535,-0.0277451786041261,1.0212447769643986
2.925558449424591,-0.0973083337783813,0.0945028864860535,-0.0229551395416261,1.0212447769643986
2.926164142943671,-0.0278527673721313,-0.00848295335769653,0.0776356807708739,1.0212447769643986
2.92676983646275,-0.039827865028381294,-0.267145062732697,0.166251403427124,1.0212447769643986
2.927375529981829,-0.169158919715881,0.056182573986053495,-0.054090393447876105,1.0212447769643986
2.9279812235009093,0.0200476232528687,-0.0156680119514465,0.00578509483337389,1.0212447769643986
2.928586917019988,-0.00390257205963134,-0.338995648670196,0.202176696395874,1.0212447769643986
2.9291926105390673,-0.21705931034088102,0.00588716382980347,-0.054090393447876105,1.0212447769643986
2.929798304058147,-0.00390257205963134,-0.0468032658576965,0.00818011436462389,1.0212447769643986
2.9304039975772262,0.06794801387786871,-0.0228530705451965,0.14469622764587398,1.0212447769643986
2.931009691096305,0.0320227209091187,-0.142604047107697,0.0632655635833739,1.0212447769643986
2.931615384615385,-0.195504134559631,-0.0396182072639465,-0.025350159072876098,1.0212447769643986
2.932221078134464,0.0392077795028687,0.07294771070480349,0.10158587608337401,1.0212447769643986
2.932826771653543,0.0176526037216187,-0.061173383045196504,0.331507751083374,1.0212447769643986
2.933432465172623,-0.15239378299713102,-0.061173383045196504,0.10637591514587401,1.0212447769643986
2.934038158691702,0.0559729162216187,-0.0707534611701965,-0.00139996376037611,1.0212447769643986
2.9346438522107814,-0.118863509559631,-0.142604047107697,0.0632655635833739,1.0212447769643986
2.935249545729861,-0.205084212684631,-0.0947036564826965,-0.00379498329162611,1.0212447769643986
2.9358552392489403,-0.044617904090881295,0.053787554454803495,0.118351012802124,1.0212447769643986
2.936460932768019,-0.0757531579971313,-0.0923086369514465,0.319532653427124,1.0212447769643986
2.9370666262870992,-0.15718382205963102,-0.00369291429519653,0.319532653427124,1.0212447769643986
2.937672319806178,0.16135377559661898,0.0370224177360535,0.22852191123962398,1.0212447769643986
2.9382780133252573,0.0607629552841187,-0.173739301013947,0.199781676864624,1.0212447769643986
2.938883706844337,-0.169158919715881,-0.030038129138946497,-0.0972007450103761,1.0212447769643986
2.939489400363416,-0.252984603309631,0.132823198986053,0.14948626670837398,1.0212447769643986
2.940095093882495,0.043997818565368704,0.056182573986053495,0.27642230186462396,1.0212447769643986
2.940700787401575,0.103873306846619,0.0418124567985535,0.132721129989624,1.0212447769643986
2.9413064809206544,0.0296277013778687,0.0968979060173035,0.18301654014587398,1.0212447769643986
2.941912174439733,0.249969498252869,0.025047320079803502,0.262052184677124,1.0212447769643986
2.9425178679588133,0.0895031896591187,-0.106678754138947,0.343482848739624,1.0212447769643986
2.943123561477892,-0.106888411903381,-0.0970986760139465,-0.0277451786041261,1.0212447769643986
2.9437292549969722,0.048787857627868705,-0.034828168201446505,0.11356097373962401,1.0212447769643986
2.944334948516051,0.271524674034119,0.00349214429855347,0.199781676864624,1.0212447769643986
2.9449406420351303,0.0966882482528687,-0.0228530705451965,0.139906188583374,1.0212447769643986
2.94554633555421,-0.0110876306533813,-0.0515933049201965,0.302767516708374,1.0212447769643986
2.946152029073289,-0.00390257205963134,-0.0539883244514465,-0.0660654911041261,1.0212447769643986
2.946757722592368,0.046392838096618705,-0.118653851795197,0.422518493270874,0.9964169928131333
2.947363416111448,-0.13802366580963102,-0.0539883244514465,0.180621520614624,0.9964169928131333
2.9479691096305274,-0.0805431970596313,0.00349214429855347,-0.288802307510376,0.9964169928131333
2.948574803149606,0.051182877159118706,-0.0228530705451965,0.211756774520874,0.9964169928131333
2.9491804966686863,-0.0254577478408813,-0.0731484807014465,0.257262145614624,0.9964169928131333
2.949786190187765,-0.109283431434631,-0.233614789295197,0.147091247177124,0.9964169928131333
2.9503918837068444,-0.0757531579971313,-0.034828168201446505,0.0848207393646239,0.9964169928131333
2.950997577225924,0.0607629552841187,0.180723589611053,0.274027282333374,0.9964169928131333
2.9516032707450033,-0.0901232751846313,-0.0444082463264465,0.21415179405212398,0.9964169928131333
2.952208964264082,0.00328248653411866,-0.0156680119514465,0.309952575302124,0.9964169928131333
2.952814657783162,-0.0134826501846313,-0.034828168201446505,0.300372497177124,0.9964169928131333
2.953420351302241,-0.0278527673721313,-0.020458051013946498,0.036920348739623896,0.9964169928131333
2.9540260448213203,-0.06377806034088129,-0.133023968982697,0.137511169052124,0.9964169928131333
2.9546317383404004,-0.0949133142471313,-0.113863812732697,-0.111570862197876,0.9964169928131333
2.955237431859479,-0.06377806034088129,0.0657626521110535,0.30516253623962397,0.9964169928131333
2.955843125378558,-0.0278527673721313,-0.0444082463264465,0.40575335655212397,0.9964169928131333
2.956448818897638,0.0392077795028687,-0.152184125232697,0.0105751338958739,0.9964169928131333
2.9570545124167174,0.209254166221619,0.0130722224235535,-0.049300354385376104,0.9964169928131333
2.957660205935796,-0.0541979822158813,0.0394174372673035,0.14948626670837398,0.9964169928131333
2.9582658994548763,-0.114073470497131,-0.058778363513946504,0.151881286239624,0.9964169928131333
2.958871592973955,0.0751330724716187,-0.219244672107697,-0.20018658485412602,0.9964169928131333
2.959477286493035,-0.042222884559631295,-0.0779385197639465,0.039315368270873896,0.9964169928131333
2.960082980012114,-0.00629759159088134,0.175933550548553,0.0465004268646239,0.9964169928131333
2.9606886735311932,0.0607629552841187,-0.109073773670197,0.0417103878021239,0.9964169928131333
2.9612943670502734,-0.135628646278381,-0.00608793382644653,0.11356097373962401,0.9964169928131333
2.961900060569352,0.0200476232528687,-0.0539883244514465,0.0632655635833739,0.9964169928131333
2.962505754088431,-0.15239378299713102,0.0466024958610535,0.00578509483337389,0.9964169928131333
2.963111447607511,-0.171553939247131,-0.032433148670196504,0.202176696395874,0.9964169928131333
2.9637171411265903,-0.114073470497131,-0.0228530705451965,0.034525329208373895,0.9964169928131333
2.964322834645669,-0.0853332361221313,-0.0755435002326965,0.058475524520873894,0.9964169928131333
2.9649285281647493,-0.047012923622131296,-0.130628949451447,0.381803161239624,0.9964169928131333
2.965534221683828,-0.0949133142471313,-0.0683584416389465,-0.0421152957916261,0.9964169928131333
2.9661399152029073,-0.0613830408096313,-0.291095258045197,-0.0373252567291261,0.9964169928131333
2.966745608721987,-0.176343978309631,-0.018063031482696498,0.0417103878021239,0.9964169928131333
2.9673513022410662,-0.0973083337783813,-0.0132729924201965,-0.0229551395416261,0.9964169928131333
2.967956995760145,-0.0949133142471313,0.0657626521110535,0.254867126083374,0.9964169928131333
2.968562689279225,0.0727380529403687,-0.0444082463264465,0.11116595420837401,0.9964169928131333
2.969168382798304,0.06315797481536871,0.0992929255485535,0.00578509483337389,0.9964169928131333
2.969774076317383,0.000887467002868658,-0.0659634221076965,-0.0349302371978761,0.9964169928131333
2.9703797698364633,0.041602799034118704,-0.159369183826447,0.10637591514587401,0.9964169928131333
2.970985463355542,0.0607629552841187,0.0633676325798035,-0.0469053348541261,0.9964169928131333
2.971591156874621,-0.121258529090881,-0.0994936955451965,0.0800307003021239,0.9964169928131333
2.972196850393701,-0.135628646278381,0.283709429454803,0.21894183311462398,0.9964169928131333
2.9728025439127803,-0.03503782596588129,-0.0108779728889465,0.0441054073333739,0.9964169928131333
2.973408237431859,-0.047012923622131296,0.029837359142303503,0.120746032333374,0.9964169928131333
2.9740139309509392,0.0296277013778687,0.262154253673553,0.206966735458374,0.9964169928131333
2.974619624470018,-0.0685680994033813,-0.018063031482696498,0.180621520614624,0.9964169928131333
2.975225317989098,0.0224426427841187,-0.00848295335769653,0.750636169052124,0.9964169928131333
2.975831011508177,0.0751330724716187,-0.0396182072639465,0.22852191123962398,0.9964169928131333
2.976436705027256,-0.0973083337783813,0.00349214429855347,0.039315368270873896,0.9964169928131333
2.9770423985463363,0.053577896690368707,0.178328570079803,0.697945739364624,0.9964169928131333
2.977648092065415,0.108663345909119,0.058577593517303496,0.015365172958373901,0.9964169928131333
2.978253785584494,0.0727380529403687,-0.0635684025764465,-0.219346741104126,0.9964169928131333
2.978859479103574,0.0966882482528687,-0.0252480900764465,0.09679583702087391,0.9964169928131333
2.9794651726226533,0.113453384971619,-0.188109418201447,-0.00619000282287611,0.9964169928131333
2.980070866141732,-0.0685680994033813,-0.032433148670196504,0.09919085655212391,0.9964169928131333
2.9806765596608122,0.0344177404403687,-0.137814008045197,0.230916930770874,0.9964169928131333
2.981282253179891,-0.0589880212783813,0.0921078669548035,0.036920348739623896,0.9964169928131333
2.9818879466989703,0.048787857627868705,0.060972613048553496,0.0225502315521239,0.9964169928131333
2.98249364021805,-0.00150755252838134,-0.030038129138946497,-0.111570862197876,0.9964169928131333
2.983099333737129,-0.0709631189346313,0.190303667736053,0.0824257198333739,0.9964169928131333
2.983705027256208,0.0104675451278687,0.151983355236053,0.142301208114624,0.9964169928131333
2.984310720775288,-0.123653548622131,-0.00369291429519653,0.16864642295837398,0.9964169928131333
2.984916414294367,0.000887467002868658,-0.212059613513947,0.09440081748962391,0.9964169928131333
2.985522107813446,-0.106888411903381,0.053787554454803495,-0.113965881729126,0.9964169928131333
2.9861278013325263,-0.0541979822158813,-0.128233929920197,0.17343646202087398,0.9964169928131333
2.986733494851605,0.182908951377869,-0.185714398670197,0.0656605831146239,0.9964169928131333
2.987339188370684,0.329005142784119,0.113663042736053,-0.0181651004791261,0.9964169928131333
2.987944881889764,0.209254166221619,-0.0779385197639465,0.0297352901458739,0.9964169928131333
2.9885505754088433,0.0847131505966187,-0.116258832263947,0.09919085655212391,0.9964169928131333
2.989156268927922,-0.16197386112213102,-0.135418988513947,0.151881286239624,0.9964169928131333
2.989761962447002,-0.039827865028381294,-0.238404828357697,0.0465004268646239,0.9964169928131333
2.990367655966081,0.07034303340911871,-0.0659634221076965,-0.00379498329162611,0.9964169928131333
2.9909733494851602,0.223624283409119,-0.0444082463264465,0.199781676864624,0.9964169928131333
2.99157904300424,0.17572389278411898,-0.058778363513946504,0.18301654014587398,0.9964169928131333
2.992184736523319,-0.245799544715881,-0.061173383045196504,0.060870544052123894,0.9964169928131333
2.9927904300423993,-0.0853332361221313,-0.185714398670197,0.17822650108337398,0.9964169928131333
2.993396123561478,-0.173948958778381,0.00109712476730347,0.130326110458374,0.9964169928131333
2.994001817080557,-0.044617904090881295,-0.0228530705451965,0.0728456417083739,0.9964169928131333
2.994607510599637,0.26673463497161903,-0.061173383045196504,-0.056485412979126105,0.9964169928131333
2.9952132041187163,0.0775280920028687,0.168748491954803,0.08721575889587391,0.9964169928131333
2.995818897637795,0.000887467002868658,-0.034828168201446505,0.192596618270874,0.9964169928131333
2.996424591156875,-0.0949133142471313,-0.0779385197639465,0.22373187217712398,0.9964169928131333
2.997030284675954,-0.039827865028381294,0.0657626521110535,0.20457171592712398,0.9964169928131333
2.9976359781950332,0.0368127599716187,-0.032433148670196504,0.22852191123962398,0.9964169928131333
2.998241671714113,-0.19789915409088102,-0.0803335392951965,0.491974059677124,0.9964169928131333
2.998847365233192,0.0200476232528687,-0.034828168201446505,0.211756774520874,0.9964169928131333
2.999453058752271,0.0296277013778687,-0.0755435002326965,0.0536854854583739,0.9964169928131333
3.000058752271351,-0.0110876306533813,0.0178622614860535,0.216546813583374,0.9964169928131333
3.0006644457904303,-0.0518029626846313,0.0322323786735535,0.161461364364624,0.9964169928131333
3.001270139309509,-0.0829382165908813,0.0466024958610535,0.130326110458374,0.9964169928131333
3.0018758328285893,-0.0158776697158813,-0.144999066638947,0.36503802452087397,0.9964169928131333
3.002481526347668,-0.0949133142471313,-0.10428373460769699,0.161461364364624,0.9964169928131333
3.0030872198667473,-0.00629759159088134,-0.00608793382644653,0.0177601924896239,0.9964169928131333
3.003692913385827,-0.135628646278381,-0.0970986760139465,0.0824257198333739,0.9964169928131333
3.0042986069049062,-0.03503782596588129,0.0202572810173035,0.331507751083374,0.9964169928131333
3.004904300423985,0.0104675451278687,0.053787554454803495,0.17343646202087398,0.9964169928131333
3.005509993943065,-0.0661730798721313,0.120848101329803,-0.0684605106353761,0.9964169928131333
3.006115687462144,0.008072525596618661,0.00828218336105347,0.127931090927124,0.9964169928131333
3.006721380981224,0.0942932287216187,-0.331810590076446,0.5829848018646241,0.9964169928131333
3.0073270745003033,0.0368127599716187,-0.147394086170197,0.0488954463958739,0.9964169928131333
3.007932768019382,-0.0278527673721313,0.0106772028923035,0.039315368270873896,0.9964169928131333
3.0085384615384623,0.0152575841903687,-0.0156680119514465,0.350667907333374,0.9964169928131333
3.009144155057541,-0.0134826501846313,0.00109712476730347,0.139906188583374,0.9964169928131333
3.0097498485766203,0.0990832677841187,-0.192899457263947,0.317137633895874,0.9964169928131333
3.0103555420957,0.103873306846619,0.0178622614860535,-0.0421152957916261,0.9964169928131333
3.0109612356147792,-0.0134826501846313,0.056182573986053495,0.290792419052124,0.9964169928131333
3.011566929133858,-0.24340452518463102,0.0657626521110535,0.0536854854583739,0.9964169928131333
3.012172622652938,-0.0182726892471313,0.0801327692985535,0.10158587608337401,0.9964169928131333
3.012778316172017,0.0344177404403687,-0.202479535388947,0.14948626670837398,0.9964169928131333
3.013384009691096,-0.185924056434631,0.06815767164230349,-0.118755920791626,0.9964169928131333
3.0139897032101763,-0.03503782596588129,0.07534273023605349,0.0752406612396239,0.9964169928131333
3.014595396729255,-0.0781481775283813,-0.267145062732697,0.302767516708374,0.9964169928131333
3.0152010902483344,0.0176526037216187,0.0346273982048035,0.0129701534271239,0.9964169928131333
3.015806783767414,-0.12844358768463102,-0.00129789476394653,0.10877093467712401,0.9964169928131333
3.0164124772864933,0.0392077795028687,-0.0899136174201965,0.259657165145874,0.9964169928131333
3.017018170805572,0.199674088096619,0.130428179454803,-0.013375061416626099,0.9964169928131333
3.0176238643246522,0.12542848262786901,0.058577593517303496,0.0129701534271239,0.9964169928131333
3.018229557843731,-0.0182726892471313,0.060972613048553496,-0.0948057254791261,0.9964169928131333
3.0188352513628103,-0.19310911502838102,0.00349214429855347,-0.0205601200103761,0.9964169928131333
3.01944094488189,0.0847131505966187,-0.0923086369514465,0.288397399520874,0.9964169928131333
3.020046638400969,0.041602799034118704,0.0202572810173035,0.463233825302124,0.9964169928131333
3.020652331920048,0.0152575841903687,-0.00129789476394653,0.15427630577087398,0.9964169928131333
3.021258025439128,-0.0805431970596313,-0.111468793201447,0.216546813583374,0.9964169928131333
3.0218637189582074,-0.0278527673721313,-0.034828168201446505,0.240497008895874,0.9964169928131333
3.022469412477286,0.0392077795028687,-0.200084515857697,-0.0349302371978761,0.9964169928131333
3.0230751059963663,-0.164368880653381,-0.135418988513947,0.00578509483337389,0.9964169928131333
3.023680799515445,-0.106888411903381,-0.135418988513947,0.0680556026458739,0.9964169928131333
3.0242864930345252,0.0344177404403687,-0.0755435002326965,0.137511169052124,0.9964169928131333
3.024892186553604,0.053577896690368707,0.120848101329803,0.147091247177124,0.9964169928131333
3.0254978800726833,-0.164368880653381,-0.0468032658576965,0.42491351280212397,0.9964169928131333
3.026103573591763,0.06315797481536871,0.113663042736053,0.22373187217712398,0.9964169928131333
3.026709267110842,0.0559729162216187,0.0825277888298035,0.0441054073333739,0.9964169928131333
3.027314960629921,-0.121258529090881,0.0921078669548035,0.123141051864624,0.9964169928131333
3.027920654149001,-0.0685680994033813,0.142403277111053,-0.14510113563537602,0.9964169928131333
3.0285263476680804,0.0775280920028687,0.0394174372673035,0.0800307003021239,0.9964169928131333
3.029132041187159,-0.0326428064346313,-0.061173383045196504,0.297977477645874,0.9964169928131333
3.0297377347062393,-0.0134826501846313,0.053787554454803495,0.137511169052124,0.9964169928131333
3.030343428225318,0.0871081701278687,0.053787554454803495,0.0105751338958739,0.9964169928131333
3.0309491217443973,0.06555299434661871,-0.0707534611701965,-0.00379498329162611,0.9964169928131333
3.031554815263477,0.101478287315369,-0.111468793201447,0.20936175498962398,0.9964169928131333
3.0321605087825563,-0.00390257205963134,-0.140209027576447,0.15427630577087398,0.9964169928131333
3.032766202301635,0.0128625646591187,0.0968979060173035,-0.13552105751037602,0.9964169928131333
3.033371895820715,0.0823181310653687,0.00349214429855347,-0.0277451786041261,0.9964169928131333
3.033977589339794,-0.0326428064346313,-0.0228530705451965,0.16864642295837398,0.9964169928131333
3.0345832828588732,0.168538834190369,-0.0396182072639465,0.20457171592712398,0.9964169928131333
3.0351889763779534,0.0320227209091187,0.0825277888298035,-0.0660654911041261,0.9964169928131333
3.035794669897032,-0.205084212684631,0.00109712476730347,0.16385638389587398,0.9964169928131333
3.036400363416111,0.0248376623153687,0.0466024958610535,-0.049300354385376104,0.9964169928131333
3.037006056935191,-0.0877282556533813,-0.123443890857697,0.21894183311462398,0.9964169928131333
3.0376117504542703,-0.0565930017471313,-0.0539883244514465,0.22852191123962398,0.9964169928131333
3.038217443973349,-0.0997033533096313,0.219043902111053,-0.0732505496978761,0.9964169928131333
3.0388231374924293,-0.0589880212783813,-0.0228530705451965,0.300372497177124,0.9964169928131333
3.039428831011508,0.0847131505966187,-0.0970986760139465,0.161461364364624,0.9964169928131333
3.0400345245305873,0.111058365440369,-0.034828168201446505,0.245287047958374,0.9964169928131333
3.040640218049667,0.07034303340911871,-0.0899136174201965,0.175831481552124,0.9964169928131333
3.0412459115687462,-0.037432845497131294,0.00349214429855347,0.0297352901458739,0.9964169928131333
3.0418516050878264,-0.0565930017471313,0.07534273023605349,-0.0732505496978761,0.9964169928131333
3.042457298606905,0.0152575841903687,-0.0851235783576965,0.190201598739624,0.9964169928131333
3.043062992125984,-0.0565930017471313,0.058577593517303496,0.30516253623962397,0.9964169928131333
3.043668685645064,0.0128625646591187,-0.121048871326447,0.11356097373962401,0.9964169928131333
3.0442743791641433,-0.0206677087783813,0.0489975153923035,0.130326110458374,0.9964169928131333
3.044880072683222,-0.0541979822158813,-0.032433148670196504,0.175831481552124,0.9964169928131333
3.0454857662023023,-0.123653548622131,-0.159369183826447,0.202176696395874,0.9964169928131333
3.046091459721381,-0.042222884559631295,0.130428179454803,-0.00858502235412611,0.9964169928131333
3.0466971532404603,0.118243424034119,-0.0444082463264465,-0.116360901260376,0.9317990209256467
3.04730284675954,-0.0949133142471313,-0.0707534611701965,0.17343646202087398,0.9317990209256467
3.0479085402786192,-0.233824447059631,-0.133023968982697,-0.0229551395416261,0.9317990209256467
3.048514233797698,0.06555299434661871,-0.247984906482697,-0.0157700809478761,0.9317990209256467
3.049119927316778,0.043997818565368704,-0.0779385197639465,0.137511169052124,0.9317990209256467
3.049725620835857,-0.0661730798721313,-0.10428373460769699,0.0680556026458739,0.9317990209256467
3.050331314354936,-0.0589880212783813,0.027442339611053503,0.0704506221771239,0.9317990209256467
3.0509370078740163,-0.224244368934631,-0.142604047107697,0.194991637802124,0.9317990209256467
3.051542701393095,0.115848404502869,-0.106678754138947,-0.025350159072876098,0.9317990209256467
3.052148394912174,-0.13802366580963102,0.0849228083610535,-0.0229551395416261,0.9317990209256467
3.052754088431254,-0.044617904090881295,-0.00129789476394653,0.14469622764587398,0.9317990209256467
3.0533597819503333,0.00567750606536866,0.058577593517303496,0.0512904659271239,0.9317990209256467
3.053965475469413,-0.18831907596588102,-0.298280316638947,0.216546813583374,0.9317990209256467
3.0545711689884922,-0.0326428064346313,-0.101888715076447,0.00578509483337389,0.9317990209256467
3.055176862507571,-0.104493392372131,0.0801327692985535,-0.0205601200103761,0.9317990209256467
3.0557825560266503,-0.0805431970596313,-0.0899136174201965,0.0752406612396239,0.9317990209256467
3.05638824954573,-0.0973083337783813,0.00349214429855347,0.281212340927124,0.9317990209256467
3.056993943064809,0.108663345909119,0.0873178278923035,0.0632655635833739,0.9317990209256467
3.0575996365838893,0.00328248653411866,-0.0491982853889465,0.199781676864624,0.9317990209256467
3.058205330102968,-0.255379622840881,-0.0899136174201965,0.185411559677124,0.9317990209256467
3.058811023622047,-0.114073470497131,-0.0372231877326965,-0.0325352176666261,0.9317990209256467
3.059416717141127,-0.0949133142471313,0.07294771070480349,-0.0421152957916261,0.9317990209256467
3.0600224106602063,0.0296277013778687,0.00828218336105347,-0.0684605106353761,0.9317990209256467
3.060628104179285,-0.0901232751846313,-0.152184125232697,0.130326110458374,0.9317990209256467
3.0612337976983652,-0.0877282556533813,-0.0539883244514465,-0.128335998916626,0.9317990209256467
3.061839491217444,-0.0685680994033813,-0.020458051013946498,0.341087829208374,0.9317990209256467
3.0624451847365233,-0.116468490028381,-0.0994936955451965,0.0776356807708739,0.9317990209256467
3.063050878255603,0.06555299434661871,0.0801327692985535,0.08721575889587391,0.9317990209256467
3.063656571774682,-0.0829382165908813,-0.0659634221076965,0.125536071395874,0.9317990209256467
3.064262265293761,0.06555299434661871,-0.0444082463264465,0.17822650108337398,0.9317990209256467
3.064867958812841,-0.26256468143463096,0.0202572810173035,0.537479430770874,0.9317990209256467
3.06547365233192,-0.039827865028381294,-0.0707534611701965,-0.0229551395416261,0.9317990209256467
3.066079345850999,-0.00869261112213134,-0.00848295335769653,-0.08283062782287609,0.9317990209256467
3.0666850393700793,0.115848404502869,-0.0851235783576965,0.693155700302124,0.9317990209256467
3.067290732889158,-0.0709631189346313,0.0106772028923035,0.278817321395874,0.9317990209256467
3.067896426408237,-0.36315550174713096,0.027442339611053503,-0.061275452041626106,0.9317990209256467
3.068502119927317,-0.0518029626846313,-0.130628949451447,0.317137633895874,0.9317990209256467
3.0691078134463963,-0.116468490028381,-0.0132729924201965,-0.121150940322876,0.9317990209256467
3.069713506965475,0.06555299434661871,0.123243120861053,0.0297352901458739,0.9317990209256467
3.070319200484555,-0.0925182947158813,0.053787554454803495,0.309952575302124,0.9317990209256467
3.070924894003634,0.0942932287216187,-0.0372231877326965,0.120746032333374,0.9317990209256467
3.071530587522714,0.0248376623153687,-0.0994936955451965,0.0800307003021239,0.9317990209256467
3.072136281041793,-0.18831907596588102,-0.0108779728889465,0.0632655635833739,0.9317990209256467
3.072741974560872,0.0248376623153687,-0.0947036564826965,0.257262145614624,0.9317990209256467
3.0733476680799514,-0.18831907596588102,0.0968979060173035,0.30516253623962397,0.9317990209256467
3.073953361599031,-0.23861448612213101,0.056182573986053495,0.259657165145874,0.9317990209256467
3.07455905511811,0.0224426427841187,-0.118653851795197,0.22373187217712398,0.9317990209256467
3.07516474863719,0.22122926387786898,-0.0563833439826965,0.16864642295837398,0.9317990209256467
3.0757704421562693,0.108663345909119,-0.0515933049201965,0.297977477645874,0.9317990209256467
3.076376135675348,-0.06377806034088129,0.125638140392303,0.120746032333374,0.9317990209256467
3.076981829194428,-0.219454329872131,-0.030038129138946497,-0.0756455692291261,0.9317990209256467
3.077587522713507,-0.0805431970596313,-0.137814008045197,0.32671771202087396,0.9317990209256467
3.0781932162325862,-0.00390257205963134,0.07055269117355349,0.0752406612396239,0.9317990209256467
3.078798909751666,-0.114073470497131,0.0777377497673035,-0.159471252822876,0.9317990209256467
3.079404603270745,-0.14281370487213102,0.0513925349235535,0.202176696395874,0.9317990209256467
3.0800102967898244,-0.0781481775283813,0.0346273982048035,0.14948626670837398,0.9317990209256467
3.080615990308904,0.0966882482528687,-0.0228530705451965,0.10637591514587401,0.9317990209256467
3.081221683827983,-0.111678450965881,0.07294771070480349,-0.08043560829162609,0.9317990209256467
3.081827377347062,0.00567750606536866,0.053787554454803495,0.0800307003021239,0.9317990209256467
3.0824330708661423,0.17572389278411898,0.0657626521110535,0.0273402706146239,0.9317990209256467
3.083038764385221,-0.0877282556533813,0.101687945079803,0.26684222373962396,0.9317990209256467
3.0836444579043003,-0.102098372840881,0.111268023204803,0.09440081748962391,0.9317990209256467
3.08425015142338,-0.0925182947158813,-0.0515933049201965,-0.0708555301666261,0.9317990209256467
3.0848558449424592,-0.0182726892471313,-0.190504437732697,0.020155212020873902,0.9317990209256467
3.085461538461538,0.0224426427841187,0.0178622614860535,-0.142706116104126,0.9317990209256467
3.086067231980618,-0.279329818153381,-0.0659634221076965,0.08961077842712391,0.9317990209256467
3.0866729254996974,-0.0278527673721313,0.00109712476730347,0.14469622764587398,0.9317990209256467
3.087278619018776,0.00567750606536866,0.0322323786735535,-0.0397202762603761,0.9317990209256467
3.087884312537856,-0.039827865028381294,0.0801327692985535,0.142301208114624,0.9317990209256467
3.088490006056935,0.0607629552841187,0.0945028864860535,0.17822650108337398,0.9317990209256467
3.0890956995760153,0.163748795127869,-0.133023968982697,0.22373187217712398,0.9317990209256467
3.089701393095094,-0.123653548622131,0.056182573986053495,0.11356097373962401,0.9317990209256467
3.0903070866141733,-0.0901232751846313,-0.0468032658576965,-0.00619000282287611,0.9317990209256467
3.090912780133253,0.0799231115341187,-0.192899457263947,0.412938415145874,0.9317990209256467
3.0915184736523322,-0.171553939247131,0.053787554454803495,-0.08522564735412609,0.9317990209256467
3.092124167171411,-0.0230627283096313,0.156773394298553,-0.061275452041626106,0.9317990209256467
3.092729860690491,-0.22663938846588103,-0.0276431096076965,0.29558245811462397,0.9317990209256467
3.0933355542095704,-0.145208724403381,0.154378374767303,0.0177601924896239,0.9317990209256467
3.093941247728649,0.0176526037216187,0.0777377497673035,0.0465004268646239,0.9317990209256467
3.094546941247729,-0.241009505653381,-0.118653851795197,0.118351012802124,0.9317990209256467
3.095152634766808,0.048787857627868705,0.0825277888298035,0.432098571395874,0.9317990209256467
3.0957583282858874,0.21643922481536898,0.0466024958610535,0.6811806026458741,0.9317990209256467
3.096364021804967,-0.12844358768463102,0.00349214429855347,0.015365172958373901,0.9317990209256467
3.0969697153240463,-0.0302477869033813,-0.0228530705451965,0.468023864364624,0.9317990209256467
3.097575408843125,0.041602799034118704,0.0849228083610535,0.46562884483337397,0.9317990209256467
3.0981811023622052,-0.0302477869033813,0.0897128474235535,-0.00858502235412611,0.9317990209256467
3.098786795881284,0.051182877159118706,-0.00369291429519653,0.393778258895874,0.9317990209256467
3.0993924894003633,0.0296277013778687,-0.0659634221076965,0.142301208114624,0.9317990209256467
3.0999981829194434,-0.114073470497131,0.0322323786735535,0.300372497177124,0.9317990209256467
3.100603876438522,0.041602799034118704,0.0346273982048035,0.317137633895874,0.9317990209256467
3.101209569957601,-0.0877282556533813,0.056182573986053495,0.0129701534271239,0.9317990209256467
3.101815263476681,-0.0781481775283813,-0.0276431096076965,0.142301208114624,0.9317990209256467
3.1024209569957604,0.0871081701278687,-0.106678754138947,-0.058880432510376106,0.9317990209256467
3.103026650514839,0.053577896690368707,0.0945028864860535,0.16864642295837398,0.9317990209256467
3.1036323440339193,-0.15239378299713102,0.0921078669548035,0.216546813583374,0.9317990209256467
3.104238037552998,-0.159578841590881,-0.0875185978889465,-0.0421152957916261,0.9317990209256467
3.1048437310720782,0.06315797481536871,0.0921078669548035,0.147091247177124,0.9317990209256467
3.105449424591157,0.0128625646591187,-0.018063031482696498,0.0417103878021239,0.9317990209256467
3.1060551181102363,-0.0781481775283813,-0.147394086170197,0.135116149520874,0.9317990209256467
3.1066608116293164,0.0176526037216187,-0.058778363513946504,0.09200579795837391,0.9317990209256467
3.107266505148395,-0.12844358768463102,-0.118653851795197,0.0656605831146239,0.9317990209256467
3.107872198667474,-0.109283431434631,-0.214454633045197,0.0488954463958739,0.9317990209256467
3.108477892186554,0.139798599815369,0.0226523005485535,0.0728456417083739,0.9317990209256467
3.1090835857056334,-0.245799544715881,0.0657626521110535,0.0465004268646239,0.9317990209256467
3.109689279224712,-0.154788802528381,-0.0659634221076965,0.199781676864624,0.9317990209256467
3.1102949727437923,0.0799231115341187,0.0346273982048035,0.197386657333374,0.9317990209256467
3.110900666262871,-0.0565930017471313,0.135218218517303,0.185411559677124,0.9317990209256467
3.1115063597819503,-0.00869261112213134,0.00828218336105347,0.338692809677124,0.9317990209256467
3.11211205330103,-0.0997033533096313,-0.030038129138946497,0.14469622764587398,0.9317990209256467
3.1127177468201093,-0.0733581384658813,-0.0252480900764465,0.0297352901458739,0.9317990209256467
3.113323440339188,0.0248376623153687,-0.0731484807014465,-0.00379498329162611,0.9317990209256467
3.113929133858268,-0.06377806034088129,-0.0635684025764465,-0.049300354385376104,0.9317990209256467
3.114534827377347,-0.118863509559631,0.111268023204803,0.139906188583374,0.9317990209256467
3.1151405208964262,-0.037432845497131294,0.106477984142303,0.11116595420837401,0.9317990209256467
3.1157462144155064,0.24038942012786899,-0.183319379138947,0.039315368270873896,0.9317990209256467
3.116351907934585,-0.00390257205963134,-0.190504437732697,0.0680556026458739,0.9317990209256467
3.116957601453664,-0.15718382205963102,0.151983355236053,-0.133126037979126,0.9317990209256467
3.117563294972744,-0.0997033533096313,0.156773394298553,0.115955993270874,0.9317990209256467
3.1181689884918233,0.0176526037216187,0.0178622614860535,0.14948626670837398,0.9317990209256467
3.118774682010902,0.15656373653411898,-0.0683584416389465,0.216546813583374,0.9317990209256467
3.1193803755299823,-0.0158776697158813,-0.0563833439826965,0.0800307003021239,0.9317990209256467
3.119986069049061,-0.13802366580963102,0.0489975153923035,-0.051695373916626104,0.9317990209256467
3.1205917625681403,-0.0541979822158813,-0.0875185978889465,0.16385638389587398,0.9317990209256467
3.12119745608722,0.046392838096618705,-0.00608793382644653,0.0848207393646239,0.9317990209256467
3.1218031496062992,-0.00150755252838134,-0.0970986760139465,-0.0421152957916261,0.9317990209256467
3.1224088431253794,0.0559729162216187,-0.0468032658576965,0.257262145614624,0.9317990209256467
3.123014536644458,-0.00390257205963134,0.135218218517303,0.22373187217712398,0.9317990209256467
3.123620230163537,0.0248376623153687,0.0897128474235535,0.156671325302124,0.9317990209256467
3.124225923682617,0.0607629552841187,-0.0851235783576965,0.32671771202087396,0.9317990209256467
3.1248316172016963,0.0368127599716187,-0.123443890857697,0.221336852645874,0.9317990209256467
3.125437310720775,0.041602799034118704,-0.0276431096076965,0.5638246456146241,0.9317990209256467
3.1260430042398553,0.209254166221619,0.053787554454803495,0.127931090927124,0.9317990209256467
3.126648697758934,0.187698990440369,0.144798296642303,0.221336852645874,0.9317990209256467
3.1272543912780133,0.0990832677841187,0.140008257579803,0.6093300167083741,0.9317990209256467
3.127860084797093,-0.0709631189346313,-0.152184125232697,0.08721575889587391,0.9317990209256467
3.1284657783161722,-0.0565930017471313,-0.0779385197639465,-0.0660654911041261,0.9317990209256467
3.129071471835251,-0.0757531579971313,0.0873178278923035,0.0824257198333739,0.9317990209256467
3.129677165354331,-0.17873899784088101,-0.00369291429519653,0.060870544052123894,0.9317990209256467
3.13028285887341,0.22122926387786898,-0.020458051013946498,0.245287047958374,0.9317990209256467
3.130888552392489,-0.106888411903381,-0.018063031482696498,0.15427630577087398,0.9317990209256467
3.1314942459115693,-0.0901232751846313,0.0466024958610535,0.135116149520874,0.9317990209256467
3.132099939430648,-0.14760374393463102,0.104082964611053,0.0465004268646239,0.9317990209256467
3.132705632949727,-0.18831907596588102,-0.10428373460769699,0.0728456417083739,0.9317990209256467
3.133311326468807,0.0918982091903687,-0.109073773670197,0.235706969833374,0.9317990209256467
3.1339170199878863,0.06315797481536871,0.118453081798553,0.0704506221771239,0.9317990209256467
3.134522713506965,0.0128625646591187,-0.0491982853889465,0.00339007530212389,0.9317990209256467
3.1351284070260452,-0.102098372840881,-0.0899136174201965,-0.0636704715728761,0.9317990209256467
3.135734100545124,-0.171553939247131,-0.0851235783576965,0.262052184677124,0.9317990209256467
3.1363397940642033,-0.0781481775283813,-0.101888715076447,0.16385638389587398,0.9317990209256467
3.136945487583283,0.041602799034118704,0.204673784923553,0.0273402706146239,0.9317990209256467
3.137551181102362,0.163748795127869,0.108873003673553,0.0656605831146239,0.9317990209256467
3.1381568746214423,-0.0230627283096313,0.0178622614860535,0.09679583702087391,0.9317990209256467
3.138762568140521,-0.0326428064346313,-0.0444082463264465,0.118351012802124,0.9317990209256467
3.1393682616596,0.043997818565368704,0.0178622614860535,0.17343646202087398,0.9317990209256467
3.13997395517868,0.0823181310653687,-0.00129789476394653,0.15906634483337398,0.9317990209256467
3.1405796486977593,-0.047012923622131296,-0.0779385197639465,0.199781676864624,0.9317990209256467
3.141185342216838,0.0751330724716187,0.0873178278923035,0.139906188583374,0.9317990209256467
3.1417910357359182,0.185303970909119,-0.171344281482697,0.0680556026458739,0.9317990209256467
3.142396729254997,-0.00390257205963134,-0.154579144763947,-0.0421152957916261,0.9317990209256467
3.1430024227740763,0.149378677940369,0.0154672419548035,-0.0229551395416261,0.9317990209256467
3.143608116293156,0.0559729162216187,-0.0994936955451965,0.14469622764587398,0.9317990209256467
3.144213809812235,-0.130838607215881,-0.0108779728889465,0.0632655635833739,0.9317990209256467
3.144819503331314,-0.106888411903381,-0.149789105701447,0.127931090927124,0.9317990209256467
3.145425196850394,0.0823181310653687,-0.0994936955451965,-0.0397202762603761,0.9317990209256467
3.146030890369473,-0.03503782596588129,-0.0228530705451965,0.17822650108337398,0.9317990209256467
3.146636583888552,-0.047012923622131296,-0.178529340076447,0.09919085655212391,0.9857143820706754
3.1472422774076323,0.041602799034118704,-0.0372231877326965,-0.0636704715728761,0.9857143820706754
3.147847970926711,0.00328248653411866,0.060972613048553496,0.058475524520873894,0.9857143820706754
3.14845366444579,0.041602799034118704,0.00588716382980347,0.032130309677123894,0.9857143820706754
3.14905935796487,0.06315797481536871,-0.195294476795197,0.137511169052124,0.9857143820706754
3.1496650514839493,-0.145208724403381,-0.034828168201446505,0.20457171592712398,0.9857143820706754
3.150270745003028,-0.324835189247131,0.116058062267303,0.274027282333374,0.9857143820706754
3.150876438522108,-0.145208724403381,-0.135418988513947,0.10158587608337401,0.9857143820706754
3.151482132041187,-0.0949133142471313,0.00109712476730347,-0.0301401981353761,0.9857143820706754
3.152087825560267,0.00567750606536866,0.111268023204803,-0.0205601200103761,0.9857143820706754
3.152693519079346,0.233204361534119,-0.236009808826447,0.10637591514587401,0.9857143820706754
3.153299212598425,0.0559729162216187,-0.101888715076447,0.11116595420837401,0.9857143820706754
3.1539049061175044,-0.0853332361221313,0.07055269117355349,0.302767516708374,0.9857143820706754
3.154510599636584,0.0104675451278687,0.0442074763298035,0.264447204208374,0.9857143820706754
3.155116293155663,0.185303970909119,0.140008257579803,-0.00379498329162611,0.9857143820706754
3.155721986674743,-0.0589880212783813,0.029837359142303503,0.515924254989624,0.9857143820706754
3.1563276801938223,-0.0757531579971313,-0.020458051013946498,0.6237001338958741,0.9857143820706754
3.156933373712901,0.0847131505966187,-0.133023968982697,0.278817321395874,0.9857143820706754
3.157539067231981,0.06794801387786871,0.0801327692985535,0.142301208114624,0.9857143820706754
3.15814476075106,-0.25058958377838103,0.125638140392303,-0.0684605106353761,0.9857143820706754
3.1587504542701392,-0.047012923622131296,0.0154672419548035,-0.14031109657287602,0.9857143820706754
3.159356147789219,0.0751330724716187,0.125638140392303,0.08721575889587391,0.9857143820706754
3.159961841308298,-0.06377806034088129,0.00588716382980347,0.09200579795837391,0.9857143820706754
3.1605675348273774,-0.037432845497131294,-0.0252480900764465,0.0656605831146239,0.9857143820706754
3.161173228346457,-0.044617904090881295,0.108873003673553,0.0824257198333739,0.9857143820706754
3.161778921865536,0.21164918575286898,0.197488726329803,0.17343646202087398,0.9857143820706754
3.162384615384615,-0.042222884559631295,0.025047320079803502,0.0776356807708739,0.9857143820706754
3.1629903089036953,-0.16676390018463103,0.130428179454803,-0.0373252567291261,0.9857143820706754
3.163596002422774,-0.0709631189346313,-0.113863812732697,0.175831481552124,0.9857143820706754
3.1642016959418533,0.000887467002868658,-0.195294476795197,0.166251403427124,0.9857143820706754
3.1648073894609334,-0.0925182947158813,0.0897128474235535,0.17343646202087398,0.9857143820706754
3.1654130829800122,0.00328248653411866,-0.0731484807014465,-0.101990784072876,0.9857143820706754
3.166018776499091,0.0176526037216187,-0.133023968982697,0.10877093467712401,0.9857143820706754
3.166624470018171,-0.0494079431533813,-0.156974164295197,0.202176696395874,0.9857143820706754
3.1672301635372504,0.0990832677841187,0.0178622614860535,0.034525329208373895,0.9857143820706754
3.167835857056329,-0.102098372840881,-0.0444082463264465,0.18301654014587398,0.9857143820706754
3.168441550575409,-0.0110876306533813,-0.137814008045197,0.17343646202087398,0.9857143820706754
3.169047244094488,-0.0733581384658813,0.07294771070480349,0.0560805049896239,0.9857143820706754
3.1696529376135683,0.0128625646591187,-0.00369291429519653,-0.09001568641662609,0.9857143820706754
3.170258631132647,-0.0925182947158813,-0.030038129138946497,0.11116595420837401,0.9857143820706754
3.1708643246517263,-0.0302477869033813,0.0106772028923035,0.132721129989624,0.9857143820706754
3.1714700181708064,0.06315797481536871,0.00588716382980347,0.35545794639587397,0.9857143820706754
3.1720757116898852,-0.03503782596588129,0.0418124567985535,0.32671771202087396,0.9857143820706754
3.172681405208964,0.06794801387786871,0.0968979060173035,0.24289202842712398,0.9857143820706754
3.173287098728044,-0.00150755252838134,0.104082964611053,0.278817321395874,0.9857143820706754
3.1738927922471234,0.0559729162216187,-0.00129789476394653,0.230916930770874,0.9857143820706754
3.174498485766202,-0.109283431434631,-0.121048871326447,0.24289202842712398,0.9857143820706754
3.175104179285282,-0.0877282556533813,0.00349214429855347,0.0536854854583739,0.9857143820706754
3.175709872804361,-0.03503782596588129,-0.231219769763947,0.0800307003021239,0.9857143820706754
3.1763155663234404,-0.0134826501846313,-0.00369291429519653,-0.025350159072876098,0.9857143820706754
3.17692125984252,-0.118863509559631,0.058577593517303496,0.08961077842712391,0.9857143820706754
3.1775269533615993,-0.12844358768463102,-0.33420560960769596,0.16864642295837398,0.9857143820706754
3.178132646880678,-0.18831907596588102,-0.020458051013946498,0.058475524520873894,0.9857143820706754
3.1787383403997582,-0.135628646278381,0.151983355236053,0.0656605831146239,0.9857143820706754
3.179344033918837,0.043997818565368704,0.0106772028923035,0.127931090927124,0.9857143820706754
3.1799497274379163,-0.0206677087783813,-0.109073773670197,0.20936175498962398,0.9857143820706754
3.1805554209569964,-0.0110876306533813,-0.176134320545197,-0.104385803604126,0.9857143820706754
3.181161114476075,-0.19789915409088102,-0.106678754138947,0.0177601924896239,0.9857143820706754
3.181766807995154,-0.12844358768463102,0.142403277111053,0.206966735458374,0.9857143820706754
3.182372501514234,-0.0973083337783813,-0.164159222888947,0.23810198936462398,0.9857143820706754
3.1829781950333134,-0.0518029626846313,0.101687945079803,0.058475524520873894,0.9857143820706754
3.183583888552392,-0.0709631189346313,0.159168413829803,-0.013375061416626099,0.9857143820706754
3.1841895820714723,-0.135628646278381,-0.0947036564826965,0.194991637802124,0.9857143820706754
3.184795275590551,-0.0565930017471313,-0.173739301013947,0.09919085655212391,0.9857143820706754
3.185400969109631,-0.15718382205963102,-0.142604047107697,0.139906188583374,0.9857143820706754
3.18600666262871,-0.0757531579971313,0.07534273023605349,-0.0229551395416261,0.9857143820706754
3.1866123561477893,0.0272326818466187,-0.00608793382644653,0.506344176864624,0.9857143820706754
3.1872180496668694,-0.0565930017471313,-0.0420132267951965,-0.00139996376037611,0.9857143820706754
3.187823743185948,-0.0326428064346313,0.0513925349235535,-0.243296936416626,0.9857143820706754
3.188429436705027,0.178118912315369,0.0657626521110535,0.125536071395874,0.9857143820706754
3.189035130224107,0.20685914669036898,-0.147394086170197,-0.0445103153228761,0.9857143820706754
3.1896408237431864,0.00567750606536866,0.0226523005485535,0.0249452510833739,0.9857143820706754
3.190246517262265,0.0392077795028687,-0.0156680119514465,-0.09001568641662609,0.9857143820706754
3.1908522107813453,0.106268326377869,0.0777377497673035,0.16864642295837398,0.9857143820706754
3.191457904300424,0.051182877159118706,-0.00608793382644653,0.274027282333374,0.9857143820706754
3.1920635978195033,0.06794801387786871,-0.0970986760139465,0.020155212020873902,0.9857143820706754
3.192669291338583,-0.16197386112213102,-0.113863812732697,-0.0325352176666261,0.9857143820706754
3.1932749848576623,0.0847131505966187,0.0226523005485535,0.185411559677124,0.9857143820706754
3.193880678376741,0.06555299434661871,0.0418124567985535,0.206966735458374,0.9857143820706754
3.194486371895821,-0.0685680994033813,-0.0156680119514465,0.180621520614624,0.9857143820706754
3.1950920654149,0.101478287315369,0.0442074763298035,0.21894183311462398,0.9857143820706754
3.1956977589339792,0.15656373653411898,-0.0875185978889465,-0.0421152957916261,0.9857143820706754
3.1963034524530594,0.0152575841903687,0.025047320079803502,0.24768206748962399,0.9857143820706754
3.196909145972138,-0.116468490028381,-0.0635684025764465,0.331507751083374,0.9857143820706754
3.197514839491217,-0.12844358768463102,-0.058778363513946504,0.17343646202087398,0.9857143820706754
3.198120533010297,-0.154788802528381,0.0418124567985535,0.24768206748962399,0.9857143820706754
3.1987262265293763,-0.123653548622131,-0.0827285588264465,-0.152286194229126,0.9857143820706754
3.199331920048455,-0.0541979822158813,-0.0563833439826965,0.288397399520874,0.9857143820706754
3.1999376135675353,0.252364517784119,-0.00608793382644653,0.350667907333374,0.9857143820706754
3.200543307086614,0.06794801387786871,-0.0851235783576965,0.09200579795837391,0.9857143820706754
3.2011490006056933,-0.20747923221588102,-0.0659634221076965,0.23331195030212398,0.9857143820706754
3.201754694124773,0.0368127599716187,-0.0228530705451965,0.14948626670837398,0.9857143820706754
3.2023603876438522,0.144588638877869,-0.0515933049201965,-0.0421152957916261,0.9857143820706754
3.2029660811629324,-0.135628646278381,-0.0899136174201965,0.135116149520874,0.9857143820706754
3.203571774682011,-0.047012923622131296,-0.212059613513947,0.264447204208374,0.9857143820706754
3.20417746820109,-0.16197386112213102,0.0418124567985535,0.0512904659271239,0.9857143820706754
3.20478316172017,-0.173948958778381,0.130428179454803,0.09200579795837391,0.9857143820706754
3.2053888552392493,-0.06377806034088129,-0.0659634221076965,0.09919085655212391,0.9857143820706754
3.205994548758328,-0.0949133142471313,-0.0228530705451965,0.0848207393646239,0.9857143820706754
3.2066002422774083,-0.106888411903381,0.00349214429855347,-0.0181651004791261,0.9857143820706754
3.207205935796487,-0.06377806034088129,-0.00129789476394653,0.09679583702087391,0.9857143820706754
3.2078116293155663,0.043997818565368704,-0.0108779728889465,0.0297352901458739,0.9857143820706754
3.208417322834646,0.0823181310653687,-0.0396182072639465,0.17822650108337398,0.9857143820706754
3.209023016353725,-0.0254577478408813,0.0394174372673035,0.348272887802124,0.9857143820706754
3.209628709872804,-0.21226927127838102,0.0418124567985535,0.151881286239624,0.9857143820706754
3.210234403391884,-0.15239378299713102,0.00588716382980347,0.171041442489624,0.9857143820706754
3.210840096910963,-0.102098372840881,0.0873178278923035,-0.13552105751037602,0.9857143820706754
3.211445790430042,0.0559729162216187,-0.116258832263947,0.0177601924896239,0.9857143820706754
3.2120514839491223,-0.0613830408096313,-0.0899136174201965,0.400963317489624,0.9857143820706754
3.212657177468201,-0.12844358768463102,-0.0851235783576965,0.185411559677124,0.9857143820706754
3.21326287098728,-0.288909896278381,-0.0659634221076965,0.036920348739623896,0.9857143820706754
3.21386856450636,0.0344177404403687,-0.0444082463264465,0.250077087020874,0.9857143820706754
3.2144742580254393,0.06315797481536871,-0.0947036564826965,0.21894183311462398,0.9857143820706754
3.215079951544518,-0.25058958377838103,0.0633676325798035,0.0704506221771239,0.9857143820706754
3.215685645063598,-0.0805431970596313,0.137613238048553,-0.257667053604126,0.9857143820706754
3.216291338582677,-0.047012923622131296,-0.0372231877326965,-0.09001568641662609,0.9857143820706754
3.2168970321017563,-0.00150755252838134,-0.0875185978889465,0.5278993526458741,0.9857143820706754
3.217502725620836,-0.14760374393463102,-0.178529340076447,0.8081166378021241,0.9857143820706754
3.218108419139915,-0.116468490028381,0.0657626521110535,0.0536854854583739,0.9857143820706754
3.218714112658994,0.101478287315369,0.125638140392303,-0.224136780166626,0.9857143820706754
3.219319806178074,0.0559729162216187,0.151983355236053,0.0441054073333739,0.9857143820706754
3.219925499697153,-0.0853332361221313,-0.137814008045197,0.199781676864624,0.9857143820706754
3.220531193216233,-0.33202024784088097,-0.190504437732697,-0.08762066688537609,0.9857143820706754
3.2211368867353123,-0.0829382165908813,0.242994097423553,-0.106780823135376,0.9857143820706754
3.221742580254391,0.0320227209091187,-0.018063031482696498,0.211756774520874,0.9857143820706754
3.222348273773471,-0.0805431970596313,-0.0108779728889465,0.09679583702087391,0.9857143820706754
3.22295396729255,-0.0613830408096313,0.300474566173553,0.10637591514587401,0.9857143820706754
3.2235596608116293,-0.0302477869033813,0.06815767164230349,0.09919085655212391,0.9857143820706754
3.224165354330709,-0.336810286903381,-0.259960004138947,0.274027282333374,0.9857143820706754
3.224771047849788,-0.16197386112213102,0.00828218336105347,-0.056485412979126105,0.9857143820706754
3.2253767413688674,-0.0302477869033813,-0.164159222888947,0.032130309677123894,0.9857143820706754
3.225982434887947,-0.209874251747131,-0.125838910388947,0.036920348739623896,0.9857143820706754
3.226588128407026,-0.236219466590881,-0.0707534611701965,0.137511169052124,0.9857143820706754
3.227193821926105,-0.33202024784088097,0.0489975153923035,0.0824257198333739,0.9857143820706754
3.2277995154451853,-0.0973083337783813,0.0897128474235535,0.185411559677124,0.9857143820706754
3.228405208964264,0.051182877159118706,-0.0396182072639465,0.317137633895874,0.9857143820706754
3.229010902483343,0.111058365440369,0.0394174372673035,0.0465004268646239,0.9857143820706754
3.229616596002423,-0.0757531579971313,-0.10428373460769699,0.039315368270873896,0.9857143820706754
3.2302222895215023,-0.200294173622131,-0.00608793382644653,0.000995055770873893,0.9857143820706754
3.230827983040581,0.0895031896591187,0.106477984142303,0.139906188583374,0.9857143820706754
3.231433676559661,0.187698990440369,-0.106678754138947,0.0680556026458739,0.9857143820706754
3.2320393700787404,-0.0158776697158813,-0.233614789295197,-0.0301401981353761,0.9857143820706754
3.23264506359782,0.123033463096619,0.058577593517303496,0.10398089561462401,0.9857143820706754
3.233250757116899,-0.14281370487213102,0.0849228083610535,0.135116149520874,0.9857143820706754
3.233856450635978,0.048787857627868705,-0.113863812732697,-0.0325352176666261,0.9857143820706754
3.2344621441550583,0.0775280920028687,-0.101888715076447,0.058475524520873894,0.9857143820706754
3.235067837674137,-0.181134017372131,0.0370224177360535,0.166251403427124,0.9857143820706754
3.235673531193216,0.120638443565369,-0.195294476795197,0.060870544052123894,0.9857143820706754
3.236279224712296,0.041602799034118704,-0.197689496326447,-0.049300354385376104,0.9857143820706754
3.2368849182313753,-0.0518029626846313,0.168748491954803,-0.166656311416626,0.9857143820706754
3.237490611750454,-0.135628646278381,-0.137814008045197,-0.0397202762603761,0.9857143820706754
3.238096305269534,-0.229034407997131,-0.123443890857697,0.0441054073333739,0.9857143820706754
3.2387019987886134,-0.0182726892471313,0.0849228083610535,0.08721575889587391,0.9857143820706754
3.239307692307692,-0.0589880212783813,-0.0228530705451965,0.226126891708374,0.9857143820706754
3.239913385826772,-0.154788802528381,0.00349214429855347,0.199781676864624,0.9857143820706754
3.240519079345851,0.046392838096618705,0.0992929255485535,0.015365172958373901,0.9857143820706754
3.2411247728649304,-0.102098372840881,-0.00129789476394653,0.0632655635833739,0.9857143820706754
3.24173046638401,-0.229034407997131,-0.0899136174201965,0.142301208114624,0.9857143820706754
3.242336159903089,-0.14281370487213102,-0.0947036564826965,0.20936175498962398,0.9857143820706754
3.242941853422168,-0.269749740028381,-0.0563833439826965,0.254867126083374,0.9857143820706754
3.2435475469412482,0.06794801387786871,-0.0731484807014465,0.32671771202087396,0.9857143820706754
3.244153240460327,0.0990832677841187,0.00349214429855347,0.120746032333374,0.9857143820706754
3.2447589339794063,-0.195504134559631,0.166353472423553,-0.054090393447876105,0.9857143820706754
3.2453646274984864,0.108663345909119,0.0226523005485535,0.130326110458374,0.9857143820706754
3.245970321017565,-0.109283431434631,0.0418124567985535,-0.08522564735412609,0.9857143820706754
3.246576014536644,-0.111678450965881,0.233414019298553,0.10877093467712401,0.8932047799438652
3.247181708055724,-0.121258529090881,0.113663042736053,0.22373187217712398,0.8932047799438652
3.2477874015748034,0.0224426427841187,-0.0108779728889465,0.132721129989624,0.8932047799438652
3.248393095093882,0.00328248653411866,-0.130628949451447,0.10398089561462401,0.8932047799438652
3.2489987886129623,0.199674088096619,-0.0491982853889465,-0.18102642860412602,0.8932047799438652
3.249604482132041,0.18051393184661899,-0.0252480900764465,0.240497008895874,0.8932047799438652
3.2502101756511212,-0.102098372840881,-0.118653851795197,0.147091247177124,0.8932047799438652
3.2508158691702,-0.0685680994033813,-0.0420132267951965,0.10877093467712401,0.8932047799438652
3.2514215626892793,-0.047012923622131296,0.029837359142303503,0.123141051864624,0.8932047799438652
3.2520272562083594,-0.00629759159088134,0.149588335704803,0.08961077842712391,0.8932047799438652
3.252632949727438,-0.102098372840881,0.202278765392303,0.135116149520874,0.8932047799438652
3.253238643246517,-0.0589880212783813,-0.161764203357697,0.10398089561462401,0.8932047799438652
3.253844336765597,-0.06377806034088129,0.00828218336105347,0.10398089561462401,0.8932047799438652
3.2544500302846764,0.0775280920028687,0.142403277111053,0.0704506221771239,0.8932047799438652
3.255055723803755,-0.154788802528381,-0.164159222888947,0.283607360458374,0.8932047799438652
3.2556614173228353,0.0248376623153687,-0.058778363513946504,0.0704506221771239,0.8932047799438652
3.256267110841914,-0.13323362674713102,0.0154672419548035,0.180621520614624,0.8932047799438652
3.2568728043609934,-0.252984603309631,0.0106772028923035,0.0848207393646239,0.8932047799438652
3.257478497880073,0.319425064659119,-0.176134320545197,0.0824257198333739,0.8932047799438652
3.2580841913991523,0.0895031896591187,0.00828218336105347,0.194991637802124,0.8932047799438652
3.258689884918231,-0.233824447059631,-0.0276431096076965,0.175831481552124,0.8932047799438652
3.259295578437311,0.041602799034118704,-0.185714398670197,0.245287047958374,0.8932047799438652
3.25990127195639,-0.145208724403381,-0.020458051013946498,-0.106780823135376,0.8932047799438652
3.2605069654754693,-0.224244368934631,-0.020458051013946498,-0.013375061416626099,0.8932047799438652
3.2611126589945494,-0.296094954872131,-0.0539883244514465,0.28600237998962397,0.8932047799438652
3.261718352513628,-0.06377806034088129,-0.0875185978889465,0.0488954463958739,0.8932047799438652
3.262324046032707,0.120638443565369,-0.0875185978889465,0.20936175498962398,0.8932047799438652
3.262929739551787,0.0751330724716187,0.025047320079803502,0.202176696395874,0.8932047799438652
3.2635354330708664,0.118243424034119,-0.121048871326447,0.0824257198333739,0.8932047799438652
3.264141126589945,0.06555299434661871,-0.0539883244514465,-0.00619000282287611,0.8932047799438652
3.2647468201090253,0.0200476232528687,-0.0420132267951965,-0.013375061416626099,0.8932047799438652
3.265352513628104,-0.00629759159088134,-0.0731484807014465,0.036920348739623896,0.8932047799438652
3.265958207147184,-0.135628646278381,0.0849228083610535,0.194991637802124,0.8932047799438652
3.266563900666263,-0.16197386112213102,-0.0563833439826965,0.491974059677124,0.8932047799438652
3.2671695941853423,0.0727380529403687,0.0154672419548035,0.20936175498962398,0.8932047799438652
3.2677752877044224,0.0966882482528687,0.06815767164230349,0.09919085655212391,0.8932047799438652
3.268380981223501,-0.0565930017471313,-0.0683584416389465,-0.0301401981353761,0.8932047799438652
3.26898667474258,0.000887467002868658,-0.0659634221076965,0.0225502315521239,0.8932047799438652
3.26959236826166,0.168538834190369,0.113663042736053,0.21415179405212398,0.8932047799438652
3.2701980617807394,0.0799231115341187,-0.030038129138946497,0.10637591514587401,0.8932047799438652
3.270803755299818,-0.0997033533096313,-0.0803335392951965,-0.00139996376037611,0.8932047799438652
3.2714094488188983,-0.149998763465881,-0.058778363513946504,0.127931090927124,0.8932047799438652
3.272015142337977,0.15656373653411898,0.0394174372673035,0.0848207393646239,0.8932047799438652
3.2726208358570563,-0.109283431434631,-0.0132729924201965,0.139906188583374,0.8932047799438652
3.273226529376136,-0.17873899784088101,-0.058778363513946504,0.180621520614624,0.8932047799438652
3.2738322228952152,0.0296277013778687,0.027442339611053503,0.185411559677124,0.8932047799438652
3.274437916414294,-0.0326428064346313,-0.0875185978889465,0.15906634483337398,0.8932047799438652
3.275043609933374,-0.0254577478408813,0.0346273982048035,0.26684222373962396,0.8932047799438652
3.275649303452453,-0.13323362674713102,0.0322323786735535,0.0465004268646239,0.8932047799438652
3.276254996971532,0.008072525596618661,-0.0563833439826965,0.5686146846771241,0.8932047799438652
3.2768606904906123,0.07034303340911871,-0.154579144763947,0.700340758895874,0.8932047799438652
3.277466384009691,-0.118863509559631,-0.030038129138946497,0.441678649520874,0.8932047799438652
3.27807207752877,0.0224426427841187,0.144798296642303,0.290792419052124,0.8932047799438652
3.27867777104785,0.178118912315369,-0.0420132267951965,0.020155212020873902,0.8932047799438652
3.2792834645669293,0.00328248653411866,-0.185714398670197,0.23810198936462398,0.8932047799438652
3.279889158086008,-0.0613830408096313,0.149588335704803,0.0225502315521239,0.8932047799438652
3.2804948516050882,-0.00629759159088134,-0.0803335392951965,0.16864642295837398,0.8932047799438652
3.281100545124167,-0.0302477869033813,-0.0827285588264465,0.194991637802124,0.8932047799438652
3.2817062386432463,-0.0829382165908813,0.0106772028923035,0.211756774520874,0.8932047799438652
3.282311932162326,0.111058365440369,-0.121048871326447,0.190201598739624,0.8932047799438652
3.282917625681405,-0.0110876306533813,0.0370224177360535,0.135116149520874,0.8932047799438652
3.2835233192004853,-0.0182726892471313,-0.128233929920197,-0.0421152957916261,0.8932047799438652
3.284129012719564,-0.159578841590881,-0.106678754138947,0.10158587608337401,0.8932047799438652
3.284734706238643,-0.224244368934631,-0.0396182072639465,0.420123473739624,0.8932047799438652
3.285340399757723,-0.042222884559631295,0.0968979060173035,0.10158587608337401,0.8932047799438652
3.2859460932768023,0.00567750606536866,-0.0875185978889465,-0.0205601200103761,0.8932047799438652
3.286551786795881,0.0751330724716187,-0.178529340076447,0.175831481552124,0.8932047799438652
3.2871574803149612,-0.16676390018463103,0.0873178278923035,0.0441054073333739,0.8932047799438652
3.28776317383404,-0.12844358768463102,0.0322323786735535,0.10877093467712401,0.8932047799438652
3.2883688673531193,-0.0733581384658813,0.0825277888298035,0.09919085655212391,0.8932047799438652
3.288974560872199,0.0942932287216187,0.058577593517303496,0.20936175498962398,0.8932047799438652
3.289580254391278,-0.0206677087783813,-0.0156680119514465,0.11116595420837401,0.8932047799438652
3.290185947910357,-0.0206677087783813,-0.0108779728889465,0.166251403427124,0.8932047799438652
3.290791641429437,0.0128625646591187,0.0178622614860535,0.185411559677124,0.8932047799438652
3.291397334948516,-0.0230627283096313,-0.101888715076447,0.00339007530212389,0.8932047799438652
3.292003028467595,0.115848404502869,0.00349214429855347,0.14948626670837398,0.8932047799438652
3.2926087219866753,-0.114073470497131,-0.00129789476394653,0.151881286239624,0.8932047799438652
3.293214415505754,-0.0494079431533813,0.0106772028923035,0.127931090927124,0.8932047799438652
3.293820109024833,-0.16197386112213102,0.07055269117355349,0.18780657920837399,0.8932047799438652
3.294425802543913,-0.0853332361221313,0.190303667736053,0.034525329208373895,0.8932047799438652
3.2950314960629923,0.101478287315369,-0.0731484807014465,0.0704506221771239,0.8932047799438652
3.295637189582071,-0.047012923622131296,-0.166554242420197,0.0225502315521239,0.8932047799438652
3.296242883101151,-0.0254577478408813,0.056182573986053495,-0.13552105751037602,0.8932047799438652
3.29684857662023,-0.0302477869033813,-0.106678754138947,0.0848207393646239,0.8932047799438652
3.29745427013931,0.06555299434661871,-0.121048871326447,0.10398089561462401,0.8932047799438652
3.298059963658389,0.0344177404403687,-0.00848295335769653,0.283607360458374,0.8932047799438652
3.298665657177468,-0.334415267372131,0.00588716382980347,0.206966735458374,0.8932047799438652
3.2992713506965474,-0.185924056434631,-0.137814008045197,-0.0229551395416261,0.8932047799438652
3.299877044215627,0.111058365440369,0.0154672419548035,0.09919085655212391,0.8932047799438652
3.300482737734706,0.046392838096618705,0.00109712476730347,-0.08522564735412609,0.8932047799438652
3.301088431253786,0.0344177404403687,-0.147394086170197,0.118351012802124,0.8932047799438652
3.3016941247728653,-0.173948958778381,-0.137814008045197,0.115955993270874,0.8932047799438652
3.302299818291944,0.103873306846619,-0.0755435002326965,-0.18581646766662602,0.8932047799438652
3.302905511811024,0.178118912315369,-0.061173383045196504,0.321927672958374,0.8932047799438652
3.303511205330103,0.0368127599716187,-0.0923086369514465,0.156671325302124,0.8932047799438652
