Time (s),Accel X (m/s^2),Accel Y (m/s^2),Accel Z (m/s^2),CI Value
2.948125,0.0384656041145325,-0.034621784877777104,0.0506987277030943,1.3912227213304211
2.9487306935190793,0.182166775989532,-0.118447468471527,0.0363286105155943,1.3912227213304211
2.9493363870381586,0.08397097520828249,0.00848856668472292,0.134524411296844,1.3912227213304211
2.9499420805572383,-0.122000704479218,0.046808879184722894,0.192004880046844,1.3912227213304211
2.9505477740763175,-0.117210665416718,-0.231013386440277,0.177634762859344,1.3912227213304211
2.9511534675953968,-0.145950899791718,0.0396238205909729,-0.11695263948440601,1.3912227213304211
2.951759161114476,-0.09326047010421751,-0.269333698940277,0.07225390348434431,1.3912227213304211
2.9523648546335557,-0.0142248255729675,-0.163952839565277,0.170449704265594,1.3912227213304211
2.952970548152635,-0.0453600794792175,0.240805461215973,0.12494433317184399,1.3912227213304211
2.953576241671714,-0.0693102747917175,0.06836405496597289,0.345286130046844,1.3912227213304211
2.9541819351907934,-0.0741003138542175,-0.0609669997215271,0.376421383953094,1.3912227213304211
2.954787628709873,-0.208221407604218,-0.166347859096527,0.354866208171844,1.3912227213304211
2.9553933222289523,-0.0261999232292175,0.051598918247222895,0.189609860515594,1.3912227213304211
2.9559990157480316,-0.0573351771354675,-0.0633620192527771,0.237510251140594,1.3912227213304211
2.956604709267111,-0.138765841197968,-0.13281758565902702,0.249485348796844,1.3912227213304211
2.9572104027861905,-0.0166198451042175,0.130634562778473,0.06985888395309431,1.3912227213304211
2.9578160963052698,0.0624157994270325,-0.0729420973777771,0.292595700359344,1.3912227213304211
2.958421789824349,-0.0261999232292175,-0.0801271559715271,0.6590336886405941,1.3912227213304211
2.9590274833434282,0.0336755650520325,-0.039411823940277105,0.647058590984344,1.3912227213304211
2.9596331768625075,-0.177086153697968,-0.125632527065277,0.206374997234344,1.3912227213304211
2.960238870381587,-0.102840548229218,-0.0897072340965271,0.0554887667655943,1.3912227213304211
2.9608445639006664,0.0264905064582825,-0.00109151144027708,0.316545895671844,1.3912227213304211
2.9614502574197457,-0.210616427135468,-0.0944972731590271,0.239905270671844,1.3912227213304211
2.962055950938825,-0.0836803919792175,-0.0657570387840271,0.314150876140594,1.3912227213304211
2.9626616444579046,-0.191456270885468,0.142609660434723,0.105784176921844,1.3912227213304211
2.963267337976984,-0.00224972791671754,-0.10168233175277701,0.08901904020309431,1.3912227213304211
2.963873031496063,-0.040570040416717496,-0.298073933315277,0.27104052457809397,1.3912227213304211
2.9644787250151423,-0.09565548963546751,-0.242988484096527,0.249485348796844,1.3912227213304211
2.965084418534222,-0.217801485729218,-0.044201863002777106,0.08183398160934431,1.3912227213304211
2.9656901120533012,-0.0309899622917175,-0.0777321364402771,-0.0762373074531557,1.3912227213304211
2.9662958055723805,0.194141873645782,-0.144792683315277,0.12254931364059399,1.3912227213304211
2.9669014990914597,-0.165111056041718,-0.211853230190277,0.146499508953094,1.3912227213304211
2.9675071926105394,0.0360705845832825,-0.0657570387840271,0.07464892301559431,1.3912227213304211
2.9681128861296187,0.163006619739532,-0.0753371169090271,0.314150876140594,1.3912227213304211
2.968718579648698,0.0193054478645325,-0.0921022536277771,0.115364255046844,1.3912227213304211
2.969324273167777,-0.009434786510467539,-0.13760762472152702,0.06985888395309431,1.3912227213304211
2.9699299666868564,0.021700467395782498,0.0420188401222229,0.5440727511405941,1.3912227213304211
2.970535660205936,-0.0214098841667175,-0.0106715895652771,0.39079150114059397,1.3912227213304211
2.9711413537250153,0.0983410923957825,0.046808879184722894,0.256670407390594,1.3912227213304211
2.9717470472440946,-0.0190148646354675,-0.140002644252777,0.134524411296844,1.3912227213304211
2.972352740763174,-0.143555880260468,-0.022646687221527097,0.0363286105155943,1.3912227213304211
2.9729584342822535,0.146241483020782,0.123449504184723,-0.00917676057815565,1.3912227213304211
2.9735641278013327,-0.0501501185417175,0.113869426059723,0.012378415203094401,1.3912227213304211
2.974169821320412,-0.0190148646354675,-0.0489919020652771,-0.0163618191719056,1.3912227213304211
2.974775514839491,0.222882108020782,-0.242988484096527,0.215955075359344,1.3912227213304211
2.975381208358571,0.0240954869270325,-0.0106715895652771,0.0363286105155943,1.3912227213304211
2.97598690187765,-0.105235567760468,-0.28130879659652697,0.000403317546844352,1.3912227213304211
2.9765925953967294,-0.256121798229218,0.0731540940284729,0.194399899578094,1.3912227213304211
2.9771982889158086,-0.141160860729218,0.0587839768409729,0.211165036296844,1.3912227213304211
2.977803982434888,0.100736111927032,-0.0897072340965271,0.414741696453094,1.3912227213304211
2.9784096759539676,-0.0525451380729675,-0.034621784877777104,0.0171684542655944,1.3912227213304211
2.979015369473047,-0.131580782604218,-0.12802754659652701,-0.0283369168281556,1.3912227213304211
2.979621062992126,0.0696008580207825,-0.0992873122215271,0.136919430828094,1.3912227213304211
2.9802267565112053,-0.136370821666718,-0.118447468471527,0.182424801921844,1.3912227213304211
2.980832450030285,-0.143555880260468,-0.195088093471527,0.151289548015594,1.3912227213304211
2.981438143549364,0.055230740833282506,0.0587839768409729,0.136919430828094,1.3912227213304211
2.9820438370684434,-0.112420626354218,0.202485148715973,0.146499508953094,1.3912227213304211
2.9826495305875227,0.115106229114532,0.049203898715972895,0.251880368328094,1.3912227213304211
2.9832552241066024,0.0719958775520325,0.118659465122223,0.328520993328094,1.3912227213304211
2.9838609176256816,-0.0812853724479675,0.049203898715972895,0.266250485515594,1.3912227213304211
2.984466611144761,0.0696008580207825,-0.0609669997215271,0.00279833707809435,1.3912227213304211
2.98507230466384,0.0600207798957825,-0.0777321364402771,0.283015622234344,1.3912227213304211
2.9856779981829193,0.0193054478645325,-0.0897072340965271,0.273435544109344,1.3912227213304211
2.986283691701999,-0.136370821666718,-0.161557820034027,0.06746386442184431,1.3912227213304211
2.9868893852210783,-0.210616427135468,-0.0537819411277771,0.0267485323905944,1.3912227213304211
2.9874950787401575,-0.011829806041717501,-0.0465968825340271,-0.11455761995315601,1.3912227213304211
2.9881007722592368,0.00014529161453246,-0.041806843471527105,-0.09779248323440569,1.3912227213304211
2.9887064657783164,-0.122000704479218,-0.00109151144027708,0.15847460660934398,1.3912227213304211
2.9893121592973957,-0.107630587291718,0.0276487229347229,0.187214840984344,1.3912227213304211
2.989917852816475,-0.162716036510468,-0.183112995815277,0.021958493328094398,1.3912227213304211
2.990523546335554,-0.0788903529167175,0.00609354715347292,0.21356005582809398,1.3912227213304211
2.991129239854634,-0.112420626354218,0.0252537034034729,0.0387236300468443,1.3912227213304211
2.991734933373713,-0.0788903529167175,-0.034621784877777104,0.0435136691093443,1.3912227213304211
2.9923406268927923,0.00014529161453246,0.0971042893409729,0.132129391765594,1.3912227213304211
2.9929463204118716,-0.0860754115104675,-0.0825221755027771,0.230325192546844,1.3912227213304211
2.993552013930951,0.08636599473953249,-0.245383503627777,0.17284472379684399,1.3912227213304211
2.9941577074500305,0.127081326770782,-0.0657570387840271,0.06506884489059431,1.3912227213304211
2.9947634009691098,-0.0812853724479675,0.152189738559723,0.242300290203094,1.3912227213304211
2.995369094488189,-0.0309899622917175,-0.120842488002777,0.08662402067184431,1.3912227213304211
2.9959747880072682,-0.112420626354218,-0.0489919020652771,0.21356005582809398,1.3912227213304211
2.996580481526348,-0.148345919322968,0.00609354715347292,0.21835009489059398,1.3912227213304211
2.997186175045427,-0.0884704310417175,-0.178322956752777,0.000403317546844352,1.3912227213304211
2.9977918685645064,-0.0501501185417175,-0.0537819411277771,0.14889452848434398,1.3912227213304211
2.9983975620835857,-0.0309899622917175,-0.0705470778465271,0.285410641765594,1.3912227213304211
2.999003255602665,-0.157925997447968,-0.149582722377777,0.115364255046844,1.3912227213304211
2.9996089491217446,-0.00224972791671754,0.00609354715347292,0.0267485323905944,1.3912227213304211
3.000214642640824,0.052835721302032505,-0.0657570387840271,0.369236325359344,1.3912227213304211
3.000820336159903,-0.215406466197968,0.00609354715347292,0.136919430828094,1.3912227213304211
3.0014260296789823,-0.033384981822967494,-0.0322267653465271,0.0554887667655943,1.3912227213304211
3.002031723198062,0.0384656041145325,-0.0753371169090271,0.27104052457809397,1.3912227213304211
3.0026374167171412,-0.193851290416718,-0.034621784877777104,0.182424801921844,1.3912227213304211
3.0032431102362205,0.07678591661453249,0.0276487229347229,0.07225390348434431,1.3912227213304211
3.0038488037552997,0.0983410923957825,0.0420188401222229,0.146499508953094,1.3912227213304211
3.0044544972743794,-0.165111056041718,0.00130350809097292,0.08422900114059431,1.3912227213304211
3.0050601907934587,-0.157925997447968,-0.185508015346527,0.17284472379684399,1.3912227213304211
3.005665884312538,-0.0836803919792175,-0.173532917690277,0.28062060270309397,1.3912227213304211
3.006271577831617,-0.09805050916671751,-0.00109151144027708,0.160869626140594,1.3912227213304211
3.006877271350697,-0.122000704479218,-0.015461628627777101,0.29020068082809397,1.3912227213304211
3.007482964869776,0.052835721302032505,-0.154372761440277,0.180029782390594,1.3912227213304211
3.0080886583888553,0.0600207798957825,-0.0944972731590271,0.117759274578094,1.3912227213304211
3.0086943519079345,-0.0238049036979675,-0.0561769606590271,0.22793017301559398,1.3912227213304211
3.009300045427014,0.08876101427078249,-0.116052448940277,-0.025941897296905603,1.3912227213304211
3.0099057389460935,-0.0573351771354675,0.0156736252784729,0.134524411296844,1.3912227213304211
3.0105114324651727,-0.141160860729218,-0.142397663784027,0.203979977703094,1.3912227213304211
3.011117125984252,0.0624157994270325,-0.147187702846527,0.156079587078094,1.3912227213304211
3.011722819503331,-0.165111056041718,-0.0849171950340271,0.393186520671844,1.3912227213304211
3.012328513022411,-0.100445528697968,-0.252568562221527,0.129734372234344,1.3912227213304211
3.01293420654149,-0.0549401576042175,-0.0489919020652771,0.230325192546844,1.3912227213304211
3.0135399000605694,-0.0285949427604675,-0.151977741909027,0.196794919109344,1.3912227213304211
3.0141455935796486,-0.102840548229218,-0.219038288784027,0.16326464567184398,1.3912227213304211
3.0147512870987283,-0.0525451380729675,-0.118447468471527,0.266250485515594,1.3912227213304211
3.0153569806178075,-0.0525451380729675,-0.221433308315277,0.0363286105155943,1.3912227213304211
3.015962674136887,-0.122000704479218,-0.231013386440277,0.426716794109344,1.3912227213304211
3.016568367655966,0.07439089708328249,-0.0873122145652771,0.117759274578094,1.3912227213304211
3.0171740611750457,0.0672058384895325,-0.219038288784027,-0.10976758089065601,1.3912227213304211
3.017779754694125,0.0145154088020325,-0.0944972731590271,-0.13611279573440602,1.3912227213304211
3.018385448213204,0.0049353306770324595,-0.0537819411277771,-0.289394045734406,1.3912227213304211
3.0189911417322834,0.0911560338020325,-0.12802754659652701,0.493777340984344,1.3912227213304211
3.019596835251363,-0.0477550990104675,-0.180717976284027,0.278225583171844,1.3912227213304211
3.0202025287704424,-0.0764953333854675,-0.178322956752777,-0.09539746370315569,1.3912227213304211
3.0208082222895216,-0.0238049036979675,0.00130350809097292,0.100994137859344,1.3912227213304211
3.021413915808601,0.0648108189582825,-0.10886739034652701,-0.0786323269844057,1.3912227213304211
3.02201960932768,-0.0525451380729675,-0.0561769606590271,0.112969235515594,1.3912227213304211
3.02262530284676,0.0264905064582825,-0.034621784877777104,0.20877001676559398,1.3912227213304211
3.023230996365839,0.055230740833282506,-0.10647237081527701,0.189609860515594,1.3912227213304211
3.0238366898849183,-0.26091183729171796,-0.0921022536277771,0.347681149578094,1.3912227213304211
3.0244423834039975,-0.24175168104171801,0.0563889573097229,0.160869626140594,1.3912227213304211
3.025048076923077,-0.0741003138542175,-0.0561769606590271,0.132129391765594,1.3912227213304211
3.0256537704421564,-0.141160860729218,0.0300437424659729,0.21835009489059398,1.3912227213304211
3.0262594639612357,-0.0261999232292175,-0.10647237081527701,0.0578837862968443,1.3912227213304211
3.026865157480315,-0.00224972791671754,0.111474406528473,0.019563473796844397,1.3912227213304211
3.0274708509993946,-0.110025606822968,-0.0585719801902771,0.0578837862968443,1.3912227213304211
3.028076544518474,-0.0477550990104675,-0.123237507534027,-0.10258252229690601,1.3912227213304211
3.028682238037553,-0.042965059947967496,0.0899192307472229,0.129734372234344,1.3912227213304211
3.0292879315566323,-0.239356661510468,-0.0657570387840271,0.266250485515594,1.3912227213304211
3.0298936250757116,0.0049353306770324595,-0.0298317458152771,0.0602788058280943,1.3912227213304211
3.0304993185947913,-0.138765841197968,-0.0657570387840271,0.132129391765594,1.3912227213304211
3.0311050121138705,-0.32318234510421795,-0.154372761440277,0.08422900114059431,1.3912227213304211
3.0317107056329498,0.00733035020828246,-0.149582722377777,0.194399899578094,1.3912227213304211
3.032316399152029,-0.217801485729218,0.00609354715347292,0.184819821453094,1.3912227213304211
3.0329220926711087,0.00254031114578246,0.0252537034034729,0.12494433317184399,1.3912227213304211
3.033527786190188,-0.0453600794792175,0.180929972934723,0.359656247234344,1.3912227213304211
3.034133479709267,-0.033384981822967494,0.0180686448097229,0.0985991183280943,1.3912227213304211
3.0347391732283464,0.0719958775520325,-0.233408405971527,0.151289548015594,1.3912227213304211
3.035344866747426,-0.160321016979218,0.051598918247222895,0.249485348796844,1.3912227213304211
3.0359505602665053,-0.0812853724479675,-0.0274367262840271,0.306965817546844,1.3912227213304211
3.0365562537855846,0.115106229114532,-0.211853230190277,0.211165036296844,1.3912227213304211
3.037161947304664,0.0719958775520325,-0.0753371169090271,0.0602788058280943,1.3912227213304211
3.0377676408237435,-0.035780001354217494,-0.180717976284027,0.06267382535934429,1.3912227213304211
3.0383733343428228,0.117501248645782,0.118659465122223,0.0291435519218444,1.3912227213304211
3.038979027861902,-0.133975802135468,0.0731540940284729,0.254275387859344,1.3912227213304211
3.0395847213809812,-0.179481173229218,-0.0897072340965271,0.192004880046844,1.3912227213304211
3.040190414900061,0.00014529161453246,-0.0921022536277771,0.177634762859344,1.3912227213304211
3.04079610841914,-0.0764953333854675,-0.202273152065277,0.220745114421844,1.3912227213304211
3.0414018019382194,-0.0477550990104675,-0.151977741909027,0.16805468473434398,1.3912227213304211
3.0420074954572986,-0.0669152552604675,-0.0729420973777771,0.07943896207809431,1.3912227213304211
3.042613188976378,0.0360705845832825,0.06596903543472289,0.07225390348434431,1.3912227213304211
3.0432188824954576,0.112711209583282,0.0611789963722229,0.100994137859344,1.3912227213304211
3.043824576014537,0.220487088489532,0.0180686448097229,0.127339352703094,1.3912227213304211
3.044430269533616,0.045650662708282504,-0.144792683315277,0.22314013395309398,1.3912227213304211
3.0450359630526953,-0.131580782604218,-0.190298054409027,0.112969235515594,1.3912227213304211
3.045641656571775,-0.0453600794792175,-0.044201863002777106,0.196794919109344,1.3912227213304211
3.0462473500908542,-0.0788903529167175,-0.168742878627777,0.151289548015594,1.3912227213304211
3.0468530436099335,-0.009434786510467539,-0.199878132534027,0.575208005046844,1.3912227213304211
3.0474587371290127,-0.011829806041717501,-0.154372761440277,0.0602788058280943,1.3912227213304211
3.0480644306480924,0.045650662708282504,-0.13760762472152702,-0.164853030109406,1.3912227213304211
3.048670124167171,-0.038175020885467495,-0.0705470778465271,0.474617184734344,1.3912227213304211
3.049275817686251,0.189351834583282,-0.0489919020652771,0.23272021207809399,1.3912227213304211
3.04988151120533,0.170191678333282,0.0276487229347229,0.22793017301559398,1.3912227213304211
3.050487204724409,-0.227381563854218,-0.0489919020652771,-0.0187568387031556,1.3912227213304211
3.051092898243489,0.00972536973953246,-0.142397663784027,0.105784176921844,1.3912227213304211
3.0516985917625683,0.167796658802032,-0.044201863002777106,0.259065426921844,1.3912227213304211
3.052304285281647,-0.100445528697968,0.0348337815284729,0.211165036296844,1.3912227213304211
3.0529099788007272,-0.203431368541718,-0.120842488002777,-0.0834223660469057,1.3912227213304211
3.053515672319806,-0.0645202357292175,-0.10407735128402701,-0.00917676057815565,1.3912227213304211
3.054121365838886,-0.18187619276046801,0.0324387619972229,0.22314013395309398,1.3912227213304211
3.054727059357965,-0.033384981822967494,0.0755491135597229,-0.0115717801094056,1.3912227213304211
3.055332752877044,-0.0309899622917175,-0.0657570387840271,0.21356005582809398,1.3912227213304211
3.055938446396124,0.242042264270782,0.0180686448097229,0.230325192546844,1.3912227213304211
3.056544139915203,0.146241483020782,0.0827341721534729,-0.0714472683906557,1.3912227213304211
3.057149833434282,-0.119605684947968,-0.19748311300277702,0.12015429410934399,1.3912227213304211
3.057755526953362,0.0049353306770324595,0.0611789963722229,0.100994137859344,1.3912227213304211
3.0583612204724413,-0.126790743541718,0.06596903543472289,0.048303708171844296,1.3912227213304211
3.05896691399152,0.112711209583282,0.0276487229347229,-0.0187568387031556,1.3912227213304211
3.0595726075106002,0.0193054478645325,0.00848856668472292,0.117759274578094,1.3912227213304211
3.060178301029679,0.117501248645782,-0.10168233175277701,0.388396481609344,1.3912227213304211
3.0607839945487583,-0.00703976697921754,0.0755491135597229,0.237510251140594,1.3912227213304211
3.061389688067838,0.052835721302032505,-0.0130666090965271,0.12494433317184399,1.3912227213304211
3.061995381586917,0.103131131458282,-0.0202516676902771,0.201584958171844,1.3912227213304211
3.062601075105996,-0.033384981822967494,0.0420188401222229,0.08183398160934431,1.3912227213304211
3.063206768625076,0.0360705845832825,-0.125632527065277,0.048303708171844296,1.3912227213304211
3.063812462144155,0.115106229114532,-0.00109151144027708,0.230325192546844,1.3912227213304211
3.064418155663234,-0.131580782604218,0.0851291916847229,0.07464892301559431,1.3912227213304211
3.0650238491823143,-0.124395724010468,-0.118447468471527,0.247090329265594,1.3912227213304211
3.065629542701393,0.270782498645782,0.0420188401222229,0.287805661296844,1.3912227213304211
3.066235236220472,-0.0764953333854675,0.0899192307472229,-0.09060742464065569,1.3912227213304211
3.066840929739552,-0.217801485729218,-0.0202516676902771,-0.0810273465156557,1.3912227213304211
3.0674466232586313,-0.042965059947967496,-0.0585719801902771,0.0363286105155943,1.3912227213304211
3.06805231677771,0.07678591661453249,-0.25017354269027703,0.07943896207809431,1.3912227213304211
3.06865801029679,-0.0477550990104675,-0.0513869215965271,0.139314450359344,1.3912227213304211
3.069263703815869,-0.167506075572968,-0.140002644252777,0.201584958171844,1.3912227213304211
3.069869397334949,-0.189061251354218,-0.13760762472152702,0.0938090792655943,1.3912227213304211
3.070475090854028,-0.129185763072968,0.0420188401222229,0.335706051921844,1.3912227213304211
3.071080784373107,0.0360705845832825,-0.10168233175277701,0.259065426921844,1.3912227213304211
3.0716864778921873,0.139056424427032,0.00848856668472292,0.199189938640594,1.3912227213304211
3.072292171411266,-0.0453600794792175,-0.0322267653465271,0.239905270671844,1.3912227213304211
3.0728978649303453,-0.100445528697968,-0.0968922926902771,0.177634762859344,1.3912227213304211
3.073503558449425,-0.165111056041718,-0.0657570387840271,0.20877001676559398,1.3912227213304211
3.0741092519685043,-0.122000704479218,0.0036985276222229204,0.177634762859344,1.3912227213304211
3.074714945487583,0.155821561145782,0.17134989480972299,0.07464892301559431,1.3912227213304211
3.075320639006663,-0.0453600794792175,-0.0657570387840271,0.06506884489059431,1.3912227213304211
3.075926332525742,-0.215406466197968,0.0396238205909729,0.117759274578094,1.3912227213304211
3.0765320260448212,-0.122000704479218,0.192905070590973,-0.10976758089065601,1.3912227213304211
3.077137719563901,0.0408606236457825,-0.0705470778465271,0.0315385714530944,1.3912227213304211
3.07774341308298,-0.117210665416718,-0.00348653097152708,-0.0762373074531557,1.3912227213304211
3.078349106602059,-0.0309899622917175,-0.0489919020652771,0.572812985515594,1.3912227213304211
3.078954800121139,0.0600207798957825,-0.130422566127777,0.515332516765594,1.3912227213304211
3.0795604936402183,-0.0477550990104675,-0.130422566127777,0.0914140597343443,1.3912227213304211
3.080166187159297,0.251622342395782,0.049203898715972895,0.220745114421844,1.3912227213304211
3.0807718806783773,0.00254031114578246,-0.0729420973777771,-0.0355219754219057,1.3912227213304211
3.081377574197456,-0.112420626354218,-0.216643269252777,0.16326464567184398,1.3912227213304211
3.0819832677165353,0.057625760364532506,0.130634562778473,0.309360837078094,1.3912227213304211
3.082588961235615,-0.0812853724479675,-0.0585719801902771,0.0985991183280943,1.3912227213304211
3.0831946547546942,0.184561795520782,-0.214248249721527,0.0291435519218444,1.3912227213304211
3.083800348273773,0.141451443958282,-0.0873122145652771,0.278225583171844,1.3912227213304211
3.084406041792853,0.227672147083282,-0.015461628627777101,0.333311032390594,1.3912227213304211
3.085011735311932,0.215697049427032,0.0036985276222229204,0.06985888395309431,1.3912227213304211
3.085617428831012,-0.062125216197967494,-0.154372761440277,0.07943896207809431,1.3912227213304211
3.0862231223500913,0.136661404895782,-0.0681520583152771,0.244695309734344,1.3912227213304211
3.08682881586917,-0.0573351771354675,0.0420188401222229,0.302175778484344,1.3912227213304211
3.0874345093882503,-0.107630587291718,-0.022646687221527097,0.136919430828094,1.3912227213304211
3.088040202907329,-0.038175020885467495,-0.147187702846527,0.07943896207809431,1.3912227213304211
3.0886458964264083,-0.040570040416717496,-0.142397663784027,0.15368456754684398,1.3912227213304211
3.089251589945488,0.052835721302032505,0.022858683872222903,0.0914140597343443,1.3912227213304211
3.0898572834645672,0.057625760364532506,0.022858683872222903,0.29020068082809397,1.3912227213304211
3.090462976983646,0.055230740833282506,0.125844523715973,0.12015429410934399,1.3912227213304211
3.091068670502726,-0.124395724010468,-0.044201863002777106,0.15847460660934398,1.3912227213304211
3.091674364021805,-0.0477550990104675,0.0036985276222229204,-0.023546877765655602,1.3912227213304211
3.092280057540884,0.105526150989532,0.0156736252784729,0.0530937472343443,1.3912227213304211
3.0928857510599643,-0.148345919322968,-0.221433308315277,0.326125973796844,1.3912227213304211
3.093491444579043,-0.169901095104218,-0.0609669997215271,0.129734372234344,1.3912227213304211
3.094097138098122,0.117501248645782,-0.0322267653465271,0.21835009489059398,1.3912227213304211
3.094702831617202,0.151031522083282,0.051598918247222895,0.22793017301559398,1.3912227213304211
3.0953085251362813,0.0600207798957825,-0.130422566127777,0.335706051921844,1.3912227213304211
3.09591421865536,0.143846463489532,-0.0058815505027770805,0.12494433317184399,1.3912227213304211
3.0965199121744402,-0.0166198451042175,0.06836405496597289,0.06506884489059431,1.3912227213304211
3.097125605693519,-0.167506075572968,-0.142397663784027,0.160869626140594,1.3912227213304211
3.0977312992125983,0.0288855259895325,-0.0681520583152771,0.242300290203094,1.3912227213304211
3.098336992731678,0.122291287708282,0.0971042893409729,0.311755856609344,1.3912227213304211
3.098942686250757,-0.033384981822967494,0.16655985574722298,0.175239743328094,1.3912227213304211
3.099548379769836,0.117501248645782,0.106684367465973,0.144104489421844,1.3912227213304211
3.100154073288916,-0.042965059947967496,-0.0777321364402771,0.151289548015594,1.3912227213304211
3.100759766807995,-0.0477550990104675,-0.041806843471527105,0.136919430828094,1.3912227213304211
3.101365460327075,0.057625760364532506,0.0899192307472229,0.12494433317184399,1.3912227213304211
3.1019711538461543,-0.208221407604218,0.0348337815284729,0.177634762859344,1.3912227213304211
3.102576847365233,0.055230740833282506,0.049203898715972895,0.06267382535934429,1.3912227213304211
3.1031825408843132,0.00254031114578246,-0.120842488002777,0.0506987277030943,1.3912227213304211
3.103788234403392,-0.009434786510467539,-0.116052448940277,0.206374997234344,1.3912227213304211
3.1043939279224713,0.0672058384895325,-0.175927937221527,0.302175778484344,1.3912227213304211
3.104999621441551,0.00254031114578246,0.0324387619972229,0.215955075359344,1.3912227213304211
3.10560531496063,0.0121203892707825,0.0947092698097229,0.08422900114059431,1.3912227213304211
3.106211008479709,0.052835721302032505,-0.0585719801902771,0.0602788058280943,1.3912227213304211
3.106816701998789,0.115106229114532,0.0348337815284729,0.189609860515594,1.3912227213304211
3.107422395517868,-0.009434786510467539,0.0947092698097229,0.362051266765594,1.3912227213304211
3.108028089036947,-0.0717052943229675,-0.0825221755027771,0.0075883761405943495,1.3912227213304211
3.1086337825560273,0.131871365833282,-0.0968922926902771,0.45066698942184397,1.3912227213304211
3.109239476075106,-0.0645202357292175,-0.0178566481590271,0.283015622234344,1.3912227213304211
3.109845169594185,-0.0788903529167175,-0.219038288784027,-0.11216260042190601,1.3912227213304211
3.110450863113265,0.0336755650520325,-0.195088093471527,0.0554887667655943,1.3912227213304211
3.1110565566323443,-0.009434786510467539,0.0587839768409729,0.22314013395309398,1.3912227213304211
3.111662250151423,0.0312805455207825,-0.022646687221527097,0.15368456754684398,1.3912227213304211
3.112267943670503,0.0959460728645325,-0.135212605190277,0.021958493328094398,1.3912227213304211
3.112873637189582,0.119896268177032,-0.140002644252777,0.292595700359344,1.3912227213304211
3.1134793307086612,0.172586697864532,-0.10407735128402701,0.0075883761405943495,1.3912227213304211
3.114085024227741,-0.0693102747917175,0.142609660434723,0.12254931364059399,1.3912227213304211
3.11469071774682,-0.258516817760468,-0.0130666090965271,0.100994137859344,1.3912227213304211
3.115296411265899,-0.107630587291718,-0.166347859096527,0.12494433317184399,1.3912227213304211
3.115902104784979,0.119896268177032,-0.039411823940277105,0.199189938640594,1.3912227213304211
3.116507798304058,0.115106229114532,-0.147187702846527,0.20877001676559398,1.3912227213304211
3.117113491823137,0.0624157994270325,-0.154372761440277,0.201584958171844,1.3912227213304211
3.1177191853422173,0.00733035020828246,-0.161557820034027,0.0339335909843443,1.3912227213304211
3.118324878861296,-0.00224972791671754,-0.178322956752777,-0.0882124051094057,1.3912227213304211
3.118930572380376,-0.040570040416717496,-0.120842488002777,0.108179196453094,1.3912227213304211
3.119536265899455,-0.162716036510468,-0.125632527065277,0.16805468473434398,1.3912227213304211
3.1201419594185342,0.00972536973953246,0.046808879184722894,0.115364255046844,1.3912227213304211
3.120747652937614,0.0983410923957825,-0.231013386440277,0.21835009489059398,1.3912227213304211
3.121353346456693,-0.0309899622917175,-0.199878132534027,0.0578837862968443,1.3912227213304211
3.121959039975772,-0.251331759166718,-0.163952839565277,0.156079587078094,1.3912227213304211
3.122564733494852,-0.100445528697968,-0.0178566481590271,0.314150876140594,1.3912227213304211
3.123170427013931,0.0145154088020325,-0.0489919020652771,0.285410641765594,1.3912227213304211
3.12377612053301,-0.0525451380729675,-0.242988484096527,0.215955075359344,1.3912227213304211
3.1243818140520903,0.289942654895782,-0.338789265346527,-0.0522871121406557,1.3912227213304211
3.124987507571169,0.263597440052032,-0.149582722377777,0.0387236300468443,1.3912227213304211
3.1255932010902483,-0.31120724744796796,0.06357401590347289,0.00998339567184435,1.3912227213304211
3.126198894609328,0.112711209583282,-0.161557820034027,0.110574215984344,1.3912227213304211
3.1268045881284072,-0.153135958385468,-0.0897072340965271,0.268645505046844,1.3912227213304211
3.127410281647486,-0.165111056041718,-0.307654011440277,0.06985888395309431,1.3912227213304211
3.128015975166566,0.0145154088020325,-0.034621784877777104,0.07943896207809431,1.3912227213304211
3.128621668685645,-0.0741003138542175,0.00609354715347292,0.151289548015594,1.3912227213304211
3.129227362204724,0.0672058384895325,-0.0897072340965271,0.15847460660934398,1.3912227213304211
3.129833055723804,-0.062125216197967494,0.00848856668472292,0.266250485515594,1.3912227213304211
3.130438749242883,0.0360705845832825,-0.240593464565277,0.00279833707809435,1.3912227213304211
3.131044442761962,0.139056424427032,-0.0130666090965271,0.12494433317184399,1.3912227213304211
3.131650136281042,0.0121203892707825,-0.13281758565902702,0.402766598796844,1.3912227213304211
3.1322558298001213,-0.107630587291718,-0.185508015346527,0.100994137859344,1.3912227213304211
3.1328615233192,0.055230740833282506,0.020463664340972902,0.203979977703094,1.3912227213304211
3.1334672168382802,0.00014529161453246,-0.0178566481590271,0.07704394254684431,1.3912227213304211
3.134072910357359,-0.0309899622917175,-0.0705470778465271,0.165659665203094,1.3912227213304211
3.134678603876439,0.00254031114578246,-0.0585719801902771,0.127339352703094,1.3912227213304211
3.135284297395518,-0.122000704479218,-0.0681520583152771,0.266250485515594,1.3912227213304211
3.135889990914597,0.110316190052032,-0.18790303487777701,0.285410641765594,1.3912227213304211
3.136495684433677,0.167796658802032,0.0851291916847229,0.103389157390594,1.3912227213304211
3.137101377952756,-0.0525451380729675,-0.00827657003402708,-0.0546821316719057,1.3912227213304211
3.137707071471835,-0.0836803919792175,-0.044201863002777106,0.321335934734344,1.3912227213304211
3.138312764990915,0.0049353306770324595,-0.0298317458152771,0.505752438640594,1.3912227213304211
3.1389184585099943,0.115106229114532,0.0156736252784729,0.0435136691093443,1.3912227213304211
3.139524152029073,0.0169104283332825,-0.0729420973777771,0.132129391765594,1.3912227213304211
3.140129845548153,0.00254031114578246,-0.307654011440277,-0.0642622097969057,1.3912227213304211
3.140735539067232,-0.169901095104218,0.147399699497223,-0.20077832307815602,1.3912227213304211
3.1413412325863113,-0.0285949427604675,0.176139933872223,0.287805661296844,1.3912227213304211
3.141946926105391,0.00014529161453246,-0.0921022536277771,0.0339335909843443,1.3912227213304211
3.14255261962447,-0.145950899791718,0.123449504184723,0.0243535128593444,1.3912227213304211
3.143158313143549,0.0432556431770325,-0.0921022536277771,0.144104489421844,1.3912227213304211
3.143764006662629,-0.0285949427604675,-0.168742878627777,0.08662402067184431,1.3912227213304211
3.144369700181708,0.00014529161453246,0.0875242112159729,0.203979977703094,1.3912227213304211
3.144975393700787,0.048045682239532504,0.0252537034034729,0.134524411296844,1.3912227213304211
3.1455810872198673,-0.325577364635468,0.0348337815284729,0.07943896207809431,1.3912227213304211
3.146186780738946,0.021700467395782498,-0.345974323940277,0.0602788058280943,1.3912227213304211
3.1467924742580253,-0.0669152552604675,-0.0777321364402771,0.242300290203094,1.3912227213304211
3.147398167777105,-0.36150265760421796,0.101894328403473,0.165659665203094,1.3912227213304211
3.1480038612961843,0.0193054478645325,-0.0753371169090271,0.0962040987968443,1.3912227213304211
3.148609554815263,-0.157925997447968,0.022858683872222903,0.15368456754684398,1.3912227213304211
3.149215248334343,-0.035780001354217494,-0.29328389425277696,-0.0115717801094056,1.3912227213304211
3.149820941853422,0.0624157994270325,-0.211853230190277,-0.124137698078156,1.3912227213304211
3.150426635372502,-0.117210665416718,-0.0298317458152771,-0.0139667996406556,1.3912227213304211
3.151032328891581,0.0959460728645325,0.07075907449722289,0.215955075359344,1.3912227213304211
3.15163802241066,-0.062125216197967494,0.159374797153473,0.117759274578094,1.3912227213304211
3.1522437159297403,0.182166775989532,-0.171137898159027,-0.0187568387031556,1.3912227213304211
3.152849409448819,-0.00703976697921754,-0.149582722377777,0.242300290203094,1.3912227213304211
3.1534551029678983,-0.184271212291718,0.0372288010597229,0.0985991183280943,1.3912227213304211
3.154060796486978,0.0145154088020325,-0.202273152065277,0.21835009489059398,1.3912227213304211
3.1546664900060573,0.0169104283332825,-0.231013386440277,0.261460446453094,1.3912227213304211
3.155272183525136,-0.0190148646354675,-0.10886739034652701,0.0411186495780943,1.3912227213304211
3.155877877044216,0.048045682239532504,-0.259753620815277,-0.023546877765655602,1.3912227213304211
3.156483570563295,-0.0764953333854675,-0.0897072340965271,-0.0690522488594057,1.3912227213304211
3.1570892640823742,-0.275281954479218,0.178534953403473,0.07464892301559431,1.3912227213304211
3.157694957601454,-0.265701876354218,-0.116052448940277,0.144104489421844,1.3912227213304211
3.158300651120533,-0.100445528697968,-0.118447468471527,0.0506987277030943,1.3912227213304211
3.158906344639612,0.0719958775520325,-0.185508015346527,0.15847460660934398,1.3912227213304211
3.159512038158692,-0.0693102747917175,-0.10647237081527701,0.0075883761405943495,1.3912227213304211
3.1601177316777713,0.0264905064582825,0.111474406528473,0.07943896207809431,1.3912227213304211
3.16072342519685,-0.0717052943229675,-0.0130666090965271,0.311755856609344,1.3912227213304211
3.1613291187159303,-0.153135958385468,-0.175927937221527,0.196794919109344,1.3912227213304211
3.161934812235009,0.08397097520828249,-0.166347859096527,0.07225390348434431,1.3912227213304211
3.1625405057540883,0.311497830677032,-0.0729420973777771,0.21356005582809398,1.3912227213304211
3.163146199273168,-0.0597301966667175,0.0444138596534729,0.0267485323905944,1.3912227213304211
3.1637518927922472,-0.0597301966667175,-0.0921022536277771,-0.004386721515655651,1.3912227213304211
3.164357586311326,-0.035780001354217494,-0.19269307394027702,0.287805661296844,1.3912227213304211
3.164963279830406,-0.0285949427604675,-0.0561769606590271,0.06746386442184431,1.3912227213304211
3.165568973349485,-0.114815645885468,-0.0465968825340271,0.06985888395309431,1.3912227213304211
3.166174666868565,-0.0788903529167175,0.0372288010597229,0.0578837862968443,1.3912227213304211
3.1667803603876443,-0.033384981822967494,0.0036985276222229204,0.347681149578094,1.3912227213304211
3.167386053906723,0.050440701770782505,-0.041806843471527105,-0.0187568387031556,1.3912227213304211
3.1679917474258033,0.0719958775520325,-0.0921022536277771,-0.0858173855781557,1.3912227213304211
3.168597440944882,-0.033384981822967494,0.0324387619972229,0.704539059734344,1.3912227213304211
3.1692031344639613,-0.179481173229218,0.0731540940284729,0.292595700359344,1.3912227213304211
3.169808827983041,-0.138765841197968,-0.0106715895652771,0.0530937472343443,1.3912227213304211
3.17041452150212,-0.165111056041718,-0.0106715895652771,0.249485348796844,1.3912227213304211
3.171020215021199,-0.215406466197968,0.013278605747222899,0.103389157390594,1.3912227213304211
3.171625908540279,-0.169901095104218,-0.00348653097152708,0.0914140597343443,1.3912227213304211
3.172231602059358,-0.0741003138542175,-0.0825221755027771,0.438691891765594,1.3912227213304211
3.172837295578437,0.0193054478645325,0.00609354715347292,0.110574215984344,1.3912227213304211
3.1734429890975173,-0.112420626354218,-0.190298054409027,0.141709469890594,1.3912227213304211
3.174048682616596,-0.0573351771354675,-0.307654011440277,0.359656247234344,1.3912227213304211
3.174654376135675,0.00733035020828246,-0.0921022536277771,-0.0139667996406556,1.3912227213304211
3.175260069654755,0.045650662708282504,-0.0921022536277771,0.115364255046844,1.3912227213304211
3.1758657631738343,-0.00464474744796754,0.190510051059723,0.0506987277030943,1.3912227213304211
3.176471456692913,0.0624157994270325,-0.0561769606590271,0.249485348796844,1.3912227213304211
3.177077150211993,0.0169104283332825,-0.116052448940277,0.364446286296844,1.3912227213304211
3.177682843731072,-0.0309899622917175,-0.10886739034652701,-0.0283369168281556,1.3912227213304211
3.1782885372501513,0.0600207798957825,-0.156767780971527,0.182424801921844,1.3912227213304211
3.178894230769231,0.146241483020782,0.0563889573097229,0.40037157926559397,1.3912227213304211
3.17949992428831,-0.09565548963546751,-0.0322267653465271,0.22793017301559398,1.3912227213304211
3.180105617807389,0.00972536973953246,-0.0729420973777771,0.211165036296844,1.3912227213304211
3.180711311326469,0.00733035020828246,0.0444138596534729,0.144104489421844,1.3912227213304211
3.181317004845548,-0.0693102747917175,-0.00109151144027708,0.12015429410934399,1.3912227213304211
3.181922698364627,0.165401639270782,0.0300437424659729,0.203979977703094,1.3912227213304211
3.1825283918837073,0.117501248645782,0.0300437424659729,0.100994137859344,1.3912227213304211
3.183134085402786,0.048045682239532504,-0.19748311300277702,0.249485348796844,1.3912227213304211
3.183739778921866,-0.177086153697968,-0.13281758565902702,0.285410641765594,1.3912227213304211
3.184345472440945,-0.150740938854218,-0.142397663784027,0.203979977703094,1.3912227213304211
3.1849511659600243,0.117501248645782,0.022858683872222903,0.180029782390594,1.3912227213304211
3.185556859479104,-0.0884704310417175,0.0827341721534729,0.21835009489059398,1.3912227213304211
3.186162552998183,-0.00464474744796754,-0.242988484096527,0.160869626140594,1.3912227213304211
3.186768246517262,0.052835721302032505,-0.214248249721527,0.00998339567184435,1.3912227213304211
3.187373940036342,0.057625760364532506,-0.0298317458152771,0.211165036296844,1.3912227213304211
3.187979633555421,-0.114815645885468,-0.0537819411277771,0.266250485515594,1.3912227213304211
3.1885853270745,-0.122000704479218,0.0300437424659729,0.297385739421844,1.3912227213304211
3.1891910205935803,0.246832303333282,-0.151977741909027,0.254275387859344,1.3912227213304211
3.189796714112659,0.167796658802032,-0.151977741909027,-0.045102053546905704,1.3912227213304211
3.190402407631738,-0.0525451380729675,-0.00348653097152708,0.170449704265594,1.3912227213304211
3.191008101150818,0.129476346302032,-0.286098835659027,0.273435544109344,1.3912227213304211
3.1916137946698973,-0.00703976697921754,-0.140002644252777,-0.0570771512031557,1.3912227213304211
3.192219488188976,-0.244146700572968,-0.159162800502777,-0.09300244417190569,1.3912227213304211
3.192825181708056,-0.172296114635468,-0.0777321364402771,0.07704394254684431,1.3912227213304211
3.193430875227135,-0.153135958385468,-0.13281758565902702,0.15368456754684398,1.3912227213304211
3.194036568746214,0.0384656041145325,0.0755491135597229,0.203979977703094,1.3912227213304211
3.194642262265294,-0.0573351771354675,0.113869426059723,0.0914140597343443,1.3912227213304211
3.195247955784373,-0.0812853724479675,-0.0825221755027771,0.21356005582809398,1.3912227213304211
3.195853649303452,0.0145154088020325,-0.0849171950340271,0.117759274578094,1.3912227213304211
3.196459342822532,-0.143555880260468,-0.231013386440277,0.17284472379684399,1.3912227213304211
3.197065036341611,-0.126790743541718,-0.0298317458152771,0.0435136691093443,1.3912227213304211
3.19767072986069,0.0432556431770325,0.116264445590973,-0.14090283479690602,1.3912227213304211
3.1982764233797703,0.131871365833282,0.00609354715347292,0.551257809734344,1.3912227213304211
3.198882116898849,0.0169104283332825,-0.0322267653465271,0.15847460660934398,1.3912227213304211
3.199487810417929,0.08397097520828249,0.0971042893409729,0.309360837078094,1.3912227213304211
3.200093503937008,0.048045682239532504,-0.140002644252777,0.6039482394218441,1.3912227213304211
3.200699197456087,-0.155530977916718,-0.0489919020652771,0.16805468473434398,1.3912227213304211
3.201304890975167,0.0288855259895325,-0.211853230190277,0.07943896207809431,1.3912227213304211
3.201910584494246,-0.107630587291718,-0.211853230190277,0.105784176921844,1.3912227213304211
3.202516278013325,-0.062125216197967494,0.0372288010597229,0.12254931364059399,1.3912227213304211
3.203121971532405,-0.035780001354217494,0.013278605747222899,0.225535153484344,1.3912227213304211
3.203727665051484,-0.165111056041718,-0.0609669997215271,0.132129391765594,1.3912227213304211
3.204333358570563,-0.0669152552604675,-0.156767780971527,0.139314450359344,1.3912227213304211
3.2049390520896432,0.0935510533332825,-0.317234089565277,0.16805468473434398,1.3912227213304211
3.205544745608722,-0.162716036510468,-0.0513869215965271,0.045908688640594296,1.3912227213304211
3.2061504391278013,-0.102840548229218,-0.0058815505027770805,0.151289548015594,1.3912227213304211
3.206756132646881,0.0145154088020325,-0.0465968825340271,0.07943896207809431,1.3912227213304211
3.20736182616596,-0.0645202357292175,-0.154372761440277,-0.00678174104690565,1.3912227213304211
3.207967519685039,0.0240954869270325,-0.183112995815277,0.07704394254684431,1.3912227213304211
3.208573213204119,-0.105235567760468,-0.039411823940277105,0.268645505046844,1.3912227213304211
3.209178906723198,-0.038175020885467495,0.0899192307472229,0.048303708171844296,1.3912227213304211
3.209784600242277,0.110316190052032,0.137819621372223,0.08422900114059431,1.3912227213304211
3.210390293761357,0.146241483020782,-0.0753371169090271,0.206374997234344,1.3912227213304211
3.210995987280436,0.0648108189582825,-0.0873122145652771,0.08901904020309431,1.3912227213304211
3.211601680799515,-0.143555880260468,-0.00109151144027708,0.0315385714530944,1.3912227213304211
3.212207374318595,-0.011829806041717501,0.0755491135597229,0.21835009489059398,1.3912227213304211
3.2128130678376743,0.0600207798957825,0.190510051059723,0.306965817546844,1.3912227213304211
3.213418761356753,-0.208221407604218,0.06836405496597289,0.304570798015594,1.3912227213304211
3.214024454875833,-0.09326047010421751,-0.219038288784027,0.237510251140594,1.3912227213304211
3.214630148394912,-0.239356661510468,-0.149582722377777,0.06746386442184431,1.3912227213304211
3.215235841913992,0.301917752552032,0.152189738559723,-0.00917676057815565,1.3912227213304211
3.215841535433071,-0.0788903529167175,-0.120842488002777,-0.251073733234406,1.3912227213304211
3.21644722895215,-0.26330685682296795,-0.13760762472152702,-0.10737256135940601,1.3912227213304211
3.21705292247123,0.07918093614578249,-0.0585719801902771,0.393186520671844,1.3912227213304211
3.217658615990309,-0.404613009166718,-0.0897072340965271,-0.0714472683906557,1.3912227213304211
3.2182643095093884,0.107921170520782,-0.0585719801902771,0.266250485515594,1.3912227213304211
3.218870003028468,-0.172296114635468,-0.0897072340965271,0.352471188640594,1.3912227213304211
3.2194756965475473,0.0193054478645325,-0.034621784877777104,-0.0211518582344056,1.3912227213304211
3.220081390066626,0.27796755723953204,-0.039411823940277105,0.175239743328094,1.3912227213304211
3.220687083585706,-0.0693102747917175,0.101894328403473,0.12015429410934399,1.3912227213304211
3.221292777104785,-0.00464474744796754,0.118659465122223,0.22793017301559398,1.3912227213304211
3.2218984706238643,-0.335157442760468,0.0252537034034729,0.0291435519218444,1.3912227213304211
3.222504164142944,0.186956815052032,-0.27172871847152696,0.139314450359344,1.3912227213304211
3.223109857662023,-0.179481173229218,0.06836405496597289,0.110574215984344,1.3912227213304211
3.223715551181102,-0.0693102747917175,-0.0968922926902771,0.12015429410934399,1.3912227213304211
3.224321244700182,0.0264905064582825,-0.221433308315277,0.136919430828094,1.3912227213304211
3.2249269382192614,-0.186666231822968,0.259965617465973,0.27104052457809397,1.3912227213304211
3.22553263173834,0.186956815052032,-0.0130666090965271,0.438691891765594,1.3912227213304211
3.2261383252574203,-0.110025606822968,0.0372288010597229,-0.12653271760940601,1.3912227213304211
3.226744018776499,0.057625760364532506,0.0372288010597229,0.180029782390594,1.3912227213304211
3.2273497122955783,0.021700467395782498,-0.0298317458152771,0.0267485323905944,1.3912227213304211
3.227955405814658,0.021700467395782498,0.140214640903473,-0.09539746370315569,1.3912227213304211
3.2285610993337372,-0.035780001354217494,-0.10168233175277701,0.687773923015594,1.3912227213304211
3.229166792852816,-0.407008028697968,-0.0513869215965271,0.177634762859344,1.3912227213304211
3.229772486371896,-0.8596667201042181,-1.2273415114402801,0.12015429410934399,1.3912227213304211
3.230378179890975,0.871932400989532,0.6575388596534729,-0.270233889484406,1.3912227213304211
3.230983873410055,2.48617556505203,2.11371073465347,0.6159233370780941,1.3912227213304211
3.2315895669291343,-2.01646115369797,-2.1446339919090303,0.170449704265594,1.3912227213304211
3.232195260448213,-0.823741427135468,-0.844138386440277,-0.948024416828156,1.3912227213304211
3.2328009539672933,0.43843386583328203,1.08864237527847,1.06618700895309,1.3912227213304211
3.233406647486372,-0.5794494349479681,0.204880168247223,-0.143297854328156,1.3912227213304211
3.2340123410054513,0.852772244739532,0.523417765903473,0.15847460660934398,1.3912227213304211
3.234618034524531,-2.90980343885422,-2.53502217550278,-1.07496045198441,1.3912227213304211
3.2352237280436102,2.5652112095832798,-0.908803913784027,-0.373219729328156,1.3912227213304211
3.235829421562689,5.9733240025520296,6.63311259012222,1.7439775362968402,1.3912227213304211
3.236435115081769,-5.84609738416672,-2.39850606222153,-1.07975049104691,1.3912227213304211
3.237040808600848,-2.41403439588547,-5.2461842848777795,-0.751632815265656,1.3912227213304211
3.237646502119927,2.08860232286453,3.79740946512222,1.95713427457809,1.3912227213304211
3.2382521956390073,0.440828885364532,1.15809794168472,-0.0522871121406557,1.3912227213304211
3.238857889158086,0.946178006458282,0.540182902622223,-0.174433108234406,1.3912227213304211
3.239463582677165,-3.35048703260422,-2.34342061300278,-1.4677436551094099,1.3912227213304211
3.240069276196245,2.7017273228645298,-3.9145534255027803,-0.622301760578156,1.3912227213304211
3.2406749697153243,5.09435183458328,7.449814250278471,1.5092656222343401,1.3912227213304211
3.241280663234403,-5.06532101697922,0.463542277622223,-0.8210883816719059,1.3912227213304211
3.2418863567534832,-4.21029904432297,-8.309414265346529,-0.725287600421906,1.3912227213304211
3.242492050272562,2.93164919786453,4.295573527622221,0.891350583171844,1.3912227213304211
3.2430977437916413,3.8657068150520297,2.8346116135597197,0.831475094890594,1.3912227213304211
3.243703437310721,-0.0501501185417175,0.013278605747222899,-0.13132275667190602,1.3912227213304211
3.2443091308298,-4.6581676966667205,0.0971042893409729,-0.967184573078156,1.3912227213304211
3.244914824348879,0.584530057239532,-6.78378682394028,-0.9192841824531559,1.3912227213304211
3.245520517867959,6.0331994908332796,4.41292948465347,1.4062797823905901,1.3912227213304211
3.246126211387038,-1.30514035291672,6.16129374246597,0.311755856609344,1.3912227213304211
3.246731904906118,-6.5478381068229705,-8.68543233175278,-1.64018506135941,1.3912227213304211
3.2473375984251973,1.27429568223953,-0.0777321364402771,0.362051266765594,1.3912227213304211
3.247943291944276,4.87880007677078,5.114670207309721,0.9632011691093441,1.5788917610503144
3.2485489854633562,-0.315997286510468,-0.676487019252777,0.690168942546844,1.5788917610503144
3.249154678982435,-5.41978390760422,1.7113474534034698,-1.02945508089066,1.5788917610503144
3.2497603725015143,-1.11832882947922,-6.9155128981590295,-1.25937695589066,1.5788917610503144
3.250366066020594,8.23661745958328,-0.9614943434715271,-0.0882124051094057,1.5788917610503144
3.250971759539673,2.35684451036453,11.308190715122201,0.886560544109344,1.5788917610503144
3.251577453058752,-9.38114621229172,-5.7778786208152795,1.05900195035934,1.5788917610503144
3.252183146577832,-1.63086300916672,-5.25576436300278,-2.21738476839066,1.5788917610503144
3.252788840096911,5.73861208848953,4.31233866434097,3.54024218473434,1.5788917610503144
3.25339453361599,1.8443103306770299,2.8346116135597197,-0.981554690265656,1.5788917610503144
3.2540002271350703,-5.61378048963547,0.8180051682472229,0.139314450359344,1.5788917610503144
3.254605920654149,-3.25708127088547,-6.33112813253403,-1.36715283479691,1.5788917610503144
3.255211614173228,9.67841921739578,-3.39722920675278,-1.94435254182816,1.5788917610503144
3.255817307692308,3.5998596470832798,9.99572001199722,4.6419511691093405,1.5788917610503144
3.2564230012113873,-10.5211755091667,0.779684855747223,-1.7407758816719099,1.5788917610503144
3.257028694730466,-4.03546261854172,-9.89252217550278,-0.912099123859406,1.5788917610503144
3.257634388249546,6.2655163853645295,2.84898173074722,1.2098881808280901,1.5788917610503144
3.258240081768625,5.7936975377082796,5.79725077371597,0.412346676921844,1.5788917610503144
3.2588457752877042,-5.02939572401047,0.726994426059723,1.7320024386405901,1.5788917610503144
3.259451468806784,-6.3083361536979705,-3.5217702223777803,-2.5622675808906603,1.5788917610503144
3.260057162325863,7.1037732213020295,-7.02568379659653,-0.275023928546906,1.5788917610503144
3.260662855844942,4.79018435411453,5.991247355747221,2.6037895480155897,1.5788917610503144
3.261268549364022,-8.11657589979172,5.9241868088722205,-0.176828127765656,1.5788917610503144
3.261874242883101,-4.82581906385422,-8.12739278097153,-0.926469241046906,1.5788917610503144
3.26247993640218,5.69789675645828,-1.25847676534653,-0.10258252229690601,1.5788917610503144
3.2630856299212603,7.48937136583328,5.533798625278471,1.27694872770309,1.5788917610503144
3.263691323440339,-4.18874386854172,2.1161057541847197,0.690168942546844,1.5788917610503144
3.264297016959419,-9.66136349744797,-0.947124226284027,-1.37912793245316,1.5788917610503144
3.264902710478498,4.87161501817703,-6.43411397237778,-0.7612128933906559,1.5788917610503144
3.2655084039975772,7.4702112095832796,-0.10168233175277701,-0.176828127765656,1.5788917610503144
3.266114097516657,-3.92289670057297,8.30004618387222,0.7787846652030941,1.5788917610503144
3.266719791035736,-6.81129025526047,-2.53502217550278,1.3128740206718401,1.5788917610503144
3.267325484554815,2.22751345567703,-4.85579610128403,-1.89405713167191,1.5788917610503144
3.267931178073895,7.19478396348953,2.11850077371597,1.77511279020309,1.5788917610503144
3.268536871592974,-2.39008420057297,3.38546610574722,-0.583981448078156,1.5788917610503144
3.269142565112053,-9.38833127088547,-0.35076436300277697,0.546467770671844,1.5788917610503144
3.2697482586311333,2.63706179552078,-4.72407002706528,-1.05580029573441,1.5788917610503144
3.270353952150212,10.9381994908333,-2.42964131612778,-1.79586133089066,1.5788917610503144
3.270959645669291,-2.0883117396354702,5.1194602463722205,3.06363329801559,1.5788917610503144
3.271565339188371,-7.94413449354172,4.388979289340971,-1.3216474637031599,1.5788917610503144
3.2721710327074502,-1.24047482557297,-6.64487569112778,-0.023546877765655602,1.5788917610503144
3.272776726226529,5.9733240025520296,-1.7015553786277802,0.953621090984344,1.5788917610503144
3.273382419745609,1.98082644395828,6.039147746372221,-0.5791914090156559,1.5788917610503144
3.273988113264688,-9.34282589979172,-0.7603127028465271,1.02786669645309,1.5788917610503144
3.274593806783767,0.462384061145782,-2.53262715597153,-2.5119721707344103,1.5788917610503144
3.275199500302847,12.3033606236458,-3.07150655050278,0.15368456754684398,1.5788917610503144
3.275805193821926,-1.40812619276047,0.6575388596534729,0.6207133761405941,1.5788917610503144
3.276410887341005,-8.14292111463547,7.32048319559097,0.472222165203094,1.5788917610503144
3.277016580860085,-3.33851193494797,-4.225905964565279,2.0744902316093397,1.5788917610503144
3.277622274379164,5.49671511583328,-5.21504903097153,-2.6149580105781602,1.5788917610503144
3.278227967898244,6.53375857286453,5.90263163309097,1.9715043917655901,1.5788917610503144
3.2788336614173232,-9.62064816541672,1.6299167893409698,-0.5576362332344059,1.5788917610503144
3.279439354936402,-1.3075353724479701,-2.15181905050278,-1.40068310823441,1.5788917610503144
3.280045048455482,9.09403445177078,-2.05122823019028,1.11408739957809,1.5788917610503144
3.280650741974561,0.155821561145782,-2.02967305440903,-2.34192578401566,1.5788917610503144
3.28125643549364,-6.41611203260422,4.79134257059097,2.91514208707809,1.5788917610503144
3.28186212901272,-4.88808957166672,2.01072489480972,0.20877001676559398,1.5788917610503144
3.282467822531799,6.9840222447395295,-7.073584187221529,-1.12046582307816,1.5788917610503144
3.283073516050878,6.85708620958328,3.07171854715347,1.3080839816093401,1.5788917610503144
3.283679209569958,-7.27592404432297,5.466738078403471,-0.8737788113594059,1.5788917610503144
3.284284903089037,-4.5647619349479704,-3.93610860128403,1.1619877902030902,1.5788917610503144
3.284890596608116,6.67027468614578,-0.647746784877777,-1.54198926057816,1.5788917610503144
3.2854962901271962,3.99264285020828,-2.89188008565903,-1.19471142854691,1.5788917610503144
3.286101983646275,-5.63773068494797,1.4383152268409698,0.893745602703094,1.5788917610503144
3.2867076771653543,-4.35639523572922,7.2749778244972205,-0.09779248323440569,1.5788917610503144
3.287313370684434,3.7627209752082798,-6.343103230190279,1.24102343473434,1.5788917610503144
3.287919064203513,5.98050906114578,-1.6368898512840302,-0.7731879910469059,1.5788917610503144
3.288524757722592,-4.30130978651047,5.32782694559097,1.67931200895309,1.5788917610503144
3.289130451241672,-7.75013791151047,-2.52783711690903,-0.167248049640656,1.5788917610503144
3.289736144760751,7.83425417833328,0.0947092698097229,-1.26895703401566,1.5788917610503144
3.29034183827983,6.62955935411453,-2.33384053487778,1.21707323942184,1.5788917610503144
3.29094753179891,-6.94062130994797,-1.61054463644028,-3.1011469754219103,1.5788917610503144
3.291553225317989,-3.50376828260422,7.57196024637222,3.16182909879684,1.5788917610503144
3.2921589188370683,-0.0166198451042175,-1.4189430739402802,0.201584958171844,1.5788917610503144
3.292764612356148,5.57575076036453,-5.36833028097153,-1.8701069363594098,1.5788917610503144
3.2933703058752273,-0.756680880260468,4.388979289340971,2.36907763395309,1.5788917610503144
3.293975999394306,-9.75955929822922,0.236015422153473,-3.35501904573441,1.5788917610503144
3.294581692913386,7.8558093541145295,-2.1446339919090303,1.83259325895309,1.5788917610503144
3.295187386432465,6.42119265489578,0.7964499924659729,-1.8054414090156599,1.5788917610503144
3.295793079951545,-5.49881955213547,-5.17672871847153,-1.62341992464066,1.5788917610503144
3.296398773470624,-4.28933468885422,5.2990867112159705,4.72817187223434,1.5788917610503144
3.297004466989703,-1.1710192591667201,5.89544657449722,-0.964789553546906,1.5788917610503144
3.297610160508783,5.72184695177078,-10.417031452846501,0.8171049777030941,1.5788917610503144
3.298215854027862,1.19765505723953,4.12073710184097,-1.81502148714066,1.5788917610503144
3.2988215475469413,-8.57881466932297,4.00338114480972,0.594368161296844,1.5788917610503144
3.299427241066021,3.99024783067703,-4.266621296596529,0.40037157926559397,1.5788917610503144
3.3000329345851003,7.93484499864578,2.91604227762222,-1.7455659207344099,1.5788917610503144
3.300638628104179,-5.69521115369797,-6.163476765346529,0.242300290203094,1.5788917610503144
3.301244321623259,-4.59110714979172,1.4766355393409698,0.06267382535934429,1.5788917610503144
3.301850015142338,0.0935510533332825,8.81018534402847,2.6109746066093398,1.5788917610503144
3.3024557086614172,5.63802126817703,-7.578933308315279,-0.8594086941719059,1.5788917610503144
3.303061402180497,2.7017273228645298,-0.49207051534652696,-0.8929389676094059,1.5788917610503144
3.303667095699576,-7.77887814588547,6.132553508090971,0.8003398409843441,1.5788917610503144
3.304272789218655,0.050440701770782505,-4.37679219503403,-0.847433596515656,1.5788917610503144
3.304878482737735,7.47739626817703,1.17007303934097,0.5776030245780941,1.5788917610503144
3.3054841762568143,-1.93503048963547,-1.8213063551902802,-1.21387158479691,1.5788917610503144
3.306089869775893,-4.91443478651047,-3.28466328878403,-1.01268994417191,1.5788917610503144
3.3066955632949733,0.208511990833282,8.83413553934097,2.84568652067184,1.5788917610503144
3.307301256814052,4.8285046666145295,-2.15181905050278,-0.32771435823440603,1.5788917610503144
3.3079069503331313,1.80359499864578,-6.00061543722153,0.000403317546844352,1.5788917610503144
3.308512643852211,-7.39807004041672,6.357685344028471,0.14889452848434398,1.5788917610503144
3.3091183373712902,-1.34825070447922,-2.70985860128403,0.0363286105155943,1.5788917610503144
3.309724030890369,8.96230837755203,-1.0596901442527802,0.06746386442184431,1.5788917610503144
3.310329724409449,0.8934875767707819,1.49579569559097,-2.1766694363594103,1.5788917610503144
3.310935417928528,-6.13110470838547,-6.295202839565279,0.08183398160934431,1.5788917610503144
3.311541111447607,-1.29795529432297,7.29413798074722,1.6721269503593401,1.5788917610503144
3.3121468049666873,3.67650027208328,3.94350565652847,1.17875292692184,1.5788917610503144
3.312752498485766,1.28627077989578,-9.27939717550278,-1.04622021760941,1.5788917610503144
3.3133581920048463,-5.79340695447922,3.78064432840347,-1.07975049104691,1.5788917610503144
3.313963885523925,-3.08703488416672,0.27673075418472304,0.647058590984344,1.5788917610503144
3.3145695790430043,10.4304553502083,-2.09433858175278,-0.842643557453156,1.5788917610503144
3.315175272562084,2.69933230333328,3.94111063699722,0.15847460660934398,1.5788917610503144
3.3157809660811632,-9.49850216932297,-7.878310749721529,-1.75275097932816,1.5788917610503144
3.316386659600242,-0.466883516979218,2.36039774637222,1.6673369112968401,1.5788917610503144
3.316992353119322,1.81557009630203,9.05926737527847,3.8444096652030897,1.5788917610503144
3.317598046638401,2.79273806505203,-7.35140645284653,-2.2964204129219103,1.5788917610503144
3.31820374015748,-3.02476437635422,-1.48121358175278,0.908115719890594,1.5788917610503144
3.3188094336765603,-4.27735959119797,4.89193339090347,-0.8402485379219059,1.5788917610503144
3.319415127195639,9.01739382677078,-3.43315449972153,0.347681149578094,1.5788917610503144
3.320020820714718,2.51012576036453,3.30164042215347,-0.356454592609406,1.5788917610503144
3.320626514233798,-8.25548703260422,-4.4342726637840295,-1.27853711214066,1.5788917610503144
3.3212322077528773,-2.50983517713547,-2.88709004659653,1.21946825895309,1.5788917610503144
3.321837901271956,3.06577029161453,10.9297776291847,1.3847246066093402,1.5788917610503144
3.3224435947910362,4.8021594517707795,-3.83551778097153,0.608738278484344,1.5788917610503144
3.323049288310115,-2.57689572401047,-4.08699483175278,-1.78628125276566,1.5788917610503144
3.3236549818291943,-5.92513302869797,5.50984842996597,0.5632329073905941,1.5788917610503144
3.324260675348274,6.11463015489578,-2.64279805440903,-0.13132275667190602,1.5788917610503144
3.324866368867353,5.07758669786453,0.5761081955909729,0.374026364421844,1.5788917610503144
3.325472062386432,-6.26043576307297,0.348581340122223,-1.47971875276566,1.5788917610503144
3.326077755905512,-3.51095334119797,-6.51075459737778,-0.198383303546906,1.5788917610503144
3.326683449424591,3.45136843614578,7.914448039340971,1.77511279020309,1.5788917610503144
3.327289142943671,4.7686291783332795,2.92083231668472,0.829080075359344,1.5788917610503144
3.3278948364627503,-3.06787472791672,-7.54540303487778,-0.7204975613594059,1.5788917610503144
3.328500529981829,-7.1992834193229704,3.23218485574722,0.0291435519218444,1.5788917610503144
3.3291062235009092,3.99503786973953,-0.710017292690277,0.242300290203094,1.5788917610503144
3.329711917019988,8.80663210802078,-0.690857136440277,-1.00789990510941,1.5788917610503144
3.3303176105390673,-3.72650509901047,2.48733378152847,-0.124137698078156,1.5788917610503144
3.330923304058147,-6.55502316541672,-6.448484089565279,-1.89884717073441,1.5788917610503144
3.331528997577226,2.70651736192703,2.66935526590347,2.4337431612968397,1.5788917610503144
3.332134691096305,3.83696658067703,8.15874003152847,2.10562548551559,1.5788917610503144
3.332740384615385,-2.26554318494797,-5.54077168722153,-1.59707470979691,1.5788917610503144
3.333346078134464,-7.42441525526047,-2.90385518331528,-0.0283369168281556,1.5788917610503144
3.333951771653543,2.57718630723953,2.90646219949722,-2.0425483426094098,1.5788917610503144
3.3345574651726233,11.764481229114502,-1.79017110128403,1.95473925504684,1.5788917610503144
3.335163158691702,-2.5577355677604703,2.53283915262222,-0.9552094754219059,1.5788917610503144
3.335768852210781,-8.77520627088547,-4.39834737081528,-1.3911030301094098,1.5788917610503144
3.336374545729861,0.8982776158332819,-3.36609395284653,3.04686816129684,1.5788917610503144
3.3369802392489403,4.90754031114578,11.138144328403499,0.572812985515594,1.5788917610503144
3.337585932768019,0.289942654895782,-2.90385518331528,0.912905758953094,1.5788917610503144
3.338191626287099,-7.20167843885422,-5.6916579176902795,-3.24484814729691,1.5788917610503144
3.338797319806178,1.14975466661453,3.29685038309097,0.867400387859344,1.5788917610503144
3.3394030133252572,10.9693347447395,0.176139933872223,0.0243535128593444,1.5788917610503144
3.340008706844337,-1.30035031385422,1.55088114480972,-1.20908154573441,1.5788917610503144
3.340614400363416,-10.188267794323,-2.5637624098777803,0.285410641765594,1.5788917610503144
3.341220093882495,-0.035780001354217494,-4.58994893331528,-0.988739748859406,1.5788917610503144
3.341825787401575,6.52178347520828,7.71805643777847,3.10195361051559,1.5788917610503144
3.342431480920654,2.26104372911453,3.47408182840347,-0.174433108234406,1.5788917610503144
3.343037174439733,-5.57546017713547,-7.03765889425278,-1.47971875276566,1.5788917610503144
3.3436428679588133,-3.08942990369797,1.6562620041847198,-0.0307319363594056,1.5788917610503144
3.344248561477892,8.31086306505203,1.28982401590347,-0.248678713703156,1.5788917610503144
3.344854254996972,3.0705603306770297,-0.748337605190277,1.27694872770309,1.5788917610503144
3.345459948516051,-9.21588986463547,1.6682371018409698,-2.06170849885941,1.5788917610503144
3.3460656420351302,-1.93503048963547,-5.789853718471529,-0.356454592609406,1.5788917610503144
3.34667133555421,6.39005740098953,2.4921238205909697,1.99545458707809,1.5788917610503144
3.347277029073289,3.6693152134895297,7.75877176980972,0.994336423015594,1.5788917610503144
3.347882722592368,-6.35384152479172,-5.21025899190903,-0.322924319171906,0.926632954050594
3.348488416111448,-7.11785275526047,-1.5434840895652802,-1.6042597683906599,0.926632954050594
3.349094109630527,8.03064577989578,0.5545530198097229,1.7272123995780901,0.926632954050594
3.349699803149606,7.5564319127082795,-0.10168233175277701,-1.50845898714066,0.926632954050594
3.3503054966686863,-6.60292355604172,1.23952860574722,0.08183398160934431,0.926632954050594
3.350911190187765,-5.12519650526047,-4.05106953878403,-0.30855420198440603,0.926632954050594
3.351516883706844,3.91839724473953,-0.793842976284027,0.812314938640594,0.926632954050594
3.352122577225924,4.88119509630203,7.9336081955909705,3.2528398409843398,0.926632954050594
3.3527282707450032,-5.1371716029167205,-0.27412373800277695,-2.10481885042191,0.926632954050594
3.353333964264082,-8.71772580213547,-7.219680378627779,-1.46534863557816,0.926632954050594
3.353939657783162,5.85117800645828,1.94845438699722,-0.986344729328156,0.926632954050594
3.354545351302241,12.708118924427001,1.55567118387222,0.8554252902030941,0.926632954050594
3.35515104482132,-5.24973752088547,0.47791239480972303,-0.181618166828156,0.926632954050594
3.3557567383404,-9.32606076307297,-1.84525655050278,-1.83657666292191,0.926632954050594
3.356362431859479,2.63945681505203,-5.46173604269028,2.15352587614059,0.926632954050594
3.356968125378558,5.6404162877082795,7.61986063699722,1.75595263395309,0.926632954050594
3.357573818897638,-1.06084836072922,5.1793357346534705,0.6829838839530941,0.926632954050594
3.358179512416717,-9.13206418104172,-9.01115498800278,-1.8485517605781598,0.926632954050594
3.358785205935796,3.3268274205207797,-0.34118428487777697,-1.48211377229691,0.926632954050594
3.3593908994548762,12.1668445103645,3.65370829324722,1.22425829801559,0.926632954050594
3.359996592973955,-3.45826291151047,-0.24777852315902701,-0.502550784015656,0.926632954050594
3.360602286493035,-10.739122286510499,-0.0633620192527771,-0.14090283479690602,0.926632954050594
3.361207980012114,0.706676053333282,-5.124038288784029,0.12254931364059399,0.926632954050594
3.361813673531193,7.5899621861457796,2.85377176980972,0.7428593722343441,0.926632954050594
3.362419367050273,1.40602175645828,8.03419901590347,1.85654345426559,0.926632954050594
3.363025060569352,-7.8914440638542205,-5.363540241909029,-1.7886762722969098,0.926632954050594
3.363630754088431,-1.4009411341667202,-3.44273457784653,-0.452255373859406,0.926632954050594
3.364236447607511,9.48921267442703,3.69202860574722,0.491382321453094,0.926632954050594
3.36484214112659,2.31612917833328,-1.06687520284653,0.0530937472343443,0.926632954050594
3.365447834645669,-10.2960436732292,1.01439676980972,-0.912099123859406,0.926632954050594
3.3660535281647492,-2.33978879041672,-2.65237813253403,-0.787558108234406,0.926632954050594
3.366659221683828,7.90610476427078,-2.6068727614402802,1.7439775362968402,0.926632954050594
3.3672649152029073,3.14001589708328,8.33836649637222,0.714119137859344,0.926632954050594
3.367870608721987,-7.28071408338547,-0.695647175502777,-0.176828127765656,0.926632954050594
3.368476302241066,-6.75859982557297,-6.35747334737778,-1.86292187776566,0.926632954050594
3.369081995760145,8.81142214708328,1.7017673752784699,0.591973141765594,0.926632954050594
3.369687689279225,8.12884158067703,1.06708719949722,0.019563473796844397,0.926632954050594
3.370293382798304,-7.75492795057297,0.626403605747223,-0.732472659015656,0.926632954050594
3.370899076317383,-5.24255246229172,-1.40457295675278,-0.00678174104690565,0.926632954050594
3.3715047698364633,5.58293581895828,-3.91694844503403,-0.138507815265656,0.926632954050594
3.372110463355542,4.27525515489578,6.00322245340347,2.27567187223434,0.926632954050594
3.3727161568746213,-4.91922482557297,5.3254319260597205,-0.234308596515656,0.926632954050594
3.373321850393701,-8.89016720838547,-9.43028340597153,-0.943234377765656,0.926632954050594
3.3739275439127803,5.94218874864578,-0.0561769606590271,-2.3562959012031603,0.926632954050594
3.374533237431859,13.5535608189583,3.40462626199722,1.8517534152030901,0.926632954050594
3.375138930950939,-5.91794797010422,-1.26805684347153,-0.366034670734406,0.926632954050594
3.375744624470018,-9.45299679822922,0.9569163010597229,-1.31685742464066,0.926632954050594
3.376350317989098,2.00717165880203,-5.9646901442527795,2.20861132535934,0.926632954050594
3.376956011508177,6.54573367052078,3.47168680887222,0.263855465984344,0.926632954050594
3.377561705027256,-0.617769747447968,8.82455546121597,3.79650927457809,0.926632954050594
3.3781673985463363,-11.0384997279167,-6.85324239034653,-3.87473828401566,0.926632954050594
3.378773092065415,4.03096316270828,-4.977942097377779,-0.457045412921906,0.926632954050594
3.3793787855844943,12.564417752552,6.38642557840347,1.02307665739059,0.926632954050594
3.379984479103574,-2.9768639857292203,-0.25017354269027703,-1.93237744417191,0.926632954050594
3.3805901726226533,-11.2348913294792,-1.31835225362778,1.67931200895309,0.926632954050594
3.381195866141732,-0.29923214979171797,-1.99374776144028,-2.00662304964066,0.926632954050594
3.381801559660812,8.94793826036453,-2.21408955831528,2.64210986051559,0.926632954050594
3.382407253179891,0.941387967395782,9.892734172153471,0.431506833171844,0.926632954050594
3.3830129466989702,-8.06388547010422,-1.6967653395652802,-0.8977290066719059,0.926632954050594
3.38361864021805,-1.8416247279167202,-7.91663106222153,-0.36842969026565603,0.926632954050594
3.384224333737129,10.0400671666145,5.31824686746597,-0.6941523465156559,0.926632954050594
3.384830027256208,2.8310583775520297,-0.805818073940277,2.17987109098434,0.926632954050594
3.385435720775288,-10.533150606823,0.0994993088722229,-2.61735303010941,0.926632954050594
3.3860414142943673,-2.78526242322922,-0.671696980190277,0.790759762859344,0.926632954050594
3.386647107813446,8.35636843614578,-4.56120869894028,0.247090329265594,0.926632954050594
3.3872528013325263,3.62380984239578,7.05224100809097,0.6829838839530941,0.926632954050594
3.387858494851605,-7.57290646619797,3.48126688699722,1.00391650114059,0.926632954050594
3.3884641883706843,-6.40174191541672,-7.746584675502779,-2.53113232698441,0.926632954050594
3.389069881889764,7.98993044786453,-0.025041706752777098,0.934460934734344,0.926632954050594
3.3896755754088432,8.74675661973953,3.40462626199722,-0.991134768390656,0.926632954050594
3.390281268927922,-8.33452267713547,-2.00332783956528,0.5201225558280941,0.926632954050594
3.390886962447002,-5.88441769666672,1.36646464090347,-1.08454053010941,0.926632954050594
3.391492655966081,5.62125613145828,-4.36481709737778,0.570417965984344,0.926632954050594
3.39209834948516,4.37584597520828,2.39392801980972,2.06251513395309,0.926632954050594
3.3927040430042403,-4.33723507947922,9.353854777622221,0.5177275362968441,0.926632954050594
3.393309736523319,-10.686431856822999,-9.01115498800278,-0.9144941433906559,0.926632954050594
3.3939154300423993,5.63802126817703,-2.9996559645652803,-3.01971631135941,0.926632954050594
3.394521123561478,13.809827908802001,5.07634989480972,2.57504931364059,0.926632954050594
3.3951268170805573,-5.75987668104172,-1.56743428487778,-1.7240107449531599,0.926632954050594
3.395732510599637,-9.35480099744797,0.561738078403473,-0.337294436359406,0.926632954050594
3.3963382041187162,1.9520862095832798,-3.72534688253403,1.59788134489059,0.926632954050594
3.396943897637795,6.56010378770828,-0.269333698940277,0.328520993328094,0.926632954050594
3.397549591156875,-0.32078732557296796,9.89512919168472,3.4923417941093398,0.926632954050594
3.398155284675954,-10.226588106823,-3.27029317159653,-3.19215771760941,0.926632954050594
3.398760978195033,2.97715456895828,-9.39196309347153,-0.646251955890656,0.926632954050594
3.3993666717141133,13.575115994739502,6.88698466043472,0.239905270671844,0.926632954050594
3.399972365233192,-3.30019162244797,0.6766990159034729,-0.251073733234406,0.926632954050594
3.400578058752271,-11.1989660365105,-1.94824239034653,0.0147734347343444,0.926632954050594
3.401183752271351,0.050440701770782505,-0.185508015346527,-0.164853030109406,0.926632954050594
3.4017894457904303,8.36834353380203,-4.259436238002779,1.51405566129684,0.926632954050594
3.402395139309509,2.2227234166145298,8.37429178934097,0.687773923015594,0.926632954050594
3.4030008328285892,-8.81113156385422,2.34842264871597,0.515332516765594,0.926632954050594
3.403606526347668,-1.74582394666672,-9.29616231222153,-2.2988154324531602,0.926632954050594
3.4042122198667473,10.437640408802,2.99507792215347,1.02307665739059,0.926632954050594
3.404817913385827,2.44306521348953,2.85616678934097,-0.004386721515655651,0.926632954050594
3.405423606904906,-10.097257052135499,-2.66195821065903,-1.75275097932816,0.926632954050594
3.406029300423985,-3.43191769666672,1.2922190354347198,0.268645505046844,0.926632954050594
3.406634993943065,8.10010134630203,-4.20195576925278,0.12494433317184399,0.926632954050594
3.407240687462144,4.45727663927078,2.5088889573097197,2.24214159879684,0.926632954050594
3.407846380981224,-7.54656125135422,7.99587870340347,0.745254391765594,0.926632954050594
3.4084520745003033,-7.04600216932297,-8.429165241909029,-1.97069775667191,0.926632954050594
3.409057768019382,7.59475222520828,-3.2726881911277803,0.0914140597343443,0.926632954050594
3.4096634615384622,9.26408083848953,5.6583396409034705,0.527307614421844,0.926632954050594
3.410269155057541,-8.08304562635422,-2.44880147237778,-0.502550784015656,0.926632954050594
3.4108748485766203,-6.49993771619797,0.741364543247223,-0.9192841824531559,0.926632954050594
3.4114805420957,5.6739465611457796,-2.72901875753403,1.0015214816093398,0.926632954050594
3.412086235614779,4.77102419786453,-0.935149128627777,0.745254391765594,0.926632954050594
3.412691929133858,-4.43543088026047,10.1226560471535,1.3128740206718401,0.926632954050594
3.413297622652938,-10.1188122279167,-5.14319844503403,-1.2282417019844099,0.926632954050594
3.413903316172017,5.30990359239578,-7.66515401144028,-2.42335644807816,0.926632954050594
3.414509009691096,13.757137479114501,6.743283488559721,1.29850390348434,0.926632954050594
3.4151147032101763,-5.63533566541672,-0.9231740309715271,-1.26416699495316,0.926632954050594
3.415720396729255,-9.225469942760471,-0.985444538784027,-0.277418948078156,0.926632954050594
3.416326090248334,1.68144900255203,-0.647746784877777,1.4446000948905902,0.926632954050594
3.416931783767414,5.99248415880203,-3.8546779372215303,-0.0858173855781557,0.926632954050594
3.4175374772864933,1.18088992052078,9.40175516824722,2.58941943082809,0.926632954050594
3.418143170805572,-11.1678307826042,1.4766355393409698,-1.70964062776566,0.926632954050594
3.418748864324652,1.8059900181770299,-11.8827834059715,-2.44491162385941,0.926632954050594
3.419354557843731,14.4061877720833,5.12904032449722,1.6074614230155901,0.926632954050594
3.4199602513628102,-2.33978879041672,4.269228312778471,-1.31685742464066,0.926632954050594
3.42056594488189,-11.2827917201042,-4.50133321065903,0.805129880046844,0.926632954050594
3.421171638400969,-0.7806310755729681,1.85504862527847,-0.0834223660469057,0.926632954050594
3.421777331920048,8.078546170520779,-4.50372823019028,0.893745602703094,0.926632954050594
3.422383025439128,3.29808718614578,4.65961649637222,1.25778857145309,0.926632954050594
3.422988718958207,-9.32366574354172,7.914448039340971,-0.207963381671906,0.926632954050594
3.423594412477286,-2.64874630994797,-10.8505299880028,-1.47971875276566,0.926632954050594
3.4242001059963663,11.3046374791145,0.183324992465973,-0.672597170734406,0.926632954050594
3.424805799515445,2.22032839708328,6.63550760965347,1.03505175504684,0.926632954050594
3.425411493034525,-9.46976193494797,-4.13250020284653,-1.1635761746406599,0.926632954050594
3.426017186553604,-3.46065793104172,1.07187723855972,0.33091601285934397,0.926632954050594
3.4266228800726832,7.01515749864578,-2.18055928487778,-0.344479494953156,0.926632954050594
3.427228573591763,5.3410388463020295,-0.956704304409027,0.690168942546844,0.926632954050594
3.427834267110842,-7.57051144666672,10.012485148716,0.8769804659843441,0.926632954050594
3.428439960629921,-6.30354611463547,-5.82817403097153,-1.35996777620316,0.926632954050594
3.429045654149001,7.1708337681770296,-6.81971211690903,-1.01268994417191,0.926632954050594
3.42965134766808,9.06529421739578,7.116906535434721,0.342891110515594,0.926632954050594
3.430257041187159,-6.68195920057297,-2.19732442159653,0.141709469890594,0.926632954050594
3.4308627347062393,-7.21365353651047,-0.0753371169090271,-1.3911030301094098,0.926632954050594
3.431468428225318,5.74819216661453,0.06836405496597289,1.66973193082809,0.926632954050594
3.4320741217443973,4.39021609239578,-3.76366719503403,0.445876950359344,0.926632954050594
3.432679815263477,-3.3456969935417202,9.45205057840347,1.85414843473434,0.926632954050594
3.4332855087825562,-10.983414278698,-0.853718464565277,-0.7731879910469059,0.926632954050594
3.433891202301635,4.33513064317703,-10.594262898159,-3.46518994417191,0.926632954050594
3.434496895820715,15.4432312291145,5.246396281528471,2.8001811495780897,0.926632954050594
3.435102589339794,-5.32158810682297,2.45859354715347,-2.86883008089066,0.926632954050594
3.435708282858873,-9.08416379041672,-4.1085500075340295,0.769204587078094,0.926632954050594
3.436313976377953,1.07311404161453,1.44071024637222,1.02786669645309,0.926632954050594
3.436919669897032,5.75777224473953,-3.8810231520652803,0.129734372234344,0.926632954050594
3.437525363416111,0.9557580845832819,5.66312967996597,3.1091386691093397,0.926632954050594
3.438131056935191,-10.7295422083855,6.724123332309721,-2.9550507840156603,0.926632954050594
3.4387367504542703,1.74850954942703,-13.784428913784,-0.234308596515656,0.926632954050594
3.439342443973349,14.2553015416145,2.46338358621597,-1.05819531526566,0.926632954050594
3.4399481374924292,-1.89192013807297,7.169596965122221,0.45066698942184397,0.926632954050594
3.440553831011508,-11.9965075404167,-5.943134968471529,0.848240231609344,0.926632954050594
3.4411595245305873,-0.684830294322968,2.54002421121597,-1.14920605745316,0.926632954050594
3.441765218049667,7.51092654161453,-3.67744649190903,1.7870878878593401,0.926632954050594
3.442370911568746,3.6597351353645298,1.2275535080909699,-0.241493655109406,0.926632954050594
3.442976605087826,-8.60276486463547,10.079545695591,1.72481738004684,0.926632954050594
3.443582298606905,-3.9348717982292203,-9.200361530971529,-1.59707470979691,0.926632954050594
3.444187992125984,12.0327234166145,-3.27029317159653,-0.931259280109406,0.926632954050594
3.444793685645064,2.41911501817703,7.88570780496597,1.87570361051559,0.926632954050594
3.4453993791641433,-9.33324582166672,-3.65589131612778,-2.5359223660469103,0.926632954050594
3.446005072683222,-3.48700314588547,-0.28130879659652697,1.03744677457809,0.926632954050594
3.4466107662023022,6.67027468614578,0.343791301059723,-0.275023928546906,0.926632954050594
3.447216459721381,5.71466189317703,-3.61278096456528,0.6638237277030941,0.926632954050594
3.4478221532404603,-7.71900265760422,9.53108622293472,0.984756344890594,1.6590455883826167
3.44842784675954,-6.87116574354172,-2.27636006612778,-1.33362256135941,1.6590455883826167
3.449033540278619,7.07982302598953,-9.87575703878403,-1.0534052762031598,1.6590455883826167
3.449639233797698,9.35509158067703,7.33964335184097,-0.11695263948440601,1.6590455883826167
3.450244927316778,-7.0268420130729705,-0.6405617262840271,0.294990719890594,1.6590455883826167
3.4508506208358574,-6.6939342982292205,-2.09673360128403,-1.0438251980781599,1.6590455883826167
3.451456314354936,5.2476330845832795,1.74727274637222,1.81822314176559,1.6590455883826167
3.452062007874016,4.73030886583328,-4.225905964565279,-0.801928225421906,1.6590455883826167
3.452667701393095,-3.09900998182297,6.89416971902847,2.2972270480155896,1.6590455883826167
3.4532733949121743,-10.7295422083855,3.22978983621597,-0.6342768582344059,1.6590455883826167
3.453879088431254,4.26567507677078,-12.0552248122215,-1.93716748323441,1.6590455883826167
3.4544847819503333,14.2050061314583,3.43576151590347,1.33921923551559,1.6590455883826167
3.455090475469413,-4.56955197401047,4.79852762918472,-2.66764844026566,1.6590455883826167
3.455696168988492,-9.28774045057297,-5.4186256911277795,1.5212407198905902,1.6590455883826167
3.456301862507571,1.17849490098953,2.90646219949722,0.175239743328094,1.6590455883826167
3.4569075560266502,5.67634158067703,-4.17800557394028,0.6183183566093441,1.6590455883826167
3.4575132495457304,1.1689148228645299,2.58313456277847,1.7607426730155902,1.6590455883826167
3.458118943064809,-10.3056237513542,9.96218973855972,-0.888148928546906,1.6590455883826167
3.458724636583889,0.136661404895782,-13.180883991909,-0.9384443387031559,1.6590455883826167
3.459330330102968,15.859964627552001,-1.25368672628403,-1.67371533479691,1.6590455883826167
3.4599360236220473,-2.12902707166672,9.20775858621597,1.51166064176559,1.6590455883826167
3.460541717141127,-12.3006750208855,-5.65333760519028,-0.945629397296906,1.6590455883826167
3.4611474106602063,0.263597440052032,0.6575388596534729,0.33091601285934397,1.6590455883826167
3.461753104179285,6.5122033970832796,-0.9614943434715271,0.953621090984344,1.6590455883826167
3.462358797698365,4.29202029161453,-1.1962062575340302,-0.49776074495315603,1.6590455883826167
3.462964491217444,-9.64699338026047,10.4124534104347,1.76313769254684,1.6590455883826167
3.4635701847365232,-3.8749963099479703,-5.5455617262840295,-1.62341992464066,1.6590455883826167
3.4641758782556034,12.5716028111458,-7.80167012472153,-0.394774905109406,1.6590455883826167
3.464781571774682,2.1460827916145298,9.69634257059097,-0.124137698078156,1.6590455883826167
3.465387265293761,-9.13206418104172,-2.56855244894028,0.268645505046844,1.6590455883826167
3.465992958812841,-3.98756222791672,-1.8907619215965301,-0.21035840120315602,1.6590455883826167
3.4665986523319203,6.31341677598953,2.57115946512222,0.192004880046844,1.6590455883826167
3.467204345850999,6.12900027208328,-5.4186256911277795,0.457852048015594,1.6590455883826167
3.4678100393700793,-7.71421261854172,8.18029520730972,-0.229518557453156,1.6590455883826167
3.468415732889158,-7.36453976697922,1.5963865159034698,1.32005907926559,1.6590455883826167
3.4690214264082373,8.41624392442703,-11.219362995815299,-1.18752636995316,1.6590455883826167
3.469627119927317,9.20899538927078,5.19849589090347,0.0435136691093443,1.6590455883826167
3.4702328134463962,-7.83875363416672,1.5748313401222198,-0.217543459796906,1.6590455883826167
3.470838506965475,-6.55023312635422,-3.67026143331528,-1.08933056917191,1.6590455883826167
3.471444200484555,4.69677859239578,3.09806376199722,2.3571025362968396,1.6590455883826167
3.472049894003634,5.29792849473953,-3.39004414815903,-0.413935061359406,1.6590455883826167
3.472655587522714,-2.90501339979172,3.5100071213722197,1.83977831754684,1.6590455883826167
3.4732612810417933,-10.7367272669792,6.89895975809097,-0.5600312527656559,1.6590455883826167
3.473866974560872,3.39388796739578,-11.7318971755028,-2.3586909207344102,1.6590455883826167
3.474472668079951,14.547493924427,-0.156767780971527,1.13085253629684,1.6590455883826167
3.475078361599031,-4.83539914197922,7.97671854715347,-1.15878613557816,1.6590455883826167
3.4756840551181103,-9.85775509901047,-5.890444538784029,0.486592282390594,1.6590455883826167
3.47628974863719,2.06465212755203,1.63231180887222,0.225535153484344,1.6590455883826167
3.4768954421562692,5.50390017442703,-1.95303242940903,0.9224858370780941,1.6590455883826167
3.477501135675348,1.77724978380203,-0.398664753627777,1.43022997770309,1.6590455883826167
3.478106829194428,-10.6026061732292,11.047133586215999,0.215955075359344,1.6590455883826167
3.478712522713507,-0.445328341197968,-9.07582051534653,-1.25937695589066,1.6590455883826167
3.479318216232586,15.3546155064583,-5.9311598708152795,-1.36236279573441,1.6590455883826167
3.4799239097516663,-0.931517306041718,10.778891398715999,0.40995165739059397,1.6590455883826167
3.480529603270745,-12.2240343958855,-4.09896992940903,0.132129391765594,1.6590455883826167
3.481135296789824,0.155821561145782,-0.40105977315902697,0.0387236300468443,1.6590455883826167
3.481740990308904,6.48346316270828,1.28503397684097,1.51166064176559,1.6590455883826167
3.4823466838279833,3.85852175645828,-3.48105489034653,-0.562426272296906,1.6590455883826167
3.482952377347062,-8.89495724744797,9.43049540262222,1.28892382535934,1.6590455883826167
3.483558070866142,-4.52165158338547,-1.66563008565903,-0.8594086941719059,1.6590455883826167
3.484163764385221,12.8757702916145,-10.5391774489403,-1.39828808870316,1.6590455883826167
3.4847694579043003,3.07774538927078,8.23298563699722,0.376421383953094,1.6590455883826167
3.48537515142338,-10.0421716029167,0.870695597934723,-0.7157075222969059,1.6590455883826167
3.485980844942459,-3.25468625135422,-4.704909870815279,0.5799980441093441,1.6590455883826167
3.486586538461538,5.39372927598953,3.64412821512222,0.14889452848434398,1.6590455883826167
3.487192231980618,6.07630984239578,-4.213930866909029,0.0243535128593444,1.6590455883826167
3.487797925499697,-6.10954953260422,4.781762492465971,0.8218950167655941,1.6590455883826167
3.488403619018776,-8.11418088026047,5.09551005105972,0.28062060270309397,1.6590455883826167
3.4890093125378563,7.24986941270828,-11.456469929409,-2.20780469026566,1.6590455883826167
3.489615006056935,10.126287869739501,1.38801981668472,0.745254391765594,1.6590455883826167
3.490220699576015,-6.83524045057297,5.6583396409034705,-0.198383303546906,1.6590455883826167
3.490826393095094,-7.70223752088547,-5.052187702846529,-1.4509785183906598,1.6590455883826167
3.4914320866141733,5.07998171739578,2.39632303934097,1.51884570035934,1.6590455883826167
3.492037780133253,4.86682497911453,-1.7829860426902802,-0.375614748859406,1.6590455883826167
3.492643473652332,-1.89431515760422,0.0947092698097229,1.39909472379684,1.6590455883826167
3.493249167171411,-11.9941125208855,9.11674784402847,0.632688473796844,1.6590455883826167
3.493854860690491,2.94841433458328,-9.40393819112778,-1.37433789339066,1.6590455883826167
3.49446055420957,15.8048791783333,-4.2283009840965295,-0.586376467609406,1.6590455883826167
3.495066247728649,-4.65577267713547,9.67718241434097,-2.1263740262031603,1.6590455883826167
3.4956719412477293,-10.1738976771355,-5.4521559645652795,2.01221972379684,1.6590455883826167
3.496277634766808,1.9736413853645298,0.362951457309723,-0.133717776203156,1.6590455883826167
3.496883328285887,5.13267214708328,0.686279094028473,1.07816210660934,1.6590455883826167
3.497489021804967,1.84670535020828,-2.67872334737778,0.500962399578094,1.6590455883826167
3.4980947153240463,-10.1834777552605,10.1202610276222,-0.169643069171906,1.6590455883826167
3.498700408843125,-2.1218420130729703,-4.69053975362778,-0.176828127765656,1.6590455883826167
3.499306102362205,16.118626736927002,-8.91535420675278,-2.76584424104691,1.6590455883826167
3.499911795881284,0.680330838489532,8.85808573465347,1.45418017301559,1.6590455883826167
3.5005174894003632,-13.7760070521355,0.128239543247223,-0.904914065265656,1.6590455883826167
3.501123182919443,-0.248936739635468,-3.77085225362778,0.426716794109344,1.6590455883826167
3.501728876438522,6.44993288927078,2.36518778543472,1.33682421598434,1.6590455883826167
3.502334569957601,4.14113406114578,-2.53981221456528,-1.54677929964066,1.6590455883826167
3.502940263476681,-7.67589230604172,6.12297342996597,2.4672734347343397,1.6590455883826167
3.50354595699576,-6.94780636854172,3.05255839090347,-1.6042597683906599,1.6590455883826167
3.504151650514839,13.4984753697395,-11.719922077846501,-0.823483401203156,1.6590455883826167
3.5047573440339193,4.03335818223953,4.202167765903471,0.292595700359344,1.6590455883826167
3.505363037552998,-10.906773653698,5.10269510965347,-1.1084907254219099,1.6590455883826167
3.505968731072078,-3.4055724818229702,-6.33831319112778,1.61464648160934,1.6590455883826167
3.506574424591157,5.50869021348953,3.63454813699722,-0.969579592609406,1.6590455883826167
3.5071801181102362,5.89668337755203,-2.88230000753403,1.03505175504684,1.6590455883826167
3.507785811629316,-5.46528927869797,1.37604471902847,-0.169643069171906,1.6590455883826167
3.508391505148395,-9.05542355604172,7.70368632059097,0.546467770671844,1.6590455883826167
3.508997198667474,6.66069460802078,-9.30334737081528,-1.57551953401566,1.6590455883826167
3.509602892186554,10.9956799595833,-2.39611104269028,-0.358849612140656,1.6590455883826167
3.510208585705633,-6.85440060682297,6.72651835184097,0.45066698942184397,1.6590455883826167
3.510814279224712,-7.9177892786979704,-3.90976338644028,-1.7455659207344099,1.6590455883826167
3.5114199727437923,5.0751916783332796,0.410851847934723,2.46487841520309,1.6590455883826167
3.512025666262871,5.73621706895828,0.846745402622223,-0.248678713703156,1.6590455883826167
3.51263135978195,-1.98053586072922,-2.5972926833152803,0.5823930636405941,1.6590455883826167
3.51323705330103,-11.682759981822999,9.13351298074722,0.613528317546844,1.6590455883826167
3.513842746820109,1.62157351427078,-5.7515334059715295,-0.8210883816719059,1.6590455883826167
3.514448440339188,16.003665799427,-7.93100117940903,-1.70964062776566,1.6590455883826167
3.515054133858268,-3.05829464979172,9.58377665262222,-1.44379345979691,1.6590455883826167
3.515659827377347,-12.0108776576042,-2.62842793722153,1.78469286832809,1.6590455883826167
3.516265520896426,2.42630007677078,-2.07757344503403,-0.421120119953156,1.6590455883826167
3.516871214415506,5.56617068223953,2.05144022684097,0.953621090984344,1.6590455883826167
3.517476907934585,0.891092557239532,-3.24634297628403,-0.32771435823440603,1.6590455883826167
3.5180826014536644,-8.86142697401047,8.07251932840347,1.2434184542655902,1.6590455883826167
3.518688294972744,-3.41754757947922,-1.03334492940903,-0.524105959796906,1.6590455883826167
3.519293988491823,16.099466580677,-10.2900954176903,-3.49872021760941,1.6590455883826167
3.519899682010902,1.78682986192703,6.56844706277847,1.8517534152030901,1.6590455883826167
3.520505375529982,-14.2669860560417,2.98549784402847,-1.3216474637031599,1.6590455883826167
3.521111069049061,-0.28007199354171797,-5.337195027065279,1.4110698214530901,1.6590455883826167
3.5217167625681403,6.45951296739578,3.02381815652847,1.00870654020309,1.6590455883826167
3.52232245608722,4.06688845567703,-1.81412129659653,-1.32404248323441,1.6590455883826167
3.522928149606299,-7.37411984510422,3.52198221902847,1.8637285128593402,1.6590455883826167
3.523533843125379,-7.5058459193229705,5.68947489480972,-1.1731562527656598,1.6590455883826167
3.524139536644458,12.8733752720833,-11.906733601284001,-0.643856936359406,1.6590455883826167
3.5247452301635374,6.44035281114578,2.2262766526222197,-1.11567578401566,1.6590455883826167
3.525350923682617,-11.7665856654167,6.750468547153471,0.0387236300468443,1.6590455883826167
3.525956617201696,-3.67620968885422,-6.1107863356590295,0.235115231609344,1.6590455883826167
3.526562310720775,5.9996692173957795,2.2358567307472197,-0.25825879182815603,1.6590455883826167
3.527168004239855,5.58772585802078,-0.8800636794090271,0.651848630046844,1.6590455883826167
3.527773697758934,-4.90006466932297,-0.5615260817527771,-0.631881838703156,1.6590455883826167
3.5283793912780133,-10.2720934779167,7.61746561746597,1.44699511442184,1.6590455883826167
3.528985084797093,7.02952761583328,-6.867612507534029,-1.31925244417191,1.6590455883826167
3.529590778316172,12.281805447864501,-4.63784932394028,-0.588771487140656,1.6590455883826167
3.530196471835251,-7.58967160291672,7.536034953403471,-0.193593264484406,1.6590455883826167
3.530802165354331,-7.9848498255729705,-3.48823994894028,-0.8570136746406559,1.6590455883826167
3.5314078588734104,4.11957888536453,-1.0860353590965302,1.9619243136405902,1.6590455883826167
3.532013552392489,5.7002917759895295,2.93999247293472,-0.236703616046906,1.6590455883826167
3.532619245911569,-1.1829943568229702,-3.49782002706528,1.25778857145309,1.6590455883826167
3.533224939430648,-11.5318737513542,8.26412089090347,-0.207963381671906,1.6590455883826167
3.5338306329497273,1.3700964634895298,-3.1361720778465303,0.00998339567184435,1.6590455883826167
3.534436326468807,15.6947082798958,-9.01115498800278,-2.4856269558906603,1.6590455883826167
3.5350420199878863,-1.9829308802604702,8.33357645730972,-0.0546821316719057,1.6590455883826167
3.535647713506965,-12.7772839076042,-0.42021992940902697,1.30568896207809,1.6590455883826167
3.536253407026045,2.50054568223953,-3.3756740309715303,-1.00789990510941,1.6590455883826167
3.536859100545124,6.21043093614578,2.43464335184097,2.28046191129684,1.6590455883826167
3.537464794064203,1.7628796666145299,-2.3410255934715303,-1.4892988308906598,1.6590455883826167
3.5380704875832834,-9.01949826307297,5.014079386997221,1.4230449191093402,1.6590455883826167
3.538676181102362,-5.1108263880729705,2.69809550027847,-0.725287600421906,1.6590455883826167
3.539281874621442,16.132996854114502,-11.106797077846501,-1.42223828401566,1.6590455883826167
3.539887568140521,3.67889529161453,3.77345926980972,0.505752438640594,1.6590455883826167
3.5404932616596003,-15.165118380260498,5.43799784402847,-0.983949709796906,1.6590455883826167
3.54109895517868,-1.24047482557297,-5.87367940206528,1.77750780973434,1.6590455883826167
3.5417046486977593,7.4103357213020296,2.91364725809097,0.589578122234344,1.6590455883826167
3.542310342216838,4.04772829942703,-0.944729206752777,-0.11455761995315601,1.6590455883826167
3.542916035735918,-6.55262814588547,1.54130106668472,0.261460446453094,1.6590455883826167
3.543521729254997,-8.54288937635422,6.42714091043472,0.266250485515594,1.6590455883826167
3.544127422774076,12.1788196080208,-9.12372090597153,-1.1037006863594099,1.6590455883826167
3.5447331162931563,7.98514040880203,-1.3854128005027802,-0.852223635578156,1.6590455883826167
3.545338809812235,-11.826461153697998,7.928818156528471,-0.0858173855781557,1.6590455883826167
3.545944503331314,-4.85455929822922,-4.65700948019028,-0.09779248323440569,1.6590455883826167
3.546550196850394,6.00445925645828,-0.257358601284027,0.9368559542655941,1.6590455883826167
3.5471558903694733,5.56138064317703,1.25629374246597,0.110574215984344,1.6590455883826167
3.547761583888552,-4.78031369276047,-1.8644167067527802,0.412346676921844,1.0517399530210667
3.5483672774076322,-11.3211120326042,7.136066691684721,0.6805888644218441,1.0517399530210667
3.548972970926711,7.03671267442703,-4.6402443434715295,-0.672597170734406,1.0517399530210667
3.5495786644457903,13.9391589634895,-6.582605183315279,-0.7803730496406559,1.0517399530210667
3.55018435796487,-8.08065060682297,7.57914530496597,-1.17076123323441,1.0517399530210667
3.550790051483949,-9.30450558729172,-1.7183205153465302,0.278225583171844,1.0517399530210667
3.551395745003028,4.68719851427078,-2.15421407003403,1.74158251676559,1.0517399530210667
3.552001438522108,5.91105349473953,3.48126688699722,-0.909704104328156,1.0517399530210667
3.552607132041187,-0.49322873182296795,-3.69900166769028,1.09492724332809,1.0517399530210667
3.553212825560267,-11.5318737513542,6.7289133713722205,1.18593798551559,1.0517399530210667
3.5538185190793463,0.323472928333282,-0.415429890346527,-0.512130862140656,1.0517399530210667
3.554424212598425,16.9305383580208,-10.373921101284001,-1.31925244417191,1.0517399530210667
3.555029906117504,-2.3781091029167203,6.5229416916847205,-1.64976513948441,1.0517399530210667
3.555635599636584,-13.1700671107292,1.7616428635597199,0.785969723796844,1.0517399530210667
3.5562412931556633,2.45983035020828,-4.7001198317527795,0.417136715984344,1.0517399530210667
3.556846986674743,6.84271609239578,3.04297831277847,1.2218632784843402,1.0517399530210667
3.557452680193822,1.43715701036453,-1.80214619894028,-0.20556836214065602,1.0517399530210667
3.558058373712901,-9.48413205213547,2.93999247293472,0.366841305828094,1.0517399530210667
3.558664067231981,-5.28566281385422,4.561420695590971,0.22793017301559398,1.0517399530210667
3.55926976075106,15.979715604114501,-10.2900954176903,-1.69766553010941,1.0517399530210667
3.559875454270139,4.85245486192703,0.899435832309723,0.333311032390594,1.0517399530210667
3.5604811477892193,-15.701602755260499,7.38035868387222,-0.912099123859406,1.0517399530210667
3.561086841308298,-1.59493771619797,-5.81380391378403,0.565627926921844,1.0517399530210667
3.561692534827377,7.73126833848953,1.18683817605972,1.48052538785934,1.0517399530210667
3.562298228346457,3.53519411973953,1.07666727762222,-0.583981448078156,1.0517399530210667
3.5629039218655363,-6.44245724744797,-0.32202412862777696,0.311755856609344,1.0517399530210667
3.563509615384615,-9.32366574354172,7.26060770730972,0.06267382535934429,1.0517399530210667
3.564115308903695,12.593157986927,-7.327456257534029,-0.931259280109406,1.0517399530210667
3.564721002422774,8.76112673692703,-4.45103780050278,-1.32883252229691,1.0517399530210667
3.5653266959418533,-12.865899630260499,9.07124247293472,0.0147734347343444,1.0517399530210667
3.565932389460933,-5.02460568494797,-3.4451295973777802,0.5368876925468441,1.0517399530210667
3.566538082980012,6.57686892442703,-1.39978291769028,-0.11216260042190601,1.0517399530210667
3.567143776499091,5.98290408067703,2.36997782449722,0.45066698942184397,1.0517399530210667
3.567749470018171,-4.42824582166672,-2.85116475362778,-0.5744013699531559,1.0517399530210667
3.56835516353725,-11.2301012904167,6.13973856668472,1.27455370817184,1.0517399530210667
3.568960857056329,6.24635622911453,-1.54108907003403,-0.545661135578156,1.0517399530210667
3.5695665505754093,14.078070096302001,-8.42677022237778,-1.67850537385941,1.0517399530210667
3.570172244094488,-7.05797726697922,6.54689188699722,-0.37800976839065603,1.0517399530210667
3.570777937613568,-10.0565417201042,0.782079875278473,-0.5408710965156559,1.0517399530210667
3.571383631132647,4.33273562364578,-4.532468464565279,2.06251513395309,1.0517399530210667
3.5719893246517262,6.5385486119270295,4.216537883090971,-0.25825879182815603,1.0517399530210667
3.572595018170806,-0.965047579479218,-2.72422871847153,0.021958493328094398,1.0517399530210667
3.573200711689885,-11.7809557826042,4.594950969028471,0.5416777316093441,1.0517399530210667
3.573806405208964,-0.648905001354218,2.07539042215347,-0.11695263948440601,1.0517399530210667
3.574412098728044,16.9065881627083,-10.5918678786278,-1.25937695589066,1.0517399530210667
3.575017792247123,-0.126790743541718,3.91476542215347,-0.866593752765656,1.0517399530210667
3.575623485766202,-14.470562716198,4.15905741434097,1.20030810270309,1.0517399530210667
3.5762291792852823,2.03351687364578,-4.98273213644028,-0.8594086941719059,1.0517399530210667
3.576834872804361,7.5300866978645296,1.20839335184097,1.9068388644218401,1.0517399530210667
3.57744056632344,1.14975466661453,0.135424601840973,-0.492970705890656,1.0517399530210667
3.57804625984252,-8.79915646619797,1.02397684793472,0.8434501925468441,1.0517399530210667
3.5786519533615992,-6.49035763807297,5.60085917215347,0.08183398160934431,1.0517399530210667
3.579257646880678,16.2862781041145,-7.772929890346529,-2.14074414339066,1.0517399530210667
3.579863340399758,6.7517053502082796,-2.67632832784653,0.251880368328094,1.0517399530210667
3.580469033918837,-16.8679772669792,8.67127421121597,-1.8485517605781598,1.0517399530210667
3.581074727437916,-2.22722287244797,-4.59713399190903,1.41585986051559,1.0517399530210667
3.581680420956996,8.80663210802078,-0.468120320034027,1.5906962862968401,1.0517399530210667
3.582286114476075,3.49447878770828,2.65259012918472,-0.5336860379219059,1.0517399530210667
3.582891807995154,-5.62096554822922,-2.14942403097153,0.196794919109344,1.0517399530210667
3.583497501514234,-9.91763058729172,6.73849344949722,0.0602788058280943,1.0517399530210667
3.584103195033313,11.290267361927,-4.259436238002779,-0.09539746370315569,1.0517399530210667
3.584708888552392,10.5358362095833,-6.63769063253403,-1.5108540066719098,1.0517399530210667
3.5853145820714722,-12.5808923060417,8.25214579324722,-0.301369143390656,1.0517399530210667
3.585920275590551,-5.98261349744797,-1.26805684347153,0.769204587078094,1.0517399530210667
3.586525969109631,6.8379260533332795,-3.18167744894028,-0.263048830890656,1.0517399530210667
3.58713166262871,5.67634158067703,3.07171854715347,0.5991582003593441,1.0517399530210667
3.587737356147789,-4.07138791151047,-2.03925313253403,-0.583981448078156,1.0517399530210667
3.588343049666869,-11.9150768763542,4.422509562778471,1.7655327120780901,1.0517399530210667
3.588948743185948,5.84399294786453,1.3089841721534698,-0.272628909015656,1.0517399530210667
3.589554436705027,14.9187219517708,-9.43746846456528,-1.77670117464066,1.0517399530210667
3.590160130224107,-6.60531857557297,3.54832743387222,-0.583981448078156,1.0517399530210667
3.590765823743186,-10.9905993372917,3.62736307840347,-0.265443850421906,1.0517399530210667
3.591371517262265,3.69087038927078,-5.11685323019028,2.0912553683280897,1.0517399530210667
3.5919772107813452,7.38399050645828,3.58425272684097,-0.548056155109406,1.0517399530210667
3.592582904300424,-0.7207555872917181,-1.63928487081528,0.239905270671844,1.0517399530210667
3.593188597819503,-11.7186852747917,1.75206278543472,-0.00199170198440565,1.0517399530210667
3.593794291338583,-1.02013302869797,3.84770487527847,0.7811796847343441,1.0517399530210667
3.594399984857662,16.7149866002083,-8.347734577846529,-1.60186474885941,1.0517399530210667
3.595005678376741,0.560579861927032,0.664723918247223,-1.4246333035469099,1.0517399530210667
3.595611371895821,-15.2106237513542,5.31106180887222,0.9033256808280941,1.0517399530210667
3.5962170654149004,1.58085818223953,-4.07980977315903,-0.5767963894844059,1.0517399530210667
3.596822758933979,8.06657107286453,0.0396238205909729,2.0649101534843397,1.0517399530210667
3.597428452453059,1.48266238145828,1.9676145432472198,-1.0270600613594099,1.0517399530210667
3.598034145972138,-8.04472531385422,-1.6153346755027802,1.28892382535934,1.0517399530210667
3.5986398394912174,-7.80043332166672,6.27385966043472,-0.310949221515656,1.0517399530210667
3.599245533010297,14.887586697864501,-4.88214131612778,-0.31813428010940603,1.0517399530210667
3.599851226529376,8.22703738145828,-6.2041920973777795,-0.6390668972969059,1.0517399530210667
3.600456920048455,-15.658492403697998,8.75749491434097,-2.22456982698441,1.0517399530210667
3.601062613567535,-3.74327023572922,-2.04404317159653,2.0457499972343403,1.0517399530210667
3.601668307086614,8.79226199083328,-2.28354512472153,0.407556637859344,1.0517399530210667
3.6022740006056932,4.21298464708328,3.57227762918472,0.244695309734344,1.0517399530210667
3.6028796941247734,-5.6760509974479705,-2.48951680440903,-0.478600588703156,1.0517399530210667
3.603485387643852,-10.015826388072998,5.2056809494972205,0.182424801921844,1.0517399530210667
3.604091081162932,9.79577517442703,-1.28003194112778,1.00870654020309,1.0517399530210667
3.604696774682011,11.7572961705208,-7.62204365987778,-2.32755566682816,1.0517399530210667
3.6053024682010903,-11.256446505260499,5.773300578403471,0.5584428683280941,1.0517399530210667
3.60590816172017,-7.62320187635422,1.6035715744972199,-0.0618671902656557,1.0517399530210667
3.606513855239249,6.76847048692703,-4.06064961690903,0.316545895671844,1.0517399530210667
3.607119548758328,6.54573367052078,2.95675760965347,1.3464042941093401,1.0517399530210667
3.607725242277408,-3.61393918104172,-1.06687520284653,-1.3863129910469099,1.0517399530210667
3.608330935796487,-11.816881075572999,1.34011942605972,1.41825488004684,1.0517399530210667
3.6089366293155662,4.45488161973953,3.2010496018409698,-0.6342768582344059,1.0517399530210667
3.6095423228346464,15.304320096302002,-8.68782735128403,-0.9767646512031559,1.0517399530210667
3.610148016353725,-4.97670529432297,1.78080301980972,-1.67850537385941,1.0517399530210667
3.610753709872804,-11.6085143763542,5.1194602463722205,1.5523759737968401,1.0517399530210667
3.611359403391884,3.31245730333328,-5.00189229269028,0.8003398409843441,1.0517399530210667
3.6119650969109633,7.81269900255203,1.1772580979347198,-0.20077832307815602,1.0517399530210667
3.612570790430042,-0.715965548229218,0.6551438401222229,0.929670895671844,1.0517399530210667
3.613176483949122,-11.1319054896355,1.56285624246597,-1.21387158479691,1.0517399530210667
3.613782177468201,-2.64874630994797,2.82263651590347,1.51884570035934,1.0517399530210667
3.6143878709872803,17.1173498814583,-5.909604695034029,-1.5228291043281599,1.0517399530210667
3.61499356450636,2.20116824083328,-2.63082295675278,-0.382799807453156,1.0517399530210667
3.6155992580254392,-15.629752169323,5.8906565354347205,-0.8186933621406559,1.0517399530210667
3.616204951544518,0.292337674427032,-2.48233174581528,0.46024706754684397,1.0517399530210667
3.616810645063598,8.20069216661453,-1.42133809347153,2.47924853239059,1.0517399530210667
3.617416338582677,2.23469851427078,2.91604227762222,-1.29769726839066,1.0517399530210667
3.618022032101756,-8.78239132947922,-2.32665547628403,1.0518168917655901,1.0517399530210667
3.6186277256208363,-7.3789098841667204,4.8128977463722205,0.021958493328094398,1.0517399530210667
3.619233419139915,14.336732205677,-2.13265889425278,0.136919430828094,1.0517399530210667
3.619839112658994,8.11207644395828,-6.07965108175278,-1.90603222932816,1.0517399530210667
3.620444806178074,-14.1328649622917,6.51336161355972,-0.507340823078156,1.0517399530210667
3.6210504996971533,-5.42936398572922,-0.156767780971527,0.912905758953094,1.0517399530210667
3.621656193216233,8.30846804552078,-3.77085225362778,0.342891110515594,1.0517399530210667
3.6222618867353122,5.73861208848953,3.85728495340347,1.23623339567184,1.0517399530210667
3.622867580254391,-6.27959591932297,-1.00939473409653,-1.1084907254219099,1.0517399530210667
3.623473273773471,-9.75476925916672,2.85377176980972,0.553652829265594,1.0517399530210667
3.62407896729255,8.10489138536453,0.645563761997223,0.021958493328094398,1.0517399530210667
3.624684660811629,12.9308557408333,-7.832805378627779,-1.56833447542191,1.0517399530210667
3.6252903543307093,-9.88889035291672,4.00577616434097,-0.397169924640656,1.0517399530210667
3.625896047849788,-9.95355588026047,3.45971171121597,-0.528895998859406,1.0517399530210667
3.626501741368867,7.7624035923957795,-5.265344441127779,1.65775683317184,1.0517399530210667
3.627107434887947,6.58884402208328,2.76036600809097,0.22793017301559398,1.0517399530210667
3.6277131284070263,-3.62112423963547,0.190510051059723,-1.0007148465156601,1.0517399530210667
3.628318821926105,-11.1390905482292,-0.429800007534027,1.1667778292655901,1.0517399530210667
3.6289245154451852,2.68735720567703,4.2476731369972205,-0.531291018390656,1.0517399530210667
3.629530208964264,15.974925565052,-6.987363484096529,0.194399899578094,1.0517399530210667
3.6301359024833433,-3.42473263807297,-0.834558308315277,-2.2724702176094103,1.0517399530210667
3.630741596002423,-12.9688854701042,5.57451395730972,0.510542477703094,1.0517399530210667
3.631347289521502,2.57718630723953,-4.2809914137840295,1.39430468473434,1.0517399530210667
3.631952983040581,7.78874880723953,0.7772898362159729,-0.143297854328156,1.0517399530210667
3.632558676559661,0.198931912708282,2.02269999246597,0.924880856609344,1.0517399530210667
3.63316437007874,-10.3080187708855,-0.7004372145652771,-0.500155764484406,1.0517399530210667
3.63377006359782,-4.04264767713547,3.23457987527847,0.965596188640594,1.0517399530210667
3.6343757571168993,16.6048157017708,-3.73013692159653,-1.1132807644844098,1.0517399530210667
3.634981450635978,3.65255007677078,-4.29536153097153,-1.4725336941719098,1.0517399530210667
3.6355871441550582,-15.7854284388542,6.56605204324722,-0.8785688504219059,1.0517399530210667
3.636192837674137,-0.648905001354218,-1.69916035909653,1.60506640348434,1.0517399530210667
3.6367985311932163,8.74915163927078,-2.50867696065903,1.31526904020309,1.0517399530210667
3.637404224712296,2.84063845567703,4.108762004184721,-1.0821455105781599,1.0517399530210667
3.638009918231375,-8.15968625135422,-2.37934590597153,0.671008786296844,1.0517399530210667
3.638615611750454,-8.78478634901047,3.71597880105972,-0.10497754182815601,1.0517399530210667
3.639221305269534,13.857728299427,0.559343058872223,0.20877001676559398,1.0517399530210667
3.639826998788613,9.99935183458328,-7.64838887472153,-1.1635761746406599,1.0517399530210667
3.640432692307692,-13.8119323451042,5.04521464090347,-1.73119580354691,1.0517399530210667
3.6410383858267723,-5.86525754041672,1.85983866434097,1.1452226534843402,1.0517399530210667
3.641644079345851,7.85341433458328,-4.439062702846529,1.0733720675468401,1.0517399530210667
3.64224977286493,5.91105349473953,4.19737772684097,0.6159233370780941,1.0517399530210667
3.64285546638401,-5.17549191541672,-0.630981648159027,-0.179223147296906,1.0517399530210667
3.6434611599030893,-10.5954211146355,0.808425090122223,-0.610326662921906,1.0517399530210667
3.644066853422168,7.26184451036453,3.10045878152847,0.374026364421844,1.0517399530210667
3.644672546941248,13.3643542759895,-7.566958210659029,-0.7564228543281559,1.0517399530210667
3.645278240460327,-7.89623410291672,1.28982401590347,-1.19710644807816,1.0517399530210667
3.6458839339794062,-10.5690758997917,5.29669169168472,0.5440727511405941,1.0517399530210667
3.646489627498486,6.11702517442703,-5.26773946065903,1.00870654020309,1.0517399530210667
3.647095321017565,7.78874880723953,1.8430735276222199,0.117759274578094,1.0517399530210667
3.647701014536644,-3.30737668104172,1.1628879807472199,0.215955075359344,1.1396244801738629
3.648306708055724,-10.897193575572999,-1.46444844503403,0.9176957980155941,1.1396244801738629
3.648912401574803,0.9964734166145319,4.32670878152847,-0.19119824495315602,1.1396244801738629
3.649518095093882,15.539032010364501,-5.437785847377779,-0.351664553546906,1.1396244801738629
3.6501237886129623,-1.23807980604172,-2.82960957784653,-1.6425800808906599,1.1396244801738629
3.650729482132041,-13.201202364635499,6.37445048074722,-0.179223147296906,1.1396244801738629
3.651335175651121,1.32219607286453,-3.53614033956528,1.32005907926559,1.1396244801738629
3.6519408691702,8.54078494005203,-0.748337605190277,0.302175778484344,1.1396244801738629
3.6525465626892792,0.431248807239532,2.8346116135597197,0.35007616910934397,1.1396244801738629
3.653152256208359,-10.2002428919792,-1.8428615309715302,-0.301369143390656,1.1396244801738629
3.653757949727438,-5.30961300916672,3.05734842996597,0.433901852703094,1.1396244801738629
3.654363643246517,15.687523221302001,-1.30158711690903,-0.912099123859406,1.1396244801738629
3.654969336765597,5.87273318223953,-5.864099323940279,-1.35038769807816,1.1396244801738629
3.655575030284676,-16.0632507044792,5.50745341043472,-1.4030781277656599,1.1396244801738629
3.656180723803755,-1.7482189661979701,0.130634562778473,1.12606249723434,1.1396244801738629
3.6567864173228353,8.31086306505203,-3.85228291769028,1.35837939176559,1.1396244801738629
3.657392110841914,3.17115115098953,4.3674241135597205,-0.344479494953156,1.1396244801738629
3.657997804360993,-6.86877072401047,-1.7183205153465302,-0.0666572293281557,1.1396244801738629
3.658603497880073,-9.49131711072922,1.12696268777847,-0.121742678546906,1.1396244801738629
3.6592091913991522,12.080623807239501,3.08608866434097,0.23272021207809399,1.1396244801738629
3.659814884918231,10.466380643177,-7.60288350362778,-1.06777539339066,1.1396244801738629
3.660420578437311,-12.372525606822999,2.17358622293472,-1.91082226839066,1.1396244801738629
3.66102627195639,-7.29747922010422,4.422509562778471,1.07576708707809,1.1396244801738629
3.661631965475469,7.30016482286453,-4.44864278097153,1.37035448942184,1.1396244801738629
3.662237658994549,7.21154910020828,3.48126688699722,0.06506884489059431,1.1396244801738629
3.662843352513628,-5.1707018763542205,0.197695109653473,-0.0307319363594056,1.1396244801738629
3.6634490460327074,-10.1667126185417,-0.729177448940277,-0.24628369417190601,1.1396244801738629
3.664054739551787,5.67155154161453,3.75908915262222,1.19791308317184,1.1396244801738629
3.664660433070866,13.3427991002083,-5.43539082784653,-1.25219189729691,1.1396244801738629
3.665266126589945,-5.89878781385422,-2.00572285909653,-1.30009228792191,1.1396244801738629
3.6658718201090252,-11.1414855677605,5.905026652622221,-0.160062991046906,1.1396244801738629
3.666477513628104,4.96741579942703,-3.2726881911277803,0.9584111300468441,1.1396244801738629
3.667083207147184,7.91807986192703,-0.226223347377777,1.39430468473434,1.1396244801738629
3.667688900666263,-2.13142209119797,3.19146952371597,-1.1683662137031599,1.1396244801738629
3.668294594185342,-11.330692110729201,-2.75296895284653,0.165659665203094,1.1396244801738629
3.668900287704422,0.174981717395782,3.4836619065284697,0.139314450359344,1.1396244801738629
3.669505981223501,15.256419705677,-2.45119649190903,-0.385194826984406,1.1396244801738629
3.6701116747425804,0.584530057239532,-5.29647969503403,-1.41744824495316,1.1396244801738629
3.67071736826166,-13.507764864635499,6.039147746372221,-0.646251955890656,1.1396244801738629
3.671323061780739,-0.488438692760468,-1.5099538161277801,1.48052538785934,1.1396244801738629
3.671928755299818,8.99583865098953,-2.45598653097153,0.5991582003593441,1.1396244801738629
3.6725344488188982,1.1689148228645299,3.77824930887222,-0.5384760769844059,1.1396244801738629
3.673140142337977,-9.32606076307297,-1.7494557692527801,0.06267382535934429,1.1396244801738629
3.673745835857056,-6.15744992322922,1.65865702371597,-0.346874514484406,1.1396244801738629
3.674351529376136,14.2145862095833,0.791659953403473,-0.179223147296906,1.1396244801738629
3.674957222895215,7.68336794786453,-6.3838185622215295,-0.179223147296906,1.1396244801738629
3.675562916414294,-13.967608614635498,3.75429911355972,-2.6484882840156603,1.1396244801738629
3.676168609933374,-3.91331662244797,1.3784397385597198,2.09604540739059,1.1396244801738629
3.6767743034524534,7.90370974473953,-3.5121901442527803,1.49968554410934,1.1396244801738629
3.677379996971532,3.90642214708328,3.51240214090347,-0.236703616046906,1.1396244801738629
3.677985690490612,-6.65082394666672,-0.7435475661277771,0.220745114421844,1.1396244801738629
3.678591384009691,-10.140367403697999,0.06836405496597289,-0.528895998859406,1.1396244801738629
3.6791970775287703,10.916644315052,3.27529520730972,0.9632011691093441,1.1396244801738629
3.67980277104785,11.5082141392708,-5.183913777065279,-1.54198926057816,1.1396244801738629
3.6804084645669293,-11.222916231823,-0.690857136440277,-1.47732373323441,1.1396244801738629
3.681014158086008,-8.21477170057297,4.388979289340971,1.43502001676559,1.1396244801738629
3.681619851605088,5.97571902208328,-3.4523146559715303,0.8434501925468441,1.1396244801738629
3.682225545124167,8.04022585802078,1.88857889871597,1.12127245817184,1.1396244801738629
3.6828312386432462,-3.93726681776047,1.92210917215347,-0.7372626980781559,1.1396244801738629
3.6834369321623264,-10.6073962122917,-2.22845967550278,-0.128927737140656,1.1396244801738629
3.684042625681405,4.06688845567703,3.9195554612159698,0.8003398409843441,1.1396244801738629
3.684648319200485,13.1535925572395,-2.93259541769028,-1.0486152371406599,1.1396244801738629
3.685254012719564,-3.97079709119797,-4.27141133565903,-0.988739748859406,1.1396244801738629
3.6858597062386433,-11.390567599010499,6.4630662034034705,-1.06298535432816,1.1396244801738629
3.686465399757723,3.24539675645828,-2.40569112081528,1.6505717745780901,1.1396244801738629
3.6870710932768023,9.11079958848953,-1.2105763747215301,-0.0355219754219057,1.1396244801738629
3.687676786795881,-1.7098986536979701,3.77106425027847,0.242300290203094,1.1396244801738629
3.688282480314961,-11.160645724010498,-2.46796162862778,-0.09300244417190569,1.1396244801738629
3.68888817383404,-0.533944063854218,2.51846903543472,0.000403317546844352,1.1396244801738629
3.6894938673531192,14.039749783802002,-0.7794728590965271,-0.0858173855781557,1.1396244801738629
3.6900995608721994,2.70891238145828,-5.80182881612778,-2.32995068635941,1.1396244801738629
3.690705254391278,-12.899429903698,5.12425028543472,0.9775712862968441,1.1396244801738629
3.691310947910357,-2.21285275526047,-0.0274367262840271,0.467432126140594,1.1396244801738629
3.691916641429437,8.856927518177029,-3.67744649190903,0.103389157390594,1.1396244801738629
3.6925223349485163,2.01675173692703,4.53986551980972,0.6997490206718441,1.1396244801738629
3.693128028467595,-8.61473996229172,-1.48600362081528,-0.0211518582344056,1.1396244801738629
3.6937337219866753,-7.13222287244797,0.35816141824722303,-0.217543459796906,1.1396244801738629
3.694339415505754,13.3930945103645,2.10413065652847,-0.0738422879219057,1.1396244801738629
3.6949451090248333,9.16349001817703,-6.402978718471529,-0.7947431668281559,1.1396244801738629
3.695550802543913,-13.924498263073,2.79629130105972,-2.58382275667191,1.1396244801738629
3.6961564960629922,-4.83060910291672,2.33644755105972,2.5942094698905898,1.1396244801738629
3.696762189582071,7.50134646348953,-3.98161397237778,0.27104052457809397,1.1396244801738629
3.697367883101151,4.8620349400520295,3.16272928934097,0.654243649578094,1.1396244801738629
3.69797357662023,-5.50121457166672,0.45635721902847304,-0.236703616046906,1.1396244801738629
3.69857927013931,-10.581050997448,-1.58419942159653,-0.883358889484406,1.1396244801738629
3.6991849636583893,9.21139040880203,4.135107219028471,1.4278349581718401,1.1396244801738629
3.699790657177468,12.7703894322395,-3.33735371847153,-1.59707470979691,1.1396244801738629
3.700396350696547,-10.020616427135499,-3.44033955831528,-0.9743696316719059,1.1396244801738629
3.701002044215627,-8.77281125135422,5.612834269809721,0.112969235515594,1.1396244801738629
3.7016077377347063,5.2811633580207795,-2.6571681715965303,1.5044755831718402,1.1396244801738629
3.702213431253786,7.77437869005203,0.9736814377784729,0.311755856609344,1.1396244801738629
3.7028191247728652,-2.38529416151047,3.49803202371597,0.07464892301559431,1.1396244801738629
3.703424818291944,-11.112745333385499,-3.84270283956528,-0.5767963894844059,1.1396244801738629
3.704030511811024,2.7616028111457798,3.40941630105972,0.462642087078094,1.1396244801738629
3.704636205330103,12.277015408802,-0.42021992940902697,0.14889452848434398,1.1396244801738629
3.705241898849182,-2.1218420130729703,-5.42102071065903,-2.42335644807816,1.1396244801738629
3.7058475923682623,-10.849293184948,4.935043742465971,0.532097653484344,1.1396244801738629
3.706453285887341,1.22639529161453,-0.147187702846527,0.012378415203094401,1.1396244801738629
3.70705897940642,9.67602419786453,-3.0858766676902802,1.05660693082809,1.1396244801738629
3.7076646729255,-0.464488497447968,4.17342753152847,0.7404643527030941,1.1396244801738629
3.7082703664445793,-11.1319054896355,-1.50755879659653,-0.6007465847969059,1.1396244801738629
3.708876059963658,-1.77456418104172,0.0923142502784729,1.26018359098434,1.1396244801738629
3.7094817534827382,12.9907312291145,2.03707010965347,-0.830668459796906,1.1396244801738629
3.710087447001817,4.17466433458328,-6.57302510519028,-1.2018964871406599,1.1396244801738629
3.7106931405208963,-12.482696505260499,2.44661844949722,-0.9144941433906559,1.1396244801738629
3.711298834039976,-2.95291379041672,2.82263651590347,1.67452196989059,1.1396244801738629
3.711904527559055,8.57192019395828,-4.33607686300278,1.3679594698905901,1.1396244801738629
3.712510221078134,2.86937869005203,3.7327439377784697,-0.7133125027656559,1.1396244801738629
3.713115914597214,-7.62320187635422,-0.211853230190277,0.668613766765594,1.1396244801738629
3.713721608116293,-7.71421261854172,-1.00460469503403,-0.6773872097969059,1.1396244801738629
3.714327301635373,11.7620862095833,3.09806376199722,0.687773923015594,1.1396244801738629
3.7149329951544523,9.92989626817703,-4.805500691127779,-1.0174799832344101,1.1396244801738629
3.715538688673531,-11.3354821497917,-0.0777321364402771,-2.39701123323441,1.1396244801738629
3.7161443821926112,-7.10108761854172,3.39504618387222,2.08407030973434,1.1396244801738629
3.71675007571169,6.61997927598953,-3.35651387472153,0.0315385714530944,1.1396244801738629
3.7173557692307693,6.0331994908332796,1.38083475809097,1.27934374723434,1.1396244801738629
3.717961462749849,-5.40780880994797,2.71007059793472,-1.20429150667191,1.1396244801738629
3.718567156268928,-10.3918444544792,-3.55769551534653,-0.49776074495315603,1.1396244801738629
3.719172849788007,7.68097292833328,2.9878928635597197,1.20030810270309,1.1396244801738629
3.719778543307087,12.918880643177001,-0.19269307394027702,-1.5228291043281599,1.1396244801738629
3.720384236826166,-8.42313839979172,-5.737163288784029,-0.868988772296906,1.1396244801738629
3.720989930345245,-9.26379025526047,4.29796854715347,-0.423515139484406,1.1396244801738629
3.7215956238643253,4.43093142442703,-0.180717976284027,1.4613652316093402,1.1396244801738629
3.722201317383404,7.79114382677078,-0.937544148159027,0.465037106609344,1.1396244801738629
3.722807010902483,-1.2261047083854701,4.35305399637222,-0.0858173855781557,1.1396244801738629
3.723412704421563,-11.218126192760499,-3.1026418044090303,-0.433095217609406,1.1396244801738629
3.7240183979406423,1.73653445177078,1.24192362527847,-0.0163618191719056,1.1396244801738629
3.724624091459721,12.2889905064583,2.29812723855972,0.455457028484344,1.1396244801738629
3.725229784978801,-1.00097287244797,-5.9910353590965295,-2.1335590847969104,1.1396244801738629
3.72583547849788,-9.84338498182297,2.33405253152847,-0.667807131671906,1.1396244801738629
3.7264411720169592,-0.744705782604218,2.1759812424659697,0.929670895671844,1.1396244801738629
3.727046865536039,8.976678494739529,-3.3157985426902803,1.53561083707809,1.1396244801738629
3.727652559055118,1.0012634556770301,3.6632883713722197,0.5967631808280941,1.1396244801738629
