Time (s),Accel X (m/s^2),Accel Y (m/s^2),Accel Z (m/s^2),CI Value
5.03875,-0.197128724956512,0.137988021183014,-0.016433576202393097,1.1030945396048415
5.03935569351908,0.0759035016059875,-0.127859146785736,-0.105049298858643,1.1030945396048415
5.039961387038159,-0.0198972796440125,0.0876926110267639,-0.0882841621398931,1.1030945396048415
5.0405670805572385,0.0926686383247375,-0.0919338538169861,0.103317400360107,1.1030945396048415
5.041172774076317,0.0040529156684875394,-0.17336451787948598,0.0506269706726069,1.1030945396048415
5.041778467595397,-0.0510325335502625,0.0972726891517639,-0.126604474639893,1.1030945396048415
5.042384161114477,0.0782985211372375,-0.0536135413169861,0.0170966972351069,1.1030945396048415
5.042989854633555,-0.132463197612762,-0.0536135413169861,0.153612810516357,1.1030945396048415
5.043595548152635,-0.0127122210502625,-0.0871438147544861,0.129662615203857,1.1030945396048415
5.044201241671715,-0.027082338237762498,0.0254221032142639,0.213488298797607,1.1030945396048415
5.044806935190794,-0.0390574358940125,0.14038304071426402,0.213488298797607,1.1030945396048415
5.045412628709873,0.162124204730988,-0.142229263973236,0.282943865203857,1.1030945396048415
5.046018322228952,0.116618833637238,-0.15420436162948598,0.165587908172607,1.1030945396048415
5.046624015748032,-0.161203431987762,-0.101513931941986,0.0194917167663569,1.1030945396048415
5.0472297092671115,-0.0414524554252625,-0.170969498348236,-0.0379887519836431,1.1030945396048415
5.04783540278619,0.0615333844184875,-0.0871438147544861,0.32844923629760703,1.1030945396048415
5.04844109630527,-0.0534275530815125,-0.0416384436607361,0.282943865203857,1.1030945396048415
5.04904678982435,-0.101327943706512,-0.108698990535736,-0.160134748077393,1.1030945396048415
5.049652483343428,-0.0127122210502625,-0.300300553035736,-0.107444318389893,1.1030945396048415
5.050258176862508,-0.015107240581512499,-0.19252467412948598,-0.143369611358643,1.1030945396048415
5.050863870381587,0.00884295473098754,0.0158420250892639,0.129662615203857,1.1030945396048415
5.051469563900667,-0.0749827288627625,-0.0799587561607361,0.203908220672607,1.1030945396048415
5.052075257419746,-0.0390574358940125,-0.11588404912948601,0.220673357391357,1.1030945396048415
5.052680950938825,-0.0175022601127625,-0.000923111629486085,0.266178728485107,1.1030945396048415
5.053286644457905,-0.11330304136276201,-0.19252467412948598,0.0865522636413569,1.1030945396048415
5.053892337976984,-0.106117982769012,-0.027268326473236102,0.0051215995788569,1.1030945396048415
5.054498031496063,0.0495582867622375,0.133197982120514,0.0721821464538569,1.1030945396048415
5.055103725015143,0.00165789613723754,-0.0416384436607361,-0.0643339668273931,1.1030945396048415
5.055709418534222,-0.0797727679252625,-0.139834244441986,0.189538103485107,1.1030945396048415
5.056315112053301,0.0663234234809875,-0.345805924129486,-0.0858891426086431,1.1030945396048415
5.056920805572381,-0.125278139019012,0.133197982120514,-0.184084943389893,1.1030945396048415
5.05752649909146,-0.0630076312065125,0.0326071618080139,0.223068376922607,1.1030945396048415
5.05813219261054,-0.0821677874565125,-0.180549576473236,0.309289080047607,1.1030945396048415
5.058737886129618,0.102248716449738,-0.103908951473236,0.103317400360107,1.1030945396048415
5.059343579648698,-0.0366624163627625,-0.156599381160736,-0.0068534980773931,1.1030945396048415
5.059949273167778,-0.14683331480026202,0.152358138370514,0.103317400360107,1.1030945396048415
5.060554966686857,0.00884295473098754,-0.012898209285736099,-0.07151902542114309,1.1030945396048415
5.061160660205936,0.231579771137238,0.111642806339264,0.033861833953856904,1.1030945396048415
5.061766353725015,0.0351881695747375,-0.0392434241294861,0.0961323417663569,1.1030945396048415
5.062372047244095,0.0208180523872375,-0.0847487952232361,0.134452654266357,1.1030945396048415
5.062977740763174,-0.0821677874565125,0.27450413446426397,0.144032732391357,1.1030945396048415
5.063583434282253,-0.0582175921440125,-0.0943288733482361,0.203908220672607,1.1030945396048415
5.064189127801333,-0.00552716245651246,-0.139834244441986,0.208698259735107,1.1030945396048415
5.064794821320413,-0.144438295269012,0.0709274743080139,0.115292498016357,1.1030945396048415
5.065400514839491,0.018423032855987502,-0.00331813116073608,0.21109327926635701,1.1030945396048415
5.066006208358571,-0.125278139019012,0.0134470055580139,0.270968767547607,1.1030945396048415
5.06661190187765,0.130988950824738,-0.0775637366294861,0.199118181610107,1.1030945396048415
5.06721759539673,-0.0318723773002625,0.0972726891517639,0.0889472831726069,1.1030945396048415
5.067823288915809,-0.149228334331512,0.0230270836830139,0.0937373222351069,1.1030945396048415
5.068428982434888,0.111828794574738,-0.0943288733482361,0.249413591766357,1.1030945396048415
5.069034675953968,-0.156413392925262,0.0206320641517639,0.153612810516357,1.1030945396048415
5.0696403694730465,0.0591383648872375,0.0110519860267639,0.196723162078857,1.1030945396048415
5.070246062992126,0.0040529156684875394,-0.0607985999107361,0.249413591766357,1.1030945396048415
5.070851756511206,-0.20670880308151202,0.0206320641517639,0.179958025360107,1.1030945396048415
5.071457450030285,-0.11090802183151201,0.0661374352455139,0.158402849578857,1.1030945396048415
5.072063143549364,-0.223473939800262,-0.147019303035736,0.215883318328857,1.1030945396048415
5.072668837068444,0.07111346254348751,0.19067845087051402,-0.0954692207336431,1.1030945396048415
5.073274530587523,0.12380389223098799,0.00626194696426391,-0.030803693389893097,1.1030945396048415
5.0738802241066026,-0.28813946714401195,-0.0368484045982361,0.0961323417663569,1.1030945396048415
5.074485917625681,-0.0198972796440125,0.00386692743301392,0.158402849578857,1.1030945396048415
5.075091611144761,-0.134858217144012,-0.0799587561607361,0.385929705047607,1.1030945396048415
5.075697304663841,-0.331249818706512,0.0326071618080139,0.366769548797607,1.1030945396048415
5.0763029981829195,0.0423732281684875,-0.21407984991073598,0.232648455047607,1.1030945396048415
5.076908691701999,0.0399782086372375,-0.012898209285736099,0.335634294891357,1.1030945396048415
5.077514385221078,0.154939146137238,0.169123275089264,-0.0499638496398931,1.1030945396048415
5.078120078740158,0.178889341449738,-0.101513931941986,-0.0044584785461431,1.1030945396048415
5.078725772259237,-0.0989329241752625,0.126012923526764,0.167982927703857,1.1030945396048415
5.079331465778316,-0.0127122210502625,0.128407943058014,0.029071794891356903,1.1030945396048415
5.079937159297396,0.00884295473098754,0.0278171227455139,0.213488298797607,1.1030945396048415
5.0805428528164756,-0.10851300230026201,0.0948776696205139,0.167982927703857,1.1030945396048415
5.081148546335554,-0.0534275530815125,-0.0416384436607361,0.278153826141357,1.1030945396048415
5.081754239854634,-0.28574444761276196,-0.0727736975669861,0.158402849578857,1.1030945396048415
5.082359933373713,-0.0246873187065125,-0.190129654598236,0.139242693328857,1.1030945396048415
5.0829656268927925,-0.0989329241752625,0.128407943058014,0.0051215995788569,1.1030945396048415
5.083571320411872,0.00884295473098754,-0.0176882483482361,0.187143083953857,1.1030945396048415
5.084177013930951,0.221999693012238,-0.190129654598236,0.0745771659851069,1.1030945396048415
5.084782707450031,-0.0486375140190125,0.0613473961830139,-0.0092485176086431,1.1030945396048415
5.0853884009691095,-0.11569806089401201,0.0924826500892639,0.239833513641357,1.1030945396048415
5.085994094488189,0.0208180523872375,-0.0536135413169861,0.139242693328857,1.1030945396048415
5.086599788007269,0.21241961488723798,-0.123069107723236,0.242228533172607,1.1030945396048415
5.087205481526348,0.0830885601997375,-0.051218521785736104,0.194328142547607,1.1030945396048415
5.087811175045427,0.0471632672309875,-0.06558863897323611,0.0458369316101069,1.1030945396048415
5.088416868564507,-0.0318723773002625,-0.000923111629486085,0.215883318328857,1.1030945396048415
5.089022562083586,-0.182758607769012,-0.0895388342857361,0.0554170097351069,1.1030945396048415
5.0896282556026655,-0.0582175921440125,-0.266770279598236,0.163192888641357,1.1030945396048415
5.090233949121744,0.207629575824738,-0.0560085608482361,0.32844923629760703,1.1030945396048415
5.090839642640824,0.186074400043488,0.116432845401764,0.215883318328857,1.1030945396048415
5.091445336159904,-0.11569806089401201,-0.0560085608482361,0.0554170097351069,1.1030945396048415
5.0920510296789825,0.0543483258247375,-0.051218521785736104,0.208698259735107,1.1030945396048415
5.092656723198062,-0.0175022601127625,-0.0560085608482361,0.316474138641357,1.1030945396048415
5.093262416717141,-0.0246873187065125,0.116432845401764,0.266178728485107,1.1030945396048415
5.093868110236221,-0.122883119487762,0.0565573571205139,0.165587908172607,1.1030945396048415
5.0944738037553,-0.237844056987762,-0.0847487952232361,-0.0020634590148931,1.1030945396048415
5.095079497274379,-0.0677976702690125,0.0110519860267639,0.146427751922607,1.1030945396048415
5.095685190793459,0.0806935406684875,-0.0416384436607361,0.350004412078857,1.1030945396048415
5.0962908843125385,-0.0654026507377625,0.00626194696426391,0.323659197235107,1.1030945396048415
5.096896577831617,-0.0941428851127625,0.0972726891517639,-0.018828595733643098,1.1030945396048415
5.097502271350697,-0.0294773577690125,0.00147190790176392,0.201513201141357,1.1030945396048415
5.098107964869776,-0.106117982769012,0.0781125329017639,0.165587908172607,1.1030945396048415
5.0987136583888555,-0.11090802183151201,0.0924826500892639,0.0123066581726069,1.1030945396048415
5.099319351907935,-0.0749827288627625,-0.0751687170982361,0.0123066581726069,1.1030945396048415
5.099925045427014,0.0615333844184875,0.00626194696426391,0.237438494110107,1.1030945396048415
5.100530738946094,-0.00552716245651246,-0.0727736975669861,0.187143083953857,1.1030945396048415
5.1011364324651725,0.142964048480988,-0.029663346004486103,0.0841572441101069,1.1030945396048415
5.101742125984252,-0.00552716245651246,0.0326071618080139,0.323659197235107,1.1030945396048415
5.102347819503332,-0.144438295269012,-0.18294459600448598,0.026676775360106902,1.1030945396048415
5.102953513022411,-0.00313214292526246,0.0661374352455139,-0.0092485176086431,1.1030945396048415
5.10355920654149,-0.122883119487762,-0.147019303035736,0.184748064422607,1.1030945396048415
5.10416490006057,0.0830885601997375,-0.240425064754486,0.0961323417663569,1.1030945396048415
5.104770593579649,0.0782985211372375,0.018237044620513898,-0.0475688301086431,1.1030945396048415
5.1053762870987285,-0.225868959331512,-0.0320583655357361,0.0745771659851069,1.1030945396048415
5.105981980617807,-0.14204327573776201,-0.0320583655357361,0.038651873016356905,1.1030945396048415
5.106587674136887,-0.187548646831512,0.126012923526764,0.038651873016356905,1.1030945396048415
5.107193367655967,0.00165789613723754,0.13080296258926402,-0.0284086738586431,1.1030945396048415
5.1077990611750455,-0.0486375140190125,-0.0200832678794861,0.132057634735107,1.1030945396048415
5.108404754694125,0.0878785992622375,0.0350021813392639,0.5631611503601069,1.1030945396048415
5.109010448213205,0.0280031109809875,0.0876926110267639,0.201513201141357,1.1030945396048415
5.109616141732284,-0.0893528460502625,-0.012898209285736099,0.0410468925476069,1.1030945396048415
5.110221835251363,-0.189943666362762,0.102062728214264,-0.0092485176086431,1.1030945396048415
5.110827528770442,-0.156413392925262,0.0326071618080139,0.170377947235107,1.1030945396048415
5.111433222289522,0.07111346254348751,-0.0224782874107361,0.0841572441101069,1.1030945396048415
5.1120389158086015,-0.130068178081512,0.14038304071426402,0.031466814422606904,1.1030945396048415
5.11264460932768,-0.015107240581512499,-0.21886988897323598,0.235043474578857,1.1030945396048415
5.11325030284676,-0.0246873187065125,-0.0320583655357361,0.0410468925476069,1.1030945396048415
5.113855996365839,-0.165993471050262,0.114037825870514,0.038651873016356905,1.1030945396048415
5.1144616898849184,-0.0127122210502625,-0.0631936194419861,0.254203630828857,1.1030945396048415
5.115067383403998,0.0423732281684875,-0.012898209285736099,0.309289080047607,1.1030945396048415
5.115673076923077,0.00644793519973754,0.0661374352455139,0.0913423027038569,1.1030945396048415
5.116278770442157,-0.0366624163627625,-0.0895388342857361,-0.030803693389893097,1.1030945396048415
5.116884463961236,-0.122883119487762,-0.120674088191986,0.108107439422607,1.1030945396048415
5.117490157480315,-0.0773777483940125,-0.0991189124107361,0.227858415985107,1.1030945396048415
5.118095850999395,-0.154018373394012,-0.0224782874107361,0.215883318328857,1.1030945396048415
5.118701544518474,-0.0222922991752625,0.0948776696205139,0.0769721855163569,1.1030945396048415
5.119307238037553,-0.120488099956512,-0.0416384436607361,0.0913423027038569,1.1030945396048415
5.119912931556633,-0.156413392925262,0.0517673180580139,0.206303240203857,1.1030945396048415
5.120518625075712,0.0615333844184875,-0.000923111629486085,0.038651873016356905,1.1030945396048415
5.1211243185947914,-0.144438295269012,0.114037825870514,0.254203630828857,1.1030945396048415
5.12173001211387,-0.14204327573776201,0.104457747745514,0.117687517547607,1.1030945396048415
5.12233570563295,0.164519224262238,-0.0823537756919861,0.0530219902038569,1.1030945396048415
5.12294139915203,0.229184751605988,0.0326071618080139,0.335634294891357,1.1030945396048415
5.123547092671108,0.128593931293488,0.00147190790176392,0.5248408378601069,1.1030945396048415
5.124152786190188,-0.32885479917526195,0.0565573571205139,0.158402849578857,1.1030945396048415
5.124758479709268,-0.0989329241752625,0.00626194696426391,0.026676775360106902,1.1030945396048415
5.125364173228347,0.00884295473098754,-0.19731471319198599,0.285338884735107,1.1030945396048415
5.125969866747426,-0.27855938901901195,-0.0464284827232361,0.0841572441101069,1.1030945396048415
5.126575560266505,0.178889341449738,-0.11348902959823601,0.029071794891356903,1.1030945396048415
5.127181253785585,-0.0414524554252625,-0.11348902959823601,0.191933123016357,1.1030945396048415
5.1277869473046644,-0.221078920269012,0.178703353214264,0.263783708953857,1.1030945396048415
5.128392640823743,0.0040529156684875394,-0.211684830379486,0.170377947235107,1.1030945396048415
5.128998334342823,0.0423732281684875,0.0876926110267639,0.029071794891356903,1.1030945396048415
5.129604027861903,0.0950636578559875,0.0996677086830139,-0.0331987129211431,1.1030945396048415
5.130209721380981,0.0256080914497375,-0.0200832678794861,0.381139665985107,1.1030945396048415
5.130815414900061,-0.165993471050262,-0.0416384436607361,0.0554170097351069,1.1030945396048415
5.13142110841914,-0.000737123394012459,-0.16378443975448598,0.038651873016356905,1.1030945396048415
5.13202680193822,0.0806935406684875,0.0996677086830139,0.15121779098510701,1.1030945396048415
5.132632495457299,-0.0773777483940125,-0.123069107723236,0.0865522636413569,1.1030945396048415
5.133238188976378,0.0303981305122375,-0.0176882483482361,0.232648455047607,1.1030945396048415
5.133843882495458,0.162124204730988,0.00147190790176392,0.156007830047607,1.1030945396048415
5.1344495760145366,-0.0534275530815125,-0.135044205379486,0.0147016777038569,1.1030945396048415
5.135055269533616,-0.225868959331512,-0.123069107723236,-0.193665021514893,1.1030945396048415
5.135660963052696,-0.235449037456512,0.0613473961830139,0.0841572441101069,1.1030945396048415
5.136266656571775,-0.034267396831512496,0.037397200870513896,0.177563005828857,1.1030945396048415
5.136872350090854,0.102248716449738,0.109247786808014,0.249413591766357,1.1030945396048415
5.137478043609934,-0.0941428851127625,0.0493722985267639,0.426645037078857,1.1030945396048415
5.138083737129013,-0.106117982769012,-0.125464127254486,0.419459978485107,1.1030945396048415
5.138689430648093,-0.0198972796440125,0.0493722985267639,0.38832472457885703,1.1030945396048415
5.139295124167171,-0.0438474749565125,0.18109837274551402,0.036256853485106905,1.1030945396048415
5.139900817686251,0.0423732281684875,0.0805075524330139,0.0745771659851069,1.1030945396048415
5.14050651120533,-0.00792218198776246,0.114037825870514,0.036256853485106905,1.1030945396048415
5.1411122047244096,-0.0773777483940125,0.0350021813392639,0.0745771659851069,1.1030945396048415
5.141717898243489,-0.0630076312065125,-0.0224782874107361,0.105712419891357,1.1030945396048415
5.142323591762568,-0.0390574358940125,-0.051218521785736104,0.0147016777038569,1.1030945396048415
5.142929285281648,0.0471632672309875,-0.0440334631919861,0.235043474578857,1.1030945396048415
5.143534978800727,0.0351881695747375,0.030212142276763897,0.0985273612976069,1.1030945396048415
5.144140672319806,0.00884295473098754,0.0254221032142639,-0.057148908233643096,1.1030945396048415
5.144746365838886,0.116618833637238,-0.027268326473236102,0.0027265800476069,1.1030945396048415
5.145352059357966,-0.000737123394012459,0.00865696649551391,0.278153826141357,1.1030945396048415
5.145957752877044,-0.170783510112762,0.142778060245514,0.215883318328857,1.1030945396048415
5.146563446396124,0.0351881695747375,-0.130254166316986,0.12247755661010701,1.1030945396048415
5.147169139915203,-0.252214174175262,-0.14941432256698597,0.038651873016356905,1.1030945396048415
5.1477748334342825,-0.0677976702690125,-0.0799587561607361,-0.052358869171143095,1.1030945396048415
5.148380526953362,0.056743345355987504,-0.22844996709823598,0.156007830047607,1.1030945396048415
5.148986220472441,-0.165993471050262,-0.0248733069419861,0.0147016777038569,1.1030945396048415
5.149591913991521,-0.106117982769012,0.109247786808014,-0.0236186347961431,1.1030945396048415
5.1501976075106,-0.134858217144012,-0.16378443975448598,0.273363787078857,1.1030945396048415
5.150803301029679,-0.0917478655815125,0.00865696649551391,-0.109839337921143,1.1030945396048415
5.151408994548758,0.0615333844184875,-0.16378443975448598,-0.267910626983643,1.1030945396048415
5.152014688067839,0.0495582867622375,-0.11348902959823601,0.0865522636413569,1.1030945396048415
5.152620381586917,-0.249819154644012,0.13559300165176402,0.208698259735107,1.1030945396048415
5.153226075105996,-0.137253236675262,-0.0799587561607361,0.194328142547607,1.1030945396048415
5.153831768625076,0.150149107074738,-0.15899440069198598,0.225463396453857,1.1030945396048415
5.1544374621441555,0.0232130719184875,0.00626194696426391,-0.0882841621398931,1.1030945396048415
5.155043155663234,0.00644793519973754,-0.118279068660736,0.237438494110107,1.1030945396048415
5.155648849182314,-0.0294773577690125,0.00147190790176392,0.366769548797607,1.1030945396048415
5.156254542701394,-0.0725877093315125,0.12361790399551399,0.12247755661010701,1.1030945396048415
5.1568602362204725,-0.0414524554252625,-0.151809342098236,0.175167986297607,1.1030945396048415
5.157465929739552,0.0160280133247375,0.116432845401764,-0.131394513702393,1.1030945396048415
5.158071623258631,-0.0462424944877625,0.102062728214264,-0.0260136543273931,1.1030945396048415
5.158677316777711,-0.139648256206512,-0.00331813116073608,0.273363787078857,1.1030945396048415
5.15928301029679,0.0160280133247375,0.0565573571205139,0.0147016777038569,1.1030945396048415
5.159888703815869,-0.149228334331512,0.039792220401763896,-0.160134748077393,1.1030945396048415
5.160494397334949,-0.0941428851127625,-0.139834244441986,0.285338884735107,1.1030945396048415
5.1611000908540285,0.166914243793488,-0.0967238928794861,0.0626020683288569,1.1030945396048415
5.161705784373107,0.0591383648872375,-0.13743922491073599,0.170377947235107,1.1030945396048415
5.162311477892187,0.140569028949738,-0.190129654598236,0.0745771659851069,1.1030945396048415
5.162917171411267,0.15254412660598798,0.0278171227455139,-0.0212236152648931,1.1030945396048415
5.1635228649303455,-0.0701926898002625,-0.0416384436607361,0.146427751922607,1.1030945396048415
5.164128558449425,-0.0773777483940125,-0.175759537410736,0.000331560516356899,1.1030945396048415
5.164734251968504,-0.00313214292526246,-0.0727736975669861,0.0099116386413569,1.1030945396048415
5.165339945487584,0.013632993793487501,0.0158420250892639,0.0697871269226069,1.1030945396048415
5.165945639006663,-0.182758607769012,-0.156599381160736,0.108107439422607,1.1030945396048415
5.166551332525742,-0.0486375140190125,-0.0176882483482361,0.0051215995788569,1.1030945396048415
5.167157026044821,0.0208180523872375,0.147568099308014,-0.11702439651489299,1.1030945396048415
5.1677627195639015,-0.027082338237762498,0.104457747745514,-0.136184552764893,1.1030945396048415
5.16836841308298,0.0735084820747375,-0.0703786780357361,0.464965349578857,1.1030945396048415
5.168974106602059,0.0519533062934875,0.037397200870513896,0.0889472831726069,1.1030945396048415
5.16957980012114,0.00884295473098754,0.00865696649551391,-0.0739140449523931,1.1030945396048415
5.1701854936402185,-0.0534275530815125,-0.142229263973236,0.172772966766357,1.1030945396048415
5.170791187159297,-0.158808412456512,-0.00571315069198609,0.0482319511413569,1.1030945396048415
5.171396880678377,0.107038755512238,-0.0751687170982361,0.201513201141357,1.1030945396048415
5.172002574197457,-0.00552716245651246,-0.0727736975669861,0.153612810516357,1.1030945396048415
5.1726082677165355,-0.237844056987762,0.037397200870513896,0.220673357391357,1.1030945396048415
5.173213961235615,-0.0438474749565125,-0.21886988897323598,0.199118181610107,1.1030945396048415
5.173819654754694,-0.175573549175262,0.00147190790176392,0.0889472831726069,1.1030945396048415
5.174425348273774,-0.14204327573776201,-0.0703786780357361,0.184748064422607,1.1030945396048415
5.175031041792853,-0.0414524554252625,-0.0775637366294861,0.287733904266357,1.1030945396048415
5.175636735311932,-0.122883119487762,0.0757175133705139,0.230253435516357,1.1030945396048415
5.176242428831013,-0.00792218198776246,-0.151809342098236,0.338029314422607,1.1030945396048415
5.1768481223500915,0.00644793519973754,0.0134470055580139,0.0841572441101069,1.1030945396048415
5.17745381586917,-0.015107240581512499,-0.0775637366294861,0.132057634735107,1.1030945396048415
5.17805950938825,0.0782985211372375,-0.0152932288169861,0.280548845672607,1.1030945396048415
5.17866520290733,-0.0749827288627625,0.111642806339264,0.179958025360107,1.1030945396048415
5.1792708964264085,-0.0749827288627625,-0.029663346004486103,0.179958025360107,1.1030945396048415
5.179876589945488,-0.0318723773002625,-0.0248733069419861,0.0793672050476069,1.1030945396048415
5.180482283464567,0.15733416566848799,-0.0536135413169861,0.273363787078857,1.1030945396048415
5.181087976983647,0.0399782086372375,-0.0440334631919861,0.0841572441101069,1.1030945396048415
5.181693670502726,-0.0725877093315125,0.178703353214264,0.0985273612976069,1.1030945396048415
5.182299364021805,-0.213893861675262,0.0709274743080139,0.132057634735107,1.1030945396048415
5.182905057540884,-0.118093080425262,0.164333236026764,0.0075166191101069,1.1030945396048415
5.1835107510599645,-0.0103172015190125,-0.0679836585044861,0.196723162078857,1.1030945396048415
5.184116444579043,-0.151623353862762,0.0230270836830139,0.0458369316101069,1.1030945396048415
5.184722138098122,-0.0677976702690125,0.018237044620513898,-0.0787040840148931,1.1030945396048415
5.185327831617203,-0.103722963237762,0.0206320641517639,0.163192888641357,1.1030945396048415
5.1859335251362815,-0.36478009214401197,-0.185339615535736,0.191933123016357,1.1030945396048415
5.18653921865536,-0.130068178081512,-0.19252467412948598,0.036256853485106905,1.1030945396048415
5.18714491217444,0.00644793519973754,0.039792220401763896,0.0051215995788569,1.1030945396048415
5.18775060569352,-0.199523744487762,-0.0943288733482361,0.0721821464538569,1.1030945396048415
5.188356299212598,-0.034267396831512496,0.0541623375892639,0.242228533172607,1.1030945396048415
5.188961992731678,-0.000737123394012459,-0.11588404912948601,0.182353044891357,1.1030945396048415
5.189567686250757,-0.0701926898002625,-0.19252467412948598,0.031466814422606904,1.1030945396048415
5.190173379769837,-0.0797727679252625,-0.027268326473236102,0.0673921073913569,1.1030945396048415
5.190779073288916,-0.00313214292526246,0.0517673180580139,0.369164568328857,1.1030945396048415
5.191384766807995,-0.0893528460502625,0.0445822594642639,0.345214373016357,1.1030945396048415
5.191990460327076,0.0375831891059875,-0.120674088191986,0.191933123016357,1.1030945396048415
5.1925961538461545,0.0759035016059875,0.0230270836830139,0.182353044891357,1.1030945396048415
5.193201847365233,-0.0534275530815125,-0.0176882483482361,0.0410468925476069,1.1030945396048415
5.193807540884313,-0.273769349956512,0.0350021813392639,0.160797869110107,1.1030945396048415
5.194413234403393,-0.0318723773002625,0.0565573571205139,0.0913423027038569,1.1030945396048415
5.195018927922471,-0.0246873187065125,-0.221264908504486,0.103317400360107,1.1030945396048415
5.195624621441551,-0.0989329241752625,-0.13264918584823598,0.220673357391357,1.1030945396048415
5.19623031496063,-0.0917478655815125,0.0685324547767639,0.0649970878601069,1.1030945396048415
5.19683600847971,-0.0965379046440125,0.269714095401764,0.575136248016357,1.1030945396048415
5.197441701998789,0.0759035016059875,0.00865696649551391,0.462570330047607,1.1030945396048415
5.198047395517868,-0.0630076312065125,-0.0392434241294861,-0.0930742012023931,1.1030945396048415
5.198653089036947,-0.11569806089401201,-0.029663346004486103,0.8266132987976069,1.1030945396048415
5.1992587825560275,0.0447682476997375,-0.252400162410736,0.371559587860107,1.1030945396048415
5.199864476075106,-0.0534275530815125,0.0230270836830139,-0.0978642402648931,1.1030945396048415
5.200470169594185,-0.0222922991752625,-0.027268326473236102,0.132057634735107,1.1030945396048415
5.201075863113266,0.229184751605988,-0.127859146785736,0.110502458953857,1.1030945396048415
5.201681556632344,0.0160280133247375,0.22181370477676401,0.136847673797607,1.1030945396048415
5.202287250151423,-0.034267396831512496,0.0637424157142639,0.366769548797607,1.1030945396048415
5.202892943670503,0.0782985211372375,0.102062728214264,0.424250017547607,1.1030945396048415
5.203498637189583,0.0351881695747375,-0.14941432256698597,0.160797869110107,1.1030945396048415
5.204104330708661,-0.106117982769012,-0.216474869441986,-0.0331987129211431,1.1030945396048415
5.204710024227741,-0.00792218198776246,-0.13743922491073599,-0.14815965042114299,1.1030945396048415
5.20531571774682,0.119013853168488,-0.06558863897323611,0.12247755661010701,1.1030945396048415
5.2059214112659,-0.11569806089401201,0.0326071618080139,0.038651873016356905,1.1030945396048415
5.206527104784979,-0.0582175921440125,-0.0679836585044861,0.129662615203857,1.1030945396048415
5.207132798304058,0.0160280133247375,-0.101513931941986,0.304499040985107,1.1030945396048415
5.207738491823137,-0.0677976702690125,-0.235635025691986,0.15121779098510701,1.1030945396048415
5.208344185342217,0.0351881695747375,-0.21407984991073598,0.0170966972351069,1.1030945396048415
5.208949878861296,-0.0941428851127625,-0.106303971004486,0.199118181610107,1.1030945396048415
5.209555572380376,-0.0175022601127625,0.037397200870513896,-0.0236186347961431,1.1030945396048415
5.210161265899456,-0.14683331480026202,-0.151809342098236,0.206303240203857,1.1030945396048415
5.210766959418534,-0.0821677874565125,-0.101513931941986,0.196723162078857,1.1030945396048415
5.211372652937614,0.0327931500434875,0.16193821649551401,0.146427751922607,1.1030945396048415
5.211978346456693,0.056743345355987504,0.0613473961830139,0.156007830047607,1.1030945396048415
5.212584039975773,-0.0630076312065125,0.128407943058014,0.024281755828856902,1.1030945396048415
5.213189733494852,0.0303981305122375,-0.0416384436607361,0.0578120292663569,1.1030945396048415
5.213795427013931,-0.0893528460502625,-0.0152932288169861,0.172772966766357,1.1030945396048415
5.21440112053301,-0.168388490581512,0.0900876305580139,0.206303240203857,1.1030945396048415
5.21500681405209,-0.127673158550262,0.039792220401763896,0.136847673797607,1.1030945396048415
5.215612507571169,0.142964048480988,0.0637424157142639,0.175167986297607,1.1030945396048415
5.216218201090248,-0.0390574358940125,-0.0895388342857361,0.026676775360106902,1.1030945396048415
5.216823894609329,-0.247424135112762,-0.0871438147544861,-0.0068534980773931,1.1030945396048415
5.217429588128407,0.166914243793488,-0.00810817022323609,0.115292498016357,1.1030945396048415
5.218035281647486,-0.158808412456512,0.00626194696426391,0.0769721855163569,1.1030945396048415
5.218640975166566,-0.10851300230026201,-0.0248733069419861,-0.0427787910461431,1.1030945396048415
5.219246668685646,0.0615333844184875,-0.0607985999107361,0.242228533172607,1.1030945396048415
5.219852362204724,-0.0414524554252625,0.0637424157142639,0.182353044891357,1.1030945396048415
5.220458055723804,0.0639284039497375,-0.135044205379486,0.132057634735107,1.1030945396048415
5.221063749242883,0.0830885601997375,-0.281140396785736,0.134452654266357,1.1030945396048415
5.2216694427619625,-0.182758607769012,-0.0584035803794861,0.12008253707885701,1.1030945396048415
5.222275136281042,0.111828794574738,-0.0631936194419861,0.15121779098510701,1.1030945396048415
5.222880829800121,0.0495582867622375,-0.103908951473236,0.0434419120788569,1.1030945396048415
5.223486523319201,-0.0103172015190125,-0.0416384436607361,0.117687517547607,1.1030945396048415
5.22409221683828,0.111828794574738,-0.027268326473236102,0.0985273612976069,1.1030945396048415
5.224697910357359,0.0280031109809875,0.0421872399330139,0.0985273612976069,1.1030945396048415
5.225303603876439,0.128593931293488,0.0637424157142639,0.144032732391357,1.1030945396048415
5.225909297395519,-0.0893528460502625,-0.0536135413169861,0.371559587860107,1.1030945396048415
5.226514990914597,-0.11090802183151201,-0.245215103816986,0.318869158172607,1.1030945396048415
5.227120684433677,0.018423032855987502,-0.0919338538169861,0.117687517547607,1.1030945396048415
5.227726377952756,-0.0246873187065125,0.16672825555801402,0.12008253707885701,1.1030945396048415
5.2283320714718355,0.116618833637238,0.0565573571205139,0.5248408378601069,1.1030945396048415
5.228937764990915,0.0782985211372375,-0.106303971004486,0.0458369316101069,1.1030945396048415
5.229543458509994,-0.144438295269012,0.0158420250892639,0.112897478485107,1.1030945396048415
5.230149152029074,0.018423032855987502,0.0469772789955139,0.486520525360107,1.1030945396048415
5.230754845548153,-0.139648256206512,-0.142229263973236,0.0530219902038569,1.1030945396048415
5.231360539067232,-0.134858217144012,-0.33383082647323603,0.153612810516357,1.1030945396048415
5.231966232586311,-0.125278139019012,-0.0224782874107361,0.0170966972351069,1.1030945396048415
5.232571926105392,-0.25700421323776196,0.0278171227455139,0.12247755661010701,1.1030945396048415
5.23317761962447,0.0040529156684875394,-0.06558863897323611,-0.0068534980773931,1.1030945396048415
5.233783313143549,-0.26658429136276196,0.0900876305580139,0.148822771453857,1.1030945396048415
5.23438900666263,-0.163598451519012,0.0661374352455139,0.112897478485107,1.1030945396048415
5.2349947001817085,-0.0725877093315125,-0.0344533850669861,0.160797869110107,1.1030945396048415
5.235600393700787,-0.11090802183151201,0.0565573571205139,0.184748064422607,1.1030945396048415
5.236206087219867,0.018423032855987502,0.17630833368301402,-0.057148908233643096,1.1030945396048415
5.236811780738947,-0.0462424944877625,-0.0871438147544861,0.184748064422607,1.1030945396048415
5.2374174742580255,-0.139648256206512,-0.0895388342857361,0.165587908172607,1.1030945396048415
5.238023167777105,-0.0414524554252625,-0.120674088191986,0.165587908172607,1.1030945396048415
5.238628861296184,-0.0294773577690125,0.14996311883926403,0.0434419120788569,1.1030945396048415
5.239234554815264,0.0399782086372375,0.193073470401764,0.026676775360106902,1.1030945396048415
5.239840248334343,-0.144438295269012,-0.151809342098236,0.036256853485106905,1.1030945396048415
5.240445941853422,-0.233054017925262,0.0350021813392639,-0.0379887519836431,1.1030945396048415
5.241051635372502,0.0112379742622375,0.18109837274551402,0.134452654266357,1.1030945396048415
5.2416573288915815,0.0256080914497375,0.128407943058014,0.21109327926635701,1.1030945396048415
5.24226302241066,0.0160280133247375,-0.00810817022323609,0.136847673797607,1.1030945396048415
5.24286871592974,-0.0127122210502625,-0.0967238928794861,0.127267595672607,1.1030945396048415
5.24347440944882,-0.151623353862762,0.248158919620514,0.225463396453857,1.1030945396048415
5.2440801029678985,-0.0438474749565125,0.0134470055580139,0.249413591766357,1.1030945396048415
5.244685796486978,0.0759035016059875,0.00386692743301392,0.141637712860107,1.1030945396048415
5.245291490006057,-0.0175022601127625,-0.0224782874107361,0.215883318328857,1.1030945396048415
5.245897183525137,0.0112379742622375,-0.120674088191986,0.187143083953857,1.1030945396048415
5.246502877044216,-0.0773777483940125,-0.0105031897544861,0.175167986297607,1.1030945396048415
5.247108570563295,-0.132463197612762,-0.0152932288169861,0.117687517547607,1.1030945396048415
5.247714264082374,0.0423732281684875,0.0445822594642639,0.0649970878601069,1.1030945396048415
5.2483199576014545,-0.0534275530815125,0.0493722985267639,0.144032732391357,1.1030945396048415
5.248925651120533,-0.0893528460502625,-0.0536135413169861,0.0913423027038569,1.1030945396048415
5.249531344639612,-0.0749827288627625,-0.0631936194419861,0.208698259735107,1.1030945396048415
5.250137038158693,-0.0965379046440125,-0.11348902959823601,0.0721821464538569,1.1030945396048415
5.2507427316777715,0.109433775043488,-0.125464127254486,0.153612810516357,1.1030945396048415
5.25134842519685,-0.0630076312065125,0.039792220401763896,0.0745771659851069,1.1030945396048415
5.25195411871593,-0.137253236675262,-0.0152932288169861,0.182353044891357,1.1030945396048415
5.25255981223501,-0.0103172015190125,-0.0344533850669861,0.156007830047607,1.1030945396048415
5.2531655057540885,0.0735084820747375,-0.0440334631919861,0.0147016777038569,1.1030945396048415
5.253771199273168,0.119013853168488,-0.00331813116073608,0.223068376922607,1.1030945396048415
5.254376892792247,-0.015107240581512499,-0.147019303035736,-0.0978642402648931,1.1030945396048415
5.254982586311327,-0.0127122210502625,-0.00331813116073608,-0.0044584785461431,1.1030945396048415
5.255588279830406,0.0543483258247375,-0.0200832678794861,0.0889472831726069,1.1030945396048415
5.256193973349485,0.327380552387238,-0.21407984991073598,-0.186479962921143,1.1030945396048415
5.256799666868566,0.198049497699738,0.19067845087051402,0.486520525360107,1.1030945396048415
5.2574053603876445,0.00165789613723754,0.00626194696426391,0.230253435516357,1.1030945396048415
5.258011053906723,0.0998536969184875,-0.151809342098236,-0.0355937324523931,1.1030945396048415
5.258616747425803,-0.0366624163627625,0.14996311883926403,0.575136248016357,1.1030945396048415
5.259222440944883,0.0687184430122375,0.0134470055580139,0.127267595672607,1.1030945396048415
5.2598281344639615,-0.000737123394012459,-0.0536135413169861,0.0123066581726069,1.1030945396048415
5.260433827983041,0.0471632672309875,-0.202104752254486,0.134452654266357,1.1030945396048415
5.26103952150212,-0.00792218198776246,-0.0536135413169861,0.0075166191101069,1.1030945396048415
5.2616452150212,-0.163598451519012,0.16193821649551401,0.0506269706726069,1.1030945396048415
5.262250908540279,-0.0582175921440125,0.037397200870513896,0.201513201141357,1.1030945396048415
5.262856602059358,0.0759035016059875,0.0326071618080139,0.21109327926635701,1.1030945396048415
5.263462295578437,0.0399782086372375,-0.0200832678794861,0.227858415985107,1.1030945396048415
5.2640679890975175,0.107038755512238,-0.0536135413169861,0.036256853485106905,1.1030945396048415
5.264673682616596,0.142964048480988,-0.135044205379486,0.266178728485107,1.1030945396048415
5.265279376135675,0.0639284039497375,-0.11348902959823601,0.0434419120788569,1.1030945396048415
5.265885069654756,0.219604673480988,-0.21886988897323598,-0.0882841621398931,1.1030945396048415
5.2664907631738345,0.135778989887238,-0.0560085608482361,0.261388689422607,1.1030945396048415
5.267096456692913,0.00884295473098754,0.18588841180801402,0.124872576141357,1.1030945396048415
5.267702150211993,-0.0294773577690125,-0.0584035803794861,0.0578120292663569,1.1030945396048415
5.268307843731073,-0.0246873187065125,0.0972726891517639,0.163192888641357,1.1030945396048415
5.268913537250151,-0.0630076312065125,-0.0320583655357361,0.215883318328857,1.1030945396048415
5.269519230769231,-0.015107240581512499,-0.0919338538169861,0.0985273612976069,1.1030945396048415
5.27012492428831,-0.0462424944877625,-0.0176882483482361,0.132057634735107,1.1030945396048415
5.27073061780739,0.0639284039497375,-0.0248733069419861,0.256598650360107,1.1030945396048415
5.271336311326469,0.181284360980988,-0.0200832678794861,0.0482319511413569,1.1030945396048415
5.271942004845548,0.0232130719184875,-0.0991189124107361,0.0649970878601069,1.1030945396048415
5.272547698364627,0.018423032855987502,-0.0464284827232361,-0.0355937324523931,1.1030945396048415
5.2731533918837075,0.159729185199738,-0.139834244441986,0.146427751922607,1.1030945396048415
5.273759085402786,-0.0989329241752625,0.152358138370514,0.0673921073913569,1.1030945396048415
5.274364778921866,0.00884295473098754,0.0781125329017639,-0.016433576202393097,1.1030945396048415
5.274970472440946,0.0735084820747375,-0.142229263973236,0.278153826141357,1.1030945396048415
5.275576165960024,-0.199523744487762,0.133197982120514,-0.0787040840148931,1.1030945396048415
5.276181859479104,0.214814634418488,-0.147019303035736,-0.0954692207336431,1.1030945396048415
5.276787552998183,-0.0438474749565125,-0.012898209285736099,-0.016433576202393097,1.1030945396048415
5.277393246517263,-0.106117982769012,-0.0248733069419861,0.21109327926635701,1.1030945396048415
5.277998940036342,-0.0414524554252625,-0.0416384436607361,0.167982927703857,1.1030945396048415
5.278604633555421,-0.165993471050262,0.128407943058014,0.141637712860107,1.1030945396048415
5.2792103270745,-0.0127122210502625,0.0948776696205139,0.330844255828857,1.1030945396048415
5.2798160205935805,-0.106117982769012,0.0709274743080139,0.158402849578857,1.1030945396048415
5.280421714112659,-0.0294773577690125,-0.118279068660736,0.0721821464538569,1.1030945396048415
5.281027407631738,0.26032000551223805,0.00147190790176392,0.0626020683288569,1.1030945396048415
5.281633101150819,-0.0175022601127625,-0.012898209285736099,0.033861833953856904,1.1030945396048415
5.282238794669897,-0.101327943706512,-0.0847487952232361,0.256598650360107,1.1030945396048415
5.282844488188976,-0.0222922991752625,-0.11348902959823601,0.239833513641357,1.1030945396048415
5.283450181708056,0.198049497699738,-0.012898209285736099,0.218278337860107,1.1030945396048415
5.284055875227136,0.107038755512238,-0.0464284827232361,0.029071794891356903,1.1030945396048415
5.284661568746214,0.0759035016059875,-0.0464284827232361,0.0099116386413569,1.1030945396048415
5.285267262265294,0.164519224262238,-0.0703786780357361,0.170377947235107,1.1030945396048415
5.285872955784373,0.00165789613723754,-0.0871438147544861,0.0841572441101069,1.1030945396048415
5.286478649303453,0.0998536969184875,-0.00810817022323609,0.254203630828857,1.1030945396048415
5.287084342822532,-0.0797727679252625,-0.118279068660736,-0.0068534980773931,1.1030945396048415
5.287690036341611,0.0998536969184875,-0.06558863897323611,-0.356526349639893,1.1030945396048415
5.288295729860691,0.056743345355987504,0.0445822594642639,0.500890642547607,1.1030945396048415
5.28890142337977,0.279480161762238,0.164333236026764,0.773922869110107,1.1030945396048415
5.289507116898849,0.116618833637238,0.0158420250892639,0.170377947235107,1.1030945396048415
5.290112810417929,-0.204313783550262,0.0254221032142639,0.105712419891357,1.1030945396048415
5.290718503937009,0.183679380512238,0.0733224938392639,0.263783708953857,1.1030945396048415
5.291324197456087,0.056743345355987504,-0.266770279598236,0.26857374801635703,1.1030945396048415
5.291929890975167,0.0519533062934875,-0.0775637366294861,0.141637712860107,1.1030945396048415
5.292535584494246,0.0327931500434875,0.102062728214264,0.136847673797607,1.1030945396048415
5.293141278013326,0.138174009418488,0.0350021813392639,0.309289080047607,1.1030945396048415
5.293746971532405,0.0303981305122375,-0.000923111629486085,0.160797869110107,1.1030945396048415
5.294352665051484,-0.14683331480026202,-0.101513931941986,-0.0212236152648931,1.1030945396048415
5.294958358570563,-0.0486375140190125,-0.101513931941986,0.0554170097351069,1.1030945396048415
5.295564052089643,0.0208180523872375,-0.0224782874107361,0.15121779098510701,1.1030945396048415
5.296169745608722,0.0878785992622375,-0.0871438147544861,0.156007830047607,1.1030945396048415
5.296775439127801,-0.0390574358940125,-0.0775637366294861,0.0721821464538569,1.1030945396048415
5.297381132646882,-0.0558225726127625,0.018237044620513898,-0.0739140449523931,1.1030945396048415
5.29798682616596,0.0591383648872375,-0.125464127254486,-0.052358869171143095,1.1030945396048415
5.298592519685039,0.0495582867622375,0.0733224938392639,0.0793672050476069,1.1030945396048415
5.299198213204119,-0.000737123394012459,0.0158420250892639,0.0578120292663569,1.1030945396048415
5.299803906723199,0.0782985211372375,0.0230270836830139,0.196723162078857,1.1030945396048415
5.300409600242277,-0.0773777483940125,-0.00331813116073608,0.179958025360107,1.1030945396048415
5.301015293761357,-0.00552716245651246,-0.0871438147544861,0.167982927703857,1.1030945396048415
5.301620987280437,0.198049497699738,0.128407943058014,0.378744646453857,1.1030945396048415
5.3022266807995155,0.0471632672309875,-0.051218521785736104,0.213488298797607,1.1030945396048415
5.302832374318595,0.150149107074738,-0.0416384436607361,0.0793672050476069,1.1030945396048415
5.303438067837674,0.126198911762238,-0.0727736975669861,0.158402849578857,1.1030945396048415
5.304043761356754,-0.132463197612762,-0.142229263973236,0.0793672050476069,1.1030945396048415
5.304649454875833,-0.0917478655815125,-0.0703786780357361,-0.385266584014893,1.1030945396048415
5.305255148394912,0.176494321918488,0.00386692743301392,0.0099116386413569,1.1030945396048415
5.305860841913992,-0.0294773577690125,-0.0368484045982361,0.182353044891357,1.1030945396048415
5.306466535433072,-0.0821677874565125,-0.0536135413169861,0.0530219902038569,1.1030945396048415
5.30707222895215,0.193259458637238,0.037397200870513896,0.218278337860107,1.1030945396048415
5.30767792247123,-0.165993471050262,-0.0943288733482361,0.0721821464538569,1.1030945396048415
5.308283615990309,-0.0366624163627625,0.0733224938392639,0.0506269706726069,1.1030945396048415
5.3088893095093885,-0.0797727679252625,0.142778060245514,-0.0140385566711431,1.1030945396048415
5.309495003028468,-0.199523744487762,-0.0727736975669861,0.12008253707885701,1.1030945396048415
5.310100696547547,-0.0582175921440125,-0.108698990535736,0.108107439422607,1.1030945396048415
5.310706390066626,-0.0725877093315125,0.0613473961830139,0.160797869110107,1.1030945396048415
5.311312083585706,-0.0294773577690125,0.0924826500892639,0.304499040985107,1.1030945396048415
5.311917777104785,-0.0127122210502625,-0.0871438147544861,0.0817622245788569,1.1030945396048415
5.312523470623864,-0.20670880308151202,-0.0536135413169861,0.256598650360107,1.1030945396048415
5.313129164142945,-0.0414524554252625,-0.0200832678794861,0.263783708953857,1.1030945396048415
5.313734857662023,0.107038755512238,0.00147190790176392,-0.191270001983643,1.1030945396048415
5.314340551181102,0.0615333844184875,0.00865696649551391,0.0817622245788569,1.1030945396048415
5.314946244700183,0.0591383648872375,-0.0847487952232361,0.110502458953857,1.1030945396048415
5.3155519382192615,-0.00792218198776246,-0.0416384436607361,0.0578120292663569,1.1030945396048415
5.31615763173834,0.07111346254348751,0.00626194696426391,0.218278337860107,1.1030945396048415
5.31676332525742,0.018423032855987502,0.018237044620513898,0.132057634735107,1.1030945396048415
5.3173690187765,-0.125278139019012,-0.0584035803794861,-0.203245099639893,1.1030945396048415
5.3179747122955785,0.0280031109809875,-0.25479518194198597,0.215883318328857,1.1030945396048415
5.318580405814658,0.0806935406684875,0.0278171227455139,0.7882929862976069,1.1030945396048415
5.319186099333737,0.0687184430122375,0.18588841180801402,0.476940447235107,1.1030945396048415
5.319791792852817,0.0447682476997375,-0.0248733069419861,0.383534685516357,1.1030945396048415
5.320397486371896,-0.0198972796440125,0.13080296258926402,0.311684099578857,1.1030945396048415
5.321003179890975,-0.125278139019012,-0.06558863897323611,0.0554170097351069,1.1030945396048415
5.321608873410055,-0.0749827288627625,-0.0560085608482361,0.0051215995788569,1.1030945396048415
5.3222145669291345,0.164519224262238,0.039792220401763896,0.129662615203857,1.1030945396048415
5.322820260448213,0.0926686383247375,-0.151809342098236,0.100922380828857,1.1030945396048415
5.323425953967293,0.15254412660598798,-0.135044205379486,-0.0595439277648931,1.1030945396048415
5.324031647486373,0.12380389223098799,-0.21407984991073598,0.0841572441101069,1.1030945396048415
5.3246373410054515,-0.0606126116752625,-0.0919338538169861,-0.0020634590148931,1.1030945396048415
5.325243034524531,0.0399782086372375,-0.0176882483482361,0.100922380828857,1.1030945396048415
5.32584872804361,0.0040529156684875394,-0.0224782874107361,0.359584490203857,1.1030945396048415
5.32645442156269,-0.0845628069877625,-0.0631936194419861,0.419459978485107,1.1030945396048415
5.327060115081769,0.056743345355987504,-0.012898209285736099,-0.0068534980773931,1.1030945396048415
5.327665808600848,-0.0510325335502625,0.0541623375892639,-0.0331987129211431,1.1030945396048415
5.328271502119927,-0.0701926898002625,0.133197982120514,-0.0595439277648931,1.1030945396048415
5.3288771956390075,-0.034267396831512496,0.00147190790176392,-0.052358869171143095,1.1030945396048415
5.329482889158086,0.111828794574738,0.0661374352455139,0.144032732391357,1.1030945396048415
5.330088582677165,0.00165789613723754,-0.0560085608482361,0.12247755661010701,1.1030945396048415
5.330694276196246,-0.230658998394012,-0.23324000616073598,0.036256853485106905,1.1030945396048415
5.3312999697153245,-0.0510325335502625,0.0230270836830139,-0.0619389472961431,1.1030945396048415
5.331905663234403,0.147754087543488,-0.0248733069419861,-0.0068534980773931,1.1030945396048415
5.332511356753483,0.150149107074738,-0.0152932288169861,-0.155344709014893,1.1030945396048415
5.333117050272563,0.0687184430122375,-0.0679836585044861,0.115292498016357,1.1030945396048415
5.3337227437916415,0.0423732281684875,0.0685324547767639,0.177563005828857,1.1030945396048415
5.334328437310721,-0.0869578265190125,0.00865696649551391,0.124872576141357,1.1030945396048415
5.3349341308298,-0.0414524554252625,-0.142229263973236,0.230253435516357,1.1030945396048415
5.33553982434888,0.26990008363723805,0.0972726891517639,0.112897478485107,1.1030945396048415
5.336145517867959,0.147754087543488,-0.06558863897323611,0.158402849578857,1.1030945396048415
5.336751211387038,0.0591383648872375,-0.000923111629486085,0.105712419891357,1.1030945396048415
5.337356904906119,0.221999693012238,0.12361790399551399,-0.0403837715148931,1.1030945396048415
5.3379625984251975,-0.242634096050262,-0.151809342098236,-0.179294904327393,1.1030945396048415
5.338568291944276,-0.0630076312065125,0.00147190790176392,-0.0739140449523931,1.1473635281274797
5.339173985463356,0.121408872699738,0.248158919620514,0.124872576141357,1.1473635281274797
5.339779678982436,-0.015107240581512499,-0.156599381160736,0.0482319511413569,1.1473635281274797
5.3403853725015145,0.12380389223098799,-0.0631936194419861,-0.0236186347961431,1.1473635281274797
5.340991066020594,0.018423032855987502,-0.170969498348236,0.0697871269226069,1.1473635281274797
5.341596759539673,0.147754087543488,-0.0847487952232361,-0.0954692207336431,1.1473635281274797
5.342202453058753,0.0830885601997375,0.104457747745514,-0.0739140449523931,1.1473635281274797
5.342808146577832,-0.194733705425262,0.00865696649551391,0.115292498016357,1.1473635281274797
5.343413840096911,-0.0534275530815125,0.0852975914955139,-0.0451738105773931,1.1473635281274797
5.34401953361599,0.171704282855988,-0.161389420223236,0.21109327926635701,1.1473635281274797
5.3446252271350705,-0.0582175921440125,0.0637424157142639,0.249413591766357,1.1473635281274797
5.345230920654149,0.0519533062934875,-0.0440334631919861,0.201513201141357,1.1473635281274797
5.345836614173228,-0.218683900737762,-0.00571315069198609,0.12008253707885701,1.1473635281274797
5.346442307692309,-0.194733705425262,0.037397200870513896,0.208698259735107,1.1473635281274797
5.3470480012113875,0.245949888324738,0.0326071618080139,0.7475776542663569,1.1473635281274797
5.347653694730466,-0.0198972796440125,-0.0895388342857361,0.156007830047607,1.1473635281274797
5.348259388249546,0.159729185199738,0.0158420250892639,-0.140974591827393,1.1473635281274797
5.348865081768626,0.107038755512238,0.137988021183014,0.038651873016356905,1.1473635281274797
5.349470775287704,-0.0749827288627625,0.14517307977676402,-0.107444318389893,1.1473635281274797
5.350076468806784,0.174099302387238,-0.144624283504486,0.0913423027038569,1.1473635281274797
5.350682162325863,-0.132463197612762,-0.127859146785736,-0.109839337921143,1.1473635281274797
5.351287855844943,0.00644793519973754,0.0876926110267639,0.026676775360106902,1.1473635281274797
5.351893549364022,-0.0534275530815125,0.121222884464264,0.258993669891357,1.1473635281274797
5.352499242883101,-0.0893528460502625,0.142778060245514,0.158402849578857,1.1473635281274797
5.35310493640218,0.130988950824738,-0.0416384436607361,0.136847673797607,1.1473635281274797
5.3537106299212605,0.013632993793487501,0.0852975914955139,0.220673357391357,1.1473635281274797
5.354316323440339,0.102248716449738,0.0110519860267639,0.0626020683288569,1.1473635281274797
5.354922016959419,-0.0701926898002625,-0.051218521785736104,0.000331560516356899,1.1473635281274797
5.355527710478499,0.013632993793487501,0.0254221032142639,0.0769721855163569,1.1473635281274797
5.356133403997577,0.114223814105988,-0.0847487952232361,0.158402849578857,1.1473635281274797
5.356739097516657,-0.170783510112762,0.0805075524330139,0.103317400360107,1.1473635281274797
5.357344791035736,0.0471632672309875,-0.06558863897323611,0.0626020683288569,1.1473635281274797
5.357950484554816,0.07111346254348751,0.0781125329017639,0.225463396453857,1.1473635281274797
5.358556178073895,-0.00313214292526246,0.0493722985267639,0.127267595672607,1.1473635281274797
5.359161871592974,0.056743345355987504,-0.259585221004486,0.0458369316101069,1.1473635281274797
5.359767565112053,-0.189943666362762,0.14038304071426402,-0.227195294952393,1.1473635281274797
5.3603732586311335,-0.0893528460502625,0.118827864933014,-0.0858891426086431,1.1473635281274797
5.360978952150212,0.107038755512238,-0.0344533850669861,0.326054216766357,1.1473635281274797
5.361584645669291,0.018423032855987502,0.0565573571205139,-0.112234357452393,1.1473635281274797
5.362190339188372,-0.127673158550262,-0.221264908504486,-0.0068534980773931,1.1473635281274797
5.36279603270745,0.0399782086372375,-0.199709732723236,-0.06672898635864309,1.1473635281274797
5.363401726226529,0.0735084820747375,-0.123069107723236,-0.0475688301086431,1.1473635281274797
5.364007419745609,-0.0989329241752625,-0.00810817022323609,0.199118181610107,1.1473635281274797
5.364613113264689,-0.185153627300262,0.14996311883926403,0.144032732391357,1.1473635281274797
5.365218806783767,-0.125278139019012,-0.216474869441986,0.282943865203857,1.1473635281274797
5.365824500302847,-0.0414524554252625,-0.101513931941986,0.153612810516357,1.1473635281274797
5.366430193821926,0.119013853168488,0.0230270836830139,0.15121779098510701,1.1473635281274797
5.367035887341006,-0.0127122210502625,-0.108698990535736,0.199118181610107,1.1473635281274797
5.367641580860085,-0.0725877093315125,-0.166179459285736,0.177563005828857,1.1473635281274797
5.368247274379164,0.00165789613723754,0.0781125329017639,0.124872576141357,1.1473635281274797
5.368852967898245,0.145359068012238,0.14996311883926403,0.0841572441101069,1.1473635281274797
5.369458661417323,-0.0773777483940125,-0.0799587561607361,-0.0236186347961431,1.1473635281274797
5.370064354936402,-0.0869578265190125,-0.0584035803794861,0.148822771453857,1.1473635281274797
5.370670048455482,0.171704282855988,0.0972726891517639,0.0889472831726069,1.1473635281274797
5.371275741974562,-0.139648256206512,0.0469772789955139,0.129662615203857,1.1473635281274797
5.37188143549364,-0.122883119487762,0.0589523766517639,0.158402849578857,1.1473635281274797
5.37248712901272,-0.0198972796440125,-0.051218521785736104,-0.018828595733643098,1.1473635281274797
5.373092822531799,-0.0318723773002625,0.0685324547767639,0.235043474578857,1.1473635281274797
5.373698516050879,0.135778989887238,-0.204499771785736,0.0626020683288569,1.1473635281274797
5.374304209569958,0.056743345355987504,-0.235635025691986,0.0673921073913569,1.1473635281274797
5.374909903089037,-0.00313214292526246,0.00147190790176392,0.0530219902038569,1.1473635281274797
5.375515596608116,-0.0438474749565125,-0.180549576473236,-0.07151902542114309,1.1473635281274797
5.376121290127196,-0.00552716245651246,-0.125464127254486,0.036256853485106905,1.1473635281274797
5.376726983646275,0.126198911762238,-0.142229263973236,-0.126604474639893,1.1473635281274797
5.377332677165354,-0.144438295269012,-0.211684830379486,-0.277490705108643,1.1473635281274797
5.377938370684435,-0.0725877093315125,-0.0727736975669861,-0.11941941604614299,1.1473635281274797
5.378544064203513,0.186074400043488,0.00386692743301392,-0.0236186347961431,1.1473635281274797
5.379149757722592,0.375280943012238,-0.0703786780357361,0.6326167167663569,1.1473635281274797
5.379755451241672,-0.0510325335502625,0.0254221032142639,0.21109327926635701,1.1473635281274797
5.380361144760752,-0.0582175921440125,-0.051218521785736104,-0.224800275421143,1.1473635281274797
5.38096683827983,0.0830885601997375,-0.11109401006698601,0.330844255828857,1.1473635281274797
5.38157253179891,-0.0462424944877625,0.018237044620513898,0.0458369316101069,1.1473635281274797
5.38217822531799,-0.103722963237762,-0.0368484045982361,0.0937373222351069,1.1473635281274797
5.3827839188370685,-0.20191876401901201,-0.144624283504486,0.194328142547607,1.1473635281274797
5.383389612356148,-0.0917478655815125,-0.0584035803794861,0.100922380828857,1.1473635281274797
5.383995305875227,-0.0414524554252625,0.118827864933014,0.0865522636413569,1.1473635281274797
5.384600999394307,-0.223473939800262,0.0421872399330139,0.0194917167663569,1.1473635281274797
5.385206692913386,-0.0438474749565125,0.0852975914955139,0.220673357391357,1.1473635281274797
5.385812386432465,0.0615333844184875,0.0685324547767639,0.309289080047607,1.1473635281274797
5.386418079951545,-0.14683331480026202,0.102062728214264,0.0123066581726069,1.1473635281274797
5.3870237734706246,-0.118093080425262,-0.0799587561607361,0.407484880828857,1.1473635281274797
5.387629466989703,0.0926686383247375,-0.103908951473236,0.443410173797607,1.1473635281274797
5.388235160508783,-0.027082338237762498,0.0158420250892639,0.203908220672607,1.1473635281274797
5.388840854027862,-0.0390574358940125,-0.0440334631919861,0.175167986297607,1.1473635281274797
5.3894465475469415,0.150149107074738,-0.106303971004486,0.148822771453857,1.1473635281274797
5.390052241066021,-0.0821677874565125,-0.0991189124107361,0.144032732391357,1.1473635281274797
5.3906579345851,-0.106117982769012,-0.103908951473236,-0.0212236152648931,1.1473635281274797
5.39126362810418,0.107038755512238,-0.269165299129486,0.249413591766357,1.1473635281274797
5.391869321623259,0.0303981305122375,-0.0440334631919861,0.156007830047607,1.1473635281274797
5.392475015142338,-0.237844056987762,0.142778060245514,0.0721821464538569,1.1473635281274797
5.393080708661417,0.0687184430122375,-0.0751687170982361,0.15121779098510701,1.1473635281274797
5.3936864021804976,0.0998536969184875,0.0493722985267639,0.189538103485107,1.1473635281274797
5.394292095699576,-0.261794252300262,0.0110519860267639,0.117687517547607,1.1473635281274797
5.394897789218655,-0.221078920269012,-0.0176882483482361,0.144032732391357,1.1473635281274797
5.395503482737736,-0.0893528460502625,0.0924826500892639,0.318869158172607,1.1473635281274797
5.3961091762568145,-0.00792218198776246,-0.0392434241294861,0.153612810516357,1.1473635281274797
5.396714869775893,-0.0989329241752625,0.197863509464264,0.15121779098510701,1.1473635281274797
5.397320563294973,-0.0366624163627625,0.0589523766517639,0.0745771659851069,1.1473635281274797
5.397926256814053,0.0232130719184875,0.0972726891517639,0.263783708953857,1.1473635281274797
5.3985319503331315,-0.175573549175262,0.0709274743080139,0.0578120292663569,1.1473635281274797
5.399137643852211,-0.015107240581512499,-0.139834244441986,0.242228533172607,1.1473635281274797
5.39974333737129,-0.0127122210502625,0.0829025719642639,0.0913423027038569,1.1473635281274797
5.40034903089037,0.130988950824738,-0.0224782874107361,-0.0092485176086431,1.1473635281274797
5.400954724409449,0.0327931500434875,0.0158420250892639,0.273363787078857,1.1473635281274797
5.401560417928528,0.0663234234809875,0.0134470055580139,-0.109839337921143,1.1473635281274797
5.402166111447607,-0.0246873187065125,-0.166179459285736,0.105712419891357,1.1473635281274797
5.4027718049666875,-0.280954408550262,-0.0560085608482361,-0.052358869171143095,1.1473635281274797
5.403377498485766,-0.0486375140190125,0.0733224938392639,0.0434419120788569,1.1473635281274797
5.403983192004846,-0.000737123394012459,0.030212142276763897,0.182353044891357,1.1473635281274797
5.404588885523926,0.0112379742622375,0.217023665714264,0.165587908172607,1.1473635281274797
5.4051945790430045,-0.0103172015190125,-0.11348902959823601,0.244623552703857,1.1473635281274797
5.405800272562084,0.0160280133247375,-0.147019303035736,0.261388689422607,1.1473635281274797
5.406405966081163,0.0806935406684875,-0.0919338538169861,0.32844923629760703,1.1473635281274797
5.407011659600243,0.195654478168488,-0.16378443975448598,0.472150408172607,1.1473635281274797
5.407617353119322,0.229184751605988,0.0565573571205139,-0.131394513702393,1.1473635281274797
5.408223046638401,0.0351881695747375,-0.0703786780357361,0.153612810516357,1.1473635281274797
5.40882874015748,-0.0725877093315125,0.0948776696205139,0.0602070487976069,1.1473635281274797
5.4094344336765605,0.128593931293488,-0.0320583655357361,-0.112234357452393,1.1473635281274797
5.410040127195639,0.107038755512238,-0.185339615535736,0.467360369110107,1.1473635281274797
5.410645820714718,-0.0390574358940125,0.102062728214264,0.0841572441101069,1.1473635281274797
5.411251514233799,0.140569028949738,0.102062728214264,0.141637712860107,1.1473635281274797
5.4118572077528775,0.121408872699738,-0.0895388342857361,0.0602070487976069,1.1473635281274797
5.412462901271956,0.0423732281684875,-0.0152932288169861,0.522445818328857,1.1473635281274797
5.413068594791036,-0.0294773577690125,0.0110519860267639,0.263783708953857,1.1473635281274797
5.413674288310116,-0.0941428851127625,0.128407943058014,0.0099116386413569,1.1473635281274797
5.4142799818291945,-0.027082338237762498,-0.0991189124107361,0.170377947235107,1.1473635281274797
5.414885675348274,-0.0630076312065125,-0.0464284827232361,0.230253435516357,1.1473635281274797
5.415491368867353,-0.0965379046440125,0.0206320641517639,0.302104021453857,1.1473635281274797
5.416097062386433,0.0639284039497375,-0.103908951473236,0.187143083953857,1.1473635281274797
5.416702755905512,-0.0103172015190125,0.308034407901764,0.232648455047607,1.1473635281274797
5.417308449424591,-0.130068178081512,-0.00571315069198609,0.0769721855163569,1.1473635281274797
5.417914142943672,0.0878785992622375,-0.120674088191986,0.036256853485106905,1.1473635281274797
5.4185198364627505,0.190864439105988,-0.0991189124107361,0.165587908172607,1.1473635281274797
5.419125529981829,-0.0725877093315125,-0.22844996709823598,-0.0595439277648931,1.1473635281274797
5.419731223500909,0.0256080914497375,-0.106303971004486,-0.054753888702393096,1.1473635281274797
5.420336917019989,0.119013853168488,-0.0871438147544861,0.371559587860107,1.1473635281274797
5.4209426105390675,0.0663234234809875,-0.00810817022323609,0.297313982391357,1.1473635281274797
5.421548304058147,0.15733416566848799,0.0733224938392639,0.177563005828857,1.1473635281274797
5.422153997577226,-0.0175022601127625,-0.175759537410736,0.383534685516357,1.1473635281274797
5.422759691096306,-0.0582175921440125,0.0278171227455139,0.0530219902038569,1.1473635281274797
5.423365384615385,-0.0654026507377625,0.037397200870513896,0.141637712860107,1.1473635281274797
5.423971078134464,-0.0366624163627625,-0.00331813116073608,0.194328142547607,1.1473635281274797
5.424576771653543,0.07111346254348751,0.20504856805801402,0.148822771453857,1.1473635281274797
5.4251824651726235,0.0902736187934875,-0.26437526006698603,0.235043474578857,1.1473635281274797
5.425788158691702,-0.175573549175262,0.13559300165176402,-0.016433576202393097,1.1473635281274797
5.426393852210781,0.128593931293488,0.111642806339264,0.0554170097351069,1.1473635281274797
5.426999545729862,0.162124204730988,-0.21407984991073598,0.299709001922607,1.1473635281274797
5.4276052392489404,-0.223473939800262,-0.048823502254486104,0.199118181610107,1.1473635281274797
5.428210932768019,-0.189943666362762,0.0445822594642639,-0.0020634590148931,1.1473635281274797
5.428816626287099,-0.20191876401901201,0.00386692743301392,0.100922380828857,1.1473635281274797
5.429422319806179,-0.158808412456512,-0.151809342098236,0.108107439422607,1.1473635281274797
5.430028013325257,-0.0390574358940125,-0.0464284827232361,-0.0882841621398931,1.1473635281274797
5.430633706844337,-0.0989329241752625,0.0757175133705139,-0.06672898635864309,1.1473635281274797
5.431239400363416,0.0208180523872375,0.0852975914955139,0.0218867362976069,1.1473635281274797
5.431845093882496,0.00884295473098754,-0.125464127254486,-0.0499638496398931,1.1473635281274797
5.432450787401575,-0.290534486675262,-0.0823537756919861,0.26857374801635703,1.1473635281274797
5.433056480920654,-0.0534275530815125,-0.123069107723236,0.199118181610107,1.1473635281274797
5.433662174439733,0.0926686383247375,-0.142229263973236,0.0649970878601069,1.1473635281274797
5.4342678679588134,0.0950636578559875,-0.0727736975669861,-0.0020634590148931,1.1473635281274797
5.434873561477892,0.0471632672309875,0.0733224938392639,0.146427751922607,1.1473635281274797
5.435479254996972,-0.137253236675262,-0.17336451787948598,0.179958025360107,1.1473635281274797
5.436084948516052,-0.0677976702690125,-0.16378443975448598,-0.06912400588989309,1.1473635281274797
5.43669064203513,-0.0797727679252625,-0.0464284827232361,0.158402849578857,1.1473635281274797
5.43729633555421,0.0519533062934875,-0.18294459600448598,-0.030803693389893097,1.1473635281274797
5.437902029073289,0.00884295473098754,0.0685324547767639,-0.0260136543273931,1.1473635281274797
5.438507722592369,-0.0989329241752625,-0.101513931941986,0.558371111297607,0.5566521468868729
5.439113416111448,0.111828794574738,0.0254221032142639,0.5320258964538569,0.5566521468868729
5.439719109630527,-0.0534275530815125,0.0637424157142639,0.187143083953857,0.5566521468868729
5.440324803149606,-0.180363588237762,-0.245215103816986,0.0841572441101069,0.5566521468868729
5.4409304966686864,0.0423732281684875,-0.125464127254486,0.0985273612976069,0.5566521468868729
5.441536190187765,0.186074400043488,0.0757175133705139,0.0769721855163569,0.5566521468868729
5.442141883706844,0.0208180523872375,-0.0967238928794861,0.033861833953856904,0.5566521468868729
5.442747577225925,-0.264189271831512,0.12361790399551399,0.0410468925476069,0.5566521468868729
5.443353270745003,-0.0701926898002625,0.00865696649551391,-0.0068534980773931,0.5566521468868729
5.443958964264082,0.0591383648872375,-0.20928981084823597,0.115292498016357,0.5566521468868729
5.444564657783162,0.0950636578559875,-0.0727736975669861,0.031466814422606904,0.5566521468868729
5.445170351302242,0.116618833637238,-0.0847487952232361,0.100922380828857,0.5566521468868729
5.44577604482132,-0.0462424944877625,-0.0320583655357361,-0.0475688301086431,0.5566521468868729
5.4463817383404,-0.00313214292526246,-0.0344533850669861,0.0889472831726069,0.5566521468868729
5.44698743185948,0.0591383648872375,-0.0560085608482361,0.302104021453857,0.5566521468868729
5.4475931253785586,0.0040529156684875394,-0.0751687170982361,0.0745771659851069,0.5566521468868729
5.448198818897638,-0.0510325335502625,-0.00571315069198609,0.136847673797607,0.5566521468868729
5.448804512416717,0.0112379742622375,-0.0200832678794861,0.263783708953857,0.5566521468868729
5.449410205935797,-0.120488099956512,-0.0536135413169861,0.314079119110107,0.5566521468868729
5.450015899454876,-0.0558225726127625,-0.0176882483482361,0.0769721855163569,0.5566521468868729
5.450621592973955,-0.0893528460502625,-0.180549576473236,0.237438494110107,0.5566521468868729
5.451227286493035,-0.134858217144012,-0.13743922491073599,0.038651873016356905,0.5566521468868729
5.451832980012115,-0.034267396831512496,-0.0176882483482361,0.196723162078857,0.5566521468868729
5.452438673531193,-0.000737123394012459,-0.16857447881698598,0.496100603485107,0.5566521468868729
5.453044367050273,0.114223814105988,0.0924826500892639,0.361979509735107,0.5566521468868729
5.453650060569352,-0.11090802183151201,0.0278171227455139,0.203908220672607,0.5566521468868729
5.4542557540884316,-0.0390574358940125,-0.190129654598236,0.275758806610107,0.5566521468868729
5.454861447607511,0.116618833637238,0.0158420250892639,0.203908220672607,0.5566521468868729
5.45546714112659,0.0327931500434875,-0.0200832678794861,0.038651873016356905,0.5566521468868729
5.456072834645669,-0.11330304136276201,-0.0631936194419861,0.433830095672607,0.5566521468868729
5.456678528164749,0.0447682476997375,-0.0584035803794861,0.12008253707885701,0.5566521468868729
5.457284221683828,0.116618833637238,0.0278171227455139,0.12008253707885701,0.5566521468868729
5.457889915202907,-0.0127122210502625,-0.0751687170982361,0.175167986297607,0.5566521468868729
5.458495608721988,0.018423032855987502,0.030212142276763897,-0.0906791816711431,0.5566521468868729
5.459101302241066,0.145359068012238,0.16193821649551401,0.182353044891357,0.5566521468868729
5.459706995760145,-0.0558225726127625,0.104457747745514,0.100922380828857,0.5566521468868729
5.460312689279226,-0.101327943706512,-0.0368484045982361,0.167982927703857,0.5566521468868729
5.4609183827983045,0.102248716449738,-0.108698990535736,0.326054216766357,0.5566521468868729
5.461524076317383,-0.0486375140190125,-0.139834244441986,0.0482319511413569,0.5566521468868729
5.462129769836463,-0.29771954526901195,-0.15420436162948598,-0.193665021514893,0.5566521468868729
5.462735463355543,-0.0486375140190125,-0.0536135413169861,0.0051215995788569,0.5566521468868729
5.4633411568746215,-0.0127122210502625,0.0493722985267639,0.163192888641357,0.5566521468868729
5.463946850393701,-0.0486375140190125,-0.101513931941986,0.134452654266357,0.5566521468868729
5.46455254391278,0.0543483258247375,-0.135044205379486,0.220673357391357,0.5566521468868729
5.46515823743186,0.018423032855987502,-0.16857447881698598,0.0961323417663569,0.5566521468868729
5.465763930950939,0.0878785992622375,-0.11109401006698601,0.0123066581726069,0.5566521468868729
5.466369624470018,-0.00313214292526246,-0.0248733069419861,0.225463396453857,0.5566521468868729
5.466975317989098,0.128593931293488,-0.130254166316986,0.656566912078857,0.5566521468868729
5.4675810115081775,0.0735084820747375,0.0206320641517639,0.0123066581726069,0.5566521468868729
5.468186705027256,0.0974586773872375,-0.048823502254486104,-0.14815965042114299,0.5566521468868729
5.468792398546336,-0.149228334331512,0.0326071618080139,0.302104021453857,0.5566521468868729
5.469398092065415,-0.118093080425262,0.0230270836830139,0.108107439422607,0.5566521468868729
5.4700037855844945,-0.127673158550262,0.0852975914955139,0.218278337860107,0.5566521468868729
5.470609479103574,-0.0510325335502625,0.0326071618080139,0.0649970878601069,0.5566521468868729
5.471215172622653,0.0112379742622375,-0.144624283504486,0.0793672050476069,0.5566521468868729
5.471820866141733,0.0160280133247375,-0.0464284827232361,0.136847673797607,0.5566521468868729
5.472426559660812,0.0351881695747375,0.0541623375892639,0.12008253707885701,0.5566521468868729
5.473032253179891,-0.0127122210502625,-0.0823537756919861,0.254203630828857,0.5566521468868729
5.47363794669897,-0.0701926898002625,0.0445822594642639,0.0841572441101069,0.5566521468868729
5.4742436402180505,-0.0654026507377625,0.116432845401764,0.12247755661010701,0.5566521468868729
5.474849333737129,0.135778989887238,0.193073470401764,0.208698259735107,0.5566521468868729
5.475455027256208,-0.125278139019012,0.0948776696205139,0.306894060516357,0.5566521468868729
5.476060720775289,-0.14204327573776201,-0.06558863897323611,0.0147016777038569,0.5566521468868729
5.4766664142943675,0.0615333844184875,-0.125464127254486,0.0554170097351069,0.5566521468868729
5.477272107813446,0.0375831891059875,-0.15420436162948598,0.309289080047607,0.5566521468868729
5.477877801332526,0.0759035016059875,-0.135044205379486,0.000331560516356899,0.5566521468868729
5.478483494851606,0.0160280133247375,-0.0560085608482361,0.132057634735107,0.5566521468868729
5.4790891883706845,-0.125278139019012,0.0278171227455139,0.156007830047607,0.5566521468868729
5.479694881889764,-0.247424135112762,0.14038304071426402,0.184748064422607,0.5566521468868729
5.480300575408843,-0.0845628069877625,-0.0176882483482361,0.165587908172607,0.5566521468868729
5.480906268927923,-0.0917478655815125,-0.13743922491073599,0.450595232391357,0.5566521468868729
5.481511962447002,-0.0965379046440125,0.193073470401764,-0.0044584785461431,0.5566521468868729
5.482117655966081,0.111828794574738,-0.0320583655357361,-0.203245099639893,0.5566521468868729
5.48272334948516,-0.0989329241752625,0.0996677086830139,0.134452654266357,0.5566521468868729
5.4833290430042405,-0.149228334331512,0.126012923526764,0.0865522636413569,0.5566521468868729
5.483934736523319,0.0327931500434875,0.0517673180580139,0.187143083953857,0.5566521468868729
5.484540430042399,0.0112379742622375,0.224208724308014,0.163192888641357,0.5566521468868729
5.485146123561479,0.0256080914497375,0.197863509464264,0.146427751922607,0.5566521468868729
5.4857518170805575,0.116618833637238,0.17151829462051402,0.0793672050476069,0.5566521468868729
5.486357510599637,0.0208180523872375,-0.0823537756919861,0.213488298797607,0.5566521468868729
5.486963204118716,-0.00313214292526246,-0.147019303035736,-0.0020634590148931,0.5566521468868729
5.487568897637796,0.0040529156684875394,0.0206320641517639,0.031466814422606904,0.5566521468868729
5.488174591156875,0.0878785992622375,-0.11588404912948601,0.335634294891357,0.5566521468868729
5.488780284675954,0.0639284039497375,-0.0560085608482361,0.0961323417663569,0.5566521468868729
5.489385978195033,-0.00792218198776246,-0.0727736975669861,0.112897478485107,0.5566521468868729
5.4899916717141135,-0.0606126116752625,0.0733224938392639,0.225463396453857,0.5566521468868729
5.490597365233192,-0.242634096050262,0.22181370477676401,0.148822771453857,0.5566521468868729
5.491203058752271,0.0519533062934875,-0.0248733069419861,0.031466814422606904,0.5566521468868729
5.491808752271352,0.12380389223098799,-0.0631936194419861,0.179958025360107,0.5566521468868729
5.4924144457904305,-0.0749827288627625,-0.00331813116073608,0.191933123016357,0.5566521468868729
5.493020139309509,-0.0294773577690125,-0.0320583655357361,0.0027265800476069,0.5566521468868729
5.493625832828589,0.226789732074738,-0.0584035803794861,-0.150554669952393,0.5566521468868729
5.494231526347669,0.188469419574738,-0.166179459285736,0.0434419120788569,0.5566521468868729
5.4948372198667474,-0.015107240581512499,-0.204499771785736,-0.0427787910461431,0.5566521468868729
5.495442913385827,0.0543483258247375,-0.0991189124107361,-0.220010236358643,0.5566521468868729
5.496048606904906,-0.0486375140190125,0.0326071618080139,0.103317400360107,0.5566521468868729
5.496654300423986,-0.218683900737762,-0.101513931941986,0.0841572441101069,0.5566521468868729
5.497259993943065,0.0687184430122375,-0.16857447881698598,0.412274919891357,0.5566521468868729
5.497865687462144,0.0447682476997375,-0.0440334631919861,0.8122431816101069,0.5566521468868729
5.498471380981225,-0.20191876401901201,0.0972726891517639,0.778712908172607,0.5566521468868729
5.4990770745003035,0.114223814105988,-0.135044205379486,0.7667378105163569,0.5566521468868729
5.499682768019382,0.174099302387238,-0.0560085608482361,0.108107439422607,0.5566521468868729
5.500288461538462,0.0759035016059875,0.152358138370514,-0.030803693389893097,0.5566521468868729
5.500894155057542,0.0830885601997375,-0.103908951473236,0.153612810516357,0.5566521468868729
5.50149984857662,0.0112379742622375,0.0134470055580139,0.029071794891356903,0.5566521468868729
5.5021055420957,-0.0294773577690125,0.0924826500892639,0.0673921073913569,0.5566521468868729
5.502711235614779,-0.0366624163627625,0.00386692743301392,-0.016433576202393097,0.5566521468868729
5.503316929133859,-0.14683331480026202,-0.0703786780357361,0.244623552703857,0.5566521468868729
5.503922622652938,-0.015107240581512499,-0.144624283504486,0.201513201141357,0.5566521468868729
5.504528316172017,-0.0366624163627625,-0.0847487952232361,0.165587908172607,0.5566521468868729
5.505134009691096,-0.0103172015190125,-0.000923111629486085,0.100922380828857,0.5566521468868729
5.5057397032101765,0.21241961488723798,-0.0679836585044861,0.223068376922607,0.5566521468868729
5.506345396729255,0.0735084820747375,-0.11348902959823601,0.254203630828857,0.5566521468868729
5.506951090248334,-0.015107240581512499,-0.0464284827232361,0.175167986297607,0.5566521468868729
5.507556783767415,-0.0246873187065125,-0.11348902959823601,0.306894060516357,0.5566521468868729
5.508162477286493,0.140569028949738,0.0781125329017639,-0.0763090644836431,0.5566521468868729
5.508768170805572,0.119013853168488,0.0829025719642639,-0.109839337921143,0.5566521468868729
5.509373864324652,0.0998536969184875,-0.147019303035736,0.184748064422607,0.5566521468868729
5.509979557843732,0.0782985211372375,-0.0823537756919861,0.0410468925476069,0.5566521468868729
5.51058525136281,0.0256080914497375,0.111642806339264,0.0937373222351069,0.5566521468868729
5.51119094488189,-0.0869578265190125,0.0613473961830139,0.203908220672607,0.5566521468868729
5.511796638400969,0.0926686383247375,-0.142229263973236,0.029071794891356903,0.5566521468868729
5.512402331920049,-0.14204327573776201,0.018237044620513898,0.160797869110107,0.5566521468868729
5.513008025439128,-0.0845628069877625,0.0326071618080139,0.0913423027038569,0.5566521468868729
5.513613718958207,0.138174009418488,-0.15899440069198598,-0.0643339668273931,0.5566521468868729
5.514219412477287,-0.173178529644012,-0.118279068660736,0.156007830047607,0.5566521468868729
5.514825105996366,-0.213893861675262,0.0709274743080139,0.163192888641357,0.5566521468868729
5.515430799515445,-0.015107240581512499,-0.14941432256698597,-0.0236186347961431,0.5566521468868729
5.516036493034525,0.226789732074738,-0.13743922491073599,-0.155344709014893,0.5566521468868729
5.516642186553605,-0.0534275530815125,0.0589523766517639,-0.212825177764893,0.5566521468868729
5.517247880072683,-0.0558225726127625,-0.175759537410736,-0.0068534980773931,0.5566521468868729
5.517853573591763,0.00165789613723754,-0.0823537756919861,0.0817622245788569,0.5566521468868729
5.518459267110842,-0.0582175921440125,0.0134470055580139,0.203908220672607,0.5566521468868729
5.519064960629922,0.00644793519973754,-0.17815455694198598,0.254203630828857,0.5566521468868729
5.519670654149001,-0.175573549175262,0.030212142276763897,-0.018828595733643098,0.5566521468868729
5.52027634766808,-0.132463197612762,0.0254221032142639,0.280548845672607,0.5566521468868729
5.520882041187159,0.0208180523872375,-0.0967238928794861,0.112897478485107,0.5566521468868729
5.521487734706239,-0.0366624163627625,-0.0919338538169861,0.112897478485107,0.5566521468868729
5.522093428225318,0.0591383648872375,-0.0727736975669861,0.270968767547607,0.5566521468868729
5.522699121744397,0.0280031109809875,-0.051218521785736104,0.0506269706726069,0.5566521468868729
5.523304815263478,0.0256080914497375,-0.123069107723236,0.132057634735107,0.5566521468868729
5.523910508782556,-0.0414524554252625,-0.0991189124107361,0.402694841766357,0.5566521468868729
5.524516202301635,0.0375831891059875,-0.00331813116073608,0.309289080047607,0.5566521468868729
5.525121895820715,0.109433775043488,-0.101513931941986,0.0123066581726069,0.5566521468868729
5.525727589339795,0.0519533062934875,0.0805075524330139,0.158402849578857,0.5566521468868729
5.526333282858873,0.0687184430122375,0.0493722985267639,0.0937373222351069,0.5566521468868729
5.526938976377953,0.0782985211372375,-0.0440334631919861,-0.145764630889893,0.5566521468868729
5.527544669897033,-0.0654026507377625,0.17630833368301402,-0.152949689483643,0.5566521468868729
5.5281503634161115,0.135778989887238,-0.00571315069198609,0.0554170097351069,0.5566521468868729
5.528756056935191,-0.0246873187065125,-0.0847487952232361,0.127267595672607,0.5566521468868729
5.52936175045427,0.0950636578559875,0.00147190790176392,0.203908220672607,0.5566521468868729
5.52996744397335,-0.00792218198776246,0.0110519860267639,0.108107439422607,0.5566521468868729
5.530573137492429,-0.10851300230026201,0.0158420250892639,0.0482319511413569,0.5566521468868729
5.531178831011508,0.0854835797309875,-0.101513931941986,0.201513201141357,0.5566521468868729
5.531784524530587,-0.161203431987762,0.0469772789955139,0.153612810516357,0.5566521468868729
5.532390218049668,-0.0630076312065125,0.0589523766517639,0.117687517547607,0.5566521468868729
5.532995911568746,-0.0725877093315125,-0.0871438147544861,0.12008253707885701,0.5566521468868729
5.533601605087826,0.116618833637238,-0.190129654598236,0.026676775360106902,0.5566521468868729
5.534207298606905,0.0471632672309875,-0.0727736975669861,0.0673921073913569,0.5566521468868729
5.5348129921259845,-0.213893861675262,0.20983860712051403,0.256598650360107,0.5566521468868729
5.535418685645064,-0.118093080425262,-0.120674088191986,0.0841572441101069,0.5566521468868729
5.536024379164143,-0.0462424944877625,0.0350021813392639,0.235043474578857,0.5566521468868729
5.536630072683222,0.018423032855987502,0.102062728214264,0.311684099578857,0.5566521468868729
5.537235766202302,0.145359068012238,-0.0560085608482361,0.100922380828857,0.5566521468868729
5.537841459721381,0.0256080914497375,0.0158420250892639,0.278153826141357,0.5566521468868729
5.53844715324046,0.0950636578559875,0.0445822594642639,0.100922380828857,0.9533507529563406
5.539052846759541,0.116618833637238,-0.00810817022323609,0.0865522636413569,0.9533507529563406
5.539658540278619,-0.103722963237762,0.0421872399330139,0.0626020683288569,0.9533507529563406
5.540264233797698,0.0687184430122375,-0.206894791316986,0.191933123016357,0.9533507529563406
5.540869927316779,-0.0701926898002625,-0.0631936194419861,0.024281755828856902,0.9533507529563406
5.5414756208358575,-0.11330304136276201,-0.0368484045982361,0.172772966766357,0.9533507529563406
5.542081314354936,0.176494321918488,-0.120674088191986,0.0170966972351069,0.9533507529563406
5.542687007874016,0.0280031109809875,-0.0200832678794861,-0.126604474639893,0.9533507529563406
5.543292701393096,0.0950636578559875,-0.123069107723236,0.218278337860107,0.9533507529563406
5.5438983949121745,-0.0438474749565125,-0.130254166316986,-0.0260136543273931,0.9533507529563406
5.544504088431254,-0.25700421323776196,-0.13743922491073599,0.026676775360106902,0.9533507529563406
5.545109781950333,0.0926686383247375,-0.00810817022323609,-0.133789533233643,0.9533507529563406
5.545715475469414,-0.0534275530815125,-0.139834244441986,0.146427751922607,0.9533507529563406
5.546321168988492,-0.261794252300262,-0.0631936194419861,0.124872576141357,0.9533507529563406
5.546926862507571,0.0854835797309875,0.030212142276763897,-0.0763090644836431,0.9533507529563406
5.54753255602665,0.147754087543488,-0.13264918584823598,0.026676775360106902,0.9533507529563406
5.5481382495457305,0.0256080914497375,-0.15899440069198598,0.237438494110107,0.9533507529563406
5.548743943064809,-0.0749827288627625,-0.300300553035736,-0.0068534980773931,0.9533507529563406
5.549349636583889,-0.0198972796440125,-0.21407984991073598,0.0458369316101069,0.9533507529563406
5.549955330102968,-0.0222922991752625,0.159543196964264,0.146427751922607,0.9533507529563406
5.5505610236220475,-0.189943666362762,0.0757175133705139,0.0554170097351069,0.9533507529563406
5.551166717141127,-0.156413392925262,0.0637424157142639,0.0506269706726069,0.9533507529563406
5.551772410660206,0.0591383648872375,-0.0200832678794861,0.0554170097351069,0.9533507529563406
5.552378104179285,-0.0198972796440125,0.114037825870514,0.026676775360106902,0.9533507529563406
5.552983797698365,0.0351881695747375,-0.101513931941986,-0.0787040840148931,0.9533507529563406
5.553589491217444,0.202839536762238,-0.17815455694198598,0.0626020683288569,0.9533507529563406
5.554195184736523,-0.00313214292526246,-0.0919338538169861,-0.133789533233643,0.9533507529563406
5.5548008782556035,-0.137253236675262,-0.0727736975669861,0.134452654266357,0.9533507529563406
5.555406571774682,-0.034267396831512496,-0.0991189124107361,0.0985273612976069,0.9533507529563406
5.556012265293761,0.193259458637238,-0.0919338538169861,0.12247755661010701,0.9533507529563406
5.556617958812842,-0.0198972796440125,-0.0152932288169861,0.15121779098510701,0.9533507529563406
5.5572236523319205,-0.0917478655815125,-0.11348902959823601,0.5727412284851069,0.9533507529563406
5.557829345850999,0.188469419574738,-0.161389420223236,0.510470720672607,0.9533507529563406
5.558435039370079,0.0663234234809875,0.00865696649551391,0.371559587860107,0.9533507529563406
5.559040732889159,-0.0677976702690125,0.0421872399330139,0.479335466766357,0.9533507529563406
5.5596464264082375,0.00165789613723754,-0.130254166316986,0.124872576141357,0.9533507529563406
5.560252119927317,0.0687184430122375,0.121222884464264,0.105712419891357,0.9533507529563406
5.560857813446396,0.0112379742622375,0.0876926110267639,0.105712419891357,0.9533507529563406
5.561463506965476,-0.154018373394012,-0.0584035803794861,-0.0403837715148931,0.9533507529563406
5.562069200484555,-0.213893861675262,-0.127859146785736,-0.030803693389893097,0.9533507529563406
5.562674894003634,-0.0725877093315125,0.13559300165176402,0.153612810516357,0.9533507529563406
5.563280587522714,0.0040529156684875394,-0.0344533850669861,0.15121779098510701,0.9533507529563406
5.5638862810417935,-0.0486375140190125,-0.180549576473236,0.266178728485107,0.9533507529563406
5.564491974560872,-0.252214174175262,0.111642806339264,0.0745771659851069,0.9533507529563406
5.565097668079951,-0.0103172015190125,-0.0536135413169861,0.0147016777038569,0.9533507529563406
5.565703361599031,0.21241961488723798,0.27450413446426397,0.215883318328857,0.9533507529563406
5.5663090551181105,-0.0318723773002625,0.255343978214264,0.134452654266357,0.9533507529563406
5.56691474863719,-0.000737123394012459,-0.0847487952232361,-0.174504865264893,0.9533507529563406
5.567520442156269,-0.158808412456512,-0.0919338538169861,0.0793672050476069,0.9533507529563406
5.568126135675349,-0.0773777483940125,-0.0871438147544861,0.359584490203857,0.9533507529563406
5.568731829194428,0.200444517230988,0.00147190790176392,0.103317400360107,0.9533507529563406
5.569337522713507,0.07111346254348751,-0.0919338538169861,0.0961323417663569,0.9533507529563406
5.569943216232586,0.0208180523872375,-0.0967238928794861,-0.0116435371398931,0.9533507529563406
5.5705489097516665,0.0303981305122375,-0.11588404912948601,0.0721821464538569,0.9533507529563406
5.571154603270745,-0.213893861675262,-0.103908951473236,0.409879900360107,0.9533507529563406
5.571760296789824,-0.015107240581512499,0.126012923526764,0.179958025360107,0.9533507529563406
5.572365990308905,0.0208180523872375,-0.0871438147544861,0.0434419120788569,0.9533507529563406
5.5729716838279835,-0.127673158550262,-0.13264918584823598,0.103317400360107,0.9533507529563406
5.573577377347062,-0.0175022601127625,-0.0200832678794861,-0.0499638496398931,0.9533507529563406
5.574183070866142,0.181284360980988,-0.18773463506698598,-0.0834941230773931,0.9533507529563406
5.574788764385222,0.0471632672309875,0.116432845401764,-0.172109845733643,0.9533507529563406
5.5753944579043,0.126198911762238,0.0350021813392639,0.0027265800476069,0.9533507529563406
5.57600015142338,0.130988950824738,-0.000923111629486085,0.323659197235107,0.9533507529563406
5.576605844942459,-0.0869578265190125,-0.0344533850669861,0.333239275360107,0.9533507529563406
5.577211538461539,0.07111346254348751,0.0134470055580139,0.0434419120788569,0.9533507529563406
5.577817231980618,0.21241961488723798,0.039792220401763896,-0.054753888702393096,0.9533507529563406
5.578422925499697,0.013632993793487501,-0.103908951473236,0.182353044891357,0.9533507529563406
5.579028619018777,0.0351881695747375,0.037397200870513896,0.0649970878601069,0.9533507529563406
5.5796343125378565,0.0112379742622375,0.00865696649551391,0.0194917167663569,0.9533507529563406
5.580240006056935,-0.0654026507377625,0.00626194696426391,0.0841572441101069,0.9533507529563406
5.580845699576015,0.0639284039497375,-0.0943288733482361,0.141637712860107,0.9533507529563406
5.581451393095095,0.0351881695747375,0.0421872399330139,-0.0092485176086431,0.9533507529563406
5.582057086614173,0.0327931500434875,-0.0607985999107361,-0.0763090644836431,0.9533507529563406
5.582662780133253,-0.0462424944877625,-0.11588404912948601,-0.109839337921143,0.9533507529563406
5.583268473652332,-0.015107240581512499,-0.0224782874107361,-0.11941941604614299,0.9533507529563406
5.583874167171412,0.0208180523872375,0.0493722985267639,0.0673921073913569,0.9533507529563406
5.584479860690491,-0.0366624163627625,0.0565573571205139,-0.0834941230773931,0.9533507529563406
5.58508555420957,-0.0534275530815125,0.0421872399330139,0.110502458953857,0.9533507529563406
5.585691247728649,0.0687184430122375,0.20025852899551402,0.194328142547607,0.9533507529563406
5.5862969412477295,-0.218683900737762,-0.0105031897544861,0.148822771453857,0.9533507529563406
5.586902634766808,-0.0438474749565125,-0.048823502254486104,-0.057148908233643096,0.9533507529563406
5.587508328285887,-0.027082338237762498,0.0685324547767639,-0.030803693389893097,0.9533507529563406
5.588114021804968,0.00644793519973754,-0.0799587561607361,0.132057634735107,0.9533507529563406
5.588719715324046,-0.0965379046440125,-0.0344533850669861,0.7667378105163569,0.9533507529563406
5.589325408843125,-0.0510325335502625,0.0685324547767639,0.335634294891357,0.9533507529563406
5.589931102362205,0.0447682476997375,-0.012898209285736099,-0.128999494171143,0.9533507529563406
5.590536795881285,-0.292929506206512,0.0206320641517639,0.287733904266357,0.9533507529563406
5.591142489400363,-0.10851300230026201,0.121222884464264,0.0602070487976069,0.9533507529563406
5.591748182919443,0.119013853168488,0.018237044620513898,0.0218867362976069,0.9533507529563406
5.592353876438523,0.181284360980988,-0.14941432256698597,-0.052358869171143095,0.9533507529563406
5.592959569957602,-0.0534275530815125,-0.000923111629486085,-0.0355937324523931,0.9533507529563406
5.593565263476681,-0.134858217144012,0.29605931024551396,-0.0236186347961431,0.9533507529563406
5.59417095699576,-0.14683331480026202,-0.0871438147544861,0.206303240203857,0.9533507529563406
5.59477665051484,-0.0701926898002625,-0.190129654598236,0.218278337860107,0.9533507529563406
5.595382344033919,0.07111346254348751,0.018237044620513898,-0.0379887519836431,0.9533507529563406
5.595988037552998,-0.00313214292526246,-0.123069107723236,0.115292498016357,0.9533507529563406
5.596593731072078,-0.249819154644012,-0.051218521785736104,0.247018572235107,0.9533507529563406
5.597199424591158,-0.0462424944877625,-0.180549576473236,0.110502458953857,0.9533507529563406
5.597805118110236,0.00884295473098754,0.0781125329017639,0.0458369316101069,0.9533507529563406
5.598410811629316,-0.0989329241752625,-0.051218521785736104,0.203908220672607,0.9533507529563406
5.599016505148395,0.00884295473098754,-0.17815455694198598,0.333239275360107,0.9533507529563406
5.599622198667475,-0.0630076312065125,0.0110519860267639,0.0530219902038569,0.9533507529563406
5.600227892186554,-0.027082338237762498,-0.20928981084823597,0.0841572441101069,0.9533507529563406
5.600833585705633,-0.0845628069877625,-0.00331813116073608,-0.0499638496398931,0.9533507529563406
5.601439279224712,0.0687184430122375,0.14996311883926403,0.223068376922607,0.9533507529563406
5.602044972743792,0.224394712543488,-0.135044205379486,0.297313982391357,0.9533507529563406
5.602650666262871,-0.199523744487762,-0.0871438147544861,-0.136184552764893,0.9533507529563406
5.60325635978195,0.0327931500434875,0.173913314151764,0.0889472831726069,0.9533507529563406
5.603862053301031,0.159729185199738,-0.0727736975669861,0.263783708953857,0.9533507529563406
5.604467746820109,0.0735084820747375,-0.142229263973236,0.000331560516356899,0.9533507529563406
5.605073440339188,-0.0390574358940125,-0.0727736975669861,0.0673921073913569,0.9533507529563406
5.605679133858269,0.00165789613723754,-0.0967238928794861,0.134452654266357,0.9533507529563406
5.606284827377348,0.0208180523872375,-0.194919693660736,0.0410468925476069,0.9533507529563406
5.606890520896426,-0.0941428851127625,-0.0943288733482361,0.0147016777038569,0.9533507529563406
5.607496214415506,-0.0414524554252625,0.157148177433014,0.258993669891357,0.9533507529563406
5.608101907934586,-0.168388490581512,0.178703353214264,0.103317400360107,0.9533507529563406
5.6087076014536645,0.0806935406684875,-0.0631936194419861,0.0626020683288569,0.9533507529563406
5.609313294972744,-0.0773777483940125,-0.139834244441986,0.134452654266357,0.9533507529563406
5.609918988491823,-0.233054017925262,0.00147190790176392,-0.184084943389893,0.9533507529563406
5.610524682010903,-0.034267396831512496,-0.0679836585044861,0.134452654266357,0.9533507529563406
5.611130375529982,-0.170783510112762,-0.00810817022323609,0.0649970878601069,0.9533507529563406
5.611736069049061,-0.125278139019012,0.154753157901764,-0.102654279327393,0.9533507529563406
5.61234176256814,0.210024595355988,0.0996677086830139,0.124872576141357,0.9533507529563406
5.612947456087221,0.0040529156684875394,-0.135044205379486,0.400299822235107,0.9533507529563406
5.613553149606299,0.145359068012238,-0.0224782874107361,0.0769721855163569,0.9533507529563406
5.614158843125379,0.0040529156684875394,-0.0631936194419861,0.0027265800476069,0.9533507529563406
5.614764536644458,-0.027082338237762498,0.0110519860267639,0.153612810516357,0.9533507529563406
5.6153702301635375,-0.0630076312065125,0.0589523766517639,0.0626020683288569,0.9533507529563406
5.615975923682617,-0.015107240581512499,-0.029663346004486103,0.0673921073913569,0.9533507529563406
5.616581617201696,0.190864439105988,0.0781125329017639,0.144032732391357,0.9533507529563406
5.617187310720775,-0.0965379046440125,0.0493722985267639,-0.167319806671143,0.9533507529563406
5.617793004239855,-0.127673158550262,-0.0560085608482361,-0.0810991035461431,0.9533507529563406
5.618398697758934,0.0974586773872375,-0.175759537410736,0.7068623222351069,0.9533507529563406
5.619004391278013,0.0591383648872375,-0.0152932288169861,-0.0978642402648931,0.9533507529563406
5.619610084797094,0.0280031109809875,0.111642806339264,-0.0379887519836431,0.9533507529563406
5.620215778316172,-0.0318723773002625,0.037397200870513896,0.359584490203857,0.9533507529563406
5.620821471835251,0.0447682476997375,-0.000923111629486085,0.203908220672607,0.9533507529563406
5.621427165354332,-0.132463197612762,0.0589523766517639,0.254203630828857,0.9533507529563406
5.6220328588734105,-0.173178529644012,-0.029663346004486103,0.0841572441101069,0.9533507529563406
5.622638552392489,-0.0677976702690125,0.133197982120514,0.311684099578857,0.9533507529563406
5.623244245911569,-0.0941428851127625,-0.0679836585044861,0.213488298797607,0.9533507529563406
5.623849939430649,0.121408872699738,-0.0105031897544861,0.144032732391357,0.9533507529563406
5.6244556329497275,-0.0462424944877625,0.0541623375892639,0.338029314422607,0.9533507529563406
5.625061326468807,-0.0941428851127625,-0.410471451473236,0.275758806610107,0.9533507529563406
5.625667019987886,-0.0749827288627625,0.030212142276763897,0.0937373222351069,0.9533507529563406
5.626272713506966,0.186074400043488,0.0493722985267639,0.261388689422607,0.9533507529563406
5.626878407026045,0.056743345355987504,-0.0105031897544861,0.258993669891357,0.9533507529563406
5.627484100545124,-0.173178529644012,0.13080296258926402,0.237438494110107,0.9533507529563406
5.628089794064203,-0.0294773577690125,-0.0991189124107361,0.208698259735107,0.9533507529563406
5.6286954875832835,-0.0582175921440125,-0.0344533850669861,0.397904802703857,0.9533507529563406
5.629301181102362,-0.0965379046440125,0.0469772789955139,0.199118181610107,0.9533507529563406
5.629906874621442,-0.0701926898002625,-0.0631936194419861,0.0985273612976069,0.9533507529563406
5.630512568140521,-0.14683331480026202,-0.012898209285736099,0.167982927703857,0.9533507529563406
5.6311182616596005,-0.120488099956512,-0.127859146785736,0.0961323417663569,0.9533507529563406
5.63172395517868,-0.0701926898002625,-0.14941432256698597,0.134452654266357,0.9533507529563406
5.632329648697759,-0.0462424944877625,0.0685324547767639,-0.0379887519836431,0.9533507529563406
5.632935342216839,-0.0845628069877625,-0.0584035803794861,0.134452654266357,0.9533507529563406
5.633541035735918,-0.137253236675262,-0.16378443975448598,0.266178728485107,0.9533507529563406
5.634146729254997,0.138174009418488,-0.11348902959823601,-0.0834941230773931,0.9533507529563406
5.634752422774076,0.109433775043488,-0.204499771785736,0.141637712860107,0.9533507529563406
5.6353581162931565,-0.0198972796440125,-0.108698990535736,0.103317400360107,0.9533507529563406
5.635963809812235,0.0687184430122375,-0.139834244441986,0.0051215995788569,0.9533507529563406
5.636569503331314,-0.0246873187065125,0.00626194696426391,0.0482319511413569,0.9533507529563406
5.637175196850395,-0.20191876401901201,0.19067845087051402,0.0745771659851069,0.9533507529563406
5.6377808903694735,-0.161203431987762,-0.0152932288169861,0.261388689422607,0.9533507529563406
5.638386583888552,0.221999693012238,-0.0560085608482361,-0.06912400588989309,0.8800968792137963
5.638992277407632,-0.0630076312065125,-0.106303971004486,0.201513201141357,0.8800968792137963
5.639597970926712,-0.187548646831512,-0.106303971004486,0.12247755661010701,0.8800968792137963
5.6402036644457905,-0.0103172015190125,-0.0967238928794861,0.0506269706726069,0.8800968792137963
5.64080935796487,0.0160280133247375,0.0781125329017639,0.199118181610107,0.8800968792137963
5.641415051483949,-0.252214174175262,0.0493722985267639,0.335634294891357,0.8800968792137963
5.642020745003029,-0.103722963237762,0.0230270836830139,0.0745771659851069,0.8800968792137963
5.642626438522108,0.0902736187934875,-0.048823502254486104,0.251808611297607,0.8800968792137963
5.643232132041187,0.0160280133247375,-0.170969498348236,0.144032732391357,0.8800968792137963
5.643837825560267,-0.0701926898002625,-0.0991189124107361,0.0482319511413569,0.8800968792137963
5.6444435190793465,-0.30729962339401196,-0.125464127254486,0.100922380828857,0.8800968792137963
5.645049212598425,-0.0318723773002625,-0.0727736975669861,0.144032732391357,0.8800968792137963
5.645654906117504,0.15733416566848799,0.152358138370514,0.352399431610107,0.8800968792137963
5.646260599636585,0.00644793519973754,0.0326071618080139,-0.0834941230773931,0.8800968792137963
5.6468662931556635,0.0303981305122375,0.0254221032142639,0.484125505828857,0.8800968792137963
5.647471986674743,0.00165789613723754,0.121222884464264,0.0985273612976069,0.8800968792137963
5.648077680193822,-0.0246873187065125,-0.11588404912948601,-0.114629376983643,0.8800968792137963
5.648683373712902,0.0830885601997375,0.102062728214264,0.515260759735107,0.8800968792137963
5.649289067231981,-0.00313214292526246,-0.170969498348236,0.110502458953857,0.8800968792137963
5.64989476075106,-0.0222922991752625,-0.281140396785736,-0.133789533233643,0.8800968792137963
5.650500454270139,-0.132463197612762,0.0326071618080139,0.156007830047607,0.8800968792137963
5.6511061477892195,-0.137253236675262,-0.0895388342857361,0.242228533172607,0.8800968792137963
5.651711841308298,-0.0438474749565125,0.0517673180580139,0.261388689422607,0.8800968792137963
5.652317534827377,-0.10851300230026201,0.0685324547767639,0.179958025360107,0.8800968792137963
5.652923228346458,0.0280031109809875,0.224208724308014,0.201513201141357,0.8800968792137963
5.6535289218655365,-0.0534275530815125,-0.108698990535736,0.129662615203857,0.8800968792137963
5.654134615384615,-0.0318723773002625,-0.221264908504486,-0.0451738105773931,0.8800968792137963
5.654740308903695,-0.0127122210502625,-0.166179459285736,-0.0595439277648931,0.8800968792137963
5.655346002422775,0.0519533062934875,-0.0919338538169861,-0.016433576202393097,0.8800968792137963
5.655951695941853,-0.0941428851127625,0.0733224938392639,0.110502458953857,0.8800968792137963
5.656557389460933,-0.209103822612762,-0.0703786780357361,0.170377947235107,0.8800968792137963
5.657163082980012,0.0615333844184875,-0.120674088191986,0.232648455047607,0.8800968792137963
5.657768776499092,-0.11330304136276201,-0.029663346004486103,0.167982927703857,0.8800968792137963
5.658374470018171,-0.0630076312065125,0.0350021813392639,0.0530219902038569,0.8800968792137963
5.65898016353725,0.018423032855987502,-0.16857447881698598,0.266178728485107,0.8800968792137963
5.65958585705633,0.111828794574738,0.00147190790176392,0.144032732391357,0.8800968792137963
5.6601915505754095,0.104643735980988,0.0996677086830139,-0.0451738105773931,0.8800968792137963
5.660797244094488,-0.175573549175262,-0.13743922491073599,0.026676775360106902,0.8800968792137963
5.661402937613568,-0.0534275530815125,-0.11109401006698601,-0.143369611358643,0.8800968792137963
5.662008631132648,0.0232130719184875,-0.0823537756919861,0.117687517547607,0.8800968792137963
5.662614324651726,-0.0390574358940125,-0.0344533850669861,0.165587908172607,0.8800968792137963
5.663220018170806,-0.0989329241752625,-0.06558863897323611,-0.0787040840148931,0.8800968792137963
5.663825711689885,0.0447682476997375,0.00147190790176392,0.12008253707885701,0.8800968792137963
5.664431405208965,0.0495582867622375,0.0781125329017639,0.163192888641357,0.8800968792137963
5.665037098728044,-0.149228334331512,-0.17815455694198598,0.0649970878601069,0.8800968792137963
5.665642792247123,0.0447682476997375,0.00865696649551391,0.0194917167663569,0.8800968792137963
5.666248485766202,-0.0869578265190125,-0.0392434241294861,-0.11702439651489299,0.8800968792137963
5.6668541792852825,-0.30490460386276197,-0.142229263973236,0.247018572235107,0.8800968792137963
5.667459872804361,-0.0773777483940125,0.018237044620513898,0.0793672050476069,0.8800968792137963
5.66806556632344,0.0519533062934875,-0.0584035803794861,0.194328142547607,0.8800968792137963
5.668671259842521,-0.228263978862762,0.0852975914955139,0.170377947235107,0.8800968792137963
5.669276953361599,-0.14204327573776201,-0.000923111629486085,-0.0284086738586431,0.8800968792137963
5.669882646880678,0.0256080914497375,-0.135044205379486,0.196723162078857,0.8800968792137963
5.670488340399758,-0.0294773577690125,0.17151829462051402,-0.169714826202393,0.8800968792137963
5.671094033918838,0.0639284039497375,0.0421872399330139,0.000331560516356899,0.8800968792137963
5.671699727437916,0.0902736187934875,-0.15420436162948598,0.177563005828857,0.8800968792137963
5.672305420956996,-0.25700421323776196,0.14996311883926403,0.124872576141357,0.8800968792137963
5.672911114476076,-0.189943666362762,0.126012923526764,0.227858415985107,0.8800968792137963
5.673516807995155,0.0854835797309875,-0.029663346004486103,0.258993669891357,0.8800968792137963
5.674122501514234,-0.103722963237762,-0.185339615535736,0.261388689422607,0.8800968792137963
5.674728195033313,-0.000737123394012459,-0.180549576473236,0.100922380828857,0.8800968792137963
5.675333888552393,0.0782985211372375,-0.0584035803794861,0.0745771659851069,0.8800968792137963
5.675939582071472,0.0950636578559875,-0.278745377254486,0.251808611297607,0.8800968792137963
5.676545275590551,0.0375831891059875,-0.027268326473236102,0.153612810516357,0.8800968792137963
5.677150969109631,-0.118093080425262,0.030212142276763897,0.491310564422607,0.8800968792137963
5.677756662628711,0.0112379742622375,-0.22365992803573598,0.455385271453857,0.8800968792137963
5.678362356147789,0.116618833637238,-0.130254166316986,0.536815935516357,0.8800968792137963
5.678968049666869,0.205234556293488,-0.0248733069419861,0.594296404266357,0.8800968792137963
5.679573743185948,0.0327931500434875,-0.051218521785736104,0.103317400360107,0.8800968792137963
5.680179436705028,-0.216288881206512,-0.0320583655357361,0.199118181610107,0.8800968792137963
5.680785130224107,0.0303981305122375,-0.0344533850669861,0.0985273612976069,0.8800968792137963
5.681390823743186,-0.125278139019012,0.0805075524330139,0.144032732391357,0.8800968792137963
5.681996517262265,-0.144438295269012,-0.147019303035736,0.158402849578857,0.8800968792137963
5.682602210781345,0.130988950824738,0.0972726891517639,-0.0092485176086431,0.8800968792137963
5.683207904300424,-0.101327943706512,0.104457747745514,0.184748064422607,0.8800968792137963
5.683813597819503,-0.0558225726127625,-0.250005142879486,0.187143083953857,0.8800968792137963
5.684419291338584,-0.132463197612762,-0.0224782874107361,-0.0739140449523931,0.8800968792137963
5.685024984857662,-0.218683900737762,0.173913314151764,0.024281755828856902,0.8800968792137963
5.685630678376741,-0.194733705425262,-0.106303971004486,0.318869158172607,0.8800968792137963
5.686236371895822,-0.165993471050262,-0.166179459285736,-0.0044584785461431,0.8800968792137963
5.686842065414901,-0.218683900737762,0.0110519860267639,-0.100259259796143,0.8800968792137963
5.687447758933979,-0.0893528460502625,0.18588841180801402,0.247018572235107,0.8800968792137963
5.688053452453059,0.0950636578559875,-0.11348902959823601,0.134452654266357,0.8800968792137963
5.688659145972139,-0.0414524554252625,-0.204499771785736,0.129662615203857,0.8800968792137963
5.6892648394912175,0.0854835797309875,0.173913314151764,0.033861833953856904,0.8800968792137963
5.689870533010297,0.169309263324738,-0.106303971004486,0.0434419120788569,0.8800968792137963
5.690476226529376,-0.0917478655815125,-0.0176882483482361,0.170377947235107,0.8800968792137963
5.691081920048456,0.0303981305122375,-0.0320583655357361,0.366769548797607,0.8800968792137963
5.691687613567535,0.104643735980988,-0.23803004522323598,0.0649970878601069,0.8800968792137963
5.692293307086614,0.178889341449738,-0.21407984991073598,-0.102654279327393,0.8800968792137963
5.692899000605693,-0.0294773577690125,-0.19731471319198599,0.024281755828856902,0.8800968792137963
5.693504694124774,-0.194733705425262,-0.00331813116073608,0.0170966972351069,0.8800968792137963
5.694110387643852,-0.027082338237762498,-0.0536135413169861,0.134452654266357,0.8800968792137963
5.694716081162932,-0.175573549175262,-0.029663346004486103,0.235043474578857,0.8800968792137963
5.695321774682011,0.0615333844184875,-0.0584035803794861,0.110502458953857,0.8800968792137963
5.6959274682010905,0.0830885601997375,-0.391311295223236,0.0147016777038569,0.8800968792137963
5.69653316172017,0.0232130719184875,-0.051218521785736104,0.0673921073913569,0.8800968792137963
5.697138855239249,0.188469419574738,-0.135044205379486,-0.0379887519836431,0.8800968792137963
5.697744548758328,0.257924985980988,-0.11109401006698601,-0.0116435371398931,0.8800968792137963
5.698350242277408,0.233974790668488,-0.0823537756919861,0.129662615203857,0.8800968792137963
5.698955935796487,-0.103722963237762,-0.0799587561607361,0.247018572235107,0.8800968792137963
5.699561629315566,-0.0677976702690125,0.19067845087051402,0.0099116386413569,0.8800968792137963
5.7001673228346466,0.159729185199738,-0.027268326473236102,-0.0092485176086431,0.8800968792137963
5.700773016353725,-0.00792218198776246,-0.127859146785736,0.0721821464538569,0.8800968792137963
5.701378709872804,-0.180363588237762,0.0445822594642639,0.0626020683288569,0.8800968792137963
5.701984403391885,-0.130068178081512,0.00626194696426391,0.158402849578857,0.8800968792137963
5.7025900969109635,-0.0606126116752625,0.0972726891517639,0.194328142547607,0.8800968792137963
5.703195790430042,0.018423032855987502,0.18109837274551402,0.112897478485107,0.8800968792137963
5.703801483949122,0.0782985211372375,-0.000923111629486085,0.0218867362976069,0.8800968792137963
5.704407177468202,-0.0654026507377625,-0.0344533850669861,-0.0284086738586431,0.8800968792137963
5.7050128709872805,0.0782985211372375,-0.19252467412948598,0.333239275360107,0.8800968792137963
5.70561856450636,0.07111346254348751,-0.00571315069198609,0.21109327926635701,0.8800968792137963
5.706224258025439,-0.0390574358940125,-0.00810817022323609,0.146427751922607,0.8800968792137963
5.706829951544519,0.0591383648872375,-0.0967238928794861,0.0554170097351069,0.8800968792137963
5.707435645063598,0.0399782086372375,0.0781125329017639,-0.107444318389893,0.8800968792137963
5.708041338582677,0.248344907855988,-0.120674088191986,-0.0643339668273931,0.8800968792137963
5.708647032101756,0.07111346254348751,-0.135044205379486,-0.0810991035461431,0.8800968792137963
5.7092527256208365,-0.197128724956512,-0.0224782874107361,0.144032732391357,0.8800968792137963
5.709858419139915,-0.00313214292526246,-0.108698990535736,0.112897478485107,0.8800968792137963
5.710464112658994,0.0232130719184875,0.0757175133705139,0.347609392547607,0.8800968792137963
5.711069806178074,0.130988950824738,0.0517673180580139,0.302104021453857,0.8800968792137963
5.7116754996971535,-0.11330304136276201,0.0326071618080139,0.21109327926635701,0.8800968792137963
5.712281193216233,-0.14204327573776201,0.104457747745514,0.194328142547607,0.8800968792137963
5.712886886735312,-0.0414524554252625,-0.216474869441986,0.0913423027038569,0.8800968792137963
5.713492580254392,-0.120488099956512,-0.0679836585044861,0.105712419891357,0.8800968792137963
5.714098273773471,0.0232130719184875,0.147568099308014,-0.0499638496398931,0.8800968792137963
5.71470396729255,0.0519533062934875,-0.271560318660736,0.134452654266357,0.8800968792137963
5.715309660811629,0.0232130719184875,-0.00810817022323609,0.187143083953857,0.8800968792137963
5.7159153543307095,-0.015107240581512499,-0.0871438147544861,-0.0403837715148931,0.8800968792137963
5.716521047849788,0.0782985211372375,-0.0775637366294861,0.0697871269226069,0.8800968792137963
5.717126741368867,-0.0773777483940125,-0.0703786780357361,0.378744646453857,0.8800968792137963
5.717732434887948,-0.175573549175262,-0.190129654598236,0.191933123016357,0.8800968792137963
5.7183381284070265,-0.0845628069877625,0.0852975914955139,0.0913423027038569,0.8800968792137963
5.718943821926105,-0.0438474749565125,-0.0224782874107361,0.194328142547607,0.8800968792137963
5.719549515445185,0.0543483258247375,0.116432845401764,0.170377947235107,0.8800968792137963
5.720155208964265,0.0782985211372375,-0.103908951473236,0.15121779098510701,0.8800968792137963
5.7207609024833435,-0.0294773577690125,0.0469772789955139,0.299709001922607,0.8800968792137963
5.721366596002423,-0.161203431987762,0.183493392276764,0.244623552703857,0.8800968792137963
5.721972289521502,-0.027082338237762498,-0.0105031897544861,-0.27030564651489297,0.8800968792137963
5.722577983040582,0.0303981305122375,-0.11588404912948601,0.115292498016357,0.8800968792137963
5.723183676559661,0.07111346254348751,-0.0895388342857361,0.191933123016357,0.8800968792137963
5.72378937007874,0.0759035016059875,0.039792220401763896,0.218278337860107,0.8800968792137963
5.72439506359782,0.0854835797309875,-0.206894791316986,0.201513201141357,0.8800968792137963
5.7250007571168995,0.135778989887238,0.0733224938392639,-0.0810991035461431,0.8800968792137963
5.725606450635978,-0.197128724956512,0.0637424157142639,-0.126604474639893,0.8800968792137963
5.726212144155058,-0.0175022601127625,-0.211684830379486,0.522445818328857,0.8800968792137963
5.726817837674138,0.169309263324738,-0.0248733069419861,0.227858415985107,0.8800968792137963
5.7274235311932165,-0.0486375140190125,0.0637424157142639,-0.0092485176086431,0.8800968792137963
5.728029224712296,-0.161203431987762,0.126012923526764,0.321264177703857,0.8800968792137963
5.728634918231375,0.0519533062934875,0.0709274743080139,0.0170966972351069,0.8800968792137963
5.729240611750455,0.0663234234809875,-0.11588404912948601,0.0889472831726069,0.8800968792137963
5.729846305269534,0.0447682476997375,-0.101513931941986,0.0865522636413569,0.8800968792137963
5.730451998788613,0.116618833637238,0.114037825870514,0.21109327926635701,0.8800968792137963
5.731057692307692,0.114223814105988,-0.0560085608482361,-0.0427787910461431,0.8800968792137963
5.7316633858267725,0.150149107074738,-0.108698990535736,0.0937373222351069,0.8800968792137963
5.732269079345851,0.0447682476997375,-0.0823537756919861,0.146427751922607,0.8800968792137963
5.73287477286493,0.0351881695747375,-0.144624283504486,0.0673921073913569,0.8800968792137963
5.733480466384011,0.12380389223098799,0.0326071618080139,-0.114629376983643,0.8800968792137963
5.7340861599030895,0.0423732281684875,0.0350021813392639,0.0985273612976069,0.8800968792137963
5.734691853422168,0.00644793519973754,-0.19252467412948598,0.177563005828857,0.8800968792137963
5.735297546941248,-0.027082338237762498,-0.24282008428573598,-0.06672898635864309,0.8800968792137963
5.735903240460328,0.121408872699738,-0.288325455379486,-0.0116435371398931,0.8800968792137963
5.736508933979406,0.166914243793488,0.0134470055580139,-0.0954692207336431,0.8800968792137963
5.737114627498486,-0.0917478655815125,0.00147190790176392,0.254203630828857,0.8800968792137963
5.737720321017565,0.0639284039497375,-0.271560318660736,0.0075166191101069,0.8800968792137963
5.738326014536645,0.198049497699738,-0.00810817022323609,0.153612810516357,0.9064303510680375
5.738931708055724,0.107038755512238,0.17630833368301402,0.8649336112976069,0.9064303510680375
5.739537401574803,-0.0486375140190125,0.0972726891517639,0.220673357391357,0.9064303510680375
5.740143095093883,-0.11569806089401201,-0.0775637366294861,0.038651873016356905,0.9064303510680375
5.7407487886129624,0.0327931500434875,-0.0607985999107361,-0.0619389472961431,0.9064303510680375
5.741354482132041,0.26271502504348804,0.154753157901764,0.0170966972351069,0.9064303510680375
5.741960175651121,-0.0534275530815125,-0.0919338538169861,0.21109327926635701,0.9064303510680375
5.742565869170201,-0.30490460386276197,-0.027268326473236102,-0.0212236152648931,0.9064303510680375
5.743171562689279,0.0471632672309875,-0.0368484045982361,0.0793672050476069,0.9064303510680375
5.743777256208359,-0.0797727679252625,-0.175759537410736,0.146427751922607,0.9064303510680375
5.744382949727438,-0.130068178081512,-0.14941432256698597,0.0099116386413569,0.9064303510680375
5.744988643246518,0.224394712543488,-0.37215113897323604,0.0673921073913569,0.9064303510680375
5.745594336765597,0.130988950824738,-0.029663346004486103,0.153612810516357,0.9064303510680375
5.746200030284676,-0.204313783550262,0.0421872399330139,-0.016433576202393097,0.9064303510680375
5.746805723803755,-0.192338685894012,-0.0727736975669861,0.244623552703857,0.9064303510680375
5.7474114173228354,-0.0749827288627625,-0.0607985999107361,0.100922380828857,0.9064303510680375
5.748017110841914,-0.0534275530815125,0.0421872399330139,0.031466814422606904,0.9064303510680375
5.748622804360993,-0.0893528460502625,0.0278171227455139,0.167982927703857,0.9064303510680375
5.749228497880074,-0.0989329241752625,0.0733224938392639,0.232648455047607,0.9064303510680375
5.749834191399152,0.236369810199738,0.0517673180580139,0.292523943328857,0.9064303510680375
5.750439884918231,-0.0486375140190125,-0.012898209285736099,0.275758806610107,0.9064303510680375
5.751045578437311,-0.0821677874565125,0.00865696649551391,0.251808611297607,0.9064303510680375
5.751651271956391,0.111828794574738,0.18588841180801402,-0.016433576202393097,0.9064303510680375
5.752256965475469,-0.0534275530815125,-0.00331813116073608,0.0985273612976069,0.9064303510680375
5.752862658994549,-0.0654026507377625,-0.16857447881698598,0.179958025360107,0.9064303510680375
5.753468352513629,-0.0486375140190125,-0.0871438147544861,-0.0331987129211431,0.9064303510680375
5.754074046032708,-0.0486375140190125,-0.190129654598236,0.134452654266357,0.9064303510680375
5.754679739551787,-0.185153627300262,-0.166179459285736,-0.0044584785461431,0.9064303510680375
5.755285433070866,-0.0462424944877625,0.0230270836830139,0.000331560516356899,0.9064303510680375
5.755891126589946,-0.0606126116752625,-0.00331813116073608,0.0530219902038569,0.9064303510680375
5.756496820109025,-0.221078920269012,-0.0871438147544861,-0.0068534980773931,0.9064303510680375
5.757102513628104,-0.20191876401901201,-0.0200832678794861,-0.169714826202393,0.9064303510680375
5.757708207147184,-0.14683331480026202,0.0469772789955139,0.110502458953857,0.9064303510680375
5.758313900666264,-0.127673158550262,0.104457747745514,0.0673921073913569,0.9064303510680375
5.758919594185342,-0.0725877093315125,-0.0607985999107361,0.0075166191101069,0.9064303510680375
5.759525287704422,-0.11090802183151201,0.039792220401763896,0.285338884735107,0.9064303510680375
5.760130981223501,-0.175573549175262,0.0517673180580139,0.129662615203857,0.9064303510680375
5.7607366747425806,-0.120488099956512,-0.0679836585044861,0.235043474578857,0.9064303510680375
5.76134236826166,-0.0558225726127625,0.104457747745514,0.266178728485107,0.9064303510680375
5.761948061780739,0.0256080914497375,-0.11588404912948601,0.201513201141357,0.9064303510680375
5.762553755299818,0.0280031109809875,-0.11348902959823601,0.144032732391357,0.9064303510680375
5.763159448818898,-0.177968568706512,-0.0799587561607361,0.227858415985107,0.9064303510680375
5.763765142337977,-0.300114564800262,-0.364966080379486,0.191933123016357,0.9064303510680375
5.764370835857056,-0.28574444761276196,-0.341015885066986,-0.100259259796143,0.9064303510680375
5.764976529376137,0.0687184430122375,0.00626194696426391,0.0889472831726069,0.9064303510680375
5.765582222895215,-0.0127122210502625,0.49484593133926397,0.421854998016357,0.9064303510680375
5.766187916414294,0.28187518129348804,0.25294895868301404,0.5320258964538569,0.9064303510680375
5.766793609933375,0.162124204730988,-0.048823502254486104,0.302104021453857,0.9064303510680375
5.7673993034524536,-0.0869578265190125,-0.307485611629486,-0.7469145332336431,0.9064303510680375
5.768004996971532,-0.362385072612762,-0.640393326473236,-1.03910691604614,0.9064303510680375
5.768610690490612,-0.482136049175262,-0.18773463506698598,0.287733904266357,0.9064303510680375
5.769216384009692,-0.139648256206512,-0.17815455694198598,0.266178728485107,0.9064303510680375
5.7698220775287705,0.41120623598098804,0.303244368839264,0.0865522636413569,0.9064303510680375
5.77042777104785,0.30103533754348805,0.676867415714264,0.5128657402038569,0.9064303510680375
5.771033464566929,0.0112379742622375,0.44455052118301397,0.369164568328857,0.9064303510680375
5.771639158086009,0.00165789613723754,-0.123069107723236,0.330844255828857,0.9064303510680375
5.772244851605088,-0.230658998394012,-0.776909439754486,-0.555312970733643,0.9064303510680375
5.772850545124167,-0.0630076312065125,-0.42244654912948604,-0.7301493965148931,0.9064303510680375
5.773456238643246,-0.35759503355026195,-0.22365992803573598,-0.0140385566711431,0.9064303510680375
5.7740619321623265,-0.156413392925262,-0.0751687170982361,0.0745771659851069,0.9064303510680375
5.774667625681405,0.356120786762238,-0.0967238928794861,0.0051215995788569,0.9064303510680375
5.775273319200485,0.5884376812934881,0.473290755558014,0.187143083953857,0.9064303510680375
5.775879012719564,-0.0821677874565125,0.981034896183014,0.5919013847351069,0.9064303510680375
5.7764847062386435,-0.161203431987762,0.13559300165176402,0.575136248016357,0.9064303510680375
5.777090399757723,0.018423032855987502,-0.0703786780357361,-0.394846662139893,0.9064303510680375
5.777696093276802,-0.173178529644012,-0.144624283504486,-0.229590314483643,0.9064303510680375
5.778301786795881,-0.283349428081512,-0.489507096004486,0.369164568328857,0.9064303510680375
5.778907480314961,-0.36717511167526196,0.13080296258926402,0.0075166191101069,0.9064303510680375
5.77951317383404,0.0878785992622375,-0.235635025691986,-0.536152814483643,0.9064303510680375
5.780118867353119,0.188469419574738,0.308034407901764,-0.100259259796143,0.9064303510680375
5.7807245608721995,0.36091082582473805,0.9906149743080139,1.12599074020386,0.9064303510680375
5.781330254391278,0.48305682191848803,0.18588841180801402,0.6326167167663569,0.9064303510680375
5.781935947910357,0.0806935406684875,0.169123275089264,-0.509807599639893,0.9064303510680375
5.782541641429438,-0.259399232769012,-0.374546158504486,-0.5481279121398931,0.9064303510680375
5.7831473349485165,-0.462975892925262,-0.7074538733482361,-0.0810991035461431,0.9064303510680375
5.783753028467595,-0.666552553081513,-0.300300553035736,0.290128923797607,0.9064303510680375
5.784358721986675,-0.00313214292526246,-0.475136978816986,-0.7085942207336431,0.9064303510680375
5.784964415505755,0.502216978168488,-0.0152932288169861,-0.423586896514893,0.9064303510680375
5.7855701090248335,0.44234148988723804,0.940319564151764,1.47087355270386,0.9064303510680375
5.786175802543913,0.43994647035598805,0.640942122745514,1.28885206832886,0.9064303510680375
5.786781496062992,-0.20670880308151202,0.0852975914955139,-0.425981916046143,0.9064303510680375
5.787387189582072,-0.601887025737762,-0.410471451473236,-1.34806443557739,0.9064303510680375
5.787992883101151,-0.27616436948776196,-0.831994888973236,-0.722964337921143,0.9064303510680375
5.78859857662023,-0.165993471050262,-0.9062404944419861,0.0817622245788569,0.9064303510680375
5.78920427013931,0.27229510316848804,-0.142229263973236,0.0769721855163569,0.9064303510680375
5.7898099636583895,0.645918150043487,0.288874251651764,-0.0882841621398931,0.9064303510680375
5.790415657177468,0.47108172426223804,1.22772190790176,0.8242182792663569,0.9064303510680375
5.791021350696547,0.327380552387238,1.14629124383926,1.43494825973511,0.9064303510680375
5.791627044215627,0.0615333844184875,-0.336225846004486,-0.275095685577393,0.9064303510680375
5.7922327377347065,-0.520456361675262,-0.448791763973236,-1.36961961135864,0.9064303510680375
5.792838431253786,-0.319274721050262,-0.779304459285736,-0.6056083808898931,0.9064303510680375
5.793444124772865,0.205234556293488,-0.736194107723236,0.0027265800476069,0.9064303510680375
5.794049818291945,-0.0366624163627625,-0.22365992803573598,-0.342156232452393,0.9064303510680375
5.794655511811024,0.48066180238723805,-0.245215103816986,-0.469092267608643,0.9064303510680375
5.795261205330103,0.447131528949738,0.698422591495514,0.203908220672607,0.9064303510680375
5.795866898849182,0.0591383648872375,1.36902806024551,1.35830763473511,0.9064303510680375
5.7964725923682625,0.253134946918488,0.14517307977676402,0.754762712860107,0.9064303510680375
5.797078285887341,-0.664157533550263,0.0733224938392639,-1.07982224807739,0.9064303510680375
5.79768397940642,-0.34801495542526195,-0.388916275691986,-0.859480451202393,0.9064303510680375
5.798289672925501,0.166914243793488,-0.788884537410736,0.7643427909851069,0.9064303510680375
5.7988953664445795,-0.580331849956512,0.0948776696205139,0.280548845672607,0.9064303510680375
5.799501059963658,-0.00313214292526246,-0.494297135066986,-0.8139750801086431,0.9064303510680375
5.800106753482738,0.377675962543488,-0.0368484045982361,-0.126604474639893,0.9064303510680375
5.800712447001818,0.48305682191848803,1.16784641962051,1.41339308395386,0.9064303510680375
5.8013181405208964,0.38965106019973805,0.281689193058014,1.0900654472351101,0.9064303510680375
5.801923834039976,-0.254609193706512,0.183493392276764,-0.9121708808898931,0.9064303510680375
5.802529527559055,-0.534826478862762,-0.350595963191986,-0.6463237129211431,0.9064303510680375
