Time (s),Accel X (m/s^2),Accel Y (m/s^2),Load S (%),Load X (%),Load Y (%),Load Z (%),CI Value
1.0,5.407029936250979,80.35352048259985,0.0,0.0,0.0,3.0,1.2854273265870415
1.000125,16.86624876116254,104.56918253121462,0.0,0.0,0.0,3.0,1.2854273265870415
1.00025,-10.41765464015267,-32.65295161062231,0.0,0.0,0.0,3.0,1.2854273265870415
1.000375,124.09186005825569,-138.7833821296322,0.0,0.0,0.0,3.0,1.2854273265870415
1.0005,-6.870752322887185,46.87007610943427,0.0,0.0,0.0,3.0,1.2854273265870415
1.000625,-84.62981277390284,-120.8458507967861,0.0,0.0,0.0,3.0,1.2854273265870415
1.00075,85.07589662687172,-71.21869477785182,0.0,0.0,0.0,3.0,1.2854273265870415
1.000875,93.26106221971567,62.11697012581979,0.0,0.0,0.0,3.0,1.2854273265870415
1.001,-182.30609211571195,-63.4457892817804,0.0,0.0,0.0,3.0,1.2854273265870415
1.001125,-94.4520228832957,22.65438108056029,0.0,0.0,0.0,3.0,1.2854273265870415
1.00125,146.46459567536712,10.696012463637299,0.0,0.0,0.0,3.0,1.2854273265870415
1.001375,-64.43978174686308,-112.47504701289502,0.0,0.0,0.0,3.0,1.2854273265870415
1.0015,-25.15099443687633,83.34298056565244,0.0,0.0,0.0,3.0,1.2854273265870415
1.001625,-76.71752590912837,-77.4968867225265,0.0,0.0,0.0,3.0,1.2854273265870415
1.00175,19.867386316209057,93.20860231492316,0.0,0.0,0.0,3.0,1.2854273265870415
1.001875,40.05744813404179,-7.241590302932425,0.0,0.0,0.0,3.0,1.2854273265870415
1.002,-97.99898062398847,75.27105841145328,0.0,0.0,0.0,3.0,1.2854273265870415
1.002125,121.90906309580505,-8.43743242945487,0.0,0.0,0.0,3.0,1.2854273265870415
1.00225,105.81157483715641,-99.3209383176262,0.0,0.0,0.0,3.0,1.2854273265870415
1.002375,62.9758734675477,22.953234461605415,0.0,0.0,0.0,3.0,1.2854273265870415
1.0025,-147.65565544344534,-10.829134726328947,0.0,0.0,0.0,3.0,1.2854273265870415
1.002625,-84.08424006252173,-35.94168347224438,0.0,0.0,0.0,3.0,1.2854273265870415
1.00275,227.7704778136258,-236.84208675178476,0.0,0.0,0.0,3.0,1.2854273265870415
1.002875,-3.8696517167922355,132.67109323151175,0.0,0.0,0.0,3.0,1.2854273265870415
1.003,-243.9677628386165,-53.580310399957035,0.0,0.0,0.0,3.0,1.2854273265870415
1.003125,-67.98675681411034,119.51687856856054,0.0,0.0,0.0,3.0,1.2854273265870415
1.00325,29.416662274105086,2.0260287445356955,0.0,0.0,0.0,3.0,1.2854273265870415
1.003375,-21.877033577187632,41.18963174612046,0.0,0.0,0.0,3.0,1.2854273265870415
1.0035,-14.783210468180995,60.32299500067129,0.0,0.0,0.0,3.0,1.2854273265870415
1.003625,-22.149881514464134,-26.375078381101464,0.0,0.0,0.0,3.0,1.2854273265870415
1.00375,-29.516526780191644,67.79694506752092,0.0,0.0,0.0,3.0,1.2854273265870415
1.003875,-68.80532640649558,-9.03548615534579,0.0,0.0,0.0,3.0,1.2854273265870415
1.004,34.87341508600713,-25.478242707889144,0.0,0.0,0.0,3.0,1.2854273265870415
1.004125,-3.8697132983781812,-14.416789036913604,0.0,0.0,0.0,3.0,1.2854273265870415
1.00425,57.24618149391154,-86.76483232416001,0.0,0.0,0.0,3.0,1.2854273265870415
1.004375,-9.326489594993292,-40.127258846090285,0.0,0.0,0.0,3.0,1.2854273265870415
1.0045,-51.88934245336479,-54.17834371621257,0.0,0.0,0.0,3.0,1.2854273265870415
1.004625,144.8274027890513,14.88114119131206,0.0,0.0,0.0,3.0,1.2854273265870415
1.00475,111.5410641655196,-0.36576539569732835,0.0,0.0,0.0,3.0,1.2854273265870415
1.004875,-6.598132237478681,-26.973119536368518,0.0,0.0,0.0,3.0,1.2854273265870415
1.005,117.27066434073745,39.0967828302915,0.0,0.0,0.0,3.0,1.2854273265870415
1.005125,21.231423931279316,4.118591925469975,0.0,0.0,0.0,3.0,1.2854273265870415
1.00525,23.95979976326971,-1.5616279318551634,0.0,0.0,0.0,3.0,1.2854273265870415
1.005375,3.4968900081604195,80.05412624621837,0.0,0.0,0.0,3.0,1.2854273265870415
1.0055,12.227726842923051,-42.51902237187036,0.0,0.0,0.0,3.0,1.2854273265870415
1.005625,13.591898789561078,-13.221061529191699,0.0,0.0,0.0,3.0,1.2854273265870415
1.00575,-14.510485694076383,45.37487036098336,0.0,0.0,0.0,3.0,1.2854273265870415
1.005875,81.52874239906457,-0.6648126682781232,0.0,0.0,0.0,3.0,1.2854273265870415
1.006,-6.0525164189874054,25.344610204314147,0.0,0.0,0.0,3.0,1.2854273265870415
1.006125,27.233809888227107,20.86021206387612,0.0,0.0,0.0,3.0,1.2854273265870415
1.00625,-97.72635438042137,7.108082622975632,0.0,0.0,0.0,3.0,1.2854273265870415
1.006375,87.53117876920243,-10.829451075676625,0.0,0.0,0.0,3.0,1.2854273265870415
1.0065,31.053541668293253,62.116510909024775,0.0,0.0,0.0,3.0,1.2854273265870415
1.006625,6.7708816586420895,14.880977914229387,0.0,0.0,0.0,3.0,1.2854273265870415
1.00675,9.226421869673114,37.60186281673526,0.0,0.0,0.0,3.0,1.2854273265870415
1.006875,-25.151259237695896,43.58101769364686,0.0,0.0,0.0,3.0,1.2854273265870415
1.007,27.779463803591316,-57.16813035343056,0.0,0.0,0.0,3.0,1.2854273265870415
1.007125,73.61635757771327,61.51852077784606,0.0,0.0,0.0,3.0,1.2854273265870415
1.00725,-46.70554957351531,-36.83895558681023,0.0,0.0,0.0,3.0,1.2854273265870415
1.007375,101.44590085619345,-41.32335372724826,0.0,0.0,0.0,3.0,1.2854273265870415
1.0075,-128.01150503571648,2.0256817807350167,0.0,0.0,0.0,3.0,1.2854273265870415
1.007625,-10.963689213428374,-51.48797172501143,0.0,0.0,0.0,3.0,1.2854273265870415
1.00775,-10.690859750627656,29.23091616539679,0.0,0.0,0.0,3.0,1.2854273265870415
1.007875,175.65801588283347,1.7266957370602811,0.0,0.0,0.0,3.0,1.2854273265870415
1.008,-165.1176123882659,10.097522296392897,0.0,0.0,0.0,3.0,1.2854273265870415
1.008125,-49.979645912693094,47.766348151868705,0.0,0.0,0.0,3.0,1.2854273265870415
1.00825,132.27664384526676,72.28096562970528,0.0,0.0,0.0,3.0,1.2854273265870415
1.008375,-143.01766197892368,-61.05471968360168,0.0,0.0,0.0,3.0,1.2854273265870415
1.0085,56.42743947308568,-110.68189611217134,0.0,0.0,0.0,3.0,1.2854273265870415
1.008625,89.71377867057804,-46.70470999871061,0.0,0.0,0.0,3.0,1.2854273265870415
1.00875,-211.77308191293167,-12.025494932746208,0.0,0.0,0.0,3.0,1.2854273265870415
1.008875,112.35938069944179,37.30273390561313,0.0,0.0,0.0,3.0,1.2854273265870415
1.009,-44.795760660464644,-82.87874303005458,0.0,0.0,0.0,3.0,1.2854273265870415
1.009125,-27.60691645374022,57.9308641014552,0.0,0.0,0.0,3.0,1.2854273265870415
1.00925,49.60643465848388,1.1286726256223603,0.0,0.0,0.0,3.0,1.2854273265870415
1.009375,-72.62532183945999,91.41424724571476,0.0,0.0,0.0,3.0,1.2854273265870415
1.0095,98.71741417734837,-53.28185737260707,0.0,0.0,0.0,3.0,1.2854273265870415
1.009625,41.96694145547989,11.89115045774072,0.0,0.0,0.0,3.0,1.2854273265870415
1.00975,-90.08702629977816,-31.756860889099684,0.0,0.0,0.0,3.0,1.2854273265870415
1.009875,-22.423025043353235,-124.4341276012485,0.0,0.0,0.0,3.0,1.2854273265870415
1.01,79.61866405255998,2.0254776843816766,0.0,0.0,0.0,3.0,1.2854273265870415
1.010125,62.975491661714834,28.33385598619574,0.0,0.0,0.0,3.0,1.2854273265870415
1.01025,-200.04109520680535,-32.95272342525746,0.0,0.0,0.0,3.0,1.2854273265870415
1.010375,-55.16371089944204,133.86631678366226,0.0,0.0,0.0,3.0,1.2854273265870415
1.0105,72.5248488235939,-87.0642979942651,0.0,0.0,0.0,3.0,1.2854273265870415
1.010625,63.5211640515548,16.076501325597953,0.0,0.0,0.0,3.0,1.2854273265870415
1.01075,-31.153911143384562,-90.35288462263368,0.0,0.0,0.0,3.0,1.2854273265870415
1.010875,55.88165122615372,60.32239291642894,0.0,0.0,0.0,3.0,1.2854273265870415
1.011,-165.11776018407218,88.72348747144228,0.0,0.0,0.0,3.0,1.2854273265870415
1.011125,-0.05030790071754643,-158.216560383895,0.0,0.0,0.0,3.0,1.2854273265870415
1.01125,229.67993418611235,109.65057309650615,0.0,0.0,0.0,3.0,1.2854273265870415
1.011375,-41.7946600543697,-78.99248809306027,0.0,0.0,0.0,3.0,1.2854273265870415
1.0115,-66.07729428346518,89.91926836905873,0.0,0.0,0.0,3.0,1.2854273265870415
1.011625,98.99014510961162,-19.20071644216898,0.0,0.0,0.0,3.0,1.2854273265870415
1.01175,-47.2514425091434,-2.1600976894641746,0.0,0.0,0.0,3.0,1.2854273265870415
1.011875,-11.782405453698585,60.02335584866581,0.0,0.0,0.0,3.0,1.2854273265870415
1.012,-38.79344745349868,-39.82892591074618,0.0,0.0,0.0,3.0,1.2854273265870415
1.012125,110.44934546004737,11.293035502943852,0.0,0.0,0.0,3.0,1.2854273265870415
1.01225,-147.38327437830074,43.580578886487174,0.0,0.0,0.0,3.0,1.2854273265870415
1.012375,-81.9020096506618,-55.07585290739096,0.0,0.0,0.0,3.0,1.2854273265870415
1.0125,127.91101297141394,119.21715777801376,0.0,0.0,0.0,3.0,1.2854273265870415
1.012625,20.41252179832996,-60.15817211109018,0.0,0.0,0.0,3.0,1.2854273265870415
1.01275,-57.89220989460432,77.66185247955494,0.0,0.0,0.0,3.0,1.2854273265870415
1.012875,21.503877746405767,-145.95938941001523,0.0,0.0,0.0,3.0,1.2854273265870415
1.013,116.99743459762809,29.230487563054773,0.0,0.0,0.0,3.0,1.2854273265870415
1.013125,-81.35634957713899,56.43573215253415,0.0,0.0,0.0,3.0,1.2854273265870415
1.01325,-19.967644944445667,-115.46562726008479,0.0,0.0,0.0,3.0,1.2854273265870415
1.013375,30.78036734861124,196.34847691588433,0.0,0.0,0.0,3.0,1.2854273265870415
1.0135,-50.25274633447197,-77.79681160942665,0.0,0.0,0.0,3.0,1.2854273265870415
1.013625,-44.25031727041402,13.08667386910934,0.0,0.0,0.0,3.0,1.2854273265870415
1.01375,40.05686310897531,-51.78742719029884,0.0,0.0,0.0,3.0,1.2854273265870415
1.013875,43.33093596344001,-67.33328920653003,0.0,0.0,0.0,3.0,1.2854273265870415
1.014,-83.26626781152015,105.4649160841189,0.0,0.0,0.0,3.0,1.2854273265870415
1.014125,23.413691292090814,16.37517101992507,0.0,0.0,0.0,3.0,1.2854273265870415
1.01425,59.97407083137294,9.798056626287812,0.0,0.0,0.0,3.0,1.2854273265870415
1.014375,-20.24053598883233,-6.345716248386952,0.0,0.0,0.0,3.0,1.2854273265870415
1.0145,43.603740793606356,54.34293189498733,0.0,0.0,0.0,3.0,1.2854273265870415
1.014625,91.07767407403996,140.4430598843578,0.0,0.0,0.0,3.0,1.2854273265870415
1.01475,-16.42080420876613,-1.8613589272195918,0.0,0.0,0.0,3.0,1.2854273265870415
1.014875,-103.72921451558095,86.63045486889533,0.0,0.0,0.0,3.0,1.2854273265870415
1.015,90.80480708832702,22.35426466793066,0.0,0.0,0.0,3.0,1.2854273265870415
1.015125,15.228470275819515,44.47723871199295,0.0,0.0,0.0,3.0,1.2854273265870415
1.01525,-1.6875506262627902,-93.94074539537789,0.0,0.0,0.0,3.0,1.2854273265870415
1.015375,-111.36873965729924,96.1971007793089,0.0,0.0,0.0,3.0,1.2854273265870415
1.0155,112.35905431703628,38.49801476716389,0.0,0.0,0.0,3.0,1.2854273265870415
1.015625,-75.08117611657933,-61.35426699224816,0.0,0.0,0.0,3.0,1.2854273265870415
1.01575,2.950681858522757,47.46677022876928,0.0,0.0,0.0,3.0,1.2854273265870415
1.015875,-4.688799028164065,-1.56249534135686,0.0,0.0,0.0,3.0,1.2854273265870415
1.016,63.248037849220204,79.75430340749489,0.0,0.0,0.0,3.0,1.2854273265870415
1.016125,-129.64896945497114,156.88568377427148,0.0,0.0,0.0,3.0,1.2854273265870415
1.01625,89.44055451166658,19.36458007888939,0.0,0.0,0.0,3.0,1.2854273265870415
1.016375,-18.876430634017535,85.73343787477114,0.0,0.0,0.0,3.0,1.2854273265870415
1.0165,-21.05914754040638,-169.87640217393823,0.0,0.0,0.0,3.0,1.2854273265870415
1.016625,-30.608529334919883,45.07502711262453,0.0,0.0,0.0,3.0,1.2854273265870415
1.01675,31.871543562166494,-30.56158239335507,0.0,0.0,0.0,3.0,1.2854273265870415
1.016875,18.502437293666805,-138.48574548769565,0.0,0.0,0.0,3.0,1.2854273265870415
1.017,23.68638527540245,57.930221197942174,0.0,0.0,0.0,3.0,1.2854273265870415
1.017125,-52.162800048342206,-64.34397199092477,0.0,0.0,0.0,3.0,1.2854273265870415
1.01725,-21.332020110317316,-20.994936482941487,0.0,0.0,0.0,3.0,1.2854273265870415
1.017375,36.23693426783414,-41.32417011266162,0.0,0.0,0.0,3.0,1.2854273265870415
1.0175,25.323374368524064,68.99167250311152,0.0,0.0,0.0,3.0,1.2854273265870415
1.017625,-87.08619665266131,7.406109413789725,0.0,0.0,0.0,3.0,1.2854273265870415
1.01775,134.1860380622067,102.17607196950249,0.0,0.0,0.0,3.0,1.2854273265870415
1.017875,-143.56385280200692,-77.79716877804499,0.0,0.0,0.0,3.0,1.2854273265870415
1.018,-80.26524726148686,53.146796194558746,0.0,0.0,0.0,3.0,1.2854273265870415
1.018125,66.79484779410672,-8.438738646116247,0.0,0.0,0.0,3.0,1.2854273265870415
1.01825,57.518327401108294,14.581073436964564,0.0,0.0,0.0,3.0,1.2854273265870415
1.018375,-40.703636646857994,14.880018661368688,0.0,0.0,0.0,3.0,1.2854273265870415
1.0185,-71.53442890120007,-25.778381895960255,0.0,0.0,0.0,3.0,1.2854273265870415
1.018625,24.777647703178033,14.879998251733355,0.0,0.0,0.0,3.0,1.2854273265870415
1.01875,-73.98998758670689,22.652942201269244,0.0,0.0,0.0,3.0,1.2854273265870415
1.018875,-46.97895790322392,106.95932349098564,0.0,0.0,0.0,3.0,1.2854273265870415
1.019,-16.42101358615834,5.911220014686486,0.0,0.0,0.0,3.0,1.2854273265870415
1.019125,52.334355934659555,-1.2638052373944106,0.0,0.0,0.0,3.0,1.2854273265870415
1.01925,29.415874029804986,7.107021321938262,0.0,0.0,0.0,3.0,1.2854273265870415
1.019375,33.50845374714769,-47.30349847147356,0.0,0.0,0.0,3.0,1.2854273265870415
1.0195,76.88981404235784,103.37177906758906,0.0,0.0,0.0,3.0,1.2854273265870415
1.019625,-91.99738792157807,-61.65354897563524,0.0,0.0,0.0,3.0,1.2854273265870415
1.01975,81.80089446441988,40.29142862734071,0.0,0.0,0.0,3.0,1.2854273265870415
1.019875,-67.16907514448401,127.28843702869992,0.0,0.0,0.0,3.0,1.2854273265870415
1.02,20.957829708891563,-88.55987895516355,0.0,0.0,0.0,3.0,1.2854273265870415
1.020125,15.501059570435046,-7.542035635533601,0.0,0.0,0.0,3.0,1.2854273265870415
1.02025,91.62306819882185,25.343446855100108,0.0,0.0,0.0,3.0,1.2854273265870415
1.020375,-129.37634321140405,1.1277643968499957,0.0,0.0,0.0,3.0,1.2854273265870415
1.0205,-28.426009489606006,113.83525044639735,0.0,0.0,0.0,3.0,1.2854273265870415
1.020625,112.63163745349321,-5.748315630826776,0.0,0.0,0.0,3.0,1.2854273265870415
1.02075,-73.1715792543664,108.75293124269814,0.0,0.0,0.0,3.0,1.2854273265870415
1.020875,0.4948830048307611,19.36420250063571,0.0,0.0,0.0,3.0,1.2854273265870415
1.021,40.32934155673616,26.838162772303008,0.0,0.0,0.0,3.0,1.2854273265870415
1.021125,-53.80003661572886,32.21943503941782,0.0,0.0,0.0,3.0,1.2854273265870415
1.02125,-16.693960053972415,80.65074109281824,0.0,0.0,0.0,3.0,1.2854273265870415
1.021375,73.8884911685928,-46.107811783022264,0.0,0.0,0.0,3.0,1.2854273265870415
1.0215,71.43293864124459,37.002719541160175,0.0,0.0,0.0,3.0,1.2854273265870415
1.021625,-70.98891161324632,-77.49851949335321,0.0,0.0,0.0,3.0,1.2854273265870415
1.02175,85.89338180938364,17.271414813712756,0.0,0.0,0.0,3.0,1.2854273265870415
1.021875,-44.25072370888126,47.76522562192533,0.0,0.0,0.0,3.0,1.2854273265870415
1.022,22.867606305625042,-67.63290794890017,0.0,0.0,0.0,3.0,1.2854273265870415
1.022125,114.54143868286107,25.3432937828351,0.0,0.0,0.0,3.0,1.2854273265870415
1.02225,-65.25931702222637,-19.500567529539268,0.0,0.0,0.0,3.0,1.2854273265870415
1.022375,-110.27771624978753,-41.92248916381183,0.0,0.0,0.0,3.0,1.2854273265870415
1.0225,-6.871836158799826,108.1548775168072,0.0,0.0,0.0,3.0,1.2854273265870415
1.022625,-69.07908575124408,-125.03307935109406,0.0,0.0,0.0,3.0,1.2854273265870415
1.02275,95.71553091115123,119.51527641218682,0.0,0.0,0.0,3.0,1.2854273265870415
1.022875,-165.39115504954228,-39.23190287143969,0.0,0.0,0.0,3.0,1.2854273265870415
1.023,65.70326514208425,-127.42475339932135,0.0,0.0,0.0,3.0,1.2854273265870415
1.023125,40.60207248899937,113.2371252867828,0.0,0.0,0.0,3.0,1.2854273265870415
1.02325,-29.244651831973027,-65.54029374387756,0.0,0.0,0.0,3.0,1.2854273265870415
1.023375,-30.8816974964433,0.8285640520041955,0.0,0.0,0.0,3.0,1.2854273265870415
1.0235,38.41934326629328,37.0025562640775,0.0,0.0,0.0,3.0,1.2854273265870415
1.023625,-2.7793057067259346,-35.046531593947115,0.0,0.0,0.0,3.0,1.2854273265870415
1.02375,44.148956331789016,43.28068461404002,0.0,0.0,0.0,3.0,1.2854273265870415
1.023875,-111.36915841208366,13.085837074060645,0.0,0.0,0.0,3.0,1.2854273265870415
1.024,70.06861159272039,-150.14573014518618,0.0,0.0,0.0,3.0,1.2854273265870415
1.024125,103.08210227897555,25.04417507653064,0.0,0.0,0.0,3.0,1.2854273265870415
1.02425,-101.54696562924524,-5.449656141317329,0.0,0.0,0.0,3.0,1.2854273265870415
1.024375,34.05387866272253,-59.262265076285566,0.0,0.0,0.0,3.0,1.2854273265870415
1.0245,60.2464014833275,68.99110103332217,0.0,0.0,0.0,3.0,1.2854273265870415
1.024625,-21.605244843189396,6.508671656334997,0.0,0.0,0.0,3.0,1.2854273265870415
1.02475,-116.8259654994917,-91.8488047083213,0.0,0.0,0.0,3.0,1.2854273265870415
1.024875,22.04895780509937,183.49231337288828,0.0,0.0,0.0,3.0,1.2854273265870415
1.025,73.61547696103425,-128.0228275348476,0.0,0.0,0.0,3.0,1.2854273265870415
1.025125,-115.18894446765586,184.0902038216965,0.0,0.0,0.0,3.0,1.2854273265870415
1.02525,32.14396042834138,-12.026841968678253,0.0,0.0,0.0,3.0,1.2854273265870415
1.025375,-24.06082816133058,82.74312058703451,0.0,0.0,0.0,3.0,1.2854273265870415
1.0255,14.68228790673754,-22.19145996644142,0.0,0.0,0.0,3.0,1.2854273265870415
1.025625,68.43151781090269,-16.212276840883025,0.0,0.0,0.0,3.0,1.2854273265870415
1.02575,-50.25334983401424,132.37027032065689,0.0,0.0,0.0,3.0,1.2854273265870415
1.025875,8.952644050448834,-37.13943153386441,0.0,0.0,0.0,3.0,1.2854273265870415
1.026,-13.692976452890706,97.9899659451379,0.0,0.0,0.0,3.0,1.2854273265870415
1.026125,40.6019246931931,-34.448824831856875,0.0,0.0,0.0,3.0,1.2854273265870415
1.02625,6.4970792067834315,-81.68432957800546,0.0,0.0,0.0,3.0,1.2854273265870415
1.026375,-88.99650285103392,11.88978301217334,0.0,0.0,0.0,3.0,1.2854273265870415
1.0265,13.318034756116473,16.075205313754243,0.0,0.0,0.0,3.0,1.2854273265870415
1.026625,81.80055576569718,38.49710653839153,0.0,0.0,0.0,3.0,1.2854273265870415
1.02675,0.22175795041744717,-31.160309637212016,0.0,0.0,0.0,3.0,1.2854273265870415
1.026875,9.771101648058018,-64.64372339592458,0.0,0.0,0.0,3.0,1.2854273265870415
1.027,-61.43980077771097,92.0107192248673,0.0,0.0,0.0,3.0,1.2854273265870415
1.027125,83.98324188129311,8.900139242402734,0.0,0.0,0.0,3.0,1.2854273265870415
1.02725,-6.326398926907793,102.1752964033598,0.0,0.0,0.0,3.0,1.2854273265870415
1.027375,-75.62745200596153,-48.49997329669136,0.0,0.0,0.0,3.0,1.2854273265870415
1.0275,99.80788277662592,46.8678718688182,0.0,0.0,0.0,3.0,1.2854273265870415
1.027625,163.92498228974608,-32.95414189491318,0.0,0.0,0.0,3.0,1.2854273265870415
1.02775,-162.66303900813423,63.60955323613029,0.0,0.0,0.0,3.0,1.2854273265870415
1.027875,45.78579261886704,-15.315594239935713,0.0,0.0,0.0,3.0,1.2854273265870415
1.028,-116.82612561161515,-132.8064158153137,0.0,0.0,0.0,3.0,1.2854273265870415
1.028125,89.43996948660009,87.82519487510973,0.0,0.0,0.0,3.0,1.2854273265870415
1.02825,-25.97084492624925,-122.9408223146898,0.0,0.0,0.0,3.0,1.2854273265870415
1.028375,-101.54716884847885,51.95012747780522,0.0,0.0,0.0,3.0,1.2854273265870415
1.0285,47.69561117478935,-80.18970786996776,0.0,0.0,0.0,3.0,1.2854273265870415
1.028625,-7.417809150489642,44.47613659168491,0.0,0.0,0.0,3.0,1.2854273265870415
1.02875,-22.969626167219637,-28.170890373430026,0.0,0.0,0.0,3.0,1.2854273265870415
1.028875,-5.780781960495151,5.312502975647208,0.0,0.0,0.0,3.0,1.2854273265870415
1.029,52.333869440130584,-85.27204748330233,0.0,0.0,0.0,3.0,1.2854273265870415
1.029125,62.15604875873047,-28.17092098788303,0.0,0.0,0.0,3.0,1.2854273265870415
1.02925,-17.512886819556094,-66.43767811143775,0.0,0.0,0.0,3.0,1.2854273265870415
1.029375,-34.428881941082764,-8.738612508928071,0.0,0.0,0.0,3.0,1.2854273265870415
1.0295,-3.5981020030578743,47.465647698825904,0.0,0.0,0.0,3.0,1.2854273265870415
1.029625,-108.36819829571503,-6.0480058069205365,0.0,0.0,0.0,3.0,1.2854273265870415
1.02975,44.148660740176474,28.033298400600223,0.0,0.0,0.0,3.0,1.2854273265870415
1.029875,-1.41543550985904,-11.728235869063342,0.0,0.0,0.0,3.0,1.2854273265870415
1.03,-92.5435702906601,-65.54084480403158,0.0,0.0,0.0,3.0,1.2854273265870415
1.030125,144.00762677154216,51.94998461035788,0.0,0.0,0.0,3.0,1.2854273265870415
1.03025,-15.603060957553915,-21.29495321320065,0.0,0.0,0.0,3.0,1.2854273265870415
1.030375,-18.05861348490213,-79.2929946545674,0.0,0.0,0.0,3.0,1.2854273265870415
1.0305,105.26449896111754,5.91028117146112,0.0,0.0,0.0,3.0,1.2854273265870415
1.030625,-107.5497406981058,35.208242014139785,0.0,0.0,0.0,3.0,1.2854273265870415
1.03075,140.73352985840376,-66.43780056924976,0.0,0.0,0.0,3.0,1.2854273265870415
1.030875,86.9842876379214,49.25926802116226,0.0,0.0,0.0,3.0,1.2854273265870415
1.031,-177.3964773353954,-50.59298548960299,0.0,0.0,0.0,3.0,1.2854273265870415
1.031125,74.97937909661542,154.19383208450856,0.0,0.0,0.0,3.0,1.2854273265870415
1.03125,-0.0512993642512698,-110.68375338898674,0.0,0.0,0.0,3.0,1.2854273265870415
1.031375,2.404240846779755,74.67074942085794,0.0,0.0,0.0,3.0,1.2854273265870415
1.0315,-2.7796936707173914,-55.077414244494015,0.0,0.0,0.0,3.0,1.2854273265870415
1.031625,-29.790735670517545,21.45604113951563,0.0,0.0,0.0,3.0,1.2854273265870415
1.03175,79.07192129104588,118.31871994842768,0.0,0.0,0.0,3.0,1.2854273265870415
1.031875,50.69668829617126,1.4257809828464219,0.0,0.0,0.0,3.0,1.2854273265870415
1.032,-41.24997912806343,-12.924259316497649,0.0,0.0,0.0,3.0,1.2854273265870415
1.032125,79.61757405848874,-80.78794291677049,0.0,0.0,0.0,3.0,1.2854273265870415
1.03225,98.71629339248418,23.249750939404787,0.0,0.0,0.0,3.0,1.2854273265870415
1.032375,-56.256137219191984,22.053890769053154,0.0,0.0,0.0,3.0,1.2854273265870415
1.0325,-15.330336183449303,42.08414855991616,0.0,0.0,0.0,3.0,1.2854273265870415
1.032625,133.91246962037462,-63.44837110065016,0.0,0.0,0.0,3.0,1.2854273265870415
1.03275,-81.63015202899764,135.0603259625104,0.0,0.0,0.0,3.0,1.2854273265870415
1.032875,102.26316434499597,-65.84006319270651,0.0,0.0,0.0,3.0,1.2854273265870415
1.033,-12.601978825934692,-23.985804830832137,0.0,0.0,0.0,3.0,1.2854273265870415
1.033125,45.23983695373173,71.38204033467736,0.0,0.0,0.0,3.0,1.2854273265870415
1.03325,19.047327597365236,-31.1608402877307,0.0,0.0,0.0,3.0,1.2854273265870415
1.033375,-43.705593236997586,135.6581857968656,0.0,0.0,0.0,3.0,1.2854273265870415
1.0335,-15.603221069677373,15.17776755629957,0.0,0.0,0.0,3.0,1.2854273265870415
1.033625,59.15460945391279,-137.29129121637587,0.0,0.0,0.0,3.0,1.2854273265870415
1.03375,102.26312123788581,15.177747146664236,0.0,0.0,0.0,3.0,1.2854273265870415
1.033875,59.1545971375956,-16.810889465939432,0.0,0.0,0.0,3.0,1.2854273265870415
1.034,13.590500887560115,-29.068213512084217,0.0,0.0,0.0,3.0,1.2854273265870415
1.034125,37.600312959934776,-46.1088526744243,0.0,0.0,0.0,3.0,1.2854273265870415
1.0342500000000001,65.70271090781074,53.14546956826203,0.0,0.0,0.0,3.0,1.2854273265870415
1.034375,94.0779186960903,-109.78711397311625,0.0,0.0,0.0,3.0,1.2854273265870415
1.0345,-46.979727673048245,29.228732334416044,0.0,0.0,0.0,3.0,1.2854273265870415
1.034625,6.496666610157596,-0.9661152055633293,0.0,0.0,0.0,3.0,1.2854273265870415
1.03475,80.16312886935476,33.41414443117928,0.0,0.0,0.0,3.0,1.2854273265870415
1.034875,-35.79335678541324,-18.903659109033253,0.0,0.0,0.0,3.0,1.2854273265870415
1.035,-10.419366608241955,-78.69546137437756,0.0,0.0,0.0,3.0,1.2854273265870415
1.035125,-63.35007618529061,148.81223718273415,0.0,0.0,0.0,3.0,1.2854273265870415
1.03525,9.225017809513556,33.11514818268682,0.0,0.0,0.0,3.0,1.2854273265870415
1.035375,55.60760860610985,-15.615161958217525,0.0,0.0,0.0,3.0,1.2854273265870415
1.0355,-29.51809095247466,-18.604754703899797,0.0,0.0,0.0,3.0,1.2854273265870415
1.035625,-100.7290191587994,77.06207413947834,0.0,0.0,0.0,3.0,1.2854273265870415
1.03575,100.35314758007733,-156.72376533821978,0.0,0.0,0.0,3.0,1.2854273265870415
1.035875,94.35069330942434,71.68079950655728,0.0,0.0,0.0,3.0,1.2854273265870415
1.036,-136.19808084687858,-13.522496729106576,0.0,0.0,0.0,3.0,1.2854273265870415
1.036125,-8.782382525357626,-29.36734242320635,0.0,0.0,0.0,3.0,1.2854273265870415
1.03625,91.34944433356245,-7.244396627790855,0.0,0.0,0.0,3.0,1.2854273265870415
1.036375,-107.00435273148251,-23.986080360909146,0.0,0.0,0.0,3.0,1.2854273265870415
1.0365,86.71117489982532,121.90582556466453,0.0,0.0,0.0,3.0,1.2854273265870415
1.036625,15.773082314459934,-86.16956451349219,0.0,0.0,0.0,3.0,1.2854273265870415
1.03675,9.770615153529047,-76.00497713018203,0.0,0.0,0.0,3.0,1.2854273265870415
1.036875,48.51373122159717,-13.82152359205198,0.0,0.0,0.0,3.0,1.2854273265870415
1.037,-142.7462623568382,-113.07586624437364,0.0,0.0,0.0,3.0,1.2854273265870415
1.037125,205.94168328284826,16.672248762696128,0.0,0.0,0.0,3.0,1.2854273265870415
1.03725,-200.86090645138407,-52.985167412907415,0.0,0.0,0.0,3.0,1.2854273265870415
1.037375,-36.61198681146307,-105.90091006021028,0.0,0.0,0.0,3.0,1.2854273265870415
1.0375,154.64798156037725,15.476396431356017,0.0,0.0,0.0,3.0,1.2854273265870415
1.037625,-82.44892484061651,-51.49042088125151,0.0,0.0,0.0,3.0,1.2854273265870415
1.03775,-37.97620917129122,40.588914562818445,0.0,0.0,0.0,3.0,1.2854273265870415
1.037875,139.64182346924872,-3.059096784021957,0.0,0.0,0.0,3.0,1.2854273265870415
1.038,22.59398244036557,-11.429943752989963,0.0,0.0,0.0,3.0,1.2854273265870415
1.038125,-115.18958491614968,-39.83105871763859,0.0,0.0,0.0,3.0,1.2854273265870415
1.03825,130.63812638089243,113.53484593306688,0.0,0.0,0.0,3.0,1.2854273265870415
1.038375,41.41985383708452,-76.90197608047707,0.0,0.0,0.0,3.0,1.2854273265870415
1.0385,22.048286565812564,77.061839428672,0.0,0.0,0.0,3.0,1.2854273265870415
1.038625,29.68775513618214,-121.44686391980045,0.0,0.0,0.0,3.0,1.2854273265870415
1.03875,65.4296278125863,80.64931241834486,0.0,0.0,0.0,3.0,1.2854273265870415
1.038875,-173.57711504484493,-119.6531517541051,0.0,0.0,0.0,3.0,1.2854273265870415
1.039,84.80117660938247,170.33696597517604,0.0,0.0,0.0,3.0,1.2854273265870415
1.039125,-85.99588759154658,-146.2605160995939,0.0,0.0,0.0,3.0,1.2854273265870415
1.03925,2.131017261828985,129.6785269643826,0.0,0.0,0.0,3.0,1.2854273265870415
1.039375,-159.6623941057752,64.50549872439943,0.0,0.0,0.0,3.0,1.2854273265870415
1.0395,79.89005923836882,74.3711306784878,0.0,0.0,0.0,3.0,1.2854273265870415
1.039625,-65.53300862723032,-10.832165557176051,0.0,0.0,0.0,3.0,1.2854273265870415
1.03975,42.23829296021795,7.1053477318408715,0.0,0.0,0.0,3.0,1.2854273265870415
1.039875,241.6834266379219,-137.29180145725923,0.0,0.0,0.0,3.0,1.2854273265870415
1.04,-123.10201341857179,-35.346823854283286,0.0,0.0,0.0,3.0,1.2854273265870415
1.040125,-66.07870450178332,-20.099937676909178,0.0,0.0,0.0,3.0,1.2854273265870415
1.04025,59.42711869246662,47.76372551372828,0.0,0.0,0.0,3.0,1.2854273265870415
1.040375,-60.894788458761965,-101.41676704021393,0.0,0.0,0.0,3.0,1.2854273265870415
1.0405,-82.99473772018288,66.29913945637112,0.0,0.0,0.0,3.0,1.2854273265870415
1.040625,67.06657494651904,-73.31466636788689,0.0,0.0,0.0,3.0,1.2854273265870415
1.04075,-3.052984995412701,82.44290996523968,0.0,0.0,0.0,3.0,1.2854273265870415
1.040875,-75.90095270804912,-13.821850146217326,0.0,0.0,0.0,3.0,1.2854273265870415
1.041,23.95803852991167,-142.37416384603532,0.0,0.0,0.0,3.0,1.2854273265870415
1.041125,36.50859983866048,54.938669127267836,0.0,0.0,0.0,3.0,1.2854273265870415
1.04125,37.32712632393557,-39.83131383808026,0.0,0.0,0.0,3.0,1.2854273265870415
1.041375,-194.58581304688613,-6.945831347446612,0.0,0.0,0.0,3.0,1.2854273265870415
1.0415,-15.33077957086811,36.104220482668076,0.0,0.0,0.0,3.0,1.2854273265870415
1.041625,151.10086370756102,-171.67218591762006,0.0,0.0,0.0,3.0,1.2854273265870415
1.04175,-176.85133569511592,81.84491746825476,0.0,0.0,0.0,3.0,1.2854273265870415
1.041875,-17.786344414533513,-63.449126257157516,0.0,0.0,0.0,3.0,1.2854273265870415
1.042,-85.17752236631627,33.41355255175459,0.0,0.0,0.0,3.0,1.2854273265870415
1.042125,128.72806035070502,101.27721574239204,0.0,0.0,0.0,3.0,1.2854273265870415
1.04225,70.61340952403992,-167.18787725473481,0.0,0.0,0.0,3.0,1.2854273265870415
1.042375,0.22098818059312775,2.0228346366059187,0.0,0.0,0.0,3.0,1.2854273265870415
1.0425,0.766653264353216,100.67924602084872,0.0,0.0,0.0,3.0,1.2854273265870415
1.042625,-10.965413497834849,-105.00447237488697,0.0,0.0,0.0,3.0,1.2854273265870415
1.04275,-34.156705243093015,23.24889373472076,0.0,0.0,0.0,3.0,1.2854273265870415
1.042875,86.43802521277766,-79.89192599477768,0.0,0.0,0.0,3.0,1.2854273265870415
1.043,-33.61104631749158,5.311349831250835,0.0,0.0,0.0,3.0,1.2854273265870415
1.043125,-130.1959708591462,51.649939631451915,0.0,0.0,0.0,3.0,1.2854273265870415
1.04325,89.98490848160665,-108.2930331204149,0.0,0.0,0.0,3.0,1.2854273265870415
1.043375,34.05294262261616,35.50615655195954,0.0,0.0,0.0,3.0,1.2854273265870415
1.0435,-108.64171747227833,111.74065650674734,0.0,0.0,0.0,3.0,1.2854273265870415
1.043625,57.78991291587292,-108.2930637348679,0.0,0.0,0.0,3.0,1.2854273265870415
1.04375,140.1872181679913,-21.89399444059907,0.0,0.0,0.0,3.0,1.2854273265870415
1.043875,29.414660872561857,-44.31591607487163,0.0,0.0,0.0,3.0,1.2854273265870415
1.044,13.590008234872549,53.74258445092753,0.0,0.0,0.0,3.0,1.2854273265870415
1.044125,-54.074005337869565,22.351886945414247,0.0,0.0,0.0,3.0,1.2854273265870415
1.04425,30.233175041519758,56.433191152935066,0.0,0.0,0.0,3.0,1.2854273265870415
1.044375,-105.91337858923957,35.80503034263994,0.0,0.0,0.0,3.0,1.2854273265870415
1.0445,-3.871702383604222,-64.64516227521564,0.0,0.0,0.0,3.0,1.2854273265870415
1.044625,1.857916840050106,-21.595082196454094,0.0,0.0,0.0,3.0,1.2854273265870415
1.04475,-15.0581040620322,-36.24407792501995,0.0,0.0,0.0,3.0,1.2854273265870415
1.044875,-96.6368889870341,-24.285757966379094,0.0,0.0,0.0,3.0,1.2854273265870415
1.045,87.25642738695956,37.00080103543877,0.0,0.0,0.0,3.0,1.2854273265870415
1.045125,-46.43457987461015,31.320581178113635,0.0,0.0,0.0,3.0,1.2854273265870415
1.04525,57.24416161789253,-17.11077353356892,0.0,0.0,0.0,3.0,1.2854273265870415
1.045375,77.97989467764391,-78.9952638034657,0.0,0.0,0.0,3.0,1.2854273265870415
1.0455,-104.27642028691098,58.82476078717947,0.0,0.0,0.0,3.0,1.2854273265870415
1.045625,-60.349375859504306,-11.729521676089387,0.0,0.0,0.0,3.0,1.2854273265870415
1.04575,83.43665307374387,0.5277819604200076,0.0,0.0,0.0,3.0,1.2854273265870415
1.045875,-0.8705267316847718,14.279862743038361,0.0,0.0,0.0,3.0,1.2854273265870415
1.046,-32.79268725041985,-49.099432921614124,0.0,0.0,0.0,3.0,1.2854273265870415
1.046125,58.33546099461968,53.144500110583664,0.0,0.0,0.0,3.0,1.2854273265870415
1.04625,103.08101228490432,-84.67554488969685,0.0,0.0,0.0,3.0,1.2854273265870415
1.046375,-163.20962781568343,67.19555436625295,0.0,0.0,0.0,3.0,1.2854273265870415
1.0465,137.73152342903472,3.2183478431568737,0.0,0.0,0.0,3.0,1.2854273265870415
1.046625,8.405950554203455,-104.10790439274014,0.0,0.0,0.0,3.0,1.2854273265870415
1.04675,-85.99626323922085,182.29469168858603,0.0,0.0,0.0,3.0,1.2854273265870415
1.046875,82.89091351812002,-29.36822003752571,0.0,0.0,0.0,3.0,1.2854273265870415
1.047,12.771353576188284,-3.6577525941552325,0.0,0.0,0.0,3.0,1.2854273265870415
1.047125,29.960197782912772,-37.1411663528678,0.0,0.0,0.0,3.0,1.2854273265870415
1.04725,69.52179493330314,60.020467885266044,0.0,0.0,0.0,3.0,1.2854273265870415
1.047375,-29.791511598500456,8.001619774275358,0.0,0.0,0.0,3.0,1.2854273265870415
1.0475,-10.965653666020037,-90.95379569747138,0.0,0.0,0.0,3.0,1.2854273265870415
1.047625,68.9761052169087,19.66097409887676,0.0,0.0,0.0,3.0,1.2854273265870415
1.04775,-101.2752877421017,-87.66524988837345,0.0,0.0,0.0,3.0,1.2854273265870415
1.047875,-13.42121850968544,-19.8016149463828,0.0,0.0,0.0,3.0,1.2854273265870415
1.048,-104.54937907104218,7.702585072318431,0.0,0.0,0.0,3.0,1.2854273265870415
1.048125,-38.795227161332505,9.496335691478258,0.0,0.0,0.0,3.0,1.2854273265870415
1.04825,-50.80015532503563,-67.63505096061024,0.0,0.0,0.0,3.0,1.2854273265870415
1.048375,26.14038594678484,8.89840442339934,0.0,0.0,0.0,3.0,1.2854273265870415
1.0485,-30.06440264288712,-121.74665377826474,0.0,0.0,0.0,3.0,1.2854273265870415
1.048625,38.690941097375116,88.12247671423412,0.0,0.0,0.0,3.0,1.2854273265870415
1.04875,-53.801397568778256,-23.98709063785818,0.0,0.0,0.0,3.0,1.2854273265870415
1.048875,56.15261476690029,104.56520265232449,0.0,0.0,0.0,3.0,1.2854273265870415
1.049,-102.09388196712132,19.959817275104157,0.0,0.0,0.0,3.0,1.2854273265870415
1.049125,-6.6003122256211535,-47.30592721807831,0.0,0.0,0.0,3.0,1.2854273265870415
1.04925,81.25376989707294,77.35991724357437,0.0,0.0,0.0,3.0,1.2854273265870415
1.049375,-18.332385145967812,-51.79033556333395,0.0,0.0,0.0,3.0,1.2854273265870415
1.0495,-102.0939065997557,10.991028833239621,0.0,0.0,0.0,3.0,1.2854273265870415
1.049625,22.320574110656963,-116.96340225678165,0.0,0.0,0.0,3.0,1.2854273265870415
1.04975,38.69088567394776,-79.89248725974937,0.0,0.0,0.0,3.0,1.2854273265870415
1.0498750000000001,131.45607342529894,-17.1111511118226,0.0,0.0,0.0,3.0,1.2854273265870415
1.05,-138.10864568791212,8.898271760769669,0.0,0.0,0.0,3.0,1.2854273265870415
1.050125,-264.97865930327583,148.5120571753923,0.0,0.0,0.0,3.0,1.2854273265870415
1.05025,46.876032792315925,-92.44879734956895,0.0,0.0,0.0,3.0,1.2854273265870415
1.050375,210.03360994839957,-12.9257594246947,0.0,0.0,0.0,3.0,1.2854273265870415
1.0505,-80.26684838272145,8.001364653833683,0.0,0.0,0.0,3.0,1.2854273265870415
1.050625,-55.711365068428165,-30.56434789894283,0.0,0.0,0.0,3.0,1.2854273265870415
1.05075,174.5645482603204,-36.84250686335835,0.0,0.0,0.0,3.0,1.2854273265870415
1.050875,-21.879373677453565,21.753425026816643,0.0,0.0,0.0,3.0,1.2854273265870415
1.051,4.585984764110716,42.97950453456682,0.0,0.0,0.0,3.0,1.2854273265870415
1.051125,90.53019175953385,39.391972681794165,0.0,0.0,0.0,3.0,1.2854273265870415
1.05125,97.89683759922198,1.1252438068862423,0.0,0.0,0.0,3.0,1.2854273265870415
1.051375,-104.82238096228355,-60.46029103378875,0.0,0.0,0.0,3.0,1.2854273265870415
1.0515,-51.34598667907771,-12.626895838831912,0.0,0.0,0.0,3.0,1.2854273265870415
1.051625,91.62152250101462,-39.832160837946624,0.0,0.0,0.0,3.0,1.2854273265870415
1.05175,-0.8708161651387158,-66.7384704078396,0.0,0.0,0.0,3.0,1.2854273265870415
1.051875,-52.71018325835012,84.5347179896666,0.0,0.0,0.0,3.0,1.2854273265870415
1.052,-23.51644282663685,-135.49900225194864,0.0,0.0,0.0,3.0,1.2854273265870415
1.052125,93.2585373746919,69.28780119783954,0.0,0.0,0.0,3.0,1.2854273265870415
1.05225,-69.89905209770899,-48.50200405540709,0.0,0.0,0.0,3.0,1.2854273265870415
1.052375,94.89555167440852,-69.42914854357075,0.0,0.0,0.0,3.0,1.2854273265870415
1.0525,43.874704334352955,38.79394957035625,0.0,0.0,0.0,3.0,1.2854273265870415
1.052625,-112.18908165143836,32.51581885458752,0.0,0.0,0.0,3.0,1.2854273265870415
1.05275,-1.9622336948004697,-65.24374665162519,0.0,0.0,0.0,3.0,1.2854273265870415
1.052875,71.43139294343736,56.13353159129425,0.0,0.0,0.0,3.0,1.2854273265870415
1.053,135.2756568355982,-86.76881220305015,0.0,0.0,0.0,3.0,1.2854273265870415
1.053125,-37.70413100383904,61.21580997572286,0.0,0.0,0.0,3.0,1.2854273265870415
1.05325,-154.47912352148498,58.22621723004053,0.0,0.0,0.0,3.0,1.2854273265870415
1.053375,147.28054747638905,-141.77726326454084,0.0,0.0,0.0,3.0,1.2854273265870415
1.0535,84.52762664202616,160.17117050387543,0.0,0.0,0.0,3.0,1.2854273265870415
1.053625,-116.28171679220841,-23.389577767303667,0.0,0.0,0.0,3.0,1.2854273265870415
1.05375,17.95494939496273,-4.854153619843161,0.0,0.0,0.0,3.0,1.2854273265870415
1.053875,-34.975785962641616,106.95646614203888,0.0,0.0,0.0,3.0,1.2854273265870415
1.054,-69.8991383119293,-136.993970923787,0.0,0.0,0.0,3.0,1.2854273265870415
1.054125,-85.72379094961862,29.526085607264115,0.0,0.0,0.0,3.0,1.2854273265870415
1.05425,50.695585985782834,27.732342827115755,0.0,0.0,0.0,3.0,1.2854273265870415
1.054375,-84.9052964030578,-47.90426667886385,0.0,0.0,0.0,3.0,1.2854273265870415
1.0545,-6.054905784522093,-18.606305836185182,0.0,0.0,0.0,3.0,1.2854273265870415
1.054625,110.72008730708453,-148.35449775018395,0.0,0.0,0.0,3.0,1.2854273265870415
1.05475,-22.425235822288677,96.1938862617438,0.0,0.0,0.0,3.0,1.2854273265870415
1.054875,-85.72382789857018,-162.10658089860846,0.0,0.0,0.0,3.0,1.2854273265870415
1.055,51.24122027874992,152.09916671113493,0.0,0.0,0.0,3.0,1.2854273265870415
1.055125,-51.891836507595585,-26.977221873070658,0.0,0.0,0.0,3.0,1.2854273265870415
1.05525,62.9732685664622,-6.648008652985859,0.0,0.0,0.0,3.0,1.2854273265870415
1.055375,-13.694423620160427,38.49475943032811,0.0,0.0,0.0,3.0,1.2854273265870415
1.0555,-9.601843902817778,-114.57218195214412,0.0,0.0,0.0,3.0,1.2854273265870415
1.055625,-9.874685681935686,-34.1522777396045,0.0,0.0,0.0,3.0,1.2854273265870415
1.05575,25.321489971994133,157.77932925905978,0.0,0.0,0.0,3.0,1.2854273265870415
1.055875,26.140016457269166,-102.6138824031386,0.0,0.0,0.0,3.0,1.2854273265870415
1.056,106.08176244992006,75.86456078866466,0.0,0.0,0.0,3.0,1.2854273265870415
1.056125,-45.07091790721417,14.279025947989664,0.0,0.0,0.0,3.0,1.2854273265870415
1.05625,52.87819820347563,-150.74627384658783,0.0,0.0,0.0,3.0,1.2854273265870415
1.056375,4.040048721372524,124.5948301102983,0.0,0.0,0.0,3.0,1.2854273265870415
1.0565,-55.98449012284142,-45.51276847834311,0.0,0.0,0.0,3.0,1.2854273265870415
1.056625,-21.06112430931523,-137.5920960834016,0.0,0.0,0.0,3.0,1.2854273265870415
1.05675,49.604094558217945,63.00927485998801,0.0,0.0,0.0,3.0,1.2854273265870415
1.056875,5.131366572575455,-95.7379044236385,0.0,0.0,0.0,3.0,1.2854273265870415
1.057,-108.64238255340655,41.78316473778484,0.0,0.0,0.0,3.0,1.2854273265870415
1.057125,36.23497597340106,5.3101966868544626,0.0,0.0,0.0,3.0,1.2854273265870415
1.05725,81.5262113958822,7.701829915811072,0.0,0.0,0.0,3.0,1.2854273265870415
1.057375,-78.90298319609184,-23.987794770277205,0.0,0.0,0.0,3.0,1.2854273265870415
1.0575,-42.342603656809715,51.9477497552888,0.0,0.0,0.0,3.0,1.2854273265870415
1.057625,37.87199084707831,-35.946173592017864,0.0,0.0,0.0,3.0,1.2854273265870415
1.05775,-107.00540577660217,-22.19409280939951,0.0,0.0,0.0,3.0,1.2854273265870415
1.057875,12.770817816390558,100.37903539905389,0.0,0.0,0.0,3.0,1.2854273265870415
1.058,-19.424178323303835,-103.51092217270426,0.0,0.0,0.0,3.0,1.2854273265870415
1.058125,-15.6044342269205,110.54361257754638,0.0,0.0,0.0,3.0,1.2854273265870415
1.05825,-81.0857370514323,39.98933011427747,0.0,0.0,0.0,3.0,1.2854273265870415
1.058375,194.2085693467188,13.381975973606341,0.0,0.0,0.0,3.0,1.2854273265870415
1.0585,-238.51373308073448,-70.9244539743922,0.0,0.0,0.0,3.0,1.2854273265870415
1.058625,92.43969739728914,29.22676280460631,0.0,0.0,0.0,3.0,1.2854273265870415
1.05875,82.89032849305354,52.545558565555716,0.0,0.0,0.0,3.0,1.2854273265870415
1.058875,-123.64861454243824,-64.34738040002554,0.0,0.0,0.0,3.0,1.2854273265870415
1.059,59.153359347718094,-0.37019428656481423,0.0,0.0,0.0,3.0,1.2854273265870415
1.059125,22.59294171156309,77.65806649220048,0.0,0.0,0.0,3.0,1.2854273265870415
1.05925,110.44702383425722,23.247546698788714,0.0,0.0,0.0,3.0,1.2854273265870415
1.059375,-122.55729669123531,76.76117979489982,0.0,0.0,0.0,3.0,1.2854273265870415
1.0595,52.87803809135217,-69.72868564739956,0.0,0.0,0.0,3.0,1.2854273265870415
1.059625,47.96693919481434,-22.194245881664518,0.0,0.0,0.0,3.0,1.2854273265870415
1.05975,-102.91291843163839,-18.90568986774899,0.0,0.0,0.0,3.0,1.2854273265870415
1.059875,100.35195905546858,25.639167357121455,0.0,0.0,0.0,3.0,1.2854273265870415
1.06,-16.96870470409604,98.58512934182285,0.0,0.0,0.0,3.0,1.2854273265870415
1.060125,-179.58064871513392,-76.30584086030754,0.0,0.0,0.0,3.0,1.2854273265870415
1.06025,99.26058520687765,-3.6588343048279364,0.0,0.0,0.0,3.0,1.2854273265870415
1.060375,92.43961118306882,22.649543996986125,0.0,0.0,0.0,3.0,1.2854273265870415
1.0605,22.047202729899922,15.474518744905286,0.0,0.0,0.0,3.0,1.2854273265870415
1.060625,-133.74374763493205,36.40161457478681,0.0,0.0,0.0,3.0,1.2854273265870415
1.06075,32.14221151130052,38.79327605239022,0.0,0.0,0.0,3.0,1.2854273265870415
1.060875,200.7565784282378,-64.64649910633001,0.0,0.0,0.0,3.0,1.2854273265870415
1.061,-119.55613335563305,69.28707665578519,0.0,0.0,0.0,3.0,1.2854273265870415
1.061125,-131.01539027741748,22.649482768080123,0.0,0.0,0.0,3.0,1.2854273265870415
1.06125,5.131151037024646,120.11004418678897,0.0,0.0,0.0,3.0,1.2854273265870415
1.061375,108.2642083973308,-92.7486892562099,0.0,0.0,0.0,3.0,1.2854273265870415
1.0615,-31.429246976733268,-28.77147489410237,0.0,0.0,0.0,3.0,1.2854273265870415
1.061625,-62.53287485203466,49.256757636016175,0.0,0.0,0.0,3.0,1.2854273265870415
1.06175,-7.146605441557886,-105.30498914121176,0.0,0.0,0.0,3.0,1.2854273265870415
1.061875,96.8049587816263,-47.00801268025855,0.0,0.0,0.0,3.0,1.2854273265870415
1.062,-64.16993283282213,-22.493395202421983,0.0,0.0,0.0,3.0,1.2854273265870415
1.062125,103.35307870999999,50.75152221150121,0.0,0.0,0.0,3.0,1.2854273265870415
1.06225,84.80003119188389,28.0306451480068,0.0,0.0,0.0,3.0,1.2854273265870415
1.062375,-48.61814044872651,46.267113866245516,0.0,0.0,0.0,3.0,1.2854273265870415
1.0625,-33.884842611191644,100.9765969278906,0.0,0.0,0.0,3.0,1.2854273265870415
1.062625,85.07284833836741,-80.49147746305945,0.0,0.0,0.0,3.0,1.2854273265870415
1.06275,-50.8008696714326,100.37863741116487,0.0,0.0,0.0,3.0,1.2854273265870415
1.062875,-213.68562352287412,28.62850498236205,0.0,0.0,0.0,3.0,1.2854273265870415
1.063,119.45051770337989,-120.55195932293336,0.0,0.0,0.0,3.0,1.2854273265870415
1.063125,113.17522781176756,27.731618285061398,0.0,0.0,0.0,3.0,1.2854273265870415
1.06325,-104.2772947454314,-76.30609598074922,0.0,0.0,0.0,3.0,1.2854273265870415
1.063375,0.2199536099492425,67.19416651105023,0.0,0.0,0.0,3.0,1.2854273265870415
1.0635,67.61111924541486,36.10242443475868,0.0,0.0,0.0,3.0,1.2854273265870415
1.063625,67.61111308725626,52.84411600688849,0.0,0.0,0.0,3.0,1.2854273265870415
1.06375,-63.62432202456808,74.96706180230399,0.0,0.0,0.0,3.0,1.2854273265870415
1.063875,-83.814396158718,-83.78011748132252,0.0,0.0,0.0,3.0,1.2854273265870415
1.064,75.2505951218644,-4.854990414891857,0.0,0.0,0.0,3.0,1.2854273265870415
1.064125,-49.98240476774345,25.04090953487719,0.0,0.0,0.0,3.0,1.2854273265870415
1.06425,-148.20436881570976,-37.142564412888184,0.0,0.0,0.0,3.0,1.2854273265870415
1.064375,92.16657850103448,-66.44054566520218,0.0,0.0,0.0,3.0,1.2854273265870415
1.0645,39.23585603370795,4.412700066299934,0.0,0.0,0.0,3.0,1.2854273265870415
1.064625,-1.4171474779483264,-91.85206004515707,0.0,0.0,0.0,3.0,1.2854273265870415
1.06475,-36.06766420627665,-23.39048599607603,0.0,0.0,0.0,3.0,1.2854273265870415
1.064875,74.70488077283558,73.77111999341102,0.0,0.0,0.0,3.0,1.2854273265870415
1.065,46.32963488768311,-55.37910456485051,0.0,0.0,0.0,3.0,1.2854273265870415
1.065125,-58.71329702593338,-55.08015934044644,0.0,0.0,0.0,3.0,1.2854273265870415
1.06525,47.96666207767758,34.90645985042423,0.0,0.0,0.0,3.0,1.2854273265870415
1.065375,53.69625552077619,-34.45202914460432,0.0,0.0,0.0,3.0,1.2854273265870415
1.0655000000000001,-131.0156058129683,70.78148642845808,0.0,0.0,0.0,3.0,1.2854273265870415
1.065625,8.13217889313777,-11.73115444691611,0.0,0.0,0.0,3.0,1.2854273265870415
1.06575,93.2578661354051,-121.74806204310279,0.0,0.0,0.0,3.0,1.2854273265870415
1.065875,-23.244290761281533,77.65751543204645,0.0,0.0,0.0,3.0,1.2854273265870415
1.066,-29.519593543171734,13.08239805050686,0.0,0.0,0.0,3.0,1.2854273265870415
1.066125,-11.785078094528622,35.50429927514414,0.0,0.0,0.0,3.0,1.2854273265870415
1.06625,21.228412591726578,-9.339533788583426,0.0,0.0,0.0,3.0,1.2854273265870415
1.066375,59.152996016361016,8.89693492965529,0.0,0.0,0.0,3.0,1.2854273265870415
1.0665,-53.529436406339364,11.2885964072587,0.0,0.0,0.0,3.0,1.2854273265870415
1.066625,-48.618349826118724,-47.606311321773426,0.0,0.0,0.0,3.0,1.2854273265870415
1.06675,143.73298681011465,11.886486856066892,0.0,0.0,0.0,3.0,1.2854273265870415
1.066875,4.858038298928521,-22.792748619532787,0.0,0.0,0.0,3.0,1.2854273265870415
1.067,-132.37985781566806,30.12297361813474,0.0,0.0,0.0,3.0,1.2854273265870415
1.067125,47.148037061864976,-82.88348827026975,0.0,0.0,0.0,3.0,1.2854273265870415
1.06725,31.323384424175668,42.67922247904831,0.0,0.0,0.0,3.0,1.2854273265870415
1.067375,-95.5466549717438,84.2344971630541,0.0,0.0,0.0,3.0,1.2854273265870415
1.0675,31.32337210785848,-22.49384421439933,0.0,0.0,0.0,3.0,1.2854273265870415
1.067625,-27.60979847196247,64.80214786482847,0.0,0.0,0.0,3.0,1.2854273265870415
1.06775,-120.64783416059015,-29.96783510051963,0.0,0.0,0.0,3.0,1.2854273265870415
1.067875,79.34297720417136,72.87400879012169,0.0,0.0,0.0,3.0,1.2854273265870415
1.068,-121.46635333978534,-116.6659186871101,0.0,0.0,0.0,3.0,1.2854273265870415
1.068125,33.778887686255125,64.20419618711422,0.0,0.0,0.0,3.0,1.2854273265870415
1.06825,-26.791322399877448,34.00932039848805,0.0,0.0,0.0,3.0,1.2854273265870415
1.068375,93.80340805599326,8.896771652572617,0.0,0.0,0.0,3.0,1.2854273265870415
1.0685,-17.241984860395473,65.99789814799192,0.0,0.0,0.0,3.0,1.2854273265870415
1.068625,-96.63805903716705,-64.64713180502537,0.0,0.0,0.0,3.0,1.2854273265870415
1.06875,125.99836667277543,26.535309102732413,0.0,0.0,0.0,3.0,1.2854273265870415
1.068875,35.14305462265587,-65.54401850232603,0.0,0.0,0.0,3.0,1.2854273265870415
1.069,-146.02191785806173,-78.39928165556118,0.0,0.0,0.0,3.0,1.2854273265870415
1.069125,0.765341576572576,10.092532140553725,0.0,0.0,0.0,3.0,1.2854273265870415
1.06925,116.7218278053012,-20.102315399425592,0.0,0.0,0.0,3.0,1.2854273265870415
1.069375,-160.2095433057566,-64.34823760470958,0.0,0.0,0.0,3.0,1.2854273265870415
1.0695000000000001,146.4612333207745,-13.226276191019545,0.0,0.0,0.0,3.0,1.2854273265870415
1.069625,-39.06912198557014,147.31462938262572,0.0,0.0,0.0,3.0,1.2854273265870415
1.06975,-143.56640843782367,-11.731491205899122,0.0,0.0,0.0,3.0,1.2854273265870415
1.069875,74.7046344464918,66.89468043130975,0.0,0.0,0.0,3.0,1.2854273265870415
1.07,42.50963830679738,30.12272870251073,0.0,0.0,0.0,3.0,1.2854273265870415
1.070125,1.038153712818821,-38.03991032698385,0.0,0.0,0.0,3.0,1.2854273265870415
1.07025,-166.48488303659832,128.48017445271404,0.0,0.0,0.0,3.0,1.2854273265870415
1.070375,-19.697623601964008,35.20499688212168,0.0,0.0,0.0,3.0,1.2854273265870415
1.0705,119.45014821386421,-58.36913611769252,0.0,0.0,0.0,3.0,1.2854273265870415
1.070625,-166.75771135147772,126.68638301428355,0.0,0.0,0.0,3.0,1.2854273265870415
1.07075,97.6230413055219,-136.69641118877945,0.0,0.0,0.0,3.0,1.2854273265870415
1.070875,165.83272669414333,23.24659765074568,0.0,0.0,0.0,3.0,1.2854273265870415
1.071,-50.52841470838478,34.308051321721166,0.0,0.0,0.0,3.0,1.2854273265870415
1.071125,67.33790797678128,-71.82235094864188,0.0,0.0,0.0,3.0,1.2854273265870415
1.07125,19.591126759071173,168.54057230824046,0.0,0.0,0.0,3.0,1.2854273265870415
1.071375,-9.329790367999973,-197.98303141950328,0.0,0.0,0.0,3.0,1.2854273265870415
1.0715,158.1932082845443,117.7175357093192,0.0,0.0,0.0,3.0,1.2854273265870415
1.071625,-88.99873210444515,-30.2671068790891,0.0,0.0,0.0,3.0,1.2854273265870415
1.07175,-97.72958125552492,-10.236877336872892,0.0,0.0,0.0,3.0,1.2854273265870415
1.071875,56.15148166571889,85.13099607728346,0.0,0.0,0.0,3.0,1.2854273265870415
1.072,40.053993407070244,-25.78274955792174,0.0,0.0,0.0,3.0,1.2854273265870415
1.072125,-25.70014503840088,-2.1650266163973444,0.0,0.0,0.0,3.0,1.2854273265870415
1.07225,116.17599587729843,13.08188780962351,0.0,0.0,0.0,3.0,1.2854273265870415
1.072375,-58.44081857817255,-64.0495270911118,0.0,0.0,0.0,3.0,1.2854273265870415
1.0725,55.87861525396661,66.29652702304836,0.0,0.0,0.0,3.0,1.2854273265870415
1.072625,93.53036305764171,-41.92659150051397,0.0,0.0,0.0,3.0,1.2854273265870415
1.07275,-56.25812630441803,-73.01830532815866,0.0,0.0,0.0,3.0,1.2854273265870415
1.072875,-91.18150443426141,93.20279577367062,0.0,0.0,0.0,3.0,1.2854273265870415
1.073,8.677486803699374,-103.5121467508243,0.0,0.0,0.0,3.0,1.2854273265870415
1.073125,-5.237290706718998,-25.184930542837215,0.0,0.0,0.0,3.0,1.2854273265870415
1.07325,35.41567470806437,-15.02034315952705,0.0,0.0,0.0,3.0,1.2854273265870415
1.073375,9.768810813060842,-95.14134060112701,0.0,0.0,0.0,3.0,1.2854273265870415
1.0735,135.54749540882585,76.76002665050345,0.0,0.0,0.0,3.0,1.2854273265870415
1.073625,44.14649922650979,-13.824523808446084,0.0,0.0,0.0,3.0,1.2854273265870415
1.07375,-107.82470088378028,-6.051608107556994,0.0,0.0,0.0,3.0,1.2854273265870415
1.073875,93.8031370970151,-9.04120085323932,0.0,0.0,0.0,3.0,1.2854273265870415
1.074,-63.62482699357283,-25.185001976560883,0.0,0.0,0.0,3.0,1.2854273265870415
1.074125,-198.95284798089847,69.58496057915188,0.0,0.0,0.0,3.0,1.2854273265870415
1.07425,33.77858593648399,25.637993803089746,0.0,0.0,0.0,3.0,1.2854273265870415
1.074375,-54.34833123320876,52.24532753412554,0.0,0.0,0.0,3.0,1.2854273265870415
1.0745,102.80678492010264,-0.07250425473378974,0.0,0.0,0.0,3.0,1.2854273265870415
1.074625,4.584820872136345,43.575486682471336,0.0,0.0,0.0,3.0,1.2854273265870415
1.07475,62.69947227276211,-14.123571081026878,0.0,0.0,0.0,3.0,1.2854273265870415
1.074875,-28.42868828859464,-120.85191245848031,0.0,0.0,0.0,3.0,1.2854273265870415
1.075,25.0477059946112,42.379634351131166,0.0,0.0,0.0,3.0,1.2854273265870415
1.0751249999999999,3.493453755664658,-16.81425705576955,0.0,0.0,0.0,3.0,1.2854273265870415
1.07525,93.2573981153519,-111.58424002111765,0.0,0.0,0.0,3.0,1.2854273265870415
1.075375,-139.20123827794413,141.03602532573862,0.0,0.0,0.0,3.0,1.2854273265870415
1.0755,31.59581360666774,-117.26444183461366,0.0,0.0,0.0,3.0,1.2854273265870415
1.075625,-5.510249490850201,52.544180915170664,0.0,0.0,0.0,3.0,1.2854273265870415
1.07575,-171.3962467339557,35.80246893340552,0.0,0.0,0.0,3.0,1.2854273265870415
1.075875,92.98451881332174,37.5962195525654,0.0,0.0,0.0,3.0,1.2854273265870415
1.076,98.98697365793542,14.277403381980609,0.0,0.0,0.0,3.0,1.2854273265870415
1.076125,-184.49252969781327,33.4107666365315,0.0,0.0,0.0,3.0,1.2854273265870415
1.07625,56.96979877360177,-15.020588075151057,0.0,0.0,0.0,3.0,1.2854273265870415
1.076375,161.19418572746739,-14.422687421525142,0.0,0.0,0.0,3.0,1.2854273265870415
1.0765,-101.54953973953775,23.84404929239419,0.0,0.0,0.0,3.0,1.2854273265870415
1.076625,-20.51643837277173,19.65860658117801,0.0,0.0,0.0,3.0,1.2854273265870415
1.07675,-2.2362516822099945,-23.989376517015593,0.0,0.0,0.0,3.0,1.2854273265870415
1.076875,12.497046155324872,-44.01965471751393,0.0,0.0,0.0,3.0,1.2854273265870415
1.077,68.97465804963899,-38.33942702117733,0.0,0.0,0.0,3.0,1.2854273265870415
1.077125,-140.01985713559813,-38.339437225995,0.0,0.0,0.0,3.0,1.2854273265870415
1.07725,70.3388496186741,20.256494664180003,0.0,0.0,0.0,3.0,1.2854273265870415
1.077375,5.40321803608095,-74.81244373038989,0.0,0.0,0.0,3.0,1.2854273265870415
1.0775,-24.06339611346451,4.4116387652625635,0.0,0.0,0.0,3.0,1.2854273265870415
1.077625,58.33390913865385,41.78148094286978,0.0,0.0,0.0,3.0,1.2854273265870415
1.07775,-33.88559390654018,57.62630622733421,0.0,0.0,0.0,3.0,1.2854273265870415
1.077875,-80.81386826137235,-62.55517070833344,0.0,0.0,0.0,3.0,1.2854273265870415
1.078,124.63371997396497,220.85782870780469,0.0,0.0,0.0,3.0,1.2854273265870415
1.078125,65.15485237166968,-69.43125073601016,0.0,0.0,0.0,3.0,1.2854273265870415
1.07825,-68.26329348838497,137.1493276620789,0.0,0.0,0.0,3.0,1.2854273265870415
1.078375,-92.81878911899551,-110.68760060524721,0.0,0.0,0.0,3.0,1.2854273265870415
1.0785,-44.52634897568391,-31.762473538816543,0.0,0.0,0.0,3.0,1.2854273265870415
1.078625,37.598120655475114,58.52310108127592,0.0,0.0,0.0,3.0,1.2854273265870415
1.07875,-49.71028965133971,-7.845777124241225,0.0,0.0,0.0,3.0,1.2854273265870415
1.078875,-26.51901022239867,-5.753071075859607,0.0,0.0,0.0,3.0,1.2854273265870415
1.079,85.61772575178803,24.14280062526264,0.0,0.0,0.0,3.0,1.2854273265870415
1.079125,-58.16831549777734,5.90631149738865,0.0,0.0,0.0,3.0,1.2854273265870415
1.07925,129.27191550979896,71.67725843482683,0.0,0.0,0.0,3.0,1.2854273265870415
1.079375,-31.157291972452974,50.15220308821958,0.0,0.0,0.0,3.0,1.2854273265870415
1.0795,-39.61530550257343,21.452132694349164,0.0,0.0,0.0,3.0,1.2854273265870415
1.079625,95.4398933280314,-55.38029852851755,0.0,0.0,0.0,3.0,1.2854273265870415
1.07975,5.403101031067653,23.544828537913112,0.0,0.0,0.0,3.0,1.2854273265870415
1.079875,-21.8808023702475,16.9677141442758,0.0,0.0,0.0,3.0,1.2854273265870415
1.08,-109.18921267706232,-21.00005930141033,0.0,0.0,0.0,3.0,1.2854273265870415
1.080125,26.13882177450182,-113.07938690646877,0.0,0.0,0.0,3.0,1.2854273265870415
1.08025,12.49687988504282,-19.505302564936763,0.0,0.0,0.0,3.0,1.2854273265870415
1.080375,-150.1150383454394,-94.24501753460419,0.0,0.0,0.0,3.0,1.2854273265870415
1.0805,19.590671055335175,-30.56678685036525,0.0,0.0,0.0,3.0,1.2854273265870415
1.080625,130.6360387651289,173.32315031175756,0.0,0.0,0.0,3.0,1.2854273265870415
1.08075,-51.62026330914815,-105.30654027349715,0.0,0.0,0.0,3.0,1.2854273265870415
1.080875,22.04619895004901,68.08960412424216,0.0,0.0,0.0,3.0,1.2854273265870415
1.081,-7.6932250399000734,97.38756496692083,0.0,0.0,0.0,3.0,1.2854273265870415
1.0811250000000001,-79.44982448814349,4.710298254772011,0.0,0.0,0.0,3.0,1.2854273265870415
1.08125,132.54588310160688,-73.31798293362867,0.0,0.0,0.0,3.0,1.2854273265870415
1.081375,115.62987508980241,-26.68040945555894,0.0,0.0,0.0,3.0,1.2854273265870415
1.0815,-85.45230396539151,-3.9595245530530647,0.0,0.0,0.0,3.0,1.2854273265870415
1.081625,4.58447601525505,17.266526706050254,0.0,0.0,0.0,3.0,1.2854273265870415
1.08175,93.25707789110498,-81.68886051704962,0.0,0.0,0.0,3.0,1.2854273265870415
1.081875,14.133813554737026,26.83319302609917,0.0,0.0,0.0,3.0,1.2854273265870415
1.082,-88.18071058817482,-40.1335960378615,0.0,0.0,0.0,3.0,1.2854273265870415
1.082125,49.60284445202325,24.74045636326455,0.0,0.0,0.0,3.0,1.2854273265870415
1.08225,113.17428561350259,64.80095390116144,0.0,0.0,0.0,3.0,1.2854273265870415
1.082375,-75.35732597478382,-67.33888144661155,0.0,0.0,0.0,3.0,1.2854273265870415
1.0825,-66.89932476098056,113.23227799839096,0.0,0.0,0.0,3.0,1.2854273265870415
1.082625,188.4777621724164,-15.021108520852076,0.0,0.0,0.0,3.0,1.2854273265870415
1.08275,24.228817325900398,6.802881845341625,0.0,0.0,0.0,3.0,1.2854273265870415
1.082875,-99.09430743643645,70.78006795880236,0.0,0.0,0.0,3.0,1.2854273265870415
1.083,-12.058745066898199,-27.577408405853987,0.0,0.0,0.0,3.0,1.2854273265870415
1.083125,118.35817086573101,-49.10246375246123,0.0,0.0,0.0,3.0,1.2854273265870415
1.08325,-102.64124054449486,2.0194976612288036,0.0,0.0,0.0,3.0,1.2854273265870415
1.083375,-10.421749815618048,-55.97854378013795,0.0,0.0,0.0,3.0,1.2854273265870415
1.0835,48.784269849400744,71.07897236393582,0.0,0.0,0.0,3.0,1.2854273265870415
1.083625,29.95839960060316,-29.072264824698024,0.0,0.0,0.0,3.0,1.2854273265870415
1.08375,-14.787164005998699,53.73933931890942,0.0,0.0,0.0,3.0,1.2854273265870415
1.083875,-13.150156438401359,-86.7713327930139,0.0,0.0,0.0,3.0,1.2854273265870415
1.084,32.95959873723562,-9.340982872692141,0.0,0.0,0.0,3.0,1.2854273265870415
1.084125,-70.9919906925436,-26.08269485445723,0.0,0.0,0.0,3.0,1.2854273265870415
1.08425,21.227525816888964,8.895475640728906,0.0,0.0,0.0,3.0,1.2854273265870415
1.084375,38.96204126553207,95.59352861286632,0.0,0.0,0.0,3.0,1.2854273265870415
1.0845,-93.91045913315963,-191.70595416576052,0.0,0.0,0.0,3.0,1.2854273265870415
1.084625,33.50523918836133,138.64359848681016,0.0,0.0,0.0,3.0,1.2854273265870415
1.08475,-85.72529969847429,-70.0297024497901,0.0,0.0,0.0,3.0,1.2854273265870415
1.084875,-116.01042071089768,22.64754385272339,0.0,0.0,0.0,3.0,1.2854273265870415
1.085,-18.061304600207947,15.47251860064255,0.0,0.0,0.0,3.0,1.2854273265870415
1.0851250000000001,8.13121822039702,-128.32671973001402,0.0,0.0,0.0,3.0,1.2854273265870415
1.08525,-60.624163616738095,158.37483178053392,0.0,0.0,0.0,3.0,1.2854273265870415
1.085375,-86.54386313270093,-12.629661344419674,0.0,0.0,0.0,3.0,1.2854273265870415
1.0855,-60.0785046911366,-35.94844926635761,0.0,0.0,0.0,3.0,1.2854273265870415
1.085625,147.00612305051231,-27.2786672778032,0.0,0.0,0.0,3.0,1.2854273265870415
1.08575,40.5989872515435,43.57457845369897,0.0,0.0,0.0,3.0,1.2854273265870415
1.085875,-18.06134770731811,-41.92767321118667,0.0,0.0,0.0,3.0,1.2854273265870415
1.086,37.05208608219938,-75.71004239912104,0.0,0.0,0.0,3.0,1.2854273265870415
1.086125,8.94967581800626,73.17147431596409,0.0,0.0,0.0,3.0,1.2854273265870415
1.08625,-115.73765282968292,-38.34018217768469,0.0,0.0,0.0,3.0,1.2854273265870415
1.086375,61.06186005770116,-9.939115871318197,0.0,0.0,0.0,3.0,1.2854273265870415
1.0865,-7.420660377918921,24.441143765424414,0.0,0.0,0.0,3.0,1.2854273265870415
1.086625,-13.695963159809065,-107.39973615312678,0.0,0.0,0.0,3.0,1.2854273265870415
1.08675,-94.72907684289228,125.4892448759174,0.0,0.0,0.0,3.0,1.2854273265870415
1.086875,1.3101641405264637,22.647380575640717,0.0,0.0,0.0,3.0,1.2854273265870415
1.087,-34.70455647315417,-65.24654277166594,0.0,0.0,0.0,3.0,1.2854273265870415
1.087125,105.2617093152742,-31.165238564145184,0.0,0.0,0.0,3.0,1.2854273265870415
1.08725,-77.26741548968431,-18.31002406919215,0.0,0.0,0.0,3.0,1.2854273265870415
1.087375,44.14582182906439,-23.39233306807376,0.0,0.0,0.0,3.0,1.2854273265870415
1.0875,11.405154447451338,10.688971139447057,0.0,0.0,0.0,3.0,1.2854273265870415
1.087625,4.857016044601824,-43.42259322474291,0.0,0.0,0.0,3.0,1.2854273265870415
1.08775,-27.883625556455506,22.049370034826666,0.0,0.0,0.0,3.0,1.2854273265870415
1.087875,-2.7824710002435356,58.82130135399035,0.0,0.0,0.0,3.0,1.2854273265870415
1.088,-144.3857886113007,5.008692419022117,0.0,0.0,0.0,3.0,1.2854273265870415
1.088125,99.25921193751105,62.707758021531795,0.0,0.0,0.0,3.0,1.2854273265870415
1.08825,-13.150371973952169,7.1013882625860685,0.0,0.0,0.0,3.0,1.2854273265870415
1.088375,-80.54154992573497,-12.629906260043683,0.0,0.0,0.0,3.0,1.2854273265870415
1.0885,145.9146260387495,1.1222027712214708,0.0,0.0,0.0,3.0,1.2854273265870415
1.088625,-9.330640193886023,-56.27792781170175,0.0,0.0,0.0,3.0,1.2854273265870415
1.08875,-94.18350413151116,-39.83519166879373,0.0,0.0,0.0,3.0,1.2854273265870415
1.088875,-51.347827968497484,25.337844410200915,0.0,0.0,0.0,3.0,1.2854273265870415
1.089,-19.152844145120284,2.019028239616121,0.0,0.0,0.0,3.0,1.2854273265870415
1.089125,77.7049037011765,29.224272829095558,0.0,0.0,0.0,3.0,1.2854273265870415
1.08925,-52.43918892681058,-5.1560072172823865,0.0,0.0,0.0,3.0,1.2854273265870415
1.089375,46.874105288675835,-73.31864624677702,0.0,0.0,0.0,3.0,1.2854273265870415
1.0895,38.688927379514695,13.379434974007253,0.0,0.0,0.0,3.0,1.2854273265870415
1.089625,55.05926472336119,13.379424769189585,0.0,0.0,0.0,3.0,1.2854273265870415
1.08975,45.237047307888396,7.101265804774064,0.0,0.0,0.0,3.0,1.2854273265870415
1.089875,-24.88251263404337,-49.40197024183704,0.0,0.0,0.0,3.0,1.2854273265870415
1.09,-50.529350748491154,99.77850190246988,0.0,0.0,0.0,3.0,1.2854273265870415
1.090125,-22.972649823089565,4.4106080786781945,0.0,0.0,0.0,3.0,1.2854273265870415
1.09025,95.43936988455087,18.76062796838693,0.0,0.0,0.0,3.0,1.2854273265870415
1.090375,-15.060351789919212,25.636677381610703,0.0,0.0,0.0,3.0,1.2854273265870415
1.0905,-34.15905765967614,16.966846734774105,0.0,0.0,0.0,3.0,1.2854273265870415
1.090625,16.0432576109064,7.99808890736257,0.0,0.0,0.0,3.0,1.2854273265870415
1.0907499999999999,-55.44050621637765,21.45121426075913,0.0,0.0,0.0,3.0,1.2854273265870415
1.090875,-40.43437275788352,24.440786596806067,0.0,0.0,0.0,3.0,1.2854273265870415
1.091,37.32467537681494,164.95145242341746,0.0,0.0,0.0,3.0,1.2854273265870415
1.091125,18.771640748976644,-85.87505838477321,0.0,0.0,0.0,3.0,1.2854273265870415
1.09125,0.21858034058265674,109.94299744242105,0.0,0.0,0.0,3.0,1.2854273265870415
1.091375,20.40864215841539,-20.104121652152656,0.0,0.0,0.0,3.0,1.2854273265870415
1.0915,-39.6158966857985,48.95536325537197,0.0,0.0,0.0,3.0,1.2854273265870415
1.091625,-11.240663116963228,80.64499578047172,0.0,0.0,0.0,3.0,1.2854273265870415
1.09175,92.98373672718024,-74.8136172844216,0.0,0.0,0.0,3.0,1.2854273265870415
1.091875,0.49138517074905397,182.88891860785176,0.0,0.0,0.0,3.0,1.2854273265870415
1.092,-185.58465426779208,-45.81462207578234,0.0,0.0,0.0,3.0,1.2854273265870415
1.092125,168.01439055541255,-21.001049168724034,0.0,0.0,0.0,3.0,1.2854273265870415
1.09225,122.99597843757354,86.02619897966906,0.0,0.0,0.0,3.0,1.2854273265870415
1.092375,-160.48348624734163,-7.547934020145139,0.0,0.0,0.0,3.0,1.2854273265870415
1.0925,25.592540874882335,-20.40316892473345,0.0,0.0,0.0,3.0,1.2854273265870415
1.092625,75.79485614546486,-13.82607494073147,0.0,0.0,0.0,3.0,1.2854273265870415
1.09275,-13.96910053053951,-125.63671511224885,0.0,0.0,0.0,3.0,1.2854273265870415
1.092875,102.80587967078924,82.73760998549433,0.0,0.0,0.0,3.0,1.2854273265870415
1.093,-47.52828093318918,23.244791398018616,0.0,0.0,0.0,3.0,1.2854273265870415
1.093125,-74.53932293298928,39.68752754092664,0.0,0.0,0.0,3.0,1.2854273265870415
1.09325,-40.98016100481545,-73.61791802534644,0.0,0.0,0.0,3.0,1.2854273265870415
1.093375,80.70591193489257,-69.43249572376554,0.0,0.0,0.0,3.0,1.2854273265870415
1.0935,10.859187613920117,53.14063248468786,0.0,0.0,0.0,3.0,1.2854273265870415
1.093625,-16.69752562779866,-173.17123651652517,0.0,0.0,0.0,3.0,1.2854273265870415
1.09375,6.493753801142372,118.9115692173084,0.0,0.0,0.0,3.0,1.2854273265870415
1.093875,-104.27880349428708,-1.8678185768028144,0.0,0.0,0.0,3.0,1.2854273265870415
1.094,-12.604984007328834,-22.197052206522947,0.0,0.0,0.0,3.0,1.2854273265870415
1.094125,-91.72822256314112,96.48962717340048,0.0,0.0,0.0,3.0,1.2854273265870415
1.09425,-6.0568640789551615,2.0185996372741064,0.0,0.0,0.0,3.0,1.2854273265870415
1.094375,-58.16906679312588,-106.20454713493503,0.0,0.0,0.0,3.0,1.2854273265870415
1.0945,17.952941835260905,-13.826228012996475,0.0,0.0,0.0,3.0,1.2854273265870415
1.094625,62.698493125545575,-82.2878224717129,0.0,0.0,0.0,3.0,1.2854273265870415
1.09475,-92.2739245958527,-61.061771212609585,0.0,0.0,0.0,3.0,1.2854273265870415
1.094875,-13.969205219235619,135.35420959735166,0.0,0.0,0.0,3.0,1.2854273265870415
1.095,68.70093565384202,-66.4430458455306,0.0,0.0,0.0,3.0,1.2854273265870415
1.095125,-98.00356845214141,143.1271292177465,0.0,0.0,0.0,3.0,1.2854273265870415
1.09525,30.23066251281318,33.70816072865018,0.0,0.0,0.0,3.0,1.2854273265870415
1.095375,38.1429667041421,84.23221128389669,0.0,0.0,0.0,3.0,1.2854273265870415
1.0955,-148.75157959727701,-52.69096742871845,0.0,0.0,0.0,3.0,1.2854273265870415
1.095625,-63.62589235500969,122.49890954435158,0.0,0.0,0.0,3.0,1.2854273265870415
1.09575,37.59727698774766,-192.30478345779412,0.0,0.0,0.0,3.0,1.2854273265870415
1.095875,84.5255390262626,13.976825386749761,0.0,0.0,0.0,3.0,1.2854273265870415
1.096,-52.16668584641537,96.19051867191368,0.0,0.0,0.0,3.0,1.2854273265870415
1.096125,11.950400776426939,-103.2150792128709,0.0,0.0,0.0,3.0,1.2854273265870415
1.09625,-4.692758724140364,-2.7649070046506625,0.0,0.0,0.0,3.0,1.2854273265870415
1.096375,10.85904597627244,-19.207635308547218,0.0,0.0,0.0,3.0,1.2854273265870415
1.0965,6.493618321653291,-91.25675141521857,0.0,0.0,0.0,3.0,1.2854273265870415
1.096625,1.5825194251154582,112.6331857469042,0.0,0.0,0.0,3.0,1.2854273265870415
1.0967500000000001,-64.99015166378935,-3.9607695408084407,0.0,0.0,0.0,3.0,1.2854273265870415
1.096875,54.240374906729016,28.027818413513035,0.0,0.0,0.0,3.0,1.2854273265870415
1.097,14.133068417547085,-26.382701379898727,0.0,0.0,0.0,3.0,1.2854273265870415
1.097125,-73.17534188926767,134.15819006942314,0.0,0.0,0.0,3.0,1.2854273265870415
1.09725,40.871256321912114,54.63513173491356,0.0,0.0,0.0,3.0,1.2854273265870415
1.097375,-68.80993270912431,-35.65046329481419,0.0,0.0,0.0,3.0,1.2854273265870415
1.0975,-121.74064228617297,23.842334883026133,0.0,0.0,0.0,3.0,1.2854273265870415
1.097625,76.88596519323625,20.85274213734386,0.0,0.0,0.0,3.0,1.2854273265870415
1.09775,110.9908112536066,-162.11008115106824,0.0,0.0,0.0,3.0,1.2854273265870415
1.097875,-95.27532194148156,95.59242649255829,0.0,0.0,0.0,3.0,1.2854273265870415
1.098,20.68115139696925,-93.05063469700814,0.0,0.0,0.0,3.0,1.2854273265870415
1.098125,92.16491579821395,-0.07443296527285614,0.0,0.0,0.0,3.0,1.2854273265870415
1.09825,-156.66402542625363,26.233945336541208,0.0,0.0,0.0,3.0,1.2854273265870415
1.098375,60.24276201159812,-61.06206715232193,0.0,0.0,0.0,3.0,1.2854273265870415
1.0985,86.70812045316242,-7.847389485432614,0.0,0.0,0.0,3.0,1.2854273265870415
1.098625,58.33287456800996,-34.753699055325534,0.0,0.0,0.0,3.0,1.2854273265870415
1.09875,-77.54084344179002,-17.115141195530406,0.0,0.0,0.0,3.0,1.2854273265870415
1.098875,-3.3286841601184824,54.933954501505674,0.0,0.0,0.0,3.0,1.2854273265870415
1.099,14.951502530443255,99.17985629715433,0.0,0.0,0.0,3.0,1.2854273265870415
1.099125,-15.606454102939514,22.64638050350935,0.0,0.0,0.0,3.0,1.2854273265870415
1.09925,133.90918732184372,82.13917868134972,0.0,0.0,0.0,3.0,1.2854273265870415
1.099375,-108.6444701691701,-44.91835787235937,0.0,0.0,0.0,3.0,1.2854273265870415
1.0995,-27.338533181444767,-6.352665729218192,0.0,0.0,0.0,3.0,1.2854273265870415
1.099625,92.16484190031082,10.090042165042973,0.0,0.0,0.0,3.0,1.2854273265870415
1.09975,-43.981724620726354,-134.30707877541033,0.0,0.0,0.0,3.0,1.2854273265870415
1.099875,112.08206193902564,6.801483785321244,0.0,0.0,0.0,3.0,1.2854273265870415
1.1,-102.64206573774653,42.07863795837597,0.0,0.0,0.0,3.0,1.2854273265870415
1.100125,-87.36309665829303,-54.78406126017141,0.0,0.0,0.0,3.0,1.2854273265870415
1.10025,169.6510168911377,-45.51634016452657,0.0,0.0,0.0,3.0,1.2854273265870415
1.100375,-13.969476178213778,-65.24763468715632,0.0,0.0,0.0,3.0,1.2854273265870415
1.1005,-79.45077900272565,93.79847961605658,0.0,0.0,0.0,3.0,1.2854273265870415
1.100625,-63.35330306039416,-259.57091573404796,0.0,0.0,0.0,3.0,1.2854273265870415
1.1007500000000001,94.34749722511377,94.39637006486484,0.0,0.0,0.0,3.0,1.2854273265870415
1.100875,156.82757012220011,-78.40188388406628,0.0,0.0,0.0,3.0,1.2854273265870415
1.101,-110.28158973154352,-138.79159700785416,0.0,0.0,0.0,3.0,1.2854273265870415
1.101125,101.1684466162882,132.36411681560367,0.0,0.0,0.0,3.0,1.2854273265870415
1.10125,-222.41835707048386,45.36707388028575,0.0,0.0,0.0,3.0,1.2854273265870415
1.101375,40.32538186075986,-32.96016273733672,0.0,0.0,0.0,3.0,1.2854273265870415
1.1015,192.02373403377337,-67.04148735449287,0.0,0.0,0.0,3.0,1.2854273265870415
1.101625,-62.2620098418256,29.82119145441924,0.0,0.0,0.0,3.0,1.2854273265870415
1.10175,-122.0136872845245,-54.78419392280109,0.0,0.0,0.0,3.0,1.2854273265870415
1.101875,158.46454747296517,0.22421631941892506,0.0,0.0,0.0,3.0,1.2854273265870415
1.102,16.86122986190798,-79.89675287353418,0.0,0.0,0.0,3.0,1.2854273265870415
1.102125,-122.01370575900027,-80.19571850757364,0.0,0.0,0.0,3.0,1.2854273265870415
1.10225,46.0549641354626,64.20141027189112,0.0,0.0,0.0,3.0,1.2854273265870415
1.102375,-12.60539660395467,4.409608006546827,0.0,0.0,0.0,3.0,1.2854273265870415
1.1025,-38.79790596032114,84.23162960928967,0.0,0.0,0.0,3.0,1.2854273265870415
1.102625,-93.63851644519653,-23.39357805582914,0.0,0.0,0.0,3.0,1.2854273265870415
1.10275,92.43752356730526,9.491876186157771,0.0,0.0,0.0,3.0,1.2854273265870415
1.102875,1.8550471381450435,-2.7654478599870145,0.0,0.0,0.0,3.0,1.2854273265870415
1.103,25.04632656708602,-51.7947134301131,0.0,0.0,0.0,3.0,1.2854273265870415
1.103125,101.44118370671002,-47.60929112853219,0.0,0.0,0.0,3.0,1.2854273265870415
1.10325,-95.82125798421976,-2.1675676159964317,0.0,0.0,0.0,3.0,1.2854273265870415
1.103375,-81.63363138860358,-112.18444696353632,0.0,0.0,0.0,3.0,1.2854273265870415
1.1035,192.8421552563917,-76.6083373612598,0.0,0.0,0.0,3.0,1.2854273265870415
1.103625,-63.08061523524111,-5.456136200535885,0.0,0.0,0.0,3.0,1.2854273265870415
1.10375,-114.10147546557452,-71.22710354760945,0.0,0.0,0.0,3.0,1.2854273265870415
1.103875,-104.00643474545959,54.03665177248682,0.0,0.0,0.0,3.0,1.2854273265870415
1.104,50.147463796743544,29.820997562883566,0.0,0.0,0.0,3.0,1.2854273265870415
1.104125,-47.52882900930409,-34.455192638081094,0.0,0.0,0.0,3.0,1.2854273265870415
1.10425,38.96106211831554,181.09416163124865,0.0,0.0,0.0,3.0,1.2854273265870415
1.104375,-23.79188449660303,-117.86471000593832,0.0,0.0,0.0,3.0,1.2854273265870415
1.1045,-74.26704770446206,122.49818500229722,0.0,0.0,0.0,3.0,1.2854273265870415
1.104625,-35.251121795990315,-21.002069650490736,0.0,0.0,0.0,3.0,1.2854273265870415
1.10475,-47.80169542105638,28.92404179766539,0.0,0.0,0.0,3.0,1.2854273265870415
1.104875,7.584573989420454,4.110448480971694,0.0,0.0,0.0,3.0,1.2854273265870415
1.105,-111.91882629893016,-31.166697853071568,0.0,0.0,0.0,3.0,1.2854273265870415
1.105125,10.040108042292884,31.614638294855258,0.0,0.0,0.0,3.0,1.2854273265870415
1.10525,7.58455551494467,75.56158466128205,0.0,0.0,0.0,3.0,1.2854273265870415
1.105375,32.41287445019733,-57.774072403378035,0.0,0.0,0.0,3.0,1.2854273265870415
1.1055,78.5226038452786,28.326069710315803,0.0,0.0,0.0,3.0,1.2854273265870415
1.105625,26.137565510148534,-31.764687984250287,0.0,0.0,0.0,3.0,1.2854273265870415
1.10575,8.6758733661476,-17.713623523763342,0.0,0.0,0.0,3.0,1.2854273265870415
1.105875,-7.148779271541764,-7.847991569674968,0.0,0.0,0.0,3.0,1.2854273265870415
1.106,64.88064348134378,-11.734450603022557,0.0,0.0,0.0,3.0,1.2854273265870415
1.106125,-99.36828847489436,-47.310580614934466,0.0,0.0,0.0,3.0,1.2854273265870415
1.10625,5.947466743364233,-9.641783008105461,0.0,0.0,0.0,3.0,1.2854273265870415
1.1063749999999999,-8.513007789528453,-1.8688390585695163,0.0,0.0,0.0,3.0,1.2854273265870415
1.1065,-43.43636013881609,-50.599149199473864,0.0,0.0,0.0,3.0,1.2854273265870415
1.106625,-49.165991678787606,23.84158993133644,0.0,0.0,0.0,3.0,1.2854273265870415
1.10675,47.964617569024185,38.49056525026697,0.0,0.0,0.0,3.0,1.2854273265870415
1.106875,-107.28066155388916,3.213418916223704,0.0,0.0,0.0,3.0,1.2854273265870415
1.107,39.50659788074511,68.98436585366193,0.0,0.0,0.0,3.0,1.2854273265870415
1.107125,-10.150058464235954,-58.97006523635934,0.0,0.0,0.0,3.0,1.2854273265870415
1.10725,96.52988774909713,110.83858576207184,0.0,0.0,0.0,3.0,1.2854273265870415
1.107375,1.0363185815576437,-72.72217663343069,0.0,0.0,0.0,3.0,1.2854273265870415
1.1075,-2.237766589224255,-79.59824645628974,0.0,0.0,0.0,3.0,1.2854273265870415
1.107625,50.147285210144304,89.91142086427278,0.0,0.0,0.0,3.0,1.2854273265870415
1.10775,-91.1832225605093,-85.27847651843254,0.0,0.0,0.0,3.0,1.2854273265870415
1.107875,16.04240778502035,51.943637213768994,0.0,0.0,0.0,3.0,1.2854273265870415
1.108,-1.964955600899263,-45.51697286322192,0.0,0.0,0.0,3.0,1.2854273265870415
1.108125,-40.16238696281026,-2.1679656038854453,0.0,0.0,0.0,3.0,1.2854273265870415
1.10825,-145.7509901183454,2.914351234007575,0.0,0.0,0.0,3.0,1.2854273265870415
1.108375,170.7419719849442,42.67586509403586,0.0,0.0,0.0,3.0,1.2854273265870415
1.1085,60.24226320075196,-18.610714317417337,0.0,0.0,0.0,3.0,1.2854273265870415
1.108625,-78.90550804111561,-36.847231693938184,0.0,0.0,0.0,3.0,1.2854273265870415
1.10875,174.56169087473253,18.75911765537221,0.0,0.0,0.0,3.0,1.2854273265870415
1.108875,-19.9723559357705,-77.80459788530659,0.0,0.0,0.0,3.0,1.2854273265870415
1.109,21.22630650148724,71.07689058113175,0.0,0.0,0.0,3.0,1.2854273265870415
1.109125,41.962039561238626,2.6152961224153146,0.0,0.0,0.0,3.0,1.2854273265870415
1.10925,-132.9276105151917,-44.91916405295507,0.0,0.0,0.0,3.0,1.2854273265870415
1.109375,51.23854147976129,-83.1859211765098,0.0,0.0,0.0,3.0,1.2854273265870415
1.1095,-25.42915070686134,73.16956601506037,0.0,0.0,0.0,3.0,1.2854273265870415
1.109625,-75.63150407431675,47.75806183992309,0.0,0.0,0.0,3.0,1.2854273265870415
1.10975,104.98775906760928,-65.54735547770314,0.0,0.0,0.0,3.0,1.2854273265870415
1.109875,-25.15633356037781,51.94347393668632,0.0,0.0,0.0,3.0,1.2854273265870415
1.11,-20.790918222075792,0.8214921133609518,0.0,0.0,0.0,3.0,1.2854273265870415
1.110125,-58.442678342068106,1.71834819620866,0.0,0.0,0.0,3.0,1.2854273265870415
1.11025,-21.88229880278598,53.43822046834228,0.0,0.0,0.0,3.0,1.2854273265870415
1.110375,-14.242804451860714,-47.90883843717867,0.0,0.0,0.0,3.0,1.2854273265870415
1.1105,4.855889101579021,10.687093452996326,0.0,0.0,0.0,3.0,1.2854273265870415
1.110625,-138.11163239483048,-12.033811859144828,0.0,0.0,0.0,3.0,1.2854273265870415
1.11075,196.388699826498,23.542297743131694,0.0,0.0,0.0,3.0,1.2854273265870415
1.110875,-30.88600820745949,-118.46320801219419,0.0,0.0,0.0,3.0,1.2854273265870415
1.111,-131.01784738269671,16.96517314467671,0.0,0.0,0.0,3.0,1.2854273265870415
1.111125,94.61982171890973,-59.86725807819,0.0,0.0,0.0,3.0,1.2854273265870415
1.11125,-63.626662124834006,-124.7413308889514,0.0,0.0,0.0,3.0,1.2854273265870415
1.111375,70.3371684413778,79.74651713161495,0.0,0.0,0.0,3.0,1.2854273265870415
1.1115,-120.10431827417962,-159.1216493887938,0.0,0.0,0.0,3.0,1.2854273265870415
1.111625,19.316302052885817,175.7122911993972,0.0,0.0,0.0,3.0,1.2854273265870415
1.11175,4.31015627807445,-50.89853323103767,0.0,0.0,0.0,3.0,1.2854273265870415
1.111875,-72.3575359085482,82.13814799476536,0.0,0.0,0.0,3.0,1.2854273265870415
1.112,66.7902230170022,45.964107124409914,0.0,0.0,0.0,3.0,1.2854273265870415
1.112125,13.586652038438517,-42.82668251056212,0.0,0.0,0.0,3.0,1.2854273265870415
1.11225,36.77795724793521,60.91202766774457,0.0,0.0,0.0,3.0,1.2854273265870415
1.1123750000000001,-66.35512531896603,-37.74440412613351,0.0,0.0,0.0,3.0,1.2854273265870415
1.1125,159.00970816168112,2.0171097338947215,0.0,0.0,0.0,3.0,1.2854273265870415
1.112625,-62.26255175978193,143.4246559724949,0.0,0.0,0.0,3.0,1.2854273265870415
1.11275,-155.30058744840966,-38.3423455990301,0.0,0.0,0.0,3.0,1.2854273265870415
1.112875,10.85823309933796,-79.89764069267122,0.0,0.0,0.0,3.0,1.2854273265870415
1.113,109.8987045841429,-64.65075451529717,0.0,0.0,0.0,3.0,1.2854273265870415
1.113125,34.86803901355408,-102.3195725317615,0.0,0.0,0.0,3.0,1.2854273265870415
1.11325,-79.7242685364173,182.58821815480894,0.0,0.0,0.0,3.0,1.2854273265870415
1.113375,-61.71689168625918,-123.24669897609603,0.0,0.0,0.0,3.0,1.2854273265870415
1.1135,184.11081961078293,-4.261092415597613,0.0,0.0,0.0,3.0,1.2854273265870415
1.113625,4.855735147614157,13.975376302641045,0.0,0.0,0.0,3.0,1.2854273265870415
1.11375,-120.10442912103433,30.71706787477086,0.0,0.0,0.0,3.0,1.2854273265870415
1.113875,-40.98117710098355,102.16822446471656,0.0,0.0,0.0,3.0,1.2854273265870415
1.114,7.311263042327993,-21.60074587025929,0.0,0.0,0.0,3.0,1.2854273265870415
1.114125,-81.90702239175776,58.81915834228028,0.0,0.0,0.0,3.0,1.2854273265870415
1.11425,-55.44166395019342,-53.888348116902414,0.0,0.0,0.0,3.0,1.2854273265870415
1.114375,121.08502620650918,-50.3008366737651,0.0,0.0,0.0,3.0,1.2854273265870415
1.1145,-147.3883117520311,-28.775801736793184,0.0,0.0,0.0,3.0,1.2854273265870415
1.114625,-73.44903965243029,47.159742788772874,0.0,0.0,0.0,3.0,1.2854273265870415
1.11475,138.00100958567927,-66.74361363594379,0.0,0.0,0.0,3.0,1.2854273265870415
1.114875,-34.97879114403576,36.397185683919325,0.0,0.0,0.0,3.0,1.2854273265870415
1.115,37.050657389405444,-82.88739671543621,0.0,0.0,0.0,3.0,1.2854273265870415
1.115125,4.855661249711022,-37.44567320290045,0.0,0.0,0.0,3.0,1.2854273265870415
1.11525,-119.28597037550378,40.881543005086684,0.0,0.0,0.0,3.0,1.2854273265870415
1.115375,89.70851960313828,-14.425871324637251,0.0,0.0,0.0,3.0,1.2854273265870415
1.1155,-29.79486779493449,-84.68119835868437,0.0,0.0,0.0,3.0,1.2854273265870415
1.115625,39.233337346842774,5.604376261408089,0.0,0.0,0.0,3.0,1.2854273265870415
1.11575,19.58893445461151,-31.167575467390932,0.0,0.0,0.0,3.0,1.2854273265870415
1.115875,49.601181749202716,-26.085286878144654,0.0,0.0,0.0,3.0,1.2854273265870415
1.116,-2.7838565859273103,-35.95093924186836,0.0,0.0,0.0,3.0,1.2854273265870415
1.116125,34.04935857431413,29.521024017701276,0.0,0.0,0.0,3.0,1.2854273265870415
1.11625,-47.80226197164708,-7.250927711097747,0.0,0.0,0.0,3.0,1.2854273265870415
1.1163750000000001,-82.99847572244977,-9.044670491246107,0.0,0.0,0.0,3.0,1.2854273265870415
1.1165,-9.60484908421192,46.2626951801957,0.0,0.0,0.0,3.0,1.2854273265870415
1.116625,51.78385554848146,50.74707291099839,0.0,0.0,0.0,3.0,1.2854273265870415
1.11675,-1.6925510510415689,50.14915184773714,0.0,0.0,0.0,3.0,1.2854273265870415
1.116875,-10.423400202121389,137.44512980264153,0.0,0.0,0.0,3.0,1.2854273265870415
1.117,16.31479386040226,-16.219736562597618,0.0,0.0,0.0,3.0,1.2854273265870415
1.117125,75.2479779044617,14.871956855411744,0.0,0.0,0.0,3.0,1.2854273265870415
1.11725,-85.45406519874955,44.76785680518079,0.0,0.0,0.0,3.0,1.2854273265870415
1.117375,18.497486134156784,-53.888603237344086,0.0,0.0,0.0,3.0,1.2854273265870415
1.1175,32.68511272977297,-34.15732912434967,0.0,0.0,0.0,3.0,1.2854273265870415
1.117625,-24.065372882373364,-26.683368852682374,0.0,0.0,0.0,3.0,1.2854273265870415
1.11775,16.587618312965695,-94.54702420430843,0.0,0.0,0.0,3.0,1.2854273265870415
1.117875,2.672815021991693,123.39398762311903,0.0,0.0,0.0,3.0,1.2854273265870415
1.118,-131.836699102456,-54.7855205490978,0.0,0.0,0.0,3.0,1.2854273265870415
1.118125,53.14798553593064,61.509458899757746,0.0,0.0,0.0,3.0,1.2854273265870415
1.11825,-22.428364166854713,-47.31157048224817,0.0,0.0,0.0,3.0,1.2854273265870415
1.118375,27.50111548276851,42.675048708622505,0.0,0.0,0.0,3.0,1.2854273265870415
1.1185,115.90088173765913,-104.11377216289867,0.0,0.0,0.0,3.0,1.2854273265870415
1.118625,-25.702435873398056,92.00323909351738,0.0,0.0,0.0,3.0,1.2854273265870415
1.11875,-22.428388799489092,-69.1356118725302,0.0,0.0,0.0,3.0,1.2854273265870415
1.118875,43.598598731179905,146.41372827247616,0.0,0.0,0.0,3.0,1.2854273265870415
1.119,-42.61846909179761,-7.849063075530005,0.0,0.0,0.0,3.0,1.2854273265870415
1.119125,26.40973604997969,-61.96062743971998,0.0,0.0,0.0,3.0,1.2854273265870415
1.11925,18.22455814081855,41.180171880143135,0.0,0.0,0.0,3.0,1.2854273265870415
1.119375,-38.52590169077209,28.623892404776555,0.0,0.0,0.0,3.0,1.2854273265870415
1.1195,-79.17887942187265,-6.653253929266707,0.0,0.0,0.0,3.0,1.2854273265870415
1.119625,76.8848813573236,-56.28045860648317,0.0,0.0,0.0,3.0,1.2854273265870415
1.11975,-43.1641772826678,-61.36276760536478,0.0,0.0,0.0,3.0,1.2854273265870415
1.119875,-47.529604937287004,-27.281463397843964,0.0,0.0,0.0,3.0,1.2854273265870415
1.12,111.53538634329541,-114.8764313159289,0.0,0.0,0.0,3.0,1.2854273265870415
1.120125,-74.5406530952457,22.3456824162727,0.0,0.0,0.0,3.0,1.2854273265870415
1.12025,-47.52962341176279,42.97385106557929,0.0,0.0,0.0,3.0,1.2854273265870415
1.120375,88.34406939144219,37.59258663747595,0.0,0.0,0.0,3.0,1.2854273265870415
1.1205,-152.8454228850529,68.38532462626351,0.0,0.0,0.0,3.0,1.2854273265870415
1.120625,43.32567689600027,-70.03263123246053,0.0,0.0,0.0,3.0,1.2854273265870415
1.12075,130.63406199622003,-67.64096975485712,0.0,0.0,0.0,3.0,1.2854273265870415
1.120875,140.45625420509774,100.07493674172792,0.0,0.0,0.0,3.0,1.2854273265870415
1.121,-188.04162932977565,35.200863930966534,0.0,0.0,0.0,3.0,1.2854273265870415
1.121125,-57.62471339714643,-129.22655325381425,0.0,0.0,0.0,3.0,1.2854273265870415
1.12125,143.18461772077092,-25.786770256082544,0.0,0.0,0.0,3.0,1.2854273265870415
1.121375,-15.880385876128658,-86.77439423831402,0.0,0.0,0.0,3.0,1.2854273265870415
1.1215,-167.30588896394437,-10.838849712747948,0.0,0.0,0.0,3.0,1.2854273265870415
1.121625,48.782391611029404,34.602873799787815,0.0,0.0,0.0,3.0,1.2854273265870415
1.12175,-117.92211249495406,-10.240959263939699,0.0,0.0,0.0,3.0,1.2854273265870415
1.121875,36.5046216682084,64.79771897396098,0.0,0.0,0.0,3.0,1.2854273265870415
1.1219999999999999,-107.82707793299778,117.41445753375993,0.0,0.0,0.0,3.0,1.2854273265870415
1.122125,69.518106196305,-96.64009762612605,0.0,0.0,0.0,3.0,1.2854273265870415
1.12225,-54.62352542890985,84.82792810654186,0.0,0.0,0.0,3.0,1.2854273265870415
1.122375,-55.71489985146144,97.68314260149484,0.0,0.0,0.0,3.0,1.2854273265870415
1.1225,-92.00245608610139,-73.02236684559014,0.0,0.0,0.0,3.0,1.2854273265870415
1.122625,174.01533607720987,99.17792758661527,0.0,0.0,0.0,3.0,1.2854273265870415
1.12275,-52.16800369235461,-123.24746433742105,0.0,0.0,0.0,3.0,1.2854273265870415
1.122875,-67.44698508812529,12.778799429246575,0.0,0.0,0.0,3.0,1.2854273265870415
1.123,162.01040848746746,-118.46419787950789,0.0,0.0,0.0,3.0,1.2854273265870415
1.123125,74.42914966941548,-2.169190182005488,0.0,0.0,0.0,3.0,1.2854273265870415
1.12325,-161.57640135746317,7.098530913639303,0.0,0.0,0.0,3.0,1.2854273265870415
1.123375,-40.981645121036735,25.335027880524816,0.0,0.0,0.0,3.0,1.2854273265870415
1.1235,112.89940490992923,-77.80579184897363,0.0,0.0,0.0,3.0,1.2854273265870415
1.123625,63.24273567467029,92.0028309008107,0.0,0.0,0.0,3.0,1.2854273265870415
1.12375,-195.40840391683358,-22.49843638234949,0.0,0.0,0.0,3.0,1.2854273265870415
1.123875,73.61060585758595,48.354809349152625,0.0,0.0,0.0,3.0,1.2854273265870415
1.124,16.860146025995338,13.675573873552947,0.0,0.0,0.0,3.0,1.2854273265870415
1.124125,-117.37653247749304,203.81340592391632,0.0,0.0,0.0,3.0,1.2854273265870415
1.12425,78.24884450053007,-122.05176507834595,0.0,0.0,0.0,3.0,1.2854273265870415
1.124375,28.592188155548968,148.8049509429199,0.0,0.0,0.0,3.0,1.2854273265870415
1.1245,-57.35204404646917,-22.49849761125549,0.0,0.0,0.0,3.0,1.2854273265870415
1.124625,34.867472462963384,20.252627038284203,0.0,0.0,0.0,3.0,1.2854273265870415
1.12475,11.948990558108786,42.37557283369969,0.0,0.0,0.0,3.0,1.2854273265870415
1.124875,-6.876879690688766,58.220369869517334,0.0,0.0,0.0,3.0,1.2854273265870415
1.125,-70.72116878944465,-155.23630268057187,0.0,0.0,0.0,3.0,1.2854273265870415
1.125125,-5.512688121653645,30.118228377919575,0.0,0.0,0.0,3.0,1.2854273265870415
1.12525,-21.33734075934301,122.4964910025645,0.0,0.0,0.0,3.0,1.2854273265870415
1.125375,82.61421057356333,-1.2724793324113763,0.0,0.0,0.0,3.0,1.2854273265870415
1.1255,-117.92229723971191,88.11620075136891,0.0,0.0,0.0,3.0,1.2854273265870415
1.125625,88.88949488097772,34.004636387178884,0.0,0.0,0.0,3.0,1.2854273265870415
1.12575,46.053806401646824,5.9025051003988525,0.0,0.0,0.0,3.0,1.2854273265870415
1.125875,-75.08660761245973,74.66303457870168,0.0,0.0,0.0,3.0,1.2854273265870415
1.126,-36.07068170398798,-18.014232133447134,0.0,0.0,0.0,3.0,1.2854273265870415
1.126125,88.88947024834334,-111.88732056248313,0.0,0.0,0.0,3.0,1.2854273265870415
1.12625,57.785842373041916,31.01500282222595,0.0,0.0,0.0,3.0,1.2854273265870415
1.126375,-76.9965073723651,-41.930979572110786,0.0,0.0,0.0,3.0,1.2854273265870415
1.1265,-12.606585128563419,201.4215403499596,0.0,0.0,0.0,3.0,1.2854273265870415
1.126625,56.14878439225448,-154.93745166533293,0.0,0.0,0.0,3.0,1.2854273265870415
1.12675,10.584713922774652,50.14833546232378,0.0,0.0,0.0,3.0,1.2854273265870415
1.126875,-9.059688969456586,-100.22800705715238,0.0,0.0,0.0,3.0,1.2854273265870415
1.127,26.136512465028865,81.83795778260586,0.0,0.0,0.0,3.0,1.2854273265870415
1.127125,-105.09894842735116,50.148304847870776,0.0,0.0,0.0,3.0,1.2854273265870415
1.12725,-9.05970744393237,-34.75603595857128,0.0,0.0,0.0,3.0,1.2854273265870415
1.127375,11.130354373900362,-23.694554038948944,0.0,0.0,0.0,3.0,1.2854273265870415
1.1275,-42.618887846582034,-70.03319249743221,0.0,0.0,0.0,3.0,1.2854273265870415
1.127625,10.58467081566449,3.5106803457127707,0.0,0.0,0.0,3.0,1.2854273265870415
1.12775,42.23395761656738,-8.447688271210223,0.0,0.0,0.0,3.0,1.2854273265870415
1.127875,-98.00518188969319,-74.21865561828379,0.0,0.0,0.0,3.0,1.2854273265870415
1.1280000000000001,129.54234944890638,-24.591499599349454,0.0,0.0,0.0,3.0,1.2854273265870415
1.128125,-66.35590124694895,-27.880047774253516,0.0,0.0,0.0,3.0,1.2854273265870415
1.12825,-144.66063293988324,59.714899734196024,0.0,0.0,0.0,3.0,1.2854273265870415
1.128375,118.62877723327912,-48.20926336014452,0.0,0.0,0.0,3.0,1.2854273265870415
1.1285,4.036495463863466,128.774374436903,0.0,0.0,0.0,3.0,1.2854273265870415
1.128625,-173.3087267623122,0.5210161663067743,0.0,0.0,0.0,3.0,1.2854273265870415
1.12875,89.98069630112798,-66.1468457170789,0.0,0.0,0.0,3.0,1.2854273265870415
1.128875,55.60300230348112,205.6067789648225,0.0,0.0,0.0,3.0,1.2854273265870415
1.129,-105.3718764206894,-36.25095597212752,0.0,0.0,0.0,3.0,1.2854273265870415
1.129125,-86.00032146573466,32.50957350617531,0.0,0.0,0.0,3.0,1.2854273265870415
1.12925,149.1866846013931,1.4178314298838146,0.0,0.0,0.0,3.0,1.2854273265870415
1.129375,-118.74099500550633,-71.52815096445292,0.0,0.0,0.0,3.0,1.2854273265870415
1.1295,47.96349678415998,114.72321813305706,0.0,0.0,0.0,3.0,1.2854273265870415
1.1296249999999999,55.33012973357024,13.675114656757932,0.0,0.0,0.0,3.0,1.2854273265870415
1.12975,-47.530091431815976,14.27301531038379,0.0,0.0,0.0,3.0,1.2854273265870415
1.129875,42.23385292787127,-24.89060810083625,0.0,0.0,0.0,3.0,1.2854273265870415
1.13,79.33991659934986,42.973055089801264,0.0,0.0,0.0,3.0,1.2854273265870415
1.130125,-73.72263888505532,85.12624063225063,0.0,0.0,0.0,3.0,1.2854273265870415
1.13025,14.677127369835304,56.12721480915837,0.0,0.0,0.0,3.0,1.2854273265870415
1.130375,242.22464581815703,-9.045813430824813,0.0,0.0,0.0,3.0,1.2854273265870415
1.1305,-10.151210039893137,35.20008836482384,0.0,0.0,0.0,3.0,1.2854273265870415
1.130625,-99.36949547397889,13.675033018216595,0.0,0.0,0.0,3.0,1.2854273265870415
1.13075,90.2534333915498,-36.55008251744346,0.0,0.0,0.0,3.0,1.2854273265870415
1.130875,-29.249954006522938,15.767728861780546,0.0,0.0,0.0,3.0,1.2854273265870415
1.131,-25.975906932613974,25.932316245090657,0.0,0.0,0.0,3.0,1.2854273265870415
1.131125,-129.92747058183744,-86.77519021409204,0.0,0.0,0.0,3.0,1.2854273265870415
1.13125,-23.247511478226485,6.4999669468650305,0.0,0.0,0.0,3.0,1.2854273265870415
1.131375,64.33372213323042,77.65216810758893,0.0,0.0,0.0,3.0,1.2854273265870415
1.1315,-66.90173875914962,10.386423614406475,0.0,0.0,0.0,3.0,1.2854273265870415
1.131625,-1.6932838719143208,84.22925188677326,0.0,0.0,0.0,3.0,1.2854273265870415
1.13175,-30.068503976511096,2.613449050417584,0.0,0.0,0.0,3.0,1.2854273265870415
1.131875,112.35332107138474,-11.437607571057894,0.0,0.0,0.0,3.0,1.2854273265870415
1.1320000000000001,-84.90912061954502,108.74384895497448,0.0,0.0,0.0,3.0,1.2854273265870415
1.132125,86.43362828754115,-130.7222566725247,0.0,0.0,0.0,3.0,1.2854273265870415
1.13225,79.88548988469167,41.17911057910576,0.0,0.0,0.0,3.0,1.2854273265870415
1.132375,-85.4548103359395,1.417576309442139,0.0,0.0,0.0,3.0,1.2854273265870415
1.1325,-24.611776945164742,7.695686615575527,0.0,0.0,0.0,3.0,1.2854273265870415
1.132625,65.97070005795614,28.62281069410385,0.0,0.0,0.0,3.0,1.2854273265870415
1.13275,104.44095472450923,-70.9305156360864,0.0,0.0,0.0,3.0,1.2854273265870415
1.132875,-113.55723907460838,190.65849733336375,0.0,0.0,0.0,3.0,1.2854273265870415
1.133,-38.79940855101821,-96.0430745868195,0.0,0.0,0.0,3.0,1.2854273265870415
1.133125,92.70886275572613,32.80820238123175,0.0,0.0,0.0,3.0,1.2854273265870415
1.13325,4.036261453836873,-0.3762559482590233,0.0,0.0,0.0,3.0,1.2854273265870415
1.133375,-201.68417471877697,70.1780343540213,0.0,0.0,0.0,3.0,1.2854273265870415
1.1335,65.42495992837163,4.407067006947739,0.0,0.0,0.0,3.0,1.2854273265870415
1.1336249999999999,-52.98707209558596,-29.375302180986623,0.0,0.0,0.0,3.0,1.2854273265870415
1.13375,62.96940124286482,-58.97223886252242,0.0,0.0,0.0,3.0,1.2854273265870415
1.133875,-135.93006706409875,43.57064959889717,0.0,0.0,0.0,3.0,1.2854273265870415
1.134,9.220152864223857,-3.664855147251477,0.0,0.0,0.0,3.0,1.2854273265870415
1.134125,158.19012304708843,-58.37433036988503,0.0,0.0,0.0,3.0,1.2854273265870415
1.13425,-22.156316790195447,-11.736756891815302,0.0,0.0,0.0,3.0,1.2854273265870415
1.134375,-16.426697566541115,0.2215630668255002,0.0,0.0,0.0,3.0,1.2854273265870415
1.1345,95.16434138517121,-32.364956155574895,0.0,0.0,0.0,3.0,1.2854273265870415
1.134625,17.950965066352055,51.34351427569792,0.0,0.0,0.0,3.0,1.2854273265870415
1.13475,-40.1636986505909,21.44762216494034,0.0,0.0,0.0,3.0,1.2854273265870415
1.134875,-50.804422928941655,-21.00453921636615,0.0,0.0,0.0,3.0,1.2854273265870415
1.135,65.4248860304685,163.15411362794458,0.0,0.0,0.0,3.0,1.2854273265870415
1.135125,-109.46476404596183,-168.39128115114858,0.0,0.0,0.0,3.0,1.2854273265870415
1.13525,71.42733471692354,123.69152458268508,0.0,0.0,0.0,3.0,1.2854273265870415
1.135375,-56.80688278379258,-12.932698700708272,0.0,0.0,0.0,3.0,1.2854273265870415
1.1355,-22.974885234659386,-60.467158876078656,0.0,0.0,0.0,3.0,1.2854273265870415
1.135625,-55.44271699531309,151.4946596209727,0.0,0.0,0.0,3.0,1.2854273265870415
1.13575,120.81112465015232,-153.144464041692,0.0,0.0,0.0,3.0,1.2854273265870415
1.135875,24.499035729457027,-7.850440725915052,0.0,0.0,0.0,3.0,1.2854273265870415
1.1360000000000001,-36.07117435667555,63.30176043480891,0.0,0.0,0.0,3.0,1.2854273265870415
1.136125,-17.518152045154437,-17.118192436012844,0.0,0.0,0.0,3.0,1.2854273265870415
1.13625,19.042253274683322,57.322574943444316,0.0,0.0,0.0,3.0,1.2854273265870415
1.136375,8.674364617291936,53.137132232228076,0.0,0.0,0.0,3.0,1.2854273265870415
1.1365,44.416237293696064,160.16439450494454,0.0,0.0,0.0,3.0,1.2854273265870415
1.136625,15.495320166624921,-30.870324242719533,0.0,0.0,0.0,3.0,1.2854273265870415
1.13675,-85.72786149244962,92.89862568262103,0.0,0.0,0.0,3.0,1.2854273265870415
1.136875,39.77796170180036,-70.03395785875725,0.0,0.0,0.0,3.0,1.2854273265870415
1.137,14.131097806796827,-12.035965075672568,0.0,0.0,0.0,3.0,1.2854273265870415
1.137125,-38.79961177025183,92.00172878050266,0.0,0.0,0.0,3.0,1.2854273265870415
1.13725,27.500185600820732,-86.47673482093593,0.0,0.0,0.0,3.0,1.2854273265870415
1.137375,-58.71685644160103,111.7329926886794,0.0,0.0,0.0,3.0,1.2854273265870415
1.1375,41.96064165923766,-18.613081835116084,0.0,0.0,0.0,3.0,1.2854273265870415
1.1376249999999999,20.679199260694773,87.51730002561163,0.0,0.0,0.0,3.0,1.2854273265870415
1.13775,-87.63778588498937,19.055705566895256,0.0,0.0,0.0,3.0,1.2854273265870415
1.137875,-72.08598118457651,6.79838152075047,0.0,0.0,0.0,3.0,1.2854273265870415
1.138,47.96307802937555,96.78500071162114,0.0,0.0,0.0,3.0,1.2854273265870415
1.138125,-57.89838652767466,-129.82585196746055,0.0,0.0,0.0,3.0,1.2854273265870415
1.13825,-51.62309606210165,96.18706944354223,0.0,0.0,0.0,3.0,1.2854273265870415
1.138375,166.3750725304209,-24.891302028437607,0.0,0.0,0.0,3.0,1.2854273265870415
1.1385,-46.43918001908028,-62.85907547412374,0.0,0.0,0.0,3.0,1.2854273265870415
1.138625,-3.603478075510921,56.42548651559647,0.0,0.0,0.0,3.0,1.2854273265870415
1.13875,-123.10687836386148,-156.1342632495338,0.0,0.0,0.0,3.0,1.2854273265870415
1.138875,169.92194964109132,122.4953786774388,0.0,0.0,0.0,3.0,1.2854273265870415
1.139,-90.09339383576493,-87.97168308313897,0.0,0.0,0.0,3.0,1.2854273265870415
1.139125,94.8912779123439,43.271265567333366,0.0,0.0,0.0,3.0,1.2854273265870415
1.13925,111.26160236591251,-176.46349924506015,0.0,0.0,0.0,3.0,1.2854273265870415
1.139375,-62.809540847639845,44.76605055245373,0.0,0.0,0.0,3.0,1.2854273265870415
1.1395,-108.37361131711964,40.580607841237494,0.0,0.0,0.0,3.0,1.2854273265870415
1.139625,-107.82794623335961,122.49531744853279,0.0,0.0,0.0,3.0,1.2854273265870415
1.13975,169.92190653398114,-131.6197172054209,0.0,0.0,0.0,3.0,1.2854273265870415
1.139875,-25.70348276035913,-12.634110644922494,0.0,0.0,0.0,3.0,1.2854273265870415
1.1400000000000001,-81.36260010811246,-35.3549877084169,0.0,0.0,0.0,3.0,1.2854273265870415
1.140125,4.308758376073485,-9.943503942915015,0.0,0.0,0.0,3.0,1.2854273265870415
1.14025,86.4332280072325,11.880486423278684,0.0,0.0,0.0,3.0,1.2854273265870415
1.140375,27.227196025896554,-52.096720099817325,0.0,0.0,0.0,3.0,1.2854273265870415
1.1405,41.41482262151277,71.97121350339178,0.0,0.0,0.0,3.0,1.2854273265870415
1.140625,-46.16644908681708,76.15660755632588,0.0,0.0,0.0,3.0,1.2854273265870415
1.14075,-117.37735151258613,-137.59896392569152,0.0,0.0,0.0,3.0,1.2854273265870415
1.140875,78.79370959763352,-5.459177236200656,0.0,0.0,0.0,3.0,1.2854273265870415
1.141,50.14564098179956,62.105530525215066,0.0,0.0,0.0,3.0,1.2854273265870415
1.141125,-62.80962706186017,16.66375835439717,0.0,0.0,0.0,3.0,1.2854273265870415
1.14125,-113.55765167123421,51.04401799113978,0.0,0.0,0.0,3.0,1.2854273265870415
1.141375,-93.64042547436084,-20.706114437663047,0.0,0.0,0.0,3.0,1.2854273265870415
1.1415,-0.6024021020502934,-100.22920102081943,0.0,0.0,0.0,3.0,1.2854273265870415
1.141625,17.950620209470756,102.76386985363806,0.0,0.0,0.0,3.0,1.2854273265870415
1.14175,-105.09966893190673,-47.31348898796957,0.0,0.0,0.0,3.0,1.2854273265870415
1.141875,-11.788809938636922,99.77426690313807,0.0,0.0,0.0,3.0,1.2854273265870415
1.142,-53.80599155508979,-87.3739888916726,0.0,0.0,0.0,3.0,1.2854273265870415
1.142125,4.308659845535972,1.1178249044423199,0.0,0.0,0.0,3.0,1.2854273265870415
1.14225,75.79241135650283,-83.48756047277794,0.0,0.0,0.0,3.0,1.2854273265870415
1.142375,-3.876524221783759,83.33147973614172,0.0,0.0,0.0,3.0,1.2854273265870415
1.1425,-63.90103728544196,-25.19059421664241,0.0,0.0,0.0,3.0,1.2854273265870415
1.142625,77.97510363025735,-9.345768932177974,0.0,0.0,0.0,3.0,1.2854273265870415
1.14275,125.17620128973164,101.56795629339189,0.0,0.0,0.0,3.0,1.2854273265870415
1.142875,-142.4786169156528,-28.479162801181808,0.0,0.0,0.0,3.0,1.2854273265870415
1.143,95.43677114162396,-49.40630728934552,0.0,0.0,0.0,3.0,1.2854273265870415
1.143125,67.33436087743081,15.766728789649179,0.0,0.0,0.0,3.0,1.2854273265870415
1.14325,-34.434492023562406,51.043854714057105,0.0,0.0,0.0,3.0,1.2854273265870415
1.143375,-174.67365731037867,58.51781498572441,0.0,0.0,0.0,3.0,1.2854273265870415
1.1435,31.04679232647362,-18.01566080792052,0.0,0.0,0.0,3.0,1.2854273265870415
1.1436250000000001,77.9750543649886,-62.859493871648084,0.0,0.0,0.0,3.0,1.2854273265870415
1.14375,-76.72452773545038,0.818736812590857,0.0,0.0,0.0,3.0,1.2854273265870415
1.143875,-2.2395586133752703,23.838548895671668,0.0,0.0,0.0,3.0,1.2854273265870415
1.1440000000000001,138.81807543944612,-19.809462451168734,0.0,0.0,0.0,3.0,1.2854273265870415
1.144125,-40.164160512485495,122.79390550431857,0.0,0.0,0.0,3.0,1.2854273265870415
1.14425,-67.1752025122856,36.39478755176758,0.0,0.0,0.0,3.0,1.2854273265870415
1.144375,44.415849329704606,-45.22098703594129,0.0,0.0,0.0,3.0,1.2854273265870415
1.1445,-29.523460866769113,139.53559079113643,0.0,0.0,0.0,3.0,1.2854273265870415
1.144625,-83.54553870821077,-53.8908278875955,0.0,0.0,0.0,3.0,1.2854273265870415
1.14475,26.408473627467806,-50.901227302901766,0.0,0.0,0.0,3.0,1.2854273265870415
1.144875,50.69112132080178,65.09479671673205,0.0,0.0,0.0,3.0,1.2854273265870415
1.145,-2.785285278721247,-28.180380853860353,0.0,0.0,0.0,3.0,1.2854273265870415
1.145125,-99.64304544133523,66.8885371310742,0.0,0.0,0.0,3.0,1.2854273265870415
1.1452499999999999,19.314645508223883,23.83843664267733,0.0,0.0,0.0,3.0,1.2854273265870415
1.145375,97.61936488484095,39.98221735636356,0.0,0.0,0.0,3.0,1.2854273265870415
1.1455,-36.61731361864736,-40.73669094367993,0.0,0.0,0.0,3.0,1.2854273265870415
1.145625,-54.35184138360766,34.899898152664335,0.0,0.0,0.0,3.0,1.2854273265870415
1.14575,54.510828468233576,23.240484964963137,0.0,0.0,0.0,3.0,1.2854273265870415
1.145875,31.319510942419694,28.023818124987564,0.0,0.0,0.0,3.0,1.2854273265870415
1.146,14.130654419378018,24.735241701436703,0.0,0.0,0.0,3.0,1.2854273265870415
1.146125,43.870091873565634,-35.65444317370432,0.0,0.0,0.0,3.0,1.2854273265870415
1.14625,-51.89632580521101,-33.56173712532271,0.0,0.0,0.0,3.0,1.2854273265870415
1.146375,30.228143825948006,5.601865876262003,0.0,0.0,0.0,3.0,1.2854273265870415
1.1465,56.96633788847163,-87.3743562651086,0.0,0.0,0.0,3.0,1.2854273265870415
1.146625,13.039281144747736,36.394593660231905,0.0,0.0,0.0,3.0,1.2854273265870415
1.14675,6.763978362857594,-80.79730073457115,0.0,0.0,0.0,3.0,1.2854273265870415
1.146875,-60.90003520988452,-94.84835735604663,0.0,0.0,0.0,3.0,1.2854273265870415
1.147,115.35379354530308,104.85614729967767,0.0,0.0,0.0,3.0,1.2854273265870415
1.147125,-91.18516238046658,-3.068015794662931,0.0,0.0,0.0,3.0,1.2854273265870415
1.14725,-86.27405001969018,15.766392030666166,0.0,0.0,0.0,3.0,1.2854273265870415
1.147375,65.96997339524198,-52.09729156960668,0.0,0.0,0.0,3.0,1.2854273265870415
1.1475,-36.071740907266246,4.106968638147242,0.0,0.0,0.0,3.0,1.2854273265870415
1.1476250000000001,-23.521153817961686,-28.180595155031362,0.0,0.0,0.0,3.0,1.2854273265870415
1.14775,10.038008110212141,-30.273321613048314,0.0,0.0,0.0,3.0,1.2854273265870415
1.147875,-79.18027732387361,-93.353661848479,0.0,0.0,0.0,3.0,1.2854273265870415
1.148,-40.98285827827986,-32.06710284666114,0.0,0.0,0.0,3.0,1.2854273265870415
1.148125,37.59469671929654,-69.73592086312549,0.0,0.0,0.0,3.0,1.2854273265870415
1.14825,37.86752618209726,-56.28279550972892,0.0,0.0,0.0,3.0,1.2854273265870415
1.148375,-112.73947004284047,43.5694658400478,0.0,0.0,0.0,3.0,1.2854273265870415
1.1485,77.97481419680341,-11.737920241029343,0.0,0.0,0.0,3.0,1.2854273265870415
1.148625,5.945379127600679,31.01317615986355,0.0,0.0,0.0,3.0,1.2854273265870415
1.14875,199.93372948959,35.497553890666246,0.0,0.0,0.0,3.0,1.2854273265870415
1.148875,-90.0938803302939,-51.49950316897516,0.0,0.0,0.0,3.0,1.2854273265870415
1.149,-21.065675188516607,36.992310627139815,0.0,0.0,0.0,3.0,1.2854273265870415
1.149125,81.24884952835589,-60.46827120120436,0.0,0.0,0.0,3.0,1.2854273265870415
1.1492499999999999,-41.25575548082512,-0.6765175941421933,0.0,0.0,0.0,3.0,1.2854273265870415
1.149375,-17.51880480996546,-47.91202234029078,0.0,0.0,0.0,3.0,1.2854273265870415
1.1495,-2.5126713514713384,66.88817996245587,0.0,0.0,0.0,3.0,1.2854273265870415
1.149625,-12.062027365429097,-46.716221033039005,0.0,0.0,0.0,3.0,1.2854273265870415
1.14975,46.59829527711532,54.9298011407152,0.0,0.0,0.0,3.0,1.2854273265870415
1.149875,71.42661421236798,-54.489167348381095,0.0,0.0,0.0,3.0,1.2854273265870415
1.15,-19.70154634898874,7.096347082658561,0.0,0.0,0.0,3.0,1.2854273265870415
1.150125,7.309483334494166,28.023471161186887,0.0,0.0,0.0,3.0,1.2854273265870415
1.15025,-31.160783648376086,41.77555194380524,0.0,0.0,0.0,3.0,1.2854273265870415
1.150375,103.62156667099156,29.21927246843872,0.0,0.0,0.0,3.0,1.2854273265870415
1.1505,-4.695431364970401,36.39427731088423,0.0,0.0,0.0,3.0,1.2854273265870415
1.150625,-76.99770205513245,-84.98302134167054,0.0,0.0,0.0,3.0,1.2854273265870415
1.15075,48.78095676007687,44.16718280695565,0.0,0.0,0.0,3.0,1.2854273265870415
1.150875,-33.61636080835868,-139.69250676912182,0.0,0.0,0.0,3.0,1.2854273265870415
1.151,113.17089862627559,-103.21955912782673,0.0,0.0,0.0,3.0,1.2854273265870415
1.151125,-12.880633906765915,-20.40795498421928,0.0,0.0,0.0,3.0,1.2854273265870415
1.15125,-65.53850786285525,-101.72477414270635,0.0,0.0,0.0,3.0,1.2854273265870415
1.151375,38.14020784909174,16.662921559348472,0.0,0.0,0.0,3.0,1.2854273265870415
1.1515,4.581033604600694,28.621269766636132,0.0,0.0,0.0,3.0,1.2854273265870415
1.1516250000000001,-30.888015767161313,-137.30092456425353,0.0,0.0,0.0,3.0,1.2854273265870415
1.15175,166.64724922841063,71.37235596271135,0.0,0.0,0.0,3.0,1.2854273265870415
1.151875,-95.55081788695372,-37.74762884851629,0.0,0.0,0.0,3.0,1.2854273265870415
1.152,-15.063387762106327,-44.922654100597185,0.0,0.0,0.0,3.0,1.2854273265870415
1.152125,18.7686355675825,-70.03520284651262,0.0,0.0,0.0,3.0,1.2854273265870415
1.15225,-30.069513914520602,2.9107591381887845,0.0,0.0,0.0,3.0,1.2854273265870415
1.152375,-37.70902058176311,-139.09471836849025,0.0,0.0,0.0,3.0,1.2854273265870415
1.1525,-31.4337301161901,39.6826802525348,0.0,0.0,0.0,3.0,1.2854273265870415
1.152625,-94.45948657151229,-21.902882836787043,0.0,0.0,0.0,3.0,1.2854273265870415
1.15275,-8.788128087326346,-53.89149120074386,0.0,0.0,0.0,3.0,1.2854273265870415
1.152875,1.3069126327885385,60.31080024355921,0.0,0.0,0.0,3.0,1.2854273265870415
1.153,-123.92608725681926,32.8065798152227,0.0,0.0,0.0,3.0,1.2854273265870415
1.153125,70.06225021489222,-122.05412239122703,0.0,0.0,0.0,3.0,1.2854273265870415
1.1532499999999999,52.05488682897257,239.68608931339247,0.0,0.0,0.0,3.0,1.2854273265870415
1.153375,-24.885640978609402,-183.6396956853665,0.0,0.0,0.0,3.0,1.2854273265870415
1.1535,86.15972673118432,62.403465472670156,0.0,0.0,0.0,3.0,1.2854273265870415
1.153625,-66.08429610978718,-10.841472350888372,0.0,0.0,0.0,3.0,1.2854273265870415
1.15375,-12.33506620562203,13.075234268504614,0.0,0.0,0.0,3.0,1.2854273265870415
1.153875,135.2706872016124,9.188746986510168,0.0,0.0,0.0,3.0,1.2854273265870415
1.154,-27.341218138591994,-108.30207458886788,0.0,0.0,0.0,3.0,1.2854273265870415
1.154125,-99.91635023026903,49.249206070942584,0.0,0.0,0.0,3.0,1.2854273265870415
1.15425,-24.06717722284157,-24.593642611059526,0.0,0.0,0.0,3.0,1.2854273265870415
1.154375,-1.421569035819217,118.9066198807399,0.0,0.0,0.0,3.0,1.2854273265870415
1.1545,-62.2646147429111,-30.273872673202334,0.0,0.0,0.0,3.0,1.2854273265870415
1.154625,-16.427695188233436,-81.3958544965277,0.0,0.0,0.0,3.0,1.2854273265870415
1.15475,-34.98075559662742,-59.272908701112264,0.0,0.0,0.0,3.0,1.2854273265870415
1.154875,-28.432629510095154,-54.78853097030957,0.0,0.0,0.0,3.0,1.2854273265870415
1.155,38.68570050441115,-7.852002063018106,0.0,0.0,0.0,3.0,1.2854273265870415
1.155125,76.88313244028275,93.49506468151431,0.0,0.0,0.0,3.0,1.2854273265870415
1.15525,-13.972179609836788,-163.01166990350723,0.0,0.0,0.0,3.0,1.2854273265870415
1.155375,-34.70792498590539,160.7607785602438,0.0,0.0,0.0,3.0,1.2854273265870415
1.1555,-96.36950333643097,-83.18968675422892,0.0,0.0,0.0,3.0,1.2854273265870415
1.1556250000000001,-78.90782350874716,-22.202083181632787,0.0,0.0,0.0,3.0,1.2854273265870415
1.15575,109.89659849390357,65.99077518526033,0.0,0.0,0.0,3.0,1.2854273265870415
1.155875,-21.066013887239308,-55.68547889651622,0.0,0.0,0.0,3.0,1.2854273265870415
1.156,-114.92255643874499,-15.923965036487933,0.0,0.0,0.0,3.0,1.2854273265870415
1.156125,110.71508688230576,-102.32308298903895,0.0,0.0,0.0,3.0,1.2854273265870415
1.15625,-39.073389589476164,83.62930243060246,0.0,0.0,0.0,3.0,1.2854273265870415
1.156375,4.03512219449688,-40.737578762816966,0.0,0.0,0.0,3.0,1.2854273265870415
1.1565,82.61267719207328,-38.34591728521355,0.0,0.0,0.0,3.0,1.2854273265870415
1.156625,46.052285336473965,212.4805589890184,0.0,0.0,0.0,3.0,1.2854273265870415
1.15675,-144.38917559852774,-49.1084743900671,0.0,0.0,0.0,3.0,1.2854273265870415
1.156875,43.596726650967156,196.33676178520258,0.0,0.0,0.0,3.0,1.2854273265870415
1.157,-26.79569469247958,-28.18136051635639,0.0,0.0,0.0,3.0,1.2854273265870415
1.157125,11.40172435311417,-38.047012880080096,0.0,0.0,0.0,3.0,1.2854273265870415
1.15725,28.31773293887929,1.1165901215046106,0.0,0.0,0.0,3.0,1.2854273265870415
1.157375,103.34838619315094,-43.129332083779374,0.0,0.0,0.0,3.0,1.2854273265870415
1.1575,-112.4670839674585,29.218690793831698,0.0,0.0,0.0,3.0,1.2854273265870415
1.157625,84.79533251687624,32.80620223696902,0.0,0.0,0.0,3.0,1.2854273265870415
1.15775,9.764654056009517,-15.326197045491746,0.0,0.0,0.0,3.0,1.2854273265870415
1.157875,-22.7031519240885,-5.460565091403371,0.0,0.0,0.0,3.0,1.2854273265870415
1.158,-14.24515071028524,65.99059149854233,0.0,0.0,0.0,3.0,1.2854273265870415
1.158125,22.588064449956203,-0.9761975654183435,0.0,0.0,0.0,3.0,1.2854273265870415
1.15825,-50.53271310308378,-34.16065589490912,0.0,0.0,0.0,3.0,1.2854273265870415
1.158375,5.944898791230304,-31.76899441730577,0.0,0.0,0.0,3.0,1.2854273265870415
1.1585,-24.613057842152408,-91.859723863225,0.0,0.0,0.0,3.0,1.2854273265870415
1.158625,52.87315467158668,-8.450208861173977,0.0,0.0,0.0,3.0,1.2854273265870415
1.15875,114.26185930428004,-20.109622048875178,0.0,0.0,0.0,3.0,1.2854273265870415
1.158875,-36.61797254161698,22.043563493574133,0.0,0.0,0.0,3.0,1.2854273265870415
1.159,-9.061271616215386,38.48629963648215,0.0,0.0,0.0,3.0,1.2854273265870415
1.159125,-25.977292518297748,29.218558131202027,0.0,0.0,0.0,3.0,1.2854273265870415
1.1592500000000001,35.957109136869974,-122.05462242729271,0.0,0.0,0.0,3.0,1.2854273265870415
1.159375,45.23361721355123,9.786208832976403,0.0,0.0,0.0,3.0,1.2854273265870415
1.1595,-22.430396359190915,19.352885357842986,0.0,0.0,0.0,3.0,1.2854273265870415
1.1596250000000001,-79.72655321325587,-11.738828469801707,0.0,0.0,0.0,3.0,1.2854273265870415
1.15975,-27.614337034846656,11.579939042500895,0.0,0.0,0.0,3.0,1.2854273265870415
1.159875,4.034949766056233,-106.50882163996754,0.0,0.0,0.0,3.0,1.2854273265870415
1.16,192.2936940816494,79.74254745754247,0.0,0.0,0.0,3.0,1.2854273265870415
1.160125,-131.2931031599837,-96.64319989069682,0.0,0.0,0.0,3.0,1.2854273265870415
1.16025,-185.0423453804661,150.89473841344875,0.0,0.0,0.0,3.0,1.2854273265870415
1.160375,102.80255426514817,-53.59315826539981,0.0,0.0,0.0,3.0,1.2854273265870415
1.1605,-11.51689188330814,0.8173693670234765,0.0,0.0,0.0,3.0,1.2854273265870415
1.160625,-123.10795604161552,118.30819878141298,0.0,0.0,0.0,3.0,1.2854273265870415
1.16075,-92.82284734550932,-53.892144309074546,0.0,0.0,0.0,3.0,1.2854273265870415
1.1608749999999999,175.3776426757544,93.49459525990163,0.0,0.0,0.0,3.0,1.2854273265870415
1.161,-54.62543445807416,-62.26300148286022,0.0,0.0,0.0,3.0,1.2854273265870415
1.161125,-137.295587647469,-77.21095264064782,0.0,0.0,0.0,3.0,1.2854273265870415
1.16125,95.43587205046916,80.63931169703118,0.0,0.0,0.0,3.0,1.2854273265870415
1.161375,-78.90810678404252,86.91745025181137,0.0,0.0,0.0,3.0,1.2854273265870415
1.1615,-3.8774664200487257,-99.93185011377756,0.0,0.0,0.0,3.0,1.2854273265870415
1.161625,34.8656496480194,0.5183220944426816,0.0,0.0,0.0,3.0,1.2854273265870415
1.16175,112.8975205133993,-52.098465123638384,0.0,0.0,0.0,3.0,1.2854273265870415
1.161875,-43.71192382403279,2.909973367228424,0.0,0.0,0.0,3.0,1.2854273265870415
1.162,-138.65983463993152,-5.161946421164591,0.0,0.0,0.0,3.0,1.2854273265870415
1.162125,162.55416511602385,-50.90264577255748,0.0,0.0,0.0,3.0,1.2854273265870415
1.16225,-38.800849560129336,-39.542236672360204,0.0,0.0,0.0,3.0,1.2854273265870415
1.162375,-47.25886309024984,-14.13072465821146,0.0,0.0,0.0,3.0,1.2854273265870415
1.1625,14.402702943958596,-61.66521308222864,0.0,0.0,0.0,3.0,1.2854273265870415
1.162625,25.589086147910788,31.908899507950164,0.0,0.0,0.0,3.0,1.2854273265870415
1.16275,-33.889781454384476,61.50581577985062,0.0,0.0,0.0,3.0,1.2854273265870415
1.162875,15.221191332360752,16.064071857679526,0.0,0.0,0.0,3.0,1.2854273265870415
1.163,240.04032779053355,-74.8194340304918,0.0,0.0,0.0,3.0,1.2854273265870415
1.163125,-121.19820407751648,2.012976782739579,0.0,0.0,0.0,3.0,1.2854273265870415
1.1632500000000001,-210.14362811008723,39.38281896034685,0.0,0.0,0.0,3.0,1.2854273265870415
1.163375,98.16414935192198,-65.55173334448229,0.0,0.0,0.0,3.0,1.2854273265870415
1.1635,123.53815241937114,-21.604786978055426,0.0,0.0,0.0,3.0,1.2854273265870415
1.163625,-49.98730666198472,27.723413611657115,0.0,0.0,0.0,3.0,1.2854273265870415
1.16375,-84.36501354990942,20.847343788798007,0.0,0.0,0.0,3.0,1.2854273265870415
1.163875,-4.4232546669806485,-23.39857841648598,0.0,0.0,0.0,3.0,1.2854273265870415
1.164,-19.156539040277014,80.6390871910425,0.0,0.0,0.0,3.0,1.2854273265870415
1.164125,-102.09955363118691,84.22659863417982,0.0,0.0,0.0,3.0,1.2854273265870415
1.16425,30.772934451187613,-66.44869931451814,0.0,0.0,0.0,3.0,1.2854273265870415
1.164375,85.61351972946794,107.24640051244297,0.0,0.0,0.0,3.0,1.2854273265870415
1.1645,-40.71083553425503,-95.14877991320627,0.0,0.0,0.0,3.0,1.2854273265870415
1.164625,-16.97385908283968,78.2473644845331,0.0,0.0,0.0,3.0,1.2854273265870415
1.16475,28.044527828404302,-40.14035162715707,0.0,0.0,0.0,3.0,1.2854273265870415
1.1648749999999999,-83.54653632990309,-70.03624373791465,0.0,0.0,0.0,3.0,1.2854273265870415
1.165,-2.7862705840963757,27.125362251572394,0.0,0.0,0.0,3.0,1.2854273265870415
1.165125,48.7802485718385,3.507618900412665,0.0,0.0,0.0,3.0,1.2854273265870415
1.16525,45.233327780097284,-94.55090203502189,0.0,0.0,0.0,3.0,1.2854273265870415
1.165375,-39.892371778487195,73.46395989078493,0.0,0.0,0.0,3.0,1.2854273265870415
1.1655,-5.2418415859203735,-145.0749549560746,0.0,0.0,0.0,3.0,1.2854273265870415
1.165625,-33.07141622915421,37.289937064258694,0.0,0.0,0.0,3.0,1.2854273265870415
1.16575,82.33938586737794,87.21604851241482,0.0,0.0,0.0,3.0,1.2854273265870415
1.165875,37.593822260776115,-2.4716356588694,0.0,0.0,0.0,3.0,1.2854273265870415
1.166,-98.5527313699832,10.682562513952169,0.0,0.0,0.0,3.0,1.2854273265870415
1.166125,-22.70355836255574,-10.24458197421149,0.0,0.0,0.0,3.0,1.2854273265870415
1.16625,14.948189441119386,-53.89259332105189,0.0,0.0,0.0,3.0,1.2854273265870415
1.166375,14.948183282960791,35.496115011375196,0.0,0.0,0.0,3.0,1.2854273265870415
1.1665,-23.79494510142452,30.114850583271792,0.0,0.0,0.0,3.0,1.2854273265870415
1.166625,-96.64288703350519,-91.56143174715157,0.0,0.0,0.0,3.0,1.2854273265870415
1.16675,-57.35412550407413,37.289845220899686,0.0,0.0,0.0,3.0,1.2854273265870415
1.166875,-58.44547414607003,-39.54261425061388,0.0,0.0,0.0,3.0,1.2854273265870415
1.167,223.12412887581266,-22.203011820040487,0.0,0.0,0.0,3.0,1.2854273265870415
1.167125,-131.83911925878368,-28.48114253580921,0.0,0.0,0.0,3.0,1.2854273265870415
1.1672500000000001,-1.422203326154456,-46.717659912330056,0.0,0.0,0.0,3.0,1.2854273265870415
1.167375,123.53796151645471,-70.03644783426799,0.0,0.0,0.0,3.0,1.2854273265870415
1.1675,-191.04513777588113,25.630381009110152,0.0,0.0,0.0,3.0,1.2854273265870415
1.167625,-143.5712302760032,13.672012392187158,0.0,0.0,0.0,3.0,1.2854273265870415
1.16775,133.9058126509339,-38.944774825893965,0.0,0.0,0.0,3.0,1.2854273265870415
1.167875,-91.18618463479326,24.13554499990139,0.0,0.0,0.0,3.0,1.2854273265870415
1.168,-31.70732934881514,45.959535366095096,0.0,0.0,0.0,3.0,1.2854273265870415
1.168125,95.98120459366508,3.8063294140104484,0.0,0.0,0.0,3.0,1.2854273265870415
1.16825,-105.37381008248809,-43.13021990291641,0.0,0.0,0.0,3.0,1.2854273265870415
1.168375,-24.067873094762753,52.83556436968353,0.0,0.0,0.0,3.0,1.2854273265870415
1.1685,93.79847537095903,-19.811462595431472,0.0,0.0,0.0,3.0,1.2854273265870415
1.168625,-1.9679423078176221,27.42404998972864,0.0,0.0,0.0,3.0,1.2854273265870415
1.16875,-60.08260602476057,44.46469699108019,0.0,0.0,0.0,3.0,1.2854273265870415
1.1688749999999999,-11.790140100893346,63.89698742620601,0.0,0.0,0.0,3.0,1.2854273265870415
1.169,45.505978656298765,5.0020796971738894,0.0,0.0,0.0,3.0,1.2854273265870415
1.169125,-43.16660975531265,-55.088649748745404,0.0,0.0,0.0,3.0,1.2854273265870415
1.16925,-114.92320920355601,-56.88242077754056,0.0,0.0,0.0,3.0,1.2854273265870415
1.169375,127.08476472922197,55.825065272006796,0.0,0.0,0.0,3.0,1.2854273265870415
1.1695,-115.46891854234757,-89.46895020475863,0.0,0.0,0.0,3.0,1.2854273265870415
1.169625,-86.82084935255298,60.60838822721362,0.0,0.0,0.0,3.0,1.2854273265870415
1.16975,187.92779224881843,-64.65538750251798,0.0,0.0,0.0,3.0,1.2854273265870415
1.169875,10.309753737100218,26.228097976018006,0.0,0.0,0.0,3.0,1.2854273265870415
1.17,-1.4223388056435362,57.917730501117745,0.0,0.0,0.0,3.0,1.2854273265870415
1.170125,-25.159301792820386,48.948944425059416,0.0,0.0,0.0,3.0,1.2854273265870415
1.17025,-83.00112988880403,82.13338234491486,0.0,0.0,0.0,3.0,1.2854273265870415
1.170375,146.7291121980259,-92.75758785721554,0.0,0.0,0.0,3.0,1.2854273265870415
1.1705,81.79346772515485,97.67921374669304,0.0,0.0,0.0,3.0,1.2854273265870415
1.170625,-84.63818786959143,-81.99507157163266,0.0,0.0,0.0,3.0,1.2854273265870415
1.17075,-34.43584681845321,57.91766927221175,0.0,0.0,0.0,3.0,1.2854273265870415
1.170875,-70.45056743213384,-28.78040410956101,0.0,0.0,0.0,3.0,1.2854273265870415
1.171,157.36978663714723,79.44269400436599,0.0,0.0,0.0,3.0,1.2854273265870415
1.171125,-37.7099443055523,-41.635677467613846,0.0,0.0,0.0,3.0,1.2854273265870415
1.1712500000000001,-85.4567255232624,113.22503257784737,0.0,0.0,0.0,3.0,1.2854273265870415
1.171375,-103.1912532882227,136.2448446609282,0.0,0.0,0.0,3.0,1.2854273265870415
1.1715,112.07853331415096,-80.20138218137883,0.0,0.0,0.0,3.0,1.2854273265870415
1.171625,-50.260536405094086,-10.54398641541063,0.0,0.0,0.0,3.0,1.2854273265870415
1.17175,-29.524803345342725,99.47287252249386,0.0,0.0,0.0,3.0,1.2854273265870415
1.171875,67.60578012191338,-84.6858007314522,0.0,0.0,0.0,3.0,1.2854273265870415
1.172,26.679966769853507,93.19470335326066,0.0,0.0,0.0,3.0,1.2854273265870415
1.172125,25.042921105383233,-108.30355428742959,0.0,0.0,0.0,3.0,1.2854273265870415
1.17225,-66.08521367541778,-61.06809819956314,0.0,0.0,0.0,3.0,1.2854273265870415
1.172375,-21.88535940760747,92.59676188036414,0.0,0.0,0.0,3.0,1.2854273265870415
1.1725,76.06375670308229,-129.82865829231898,0.0,0.0,0.0,3.0,1.2854273265870415
1.172625,17.94909298613931,69.87587461205207,0.0,0.0,0.0,3.0,1.2854273265870415
1.17275,-39.61989948888496,147.6051658372722,0.0,0.0,0.0,3.0,1.2854273265870415
1.172875,-239.8835716812009,80.63836264898815,0.0,0.0,0.0,3.0,1.2854273265870415
1.173,-75.90746188168356,91.40088913938864,0.0,0.0,0.0,3.0,1.2854273265870415
1.173125,121.9006387348477,45.36120611012722,0.0,0.0,0.0,3.0,1.2854273265870415
1.17325,-33.617463118747104,39.68098625280208,0.0,0.0,0.0,3.0,1.2854273265870415
1.173375,-74.81611209176634,-61.36714547214393,0.0,0.0,0.0,3.0,1.2854273265870415
1.1735,125.17468638271738,134.74987990859555,0.0,0.0,0.0,3.0,1.2854273265870415
1.173625,-46.986581703563985,26.227791831487995,0.0,0.0,0.0,3.0,1.2854273265870415
1.17375,86.7044132416885,96.78208213376837,0.0,0.0,0.0,3.0,1.2854273265870415
1.173875,-58.99149024486996,-82.89220318455737,0.0,0.0,0.0,3.0,1.2854273265870415
1.174,9.763853495392226,70.47367321750131,0.0,0.0,0.0,3.0,1.2854273265870415
1.174125,44.4143836879591,-174.0747029554149,0.0,0.0,0.0,3.0,1.2854273265870415
1.17425,-24.34099814917601,65.69030944302382,0.0,0.0,0.0,3.0,1.2854273265870415
1.174375,5.398439305011575,-61.06827168146348,0.0,0.0,0.0,3.0,1.2854273265870415
1.1745,32.13660758697948,162.55296392279485,0.0,0.0,0.0,3.0,1.2854273265870415
1.174625,-51.352052465293355,-31.172381936512096,0.0,0.0,0.0,3.0,1.2854273265870415
1.17475,-41.25701174517841,176.30506274924232,0.0,0.0,0.0,3.0,1.2854273265870415
1.1748750000000001,-60.355743395491075,-90.0672998703619,0.0,0.0,0.0,3.0,1.2854273265870415
1.175,-16.701534589043717,55.226695196768254,0.0,0.0,0.0,3.0,1.2854273265870415
1.175125,67.60562000978992,-9.348422184771398,0.0,0.0,0.0,3.0,1.2854273265870415
1.1752500000000001,-131.83951953909232,-120.2621960686234,0.0,0.0,0.0,3.0,1.2854273265870415
1.175375,62.42167933413418,52.53603747067238,0.0,0.0,0.0,3.0,1.2854273265870415
1.1755,79.88335916181795,-83.49027495427738,0.0,0.0,0.0,3.0,1.2854273265870415
1.175625,-57.35456273333434,26.825539412848904,0.0,0.0,0.0,3.0,1.2854273265870415
1.17575,52.59947538289989,34.000544255294415,0.0,0.0,0.0,3.0,1.2854273265870415
1.175875,13.31067575659598,0.5171587452286415,0.0,0.0,0.0,3.0,1.2854273265870415
1.176,-65.53972717825698,121.89443698814813,0.0,0.0,0.0,3.0,1.2854273265870415
1.176125,39.230356798083015,-39.24441397789945,0.0,0.0,0.0,3.0,1.2854273265870415
1.17625,9.49090702757821,42.07241301959909,0.0,0.0,0.0,3.0,1.2854273265870415
1.176375,-21.339859446208184,88.41100281980023,0.0,0.0,0.0,3.0,1.2854273265870415
1.1764999999999999,44.959937924864434,-152.54982345651425,0.0,0.0,0.0,3.0,1.2854273265870415
1.176625,37.04762141721833,116.51313174077409,0.0,0.0,0.0,3.0,1.2854273265870415
1.17675,-62.53854651610025,-80.79974989081124,0.0,0.0,0.0,3.0,1.2854273265870415
1.176875,6.489658625676992,42.67027285395434,0.0,0.0,0.0,3.0,1.2854273265870415
1.177,20.131588198818804,-44.92469506413059,0.0,0.0,0.0,3.0,1.2854273265870415
1.177125,20.13158204066021,2.9087283794730476,0.0,0.0,0.0,3.0,1.2854273265870415
1.17725,-142.20750056886268,13.372271192005005,0.0,0.0,0.0,3.0,1.2854273265870415
1.177375,44.959894817754275,12.176411021653372,0.0,0.0,0.0,3.0,1.2854273265870415
1.1775,170.1928952813228,-9.049660647085279,0.0,0.0,0.0,3.0,1.2854273265870415
1.177625,28.589564779987686,-12.637192499857933,0.0,0.0,0.0,3.0,1.2854273265870415
1.17775,-186.13455000650663,31.907664725012452,0.0,0.0,0.0,3.0,1.2854273265870415
1.177875,250.13462895765645,-38.6466177382564,0.0,0.0,0.0,3.0,1.2854273265870415
1.178,-82.4558404527182,40.87642018661784,0.0,0.0,0.0,3.0,1.2854273265870415
1.178125,-149.028511541623,-4.565351984200053,0.0,0.0,0.0,3.0,1.2854273265870415
1.17825,53.690694703565306,15.464905806662955,0.0,0.0,0.0,3.0,1.2854273265870415
1.178375,193.3841442064511,-24.894567570091052,0.0,0.0,0.0,3.0,1.2854273265870415
1.1785,-284.6294062467809,13.372169143828335,0.0,0.0,0.0,3.0,1.2854273265870415
1.178625,-31.707852792295675,16.06278605065348,0.0,0.0,0.0,3.0,1.2854273265870415
1.17875,24.496923481059095,-82.5936457432246,0.0,0.0,0.0,3.0,1.2854273265870415
1.1788750000000001,107.43989997509611,-30.574818041869193,0.0,0.0,0.0,3.0,1.2854273265870415
1.179,-95.27931858640943,-22.20399148253652,0.0,0.0,0.0,3.0,1.2854273265870415
1.179125,5.398205294984981,-16.224808356978123,0.0,0.0,0.0,3.0,1.2854273265870415
1.17925,75.79058854155885,-26.688399827792214,0.0,0.0,0.0,3.0,1.2854273265870415
1.179375,-31.43505412028793,2.908544692755042,0.0,0.0,0.0,3.0,1.2854273265870415
1.1795,76.06341184620099,-82.5937069721306,0.0,0.0,0.0,3.0,1.2854273265870415
1.179625,119.71760776237048,66.58676517217631,0.0,0.0,0.0,3.0,1.2854273265870415
1.17975,-104.28303414924153,-3.0706792520740223,0.0,0.0,0.0,3.0,1.2854273265870415
1.179875,-77.27197868520288,76.45238692144703,0.0,0.0,0.0,3.0,1.2854273265870415
1.18,53.69060848934498,-41.6364020096682,0.0,0.0,0.0,3.0,1.2854273265870415
1.180125,92.70654728809457,-61.068741103076164,0.0,0.0,0.0,3.0,1.2854273265870415
1.18025,41.140028706120354,-54.79060254829597,0.0,0.0,0.0,3.0,1.2854273265870415
1.180375,-162.67055811977818,57.020017213586065,0.0,0.0,0.0,3.0,1.2854273265870415
1.1804999999999999,11.127737156497677,71.37000885464795,0.0,0.0,0.0,3.0,1.2854273265870415
1.180625,-132.3854555818305,-35.05934884493689,0.0,0.0,0.0,3.0,1.2854273265870415
1.18075,-7.152468008539903,163.44933409390023,0.0,0.0,0.0,3.0,1.2854273265870415
1.180875,157.91498427481474,-132.51996912674554,0.0,0.0,0.0,3.0,1.2854273265870415
1.181,2.6697051519014425,102.16274447762937,0.0,0.0,0.0,3.0,1.2854273265870415
1.181125,-125.01884110689603,-30.276046299365408,0.0,0.0,0.0,3.0,1.2854273265870415
1.18125,88.0682347472473,-89.76886488684111,0.0,0.0,0.0,3.0,1.2854273265870415
1.181375,61.33004125868433,93.19393799193564,0.0,0.0,0.0,3.0,1.2854273265870415
1.1815,-26.251230449645487,-105.31476535653677,0.0,0.0,0.0,3.0,1.2854273265870415
1.181625,102.25583613626844,3.5062718644806186,0.0,0.0,0.0,3.0,1.2854273265870415
1.18175,-7.698188515727285,4.104172518106479,0.0,0.0,0.0,3.0,1.2854273265870415
1.181875,-48.07833062586853,-33.564645498357805,0.0,0.0,0.0,3.0,1.2854273265870415
1.182,-54.89930464967736,51.93758575689245,0.0,0.0,0.0,3.0,1.2854273265870415
1.182125,181.10620828032842,8.887485268495631,0.0,0.0,0.0,3.0,1.2854273265870415
1.18225,139.08903955415335,-43.7293019495855,0.0,0.0,0.0,3.0,1.2854273265870415
1.182375,-45.895644510272604,81.83343704837937,0.0,0.0,0.0,3.0,1.2854273265870415
1.1825,-69.90546889896451,-28.482397728382253,0.0,0.0,0.0,3.0,1.2854273265870415
1.182625,125.4470724580993,75.85422330836796,0.0,0.0,0.0,3.0,1.2854273265870415
1.18275,72.78919850200992,12.773911321584073,0.0,0.0,0.0,3.0,1.2854273265870415
1.1828750000000001,-40.71174078356843,-105.61383303875289,0.0,0.0,0.0,3.0,1.2854273265870415
1.183,-7.425414476353918,118.60532754827236,0.0,0.0,0.0,3.0,1.2854273265870415
1.183125,63.512665792694314,-101.42842094198966,0.0,0.0,0.0,3.0,1.2854273265870415
1.18325,-178.7681818579159,169.72726463282135,0.0,0.0,0.0,3.0,1.2854273265870415
1.183375,-110.83131919997595,67.78228074453342,0.0,0.0,0.0,3.0,1.2854273265870415
1.1835,182.19749591469903,-144.17958641080008,0.0,0.0,0.0,3.0,1.2854273265870415
1.183625,-57.90062809740308,104.55420185887944,0.0,0.0,0.0,3.0,1.2854273265870415
1.18375,-22.704426662917573,7.6915026403320494,0.0,0.0,0.0,3.0,1.2854273265870415
1.183875,-102.10052662024485,-80.20239245832788,0.0,0.0,0.0,3.0,1.2854273265870415
1.184,57.78299730377123,72.56557308528724,0.0,0.0,0.0,3.0,1.2854273265870415
1.184125,45.50523351910882,-112.4899664563242,0.0,0.0,0.0,3.0,1.2854273265870415
1.18425,-110.5585266861268,48.050924992997665,0.0,0.0,0.0,3.0,1.2854273265870415
1.184375,88.34091641424178,32.80401840598827,0.0,0.0,0.0,3.0,1.2854273265870415
1.1844999999999999,43.868201318877105,-23.99817306984456,0.0,0.0,0.0,3.0,1.2854273265870415
1.184625,-76.45370583235147,70.17385037877783,0.0,0.0,0.0,3.0,1.2854273265870415
