Time (s),Accel X (m/s^2),Accel Y (m/s^2),Accel Z (m/s^2)
0.0,-0.058095595836639397,-0.123043754196167,0.0347595920562746
0.000605693519079346,-0.010195205211639401,0.025447456741333,0.22875617408752502
0.00121138703815869,-0.0317503809928894,0.16196357002258302,0.255101388931275
0.00181708055723804,-0.0389354395866394,0.011077339553832999,0.0898450412750246
0.00242277407631738,0.0448902440071106,-0.101488578414917,0.22396613502502502
0.00302846759539673,-0.058095595836639397,-0.13741387138366698,0.20001593971252501
0.00363416111447607,-0.0892308497428894,-0.034428031539917,-0.06343620872497541
0.00423985463355542,-0.228141982555389,0.063767769241333,-0.029905935287475403
0.00484554815263477,-0.201796767711639,0.032632515335083,0.15930060768127502
0.00545124167171411,0.06405040025711059,-0.036823051071167,0.336532052993775
0.00605693519079346,-0.0844408106803894,0.035027534866333,0.10421515846252499
0.0066626287098728,0.0161500096321106,0.099693062210083,-0.0442760524749754
0.00726832222895215,-0.0628856348991394,-0.139808890914917,0.21438605690002502
0.0078740157480315,-0.0317503809928894,-0.010477836227417001,0.14014045143127501
0.00847970926711084,-0.129946181774139,0.140408394241333,-0.0251158962249754
0.00908540278619019,0.0856055760383606,0.049397652053833,-0.171212087631225
0.00969109630526953,0.200566513538361,-0.024847953414917,-0.14965691184997498
0.0102967898243489,-0.108391005992889,0.025447456741333,0.444307931900025
0.0109024833434282,0.169431259632111,0.070952827835083,0.456283029556275
0.0115081768625076,0.234096786975861,-0.063168265914917,0.0994251194000246
0.0121138703815869,-0.0964159083366394,-0.108673637008667,0.17367072486877502
0.0127195639006663,-0.0293553614616394,0.013472359085083,0.123375314712525
0.0133252574197456,-0.0054051661491394,-0.036823051071167,0.0682898654937746
0.013930950938825,0.157456161975861,0.078137886428833,0.0491297092437746
0.0145366444579043,0.0472852635383606,0.159568550491333,0.152115549087525
0.0151423379769836,-0.185031630992889,-0.089513480758667,0.0922400608062746
0.015748031496063,-0.242512099742889,0.011077339553832999,0.120980295181275
0.0163537250151423,-0.101205947399139,0.023052437210082998,-0.0227208766937254
0.0169594185342217,0.131110947132111,-0.084723441696167,0.0994251194000246
0.017565112053301,-0.139526259899139,-0.113463676071167,0.252706369400025
0.0181708055723804,-0.228141982555389,-0.33141045341491704,0.0682898654937746
0.0187764990914597,-0.259277236461639,-0.036823051071167,0.0587097873687746
0.0193821926105391,0.0568653416633606,0.18112372627258302,-0.0921764430999754
0.0199878861296184,0.10476573228836099,0.214653999710083,-0.0346959743499754
0.0205935796486978,-0.132341201305389,-0.103883597946167,0.197620920181275
0.0211992731677771,-0.050910537242889395,-0.27153496513366704,0.21917609596252502
0.0218049666868564,0.131110947132111,-0.020057914352417,-0.123311697006225
0.0224106602059358,0.167036240100861,-0.123043754196167,0.0658948459625246
0.0230163537250151,-0.11797108411788901,-0.065563285446167,0.0850550022125246
0.0236220472440945,0.14308604478836098,-0.039218070602417,0.015599435806274601
0.0242277407631738,-0.0341454005241394,-0.046403129196167,0.118585275650025
0.0248334342822532,-0.175451552867889,0.049397652053833,0.0251795139312746
0.0254391278013325,-0.0317503809928894,-0.036823051071167,0.15451056861877502
0.0260448213204119,-0.0269603419303894,-0.067958304977417,0.21438605690002502
0.0266505148394912,0.0592603611946106,-0.149388969039917,-0.0394860134124754
0.0272562083585706,-0.101205947399139,-0.082328422164917,-0.0945714626312254
0.0278619018776499,-0.0389354395866394,0.17633368721008302,0.156905588150025
0.0284675953967293,-0.127551162242889,0.013472359085083,0.0539197483062746
0.0290732889158086,0.0592603611946106,0.10448310127258299,0.0778699436187746
0.0296789824348879,0.011359970569610599,-0.118253715133667,0.176065744400025
0.0302846759539673,-0.048515517711639394,0.032632515335083,0.245521310806275
0.0308903694730466,-0.0413304591178894,-0.070353324508667,-0.0706212673187254
0.031496062992126,-0.252092177867889,-0.024847953414917,0.0658948459625246
0.0321017565112053,0.0161500096321106,0.114063179397583,0.0850550022125246
0.0327074500302847,0.14308604478836098,-0.000897758102416984,0.0826599826812746
0.033313143549364,-0.0006151270866394039,0.16675360908508302,0.0706848850250246
0.0339188370684434,-0.108391005992889,0.073347847366333,0.0443396701812746
0.0345245305875227,-0.228141982555389,0.149988472366333,0.0754749240875246
0.0351302241066021,-0.053305556774139395,-0.000897758102416984,0.132955392837525
0.0357359176256814,-0.046120498180389394,0.102088081741333,0.183250802993775
0.0363416111447607,-0.153896377086639,-0.072748344039917,-0.00835075950622537
0.0369473046638401,-0.0341454005241394,-0.16854912528991697,0.314976877212525
0.0375529981829194,-0.105995986461639,-0.113463676071167,0.015599435806274601
0.0381586917019988,-0.0245653223991394,-0.048798148727417,-0.0203258571624754
0.0387643852210781,-0.17066151380538902,-0.091908500289917,0.772425607681275
0.0393700787401575,-0.15150135755538902,-0.22123955497741699,0.451492990493775
0.0399757722592368,0.0185450291633606,-0.067958304977417,-0.346048513412475
0.0405814657783162,0.0065699315071106,-0.046403129196167,0.23833625221252502
0.0411871592973955,-0.0317503809928894,-0.036823051071167,0.34850715065002497
0.0417928528164749,0.040100204944610605,-0.000897758102416984,-0.00835075950622537
0.0423985463355542,-0.055700576305389396,-0.048798148727417,0.029969552993774597
0.0430042398546336,-0.11557606458663901,0.063767769241333,-0.051461111068725404
0.0436099333737129,0.10955577135086099,0.044607612991333,0.142535470962525
0.0442156268927922,-0.0437254786491394,-0.022452933883667002,0.17846076393127502
0.0448213204118716,-0.144316298961639,0.080532905960083,0.0515247287750246
0.0454270139309509,-0.0652806544303894,0.135618355178833,-0.132891775131225
0.0460327074500303,-0.12036610364913901,-0.096698539352417,-0.176002126693725
0.0466384009691096,-0.11557606458663901,-0.017662894821167,-0.0346959743499754
0.047244094488189,-0.0293553614616394,-0.048798148727417,0.0850550022125246
0.0478497880072683,-0.189821670055389,-0.082328422164917,-0.0179308376312254
0.0484554815263477,-0.149106338024139,0.087717964553833,0.0515247287750246
0.049061175045427,-0.0868358302116394,0.037422554397583,0.17367072486877502
0.0496668685645064,-0.0940208888053894,-0.07514336357116701,0.120980295181275
0.0502725620835857,-0.132341201305389,0.035027534866333,-0.0921764430999754
0.050878255602665,-0.048515517711639394,0.027842476272583,0.0227844944000246
0.0514839491217444,-0.187426650524139,-0.010477836227417001,0.00122931861877463
0.0520896426408237,-0.058095595836639397,0.049397652053833,-0.0203258571624754
0.0526953361599031,0.0808155369758606,-0.273929984664917,0.106610177993775
0.0533010296789824,-0.0604906153678894,0.025447456741333,0.0874500217437746
0.0539067231980618,0.0257300877571106,-0.065563285446167,0.190435861587525
0.0545124167171411,-0.134736220836639,-0.15178398857116698,0.303001779556275
0.0551181102362205,0.0880005955696106,0.020657417678832998,0.15930060768127502
0.0557238037552998,-0.153896377086639,-0.072748344039917,-0.0251158962249754
0.0563294972743792,-0.0940208888053894,-0.158969047164917,0.0323645725250246
0.0569351907934585,0.0808155369758606,0.183518745803833,-0.051461111068725404
0.0575408843125379,0.042495224475860606,0.19070380439758303,0.0946350803375246
0.0581465778316172,0.205356552600861,-0.120648734664917,0.130560373306275
0.0587522713506965,0.0472852635383606,0.011077339553832999,0.197620920181275
0.0593579648697759,0.0520753026008606,0.102088081741333,-0.0394860134124754
0.0599636583888552,-0.0078001856803894,-0.084723441696167,0.0203894748687746
0.0605693519079346,-0.010195205211639401,-0.285905082321167,0.283841623306275
0.0611750454270139,-0.053305556774139395,-0.125438773727417,0.00362433815002463
0.0617807389460933,-0.048515517711639394,-0.017662894821167,-0.0203258571624754
0.0623864324651726,-0.0293553614616394,0.056582710647583,0.106610177993775
0.062992125984252,-0.053305556774139395,0.049397652053833,0.0754749240875246
0.0635978195033313,-0.11557606458663901,0.020657417678832998,0.0539197483062746
0.0642035130224107,-0.141921279430389,-0.084723441696167,0.14972052955627502
0.06480920654149,0.126320908069611,-0.17333916435241697,0.14014045143127501
0.0654149000605694,0.0903956151008606,-0.089513480758667,-0.0802013454437254
0.0660205935796487,0.0927906346321106,0.082927925491333,0.183250802993775
0.066626287098728,0.10476573228836099,0.090112984085083,0.274261545181275
0.0672319806178074,0.0257300877571106,-0.039218070602417,0.14493049049377502
0.0678376741368867,-0.0006151270866394039,0.080532905960083,0.15451056861877502
0.0684433676559661,-0.11797108411788901,0.090112984085083,0.0898450412750246
0.0690490611750454,0.167036240100861,-0.14220391044616698,0.37006232643127496
0.0696547546941248,0.040100204944610605,-0.290695121383667,0.0227844944000246
0.0702604482132041,0.0017798924446106,-0.144598929977417,0.281446603775025
0.0708661417322835,-0.129946181774139,0.27692450752258296,0.17367072486877502
0.0714718352513628,0.0041749119758606006,0.17154364814758302,-0.171212087631225
0.0720775287704422,-0.0988109278678894,0.027842476272583,0.185645822525025
0.0726832222895215,-0.223351943492889,-0.15657402763366698,0.0108093967437746
0.0732889158086008,-0.012590224742889402,-0.087118461227417,0.0970300998687746
0.0738946093276802,0.176616318225861,0.114063179397583,0.17367072486877502
0.0745003028467595,0.159851181507111,-0.000897758102416984,0.0539197483062746
0.0751059963658389,-0.0676756739616394,0.169148628616333,0.15930060768127502
0.0757116898849182,0.155061142444611,0.16675360908508302,0.22396613502502502
0.0763173834039976,0.219726669788361,-0.082328422164917,0.132955392837525
0.0769230769230769,0.176616318225861,0.063767769241333,0.17367072486877502
0.0775287704421563,-0.022170302867889402,-0.000897758102416984,0.123375314712525
0.0781344639612356,-0.137131240367889,0.032632515335083,0.0539197483062746
0.078740157480315,-0.046120498180389394,0.020657417678832998,-0.06583122825622541
0.0793458509993943,0.0041749119758606006,-0.18770928153991698,-0.00595573997497537
0.0799515445184737,-0.053305556774139395,0.078137886428833,0.109005197525025
0.080557238037553,0.157456161975861,0.068557808303833,0.120980295181275
0.0811629315566323,0.126320908069611,0.018262398147583,0.12577033424377498
0.0817686250757117,0.0903956151008606,-0.154179008102417,0.14493049049377502
0.082374318594791,0.0927906346321106,-0.079933402633667,0.0970300998687746
0.0829800121138704,-0.192216689586639,0.154778511428833,0.231151193618775
0.0835857056329497,-0.295202529430389,-0.087118461227417,0.29821174049377497
0.0841913991520291,-0.201796767711639,-0.000897758102416984,0.0850550022125246
0.0847970926711084,0.0544703221321106,-0.036823051071167,0.0275745334625246
0.0854027861901878,-0.050910537242889395,-0.13741387138366698,0.132955392837525
0.0860084797092671,-0.127551162242889,0.011077339553832999,-0.00835075950622537
0.0866141732283465,0.035310165882110604,-0.032033012008667,-0.216717458724975
0.0872198667474258,-0.199401748180389,0.00868232002258302,0.14014045143127501
0.0878255602665051,-0.141921279430389,-0.089513480758667,0.305396799087525
0.0884312537855845,-0.134736220836639,0.068557808303833,0.15930060768127502
0.0890369473046638,-0.11557606458663901,-0.096698539352417,0.17846076393127502
0.0896426408237432,-0.0173802638053894,-0.245189750289917,0.130560373306275
0.0902483343428225,-0.11797108411788901,0.015867378616333,-0.0730162868499754
0.0908540278619019,0.179011337757111,-0.194894340133667,0.109005197525025
0.0914597213809812,0.0568653416633606,0.039817573928833,0.132955392837525
0.0920654149000606,-0.0437254786491394,-0.00808281669616698,0.0515247287750246
0.0926711084191399,-0.0796507716178894,-0.065563285446167,0.276656564712525
0.0932768019382193,0.0017798924446106,-0.058378226852417,0.111400217056275
0.0938824954572986,0.040100204944610605,0.015867378616333,-0.21911247825622499
0.094488188976378,-0.0078001856803894,0.066162788772583,0.243126291275025
0.0950938824954573,-0.113181045055389,-0.024847953414917,0.0419446506500246
0.0956995760145366,0.12871592760086098,0.149988472366333,-0.192767263412475
0.096305269533616,0.205356552600861,-0.082328422164917,0.372457345962525
0.0969109630526953,0.06405040025711059,-0.094303519821167,0.135350412368775
0.0975166565717747,-0.0700706934928894,-0.120648734664917,0.21917609596252502
0.098122350090854,-0.0820457911491394,0.044607612991333,0.192830881118775
0.0987280436099334,0.0281251072883606,0.023052437210082998,-0.207137380599975
0.0993337371290127,-0.105995986461639,-0.087118461227417,-0.125706716537475
0.0999394306480921,-0.0700706934928894,-0.046403129196167,-0.0011657009124753702
0.100545124167171,-0.11557606458663901,-0.264349906539917,0.341322092056275
0.101150817686251,-0.0964159083366394,-0.218844535446167,0.109005197525025
0.10175651120533,0.061655380725860603,-0.082328422164917,0.029969552993774597
0.102362204724409,-0.0820457911491394,-0.130228812789917,0.231151193618775
0.102967898243489,-0.201796767711639,-0.154179008102417,0.015599435806274601
0.103573591762568,0.06405040025711059,-0.18291924247741698,0.116190256118775
0.104179285281647,-0.11797108411788901,0.109273140335083,0.274261545181275
0.104784978800727,-0.129946181774139,0.229024116897583,0.0323645725250246
0.105390672319806,0.0281251072883606,-0.079933402633667,-0.06343620872497541
0.105996365838886,0.06884043931961059,-0.106278617477417,0.271866525650025
0.106602059357965,0.10955577135086099,-0.089513480758667,0.180855783462525
0.107207752877044,0.06884043931961059,-0.058378226852417,0.0754749240875246
0.107813446396124,0.0975806736946106,-0.020057914352417,-0.013140798568725399
0.108419139915203,0.11195079088211099,0.044607612991333,0.0467346897125246
0.109024833434282,-0.103600966930389,-0.101488578414917,0.109005197525025
0.109630526953362,-0.0724657130241394,0.011077339553832999,0.21438605690002502
0.110236220472441,0.0999756932258606,-0.065563285446167,0.029969552993774597
0.11084191399152,0.07602549791336059,-0.127833793258667,0.0634998264312746
0.1114476075106,0.035310165882110604,0.118853218460083,0.130560373306275
0.112053301029679,0.0975806736946106,0.063767769241333,0.015599435806274601
0.112658994548758,0.032915146350860604,-0.079933402633667,0.0922400608062746
0.113264688067838,-0.105995986461639,-0.084723441696167,0.109005197525025
0.113870381586917,-0.012590224742889402,-0.060773246383667004,0.22396613502502502
0.114476075105996,0.0041749119758606006,-0.041613090133667,0.14493049049377502
0.115081768625076,-0.21137684583663902,0.013472359085083,-0.0155358180999754
0.115687462144155,-0.053305556774139395,-0.103883597946167,-0.0418810329437254
0.116293155663234,0.0999756932258606,-0.101488578414917,0.15451056861877502
0.116898849182314,0.0880005955696106,-0.091908500289917,0.271866525650025
0.117504542701393,-0.053305556774139395,-0.099093558883667,-0.0323009548187254
0.118110236220472,0.0520753026008606,0.042212593460083,0.116190256118775
0.118715929739552,-0.0964159083366394,0.025447456741333,0.14014045143127501
0.119321623258631,-0.244907119274139,0.049397652053833,-0.0442760524749754
0.11992731677771,0.0496802830696106,-0.058378226852417,-0.0107457790374754
0.12053301029679,0.12392588853836099,-0.07514336357116701,0.226361154556275
0.121138703815869,-0.0868358302116394,-0.154179008102417,0.17846076393127502
0.121744397334949,0.032915146350860604,-0.113463676071167,-0.0179308376312254
0.122350090854028,0.0185450291633606,0.164358589553833,0.432332834243775
0.122955784373107,-0.21137684583663902,0.054187691116333,0.195225900650025
0.123561477892187,0.13829600572586098,0.015867378616333,0.20001593971252501
0.124167171411266,0.0257300877571106,-0.000897758102416984,0.322161935806275
0.124772864930345,-0.113181045055389,-0.000897758102416984,0.192830881118775
0.125378558449425,0.10716075181961099,-0.000897758102416984,0.267076486587525
0.125984251968504,-0.0317503809928894,0.044607612991333,0.183250802993775
0.126589945487583,0.186196396350861,0.056582710647583,0.207200998306275
0.127195639006663,-0.144316298961639,0.205073921585083,-0.0802013454437254
0.127801332525742,-0.180241591930389,0.128433296585083,0.137745431900025
0.128407026044821,0.286787216663361,-0.032033012008667,0.20480597877502502
0.129012719563901,0.0496802830696106,-0.0032927776336669798,-0.132891775131225
0.12961841308298,-0.0844408106803894,-0.067958304977417,0.492208322525025
0.130224106602059,0.131110947132111,-0.13741387138366698,0.640699533462525
0.130829800121139,0.06644541978836059,0.102088081741333,0.166485666275025
0.131435493640218,0.0544703221321106,-0.115858695602417,-0.0418810329437254
0.132041187159297,-0.053305556774139395,-0.355360648727417,0.17846076393127502
0.132646880678377,-0.218561904430389,0.023052437210082998,0.255101388931275
0.133252574197456,-0.0245653223991394,-0.039218070602417,0.0898450412750246
0.133858267716535,0.0592603611946106,-0.087118461227417,0.33892707252502496
0.134463961235615,0.126320908069611,0.159568550491333,0.247916330337525
0.135069654754694,0.0568653416633606,0.068557808303833,0.21917609596252502
0.135675348273773,-0.0892308497428894,-0.063168265914917,0.183250802993775
0.136281041792853,-0.058095595836639397,-0.029637992477417,0.0706848850250246
0.136886735311932,0.06884043931961059,-0.118253715133667,0.303001779556275
0.137492428831012,-0.0748607325553894,-0.044008109664917,0.235941232681275
0.138098122350091,0.0017798924446106,-0.084723441696167,0.10182013893127499
0.13870381586917,-0.187426650524139,0.020657417678832998,0.128165353775025
0.13930950938825,-0.16108143568038902,0.121248237991333,0.0539197483062746
0.139915202907329,-0.0197752833366394,-0.039218070602417,-0.0538561305999754
0.140520896426408,-0.048515517711639394,0.011077339553832999,0.15451056861877502
0.141126589945488,-0.132341201305389,-0.101488578414917,0.15930060768127502
0.141732283464567,-0.0868358302116394,-0.13741387138366698,0.0778699436187746
0.142337976983646,0.0544703221321106,-0.113463676071167,-0.116126638412475
0.142943670502726,-0.0293553614616394,0.300874702835083,0.0611048069000246
0.143549364021805,-0.0413304591178894,0.16675360908508302,0.0994251194000246
0.144155057540884,0.0472852635383606,-0.091908500289917,0.207200998306275
0.144760751059964,-0.012590224742889402,0.149988472366333,0.257496408462525
0.145366444579043,-0.0078001856803894,0.018262398147583,0.0658948459625246
0.145972138098122,-0.022170302867889402,-0.039218070602417,0.14014045143127501
0.146577831617202,0.023335068225860598,0.080532905960083,0.0443396701812746
0.147183525136281,-0.12036610364913901,-0.158969047164917,-0.0370909938812254
0.14778921865536,-0.228141982555389,-0.053588187789917,-0.104151540756225
0.14839491217444,0.0832105565071106,0.205073921585083,-0.0370909938812254
0.149000605693519,-0.15150135755538902,-0.039218070602417,0.16409064674377502
0.149606299212598,0.07602549791336059,0.080532905960083,0.231151193618775
0.150211992731678,0.0137549901008606,-0.125438773727417,0.116190256118775
0.150817686250757,-0.0030101466178894,-0.053588187789917,0.0946350803375246
0.151423379769836,0.0089649510383606,-0.067958304977417,0.142535470962525
0.152029073288916,-0.213771865367889,-0.194894340133667,0.176065744400025
0.152634766807995,0.0832105565071106,0.015867378616333,-0.00356072044372537
0.153240460327075,0.0065699315071106,0.020657417678832998,0.039549631118774596
0.153846153846154,0.037705185413360605,0.085322945022583,0.132955392837525
0.154451847365233,0.0496802830696106,-0.127833793258667,-0.06343620872497541
0.155057540884313,0.167036240100861,-0.072748344039917,0.116190256118775
0.155663234403392,0.0185450291633606,0.047002632522583,0.195225900650025
0.156268927922471,-0.0054051661491394,0.032632515335083,-0.0179308376312254
0.156874621441551,-0.182636611461639,0.133223335647583,0.0706848850250246
0.15748031496063,-0.0964159083366394,0.042212593460083,0.10182013893127499
0.158086008479709,-0.0173802638053894,0.037422554397583,0.0347595920562746
0.158691701998789,-0.173056533336639,0.027842476272583,0.42993781471252496
0.159297395517868,-0.046120498180389394,0.135618355178833,0.0275745334625246
0.159903089036947,-0.0652806544303894,-0.051193168258667,-0.24066765403747498
0.160508782556027,-0.0054051661491394,0.066162788772583,0.731710275650025
0.161114476075106,-0.058095595836639397,0.19070380439758303,0.343717111587525
0.161720169594185,-0.17066151380538902,-0.032033012008667,-0.049066091537475404
0.162325863113265,-0.127551162242889,-0.048798148727417,0.374852365493775
0.162931556632344,0.0137549901008606,-0.297880179977417,0.120980295181275
0.163537250151423,0.145481064319611,-0.106278617477417,0.16888068580627502
0.164142943670503,0.0784205174446106,0.068557808303833,0.42993781471252496
0.164748637189582,-0.012590224742889402,-0.039218070602417,0.0275745334625246
0.165354330708661,-0.0413304591178894,-0.170944144821167,0.132955392837525
0.165960024227741,-0.137131240367889,-0.113463676071167,0.015599435806274601
0.16656571774682,-0.16108143568038902,0.018262398147583,-0.0179308376312254
0.167171411265899,-0.0868358302116394,0.018262398147583,0.197620920181275
0.167777104784979,-0.103600966930389,-0.094303519821167,0.0275745334625246
0.168382798304058,0.205356552600861,0.015867378616333,0.31018683815002496
0.168988491823137,0.131110947132111,-0.127833793258667,0.16409064674377502
0.169594185342217,0.0880005955696106,-0.00808281669616698,0.039549631118774596
0.170199878861296,0.174221298694611,0.13801337471008301,0.202410959243775
0.170805572380376,-0.055700576305389396,0.030237495803833,0.16888068580627502
0.171411265899455,-0.15150135755538902,0.183518745803833,-0.0466710720062254
0.172016959418534,-0.266462295055389,0.121248237991333,0.135350412368775
0.172622652937614,0.0856055760383606,-0.099093558883667,-0.0442760524749754
0.173228346456693,0.0041749119758606006,-0.209264457321167,-0.0346959743499754
0.173834039975772,0.0496802830696106,0.00389228096008302,0.015599435806274601
0.174439733494852,0.0544703221321106,0.051792671585083,0.0251795139312746
0.175045427013931,0.19817149400711098,-0.048798148727417,0.15451056861877502
0.17565112053301,0.179011337757111,-0.106278617477417,0.192830881118775
0.17625681405209,-0.0700706934928894,0.011077339553832999,0.15451056861877502
0.176862507571169,0.06644541978836059,-0.010477836227417001,0.135350412368775
0.177468201090248,-0.048515517711639394,-0.029637992477417,0.137745431900025
0.178073894609328,-0.0628856348991394,0.15238349189758302,0.192830881118775
0.178679588128407,0.037705185413360605,0.085322945022583,0.245521310806275
0.179285281647486,-0.280832412242889,0.027842476272583,0.0730799045562746
0.179890975166566,0.10716075181961099,0.068557808303833,0.235941232681275
0.180496668685645,-0.053305556774139395,0.054187691116333,0.12577033424377498
0.181102362204724,-0.285622451305389,-0.084723441696167,0.20001593971252501
0.181708055723804,-0.0365404200553894,0.044607612991333,0.240731271743775
0.182313749242883,-0.125156142711639,0.092508003616333,0.27905158424377496
0.182919442761962,0.023335068225860598,-0.13262383232116698,-0.0394860134124754
0.183525136281042,-0.0892308497428894,-0.058378226852417,-0.113731618881225
0.184130829800121,-0.012590224742889402,-0.00808281669616698,0.116190256118775
0.1847365233192,-0.0317503809928894,-0.077538383102417,-0.0394860134124754
0.18534221683828,-0.0868358302116394,-0.166154105758667,0.0443396701812746
0.185947910357359,0.0544703221321106,0.063767769241333,-0.128101736068725
0.186553603876439,-0.0748607325553894,-0.046403129196167,-0.0227208766937254
0.187159297395518,-0.113181045055389,0.063767769241333,0.211991037368775
0.187764990914597,-0.0078001856803894,0.169148628616333,0.197620920181275
0.188370684433677,-0.0916258692741394,-0.096698539352417,0.137745431900025
0.188976377952756,-0.0796507716178894,-0.063168265914917,-0.137681814193725
0.189582071471835,0.0951856541633606,0.039817573928833,0.015599435806274601
0.190187764990915,-0.0676756739616394,-0.154179008102417,0.590404123306275
0.190793458509994,-0.0940208888053894,-0.123043754196167,0.777215646743775
0.191399152029073,0.07123545885086059,0.015867378616333,0.166485666275025
0.192004845548153,0.0496802830696106,-0.034428031539917,0.0850550022125246
0.192610539067232,0.042495224475860606,0.042212593460083,0.14014045143127501
0.193216232586311,-0.0772557520866394,0.070952827835083,0.0778699436187746
0.193821926105391,-0.0078001856803894,-0.027242972946167,0.23354621315002502
0.19442761962447,-0.101205947399139,-0.118253715133667,0.231151193618775
0.195033313143549,-0.0389354395866394,-0.046403129196167,0.29821174049377497
0.195639006662629,-0.0820457911491394,-0.130228812789917,0.0706848850250246
0.196244700181708,-0.0054051661491394,-0.15178398857116698,0.0132044162750246
0.196850393700787,0.023335068225860598,0.087717964553833,0.120980295181275
0.197456087219867,0.037705185413360605,-0.017662894821167,0.0682898654937746
0.198061780738946,0.140691025257111,0.032632515335083,0.20480597877502502
0.198667474258025,0.0137549901008606,0.066162788772583,0.16888068580627502
0.199273167777105,0.0305201268196106,-0.091908500289917,0.274261545181275
0.199878861296184,-0.0940208888053894,0.173938667678833,0.372457345962525
0.200484554815263,0.0496802830696106,-0.017662894821167,0.314976877212525
0.201090248334343,-0.129946181774139,-0.036823051071167,0.037154611587524596
0.201695941853422,-0.12276112318038901,-0.0032927776336669798,-0.0562511501312254
0.202301635372502,-0.11557606458663901,-0.034428031539917,0.0754749240875246
0.202907328891581,-0.256882216930389,0.056582710647583,0.0539197483062746
0.20351302241066,0.06644541978836059,0.037422554397583,0.15930060768127502
0.20411871592974,0.040100204944610605,0.006287300491333019,0.0539197483062746
0.204724409448819,-0.0197752833366394,-0.084723441696167,-0.0107457790374754
0.205330102967898,-0.149106338024139,-0.103883597946167,0.14493049049377502
0.205935796486978,-0.16587147474288902,-0.079933402633667,0.401197580337525
0.206541490006057,-0.0748607325553894,-0.139808890914917,0.10421515846252499
0.207147183525136,-0.0916258692741394,0.195493843460083,-0.168817068099975
0.207752877044216,-0.0916258692741394,0.080532905960083,-0.051461111068725404
0.208358570563295,-0.0317503809928894,-0.204474418258667,0.128165353775025
0.208964264082374,0.042495224475860606,0.14759345283508302,-0.00595573997497537
0.209569957601454,0.0017798924446106,0.090112984085083,-0.207137380599975
0.210175651120533,0.040100204944610605,-0.14220391044616698,0.0874500217437746
0.210781344639612,-0.110786025524139,0.082927925491333,0.135350412368775
0.211387038158692,-0.0317503809928894,-0.024847953414917,0.192830881118775
0.211992731677771,-0.0173802638053894,-0.020057914352417,0.0994251194000246
0.21259842519685,0.040100204944610605,0.044607612991333,0.0730799045562746
0.21320411871593,0.13829600572586098,-0.214054496383667,0.281446603775025
0.213809812235009,0.0951856541633606,-0.015267875289917,0.106610177993775
0.214415505754088,-0.11557606458663901,-0.163759086227417,0.0108093967437746
0.215021199273168,-0.153896377086639,-0.063168265914917,-0.128101736068725
0.215626892792247,0.11195079088211099,0.209863960647583,-0.113731618881225
0.216232586311326,0.032915146350860604,0.10448310127258299,0.0802649631500246
0.216838279830406,0.040100204944610605,0.106878120803833,0.130560373306275
0.217443973349485,-0.0317503809928894,0.047002632522583,0.118585275650025
0.218049666868565,0.0520753026008606,-0.024847953414917,0.12577033424377498
0.218655360387644,-0.0173802638053894,0.159568550491333,0.120980295181275
0.219261053906723,-0.254487197399139,-0.113463676071167,0.461073068618775
0.219866747425803,-0.149106338024139,-0.051193168258667,0.331742013931275
0.220472440944882,0.176616318225861,0.066162788772583,0.566453927993775
0.221078134463961,0.262837021350861,-0.194894340133667,0.432332834243775
0.221683827983041,-0.022170302867889402,0.00389228096008302,0.015599435806274601
0.22228952150212,-0.149106338024139,-0.096698539352417,0.264681467056275
0.222895215021199,0.10716075181961099,-0.015267875289917,0.039549631118774596
0.223500908540279,0.0472852635383606,-0.027242972946167,-0.0227208766937254
0.224106602059358,-0.0604906153678894,-0.07514336357116701,-0.0155358180999754
0.224712295578437,-0.0676756739616394,0.149988472366333,-0.029905935287475403
0.225317989097517,-0.232932021617889,0.006287300491333019,0.116190256118775
0.225923682616596,-0.108391005992889,-0.13262383232116698,0.128165353775025
0.226529376135675,-0.273647353649139,-0.17333916435241697,-0.0945714626312254
0.227135069654755,-0.194611709117889,-0.16854912528991697,0.135350412368775
0.227740763173834,-0.0317503809928894,-0.16136406669616699,-0.0323009548187254
0.228346456692913,0.131110947132111,-0.087118461227417,0.0251795139312746
0.228952150211993,0.07602549791336059,-0.046403129196167,0.190435861587525
0.229557843731072,-0.0006151270866394039,0.049397652053833,0.0658948459625246
0.230163537250151,-0.0149852442741394,-0.0032927776336669798,0.195225900650025
0.230769230769231,-0.11797108411788901,-0.226029594039917,0.16409064674377502
0.23137492428831,-0.0844408106803894,-0.017662894821167,-0.0849913845062254
0.231980617807389,-0.0293553614616394,0.087717964553833,-0.14007683372497498
0.232586311326469,-0.0652806544303894,0.094903023147583,0.281446603775025
0.233192004845548,-0.0054051661491394,0.123643257522583,0.118585275650025
0.233797698364627,0.0903956151008606,-0.190104301071167,0.161695627212525
0.234403391883707,0.0496802830696106,-0.010477836227417001,0.0970300998687746
0.235009085402786,0.032915146350860604,0.061372749710083,0.161695627212525
0.235614778921866,0.145481064319611,-0.24758476982116698,0.197620920181275
0.236220472440945,0.0903956151008606,-0.051193168258667,0.0275745334625246
0.236826165960024,-0.110786025524139,-0.048798148727417,0.15451056861877502
0.237431859479104,-0.0078001856803894,-0.139808890914917,0.396407541275025
0.238037552998183,0.10237071275711099,-0.077538383102417,0.14014045143127501
0.238643246517262,-0.0413304591178894,0.073347847366333,0.0994251194000246
0.239248940036342,-0.182636611461639,0.094903023147583,0.0706848850250246
0.239854633555421,0.11913584947586099,-0.010477836227417001,-0.0897814235687254
0.2404603270745,0.0161500096321106,0.027842476272583,0.22396613502502502
0.24106602059358,0.0975806736946106,-0.044008109664917,0.111400217056275
0.241671714112659,0.0999756932258606,0.061372749710083,0.221571115493775
0.242277407631738,-0.199401748180389,0.056582710647583,0.216781076431275
0.242883101150818,-0.189821670055389,-0.063168265914917,-0.0610411891937254
0.243488794669897,0.12392588853836099,-0.094303519821167,-0.0107457790374754
0.244094488188976,-0.22574696302413902,-0.00808281669616698,0.156905588150025
0.244700181708056,-0.261672255992889,-0.044008109664917,-0.0227208766937254
0.245305875227135,0.0472852635383606,-0.14220391044616698,0.111400217056275
0.245911568746214,0.10955577135086099,0.00389228096008302,-0.00356072044372537
0.246517262265294,0.0568653416633606,-0.039218070602417,0.0730799045562746
0.247122955784373,-0.12276112318038901,-0.269139945602417,0.120980295181275
0.247728649303452,0.0784205174446106,-0.022452933883667002,-0.0107457790374754
0.248334342822532,0.145481064319611,0.080532905960083,0.192830881118775
0.248940036341611,0.0544703221321106,-0.000897758102416984,0.616749338150025
0.24954572986069,0.0137549901008606,0.099693062210083,0.12577033424377498
0.25015142337977,0.169431259632111,-0.012872855758667002,0.571243967056275
0.250757116898849,-0.0844408106803894,-0.039218070602417,1.0119275608062699
0.251362810417929,-0.232932021617889,-0.022452933883667002,0.0251795139312746
0.251968503937008,0.255651962757111,0.114063179397583,0.0419446506500246
0.252574197456087,-0.0892308497428894,-0.204474418258667,0.0419446506500246
0.253179890975167,-0.197006728649139,-0.044008109664917,-0.0011657009124753702
0.253785584494246,0.0472852635383606,-0.041613090133667,0.106610177993775
0.254391278013325,0.0089649510383606,0.17154364814758302,0.0658948459625246
0.254996971532405,-0.0437254786491394,0.15238349189758302,0.10421515846252499
0.255602665051484,0.0137549901008606,-0.18770928153991698,0.25989142799377496
0.256208358570563,-0.11797108411788901,0.18112372627258302,0.221571115493775
0.256814052089643,-0.0293553614616394,0.090112984085083,-0.0897814235687254
0.257419745608722,0.162246201038361,0.049397652053833,-0.137681814193725
0.258025439127801,-0.012590224742889402,0.020657417678832998,0.130560373306275
0.258631132646881,-0.110786025524139,0.17633368721008302,0.017994455337524598
0.25923682616596,-0.15629139661788902,0.159568550491333,0.0706848850250246
0.259842519685039,0.035310165882110604,0.068557808303833,0.281446603775025
0.260448213204119,-0.0844408106803894,-0.072748344039917,0.161695627212525
0.261053906723198,-0.15150135755538902,-0.123043754196167,0.0515247287750246
0.261659600242277,-0.129946181774139,-0.16854912528991697,0.171275705337525
0.262265293761357,-0.132341201305389,-0.094303519821167,-0.0778063259124754
0.262870987280436,-0.0844408106803894,-0.17812920341491698,-0.0323009548187254
0.263476680799515,0.07602549791336059,-0.18770928153991698,0.12577033424377498
0.264082374318595,0.023335068225860598,0.102088081741333,0.0730799045562746
0.264688067837674,-0.055700576305389396,0.063767769241333,0.324556955337525
0.265293761356753,0.181406357288361,0.145198433303833,0.235941232681275
0.265899454875833,0.0784205174446106,0.090112984085083,-0.0179308376312254
0.266505148394912,0.0903956151008606,-0.00808281669616698,0.0419446506500246
0.267110841913992,0.13829600572586098,-0.00808281669616698,0.123375314712525
0.267716535433071,-0.0197752833366394,-0.087118461227417,0.34850715065002497
0.26832222895215,-0.0820457911491394,-0.022452933883667002,0.39880256080627496
0.26892792247123,-0.0389354395866394,0.047002632522583,0.106610177993775
0.269533615990309,0.0448902440071106,0.011077339553832999,0.0227844944000246
0.270139309509388,-0.0245653223991394,-0.010477836227417001,0.156905588150025
0.270745003028468,-0.125156142711639,0.025447456741333,0.0874500217437746
0.271350696547547,-0.307177627086639,-0.020057914352417,-0.0227208766937254
0.271956390066626,-0.0006151270866394039,-0.022452933883667002,0.130560373306275
0.272562083585706,0.0185450291633606,-0.14699394950866698,0.14972052955627502
0.273167777104785,-0.405373427867889,-0.118253715133667,-0.0993615016937254
0.273773470623864,-0.103600966930389,-0.058378226852417,-0.0873864040374754
0.274379164142944,0.11195079088211099,0.025447456741333,-0.0155358180999754
0.274984857662023,-0.218561904430389,0.116458198928833,0.240731271743775
0.275590551181102,0.0305201268196106,0.020657417678832998,0.22396613502502502
0.276196244700182,-0.058095595836639397,-0.017662894821167,-0.104151540756225
0.276801938219261,-0.134736220836639,-0.024847953414917,0.0970300998687746
0.27740763173834,0.10955577135086099,-0.07514336357116701,0.118585275650025
0.27801332525742,-0.022170302867889402,-0.120648734664917,0.113795236587525
0.278619018776499,-0.182636611461639,0.011077339553832999,0.738895334243775
0.279224712295578,-0.050910537242889395,0.035027534866333,0.0227844944000246
0.279830405814658,-0.0604906153678894,-0.060773246383667004,-0.302938161849975
0.280436099333737,-0.12276112318038901,-0.065563285446167,0.5041834201812749
0.281041792852816,0.0568653416633606,0.039817573928833,-0.0538561305999754
0.281647486371896,0.174221298694611,-0.041613090133667,-0.101756521224975
0.282253179890975,0.0927906346321106,-0.053588187789917,0.0754749240875246
0.282858873410055,0.011359970569610599,-0.070353324508667,-0.0802013454437254
0.283464566929134,0.0448902440071106,-0.036823051071167,0.0922400608062746
0.284070260448213,-0.0796507716178894,-0.067958304977417,0.132955392837525
0.284675953967293,-0.0078001856803894,-0.055983207321167,0.0946350803375246
0.285281647486372,0.0568653416633606,-0.087118461227417,0.20001593971252501
0.285887341005451,-0.110786025524139,-0.010477836227417001,0.286236642837525
0.286493034524531,-0.053305556774139395,-0.017662894821167,0.25989142799377496
0.28709872804361,0.145481064319611,-0.046403129196167,0.0754749240875246
0.287704421562689,0.10237071275711099,-0.039218070602417,0.0874500217437746
0.288310115081769,0.167036240100861,0.035027534866333,0.23833625221252502
0.288915808600848,0.0209400486946106,0.042212593460083,0.295816720962525
0.289521502119927,-0.050910537242889395,-0.17812920341491698,0.017994455337524598
0.290127195639007,0.0544703221321106,0.037422554397583,-0.0323009548187254
0.290732889158086,-0.0652806544303894,-0.041613090133667,0.192830881118775
0.291338582677165,-0.0293553614616394,-0.111068656539917,0.0970300998687746
0.291944276196245,0.061655380725860603,-0.063168265914917,-0.00595573997497537
0.292549969715324,-0.137131240367889,-0.209264457321167,0.28863166236877497
0.293155663234403,0.0209400486946106,-0.144598929977417,-0.0227208766937254
0.293761356753483,0.0832105565071106,0.039817573928833,-0.137681814193725
0.294367050272562,-0.129946181774139,-0.199684379196167,0.255101388931275
0.294972743791641,-0.0197752833366394,-0.127833793258667,0.22396613502502502
0.295578437310721,-0.0604906153678894,-0.051193168258667,0.211991037368775
0.2961841308298,-0.316757705211639,-0.20686943778991698,0.106610177993775
0.296789824348879,0.0065699315071106,-0.091908500289917,0.0658948459625246
0.297395517867959,0.0137549901008606,0.058977730178832996,0.015599435806274601
0.298001211387038,-0.11797108411788901,0.025447456741333,0.14014045143127501
0.298606904906118,-0.0054051661491394,-0.16854912528991697,0.37006232643127496
0.299212598425197,-0.137131240367889,-0.070353324508667,0.202410959243775
0.299818291944276,-0.173056533336639,0.020657417678832998,0.305396799087525
0.300423985463356,0.032915146350860604,-0.063168265914917,0.123375314712525
0.301029678982435,-0.050910537242889395,-0.039218070602417,0.111400217056275
0.301635372501514,-0.153896377086639,0.193098823928833,0.0970300998687746
0.302241066020594,-0.0149852442741394,0.068557808303833,0.20959601783752502
0.302846759539673,-0.050910537242889395,-0.108673637008667,0.23354621315002502
0.303452453058752,-0.0964159083366394,0.058977730178832996,0.0251795139312746
0.304058146577832,0.0257300877571106,0.025447456741333,0.0874500217437746
0.304663840096911,-0.180241591930389,-0.16854912528991697,0.20480597877502502
0.30526953361599,-0.108391005992889,-0.125438773727417,0.192830881118775
0.30587522713507,-0.180241591930389,-0.154179008102417,0.0874500217437746
0.306480920654149,-0.0173802638053894,-0.046403129196167,-0.0203258571624754
0.307086614173228,0.155061142444611,0.18591376533508303,0.109005197525025
0.307692307692308,-0.15629139661788902,0.209863960647583,0.111400217056275
0.308298001211387,0.10237071275711099,-0.00808281669616698,0.0754749240875246
0.308903694730466,0.12153086900711099,-0.063168265914917,0.619144357681275
0.309509388249546,0.040100204944610605,0.154778511428833,0.0898450412750246
0.310115081768625,0.13829600572586098,-0.017662894821167,-0.271802907943725
0.310720775287704,0.195776474475861,-0.082328422164917,0.37964240455627496
0.311326468806784,0.032915146350860604,0.121248237991333,0.14014045143127501
0.311932162325863,0.155061142444611,0.109273140335083,0.180855783462525
0.312537855844942,0.0951856541633606,-0.017662894821167,0.425147775650025
0.313143549364022,-0.022170302867889402,-0.082328422164917,0.16888068580627502
0.313749242883101,-0.012590224742889402,-0.039218070602417,0.116190256118775
0.31435493640218,-0.134736220836639,0.092508003616333,-0.00835075950622537
0.31496062992126,-0.22095692396163902,0.035027534866333,0.0994251194000246
0.315566323440339,-0.0030101466178894,0.027842476272583,0.0491297092437746
0.316172016959419,0.0089649510383606,-0.14699394950866698,0.0826599826812746
0.316777710478498,-0.0892308497428894,-0.00568779716491698,-0.0969664821624754
0.317383403997577,-0.17066151380538902,-0.125438773727417,0.15930060768127502
0.317989097516657,-0.0820457911491394,-0.16854912528991697,0.15451056861877502
0.318594791035736,0.14308604478836098,0.111668159866333,-0.0562511501312254
0.319200484554815,0.183801376819611,-0.091908500289917,0.0754749240875246
0.319806178073895,-0.129946181774139,-0.065563285446167,0.120980295181275
0.320411871592974,-0.0748607325553894,0.066162788772583,0.271866525650025
0.321017565112053,-0.010195205211639401,0.011077339553832999,0.0898450412750246
0.321623258631133,-0.213771865367889,-0.20207939872741698,-0.013140798568725399
0.322228952150212,0.040100204944610605,-0.103883597946167,0.0467346897125246
0.322834645669291,0.0257300877571106,0.054187691116333,0.20959601783752502
0.323440339188371,0.11434581041336099,0.015867378616333,0.142535470962525
0.32404603270745,-0.11797108411788901,0.00868232002258302,0.132955392837525
0.324651726226529,-0.199401748180389,-0.053588187789917,0.185645822525025
0.325257419745609,0.07363047838211059,-0.135018851852417,0.14972052955627502
0.325863113264688,-0.0317503809928894,-0.079933402633667,0.0826599826812746
0.326468806783767,0.0161500096321106,-0.14220391044616698,0.161695627212525
0.327074500302847,-0.129946181774139,-0.065563285446167,0.0634998264312746
0.327680193821926,-0.177846572399139,0.042212593460083,-0.00595573997497537
0.328285887341005,-0.134736220836639,-0.077538383102417,-0.0370909938812254
0.328891580860085,-0.0054051661491394,-0.087118461227417,0.00841437721252463
0.329497274379164,-0.0916258692741394,0.044607612991333,0.305396799087525
0.330102967898244,-0.055700576305389396,-0.079933402633667,-0.0227208766937254
0.330708661417323,-0.11557606458663901,-0.175734183883667,0.23354621315002502
0.331314354936402,-0.168266494274139,-0.235609672164917,0.015599435806274601
0.331920048455482,0.040100204944610605,0.087717964553833,-0.118521657943725
0.332525741974561,-0.0652806544303894,0.22183905830383302,0.207200998306275
0.33313143549364,0.07363047838211059,0.006287300491333019,0.156905588150025
0.33373712901272,0.0472852635383606,0.049397652053833,0.281446603775025
0.334342822531799,-0.139526259899139,-0.264349906539917,0.17367072486877502
0.334948516050878,-0.307177627086639,-0.063168265914917,-0.0227208766937254
0.335554209569958,0.023335068225860598,0.16196357002258302,0.0539197483062746
0.336159903089037,0.07123545885086059,0.111668159866333,0.15930060768127502
0.336765596608116,-0.12276112318038901,-0.022452933883667002,0.029969552993774597
0.337371290127196,-0.012590224742889402,-0.044008109664917,0.221571115493775
0.337976983646275,0.0496802830696106,-0.30267021903991703,0.23833625221252502
0.338582677165354,-0.0173802638053894,-0.058378226852417,-0.0323009548187254
0.339188370684434,-0.0054051661491394,0.10448310127258299,-0.197557302474975
0.339794064203513,-0.058095595836639397,0.073347847366333,0.0491297092437746
0.340399757722592,-0.055700576305389396,0.085322945022583,0.547293771743775
0.341005451241672,0.157456161975861,-0.115858695602417,0.30779181861877497
0.341611144760751,-0.201796767711639,0.097298042678833,0.109005197525025
0.34221683827983,-0.11557606458663901,0.020657417678832998,0.20001593971252501
0.34282253179891,0.06405040025711059,-0.163759086227417,0.17367072486877502
0.343428225317989,-0.182636611461639,-0.072748344039917,-0.101756521224975
0.344033918837068,-0.0748607325553894,-0.089513480758667,0.0515247287750246
0.344639612356148,-0.182636611461639,-0.010477836227417001,0.106610177993775
0.345245305875227,-0.244907119274139,0.18591376533508303,0.441912912368775
0.345850999394306,0.0137549901008606,0.030237495803833,0.43951789283752496
0.346456692913386,0.032915146350860604,-0.046403129196167,-0.0227208766937254
0.347062386432465,-0.105995986461639,-0.175734183883667,0.132955392837525
0.347668079951545,-0.0916258692741394,0.037422554397583,0.116190256118775
0.348273773470624,-0.113181045055389,-0.072748344039917,0.207200998306275
0.348879466989703,-0.053305556774139395,-0.032033012008667,0.211991037368775
0.349485160508783,-0.012590224742889402,0.178728706741333,0.46825812721252497
0.350090854027862,-0.244907119274139,-0.020057914352417,0.15930060768127502
0.350696547546941,-0.223351943492889,0.011077339553832999,-0.049066091537475404
0.351302241066021,-0.182636611461639,0.214653999710083,0.0706848850250246
0.3519079345851,-0.053305556774139395,0.099693062210083,0.0802649631500246
0.352513628104179,-0.0269603419303894,-0.094303519821167,0.0850550022125246
0.353119321623259,-0.168266494274139,0.027842476272583,0.15930060768127502
0.353725015142338,0.0185450291633606,-0.099093558883667,0.0874500217437746
0.354330708661417,-0.108391005992889,-0.115858695602417,0.135350412368775
0.354936402180497,-0.0772557520866394,-0.082328422164917,0.113795236587525
0.355542095699576,0.162246201038361,-0.058378226852417,0.106610177993775
0.356147789218655,0.06644541978836059,0.15238349189758302,0.281446603775025
0.356753482737735,0.145481064319611,-0.115858695602417,0.116190256118775
0.357359176256814,-0.010195205211639401,-0.015267875289917,0.0132044162750246
0.357964869775893,0.0041749119758606006,0.073347847366333,0.118585275650025
0.358570563294973,0.0281251072883606,-0.099093558883667,0.240731271743775
0.359176256814052,0.0568653416633606,-0.039218070602417,0.156905588150025
0.359781950333131,0.0137549901008606,0.123643257522583,0.257496408462525
0.360387643852211,-0.20658680677413901,0.025447456741333,0.14493049049377502
0.36099333737129,-0.0676756739616394,-0.032033012008667,0.221571115493775
0.361599030890369,0.21254161119461099,0.075742866897583,0.350902170181275
0.362204724409449,0.023335068225860598,0.061372749710083,0.0587097873687746
0.362810417928528,-0.053305556774139395,-0.135018851852417,-0.113731618881225
0.363416111447607,0.12392588853836099,-0.036823051071167,0.015599435806274601
0.364021804966687,-0.0988109278678894,-0.012872855758667002,0.322161935806275
0.364627498485766,0.07363047838211059,0.027842476272583,0.26947150611877496
0.365233192004846,0.14787608385086098,0.250579292678833,0.171275705337525
0.365838885523925,0.0065699315071106,0.018262398147583,0.10421515846252499
0.366444579043004,0.07123545885086059,0.063767769241333,0.0467346897125246
0.367050272562084,0.15266612291336099,0.066162788772583,0.0419446506500246
0.367655966081163,-0.177846572399139,-0.039218070602417,0.0227844944000246
0.368261659600242,-0.192216689586639,-0.23800469169616698,0.247916330337525
0.368867353119322,0.011359970569610599,-0.113463676071167,0.0275745334625246
0.369473046638401,-0.0245653223991394,-0.130228812789917,-0.0825963649749754
0.37007874015748,0.14787608385086098,-0.039218070602417,0.0706848850250246
0.37068443367656,-0.012590224742889402,-0.044008109664917,0.10182013893127499
0.371290127195639,-0.0054051661491394,-0.235609672164917,0.0922400608062746
0.371895820714718,0.0903956151008606,-0.091908500289917,0.0419446506500246
0.372501514233798,-0.132341201305389,-0.087118461227417,0.0754749240875246
0.373107207752877,-0.175451552867889,-0.034428031539917,0.120980295181275
0.373712901271956,0.032915146350860604,-0.070353324508667,-0.0778063259124754
0.374318594791036,0.0281251072883606,0.044607612991333,0.0347595920562746
0.374924288310115,0.214936630725861,0.114063179397583,0.317371896743775
0.375529981829194,0.042495224475860606,-0.070353324508667,0.23833625221252502
0.376135675348274,0.0568653416633606,0.102088081741333,0.0323645725250246
0.376741368867353,0.07123545885086059,0.269739448928833,-0.0993615016937254
0.377347062386432,-0.144316298961639,0.018262398147583,0.21917609596252502
0.377952755905512,-0.21616688489913902,0.042212593460083,-0.029905935287475403
0.378558449424591,-0.053305556774139395,0.080532905960083,0.0922400608062746
0.379164142943671,0.0880005955696106,0.00868232002258302,0.15451056861877502
0.37976983646275,-0.144316298961639,0.070952827835083,0.190435861587525
0.380375529981829,0.0592603611946106,0.085322945022583,0.303001779556275
0.380981223500909,-0.113181045055389,-0.027242972946167,0.12577033424377498
0.381586917019988,-0.292807509899139,-0.199684379196167,0.0443396701812746
0.382192610539067,0.10237071275711099,-0.18291924247741698,-0.15923698997497499
0.382798304058147,0.18859141588211098,-0.060773246383667004,0.123375314712525
0.383403997577226,0.0041749119758606006,-0.032033012008667,0.202410959243775
0.384009691096305,-0.053305556774139395,0.13082831611633303,0.15930060768127502
0.384615384615385,-0.0724657130241394,0.16675360908508302,-0.0706212673187254
0.385221078134464,-0.197006728649139,-0.060773246383667004,0.142535470962525
0.385826771653543,0.0257300877571106,0.061372749710083,0.35808722877502497
0.386432465172623,-0.101205947399139,-0.010477836227417001,0.202410959243775
0.387038158691702,-0.0149852442741394,-0.063168265914917,0.0826599826812746
0.387643852210781,0.0975806736946106,0.051792671585083,0.106610177993775
0.388249545729861,-0.185031630992889,-0.015267875289917,0.123375314712525
0.38885523924894,0.0856055760383606,-0.0032927776336669798,0.0108093967437746
0.389460932768019,-0.0173802638053894,-0.022452933883667002,0.0323645725250246
0.390066626287099,-0.139526259899139,-0.077538383102417,-0.049066091537475404
0.390672319806178,-0.0676756739616394,-0.029637992477417,0.0611048069000246
0.391278013325257,-0.0365404200553894,-0.029637992477417,0.142535470962525
0.391883706844337,-0.11557606458663901,-0.051193168258667,0.15451056861877502
0.392489400363416,-0.0173802638053894,0.123643257522583,-0.0562511501312254
0.393095093882495,0.0185450291633606,-0.13262383232116698,-0.049066091537475404
0.393700787401575,-0.0269603419303894,-0.19728935966491698,0.037154611587524596
0.394306480920654,-0.0078001856803894,-0.130228812789917,-0.384368825912475
0.394912174439733,-0.055700576305389396,0.018262398147583,-0.187977224349975
0.395517867958813,0.0784205174446106,0.145198433303833,-0.027510915756225402
0.396123561477892,-0.0700706934928894,-0.077538383102417,0.0658948459625246
0.396729254996972,-0.0940208888053894,0.118853218460083,0.0826599826812746
0.397334948516051,-0.053305556774139395,0.018262398147583,0.128165353775025
0.39794064203513,0.0784205174446106,0.030237495803833,0.15451056861877502
0.39854633555421,-0.0006151270866394039,-0.055983207321167,-0.0107457790374754
0.399152029073289,-0.0365404200553894,-0.044008109664917,0.0323645725250246
0.399757722592368,-0.0916258692741394,0.116458198928833,0.037154611587524596
0.400363416111448,-0.101205947399139,-0.0032927776336669798,0.441912912368775
0.400969109630527,0.042495224475860606,0.078137886428833,0.528133615493775
0.401574803149606,-0.0892308497428894,-0.089513480758667,0.0850550022125246
0.402180496668686,0.0544703221321106,0.025447456741333,0.0467346897125246
0.402786190187765,-0.0197752833366394,0.00149726142883302,0.231151193618775
0.403391883706844,0.0903956151008606,0.006287300491333019,0.14014045143127501
0.403997577225924,-0.053305556774139395,0.00389228096008302,0.132955392837525
0.404603270745003,-0.0365404200553894,-0.096698539352417,-0.132891775131225
0.405208964264082,0.0305201268196106,-0.106278617477417,0.0491297092437746
0.405814657783162,-0.0149852442741394,-0.044008109664917,0.0946350803375246
0.406420351302241,-0.0054051661491394,0.106878120803833,-0.0155358180999754
0.40702604482132,-0.058095595836639397,0.128433296585083,0.250311349868775
0.4076317383404,0.0903956151008606,0.123643257522583,-0.132891775131225
0.408237431859479,-0.010195205211639401,-0.077538383102417,-0.0203258571624754
0.408843125378558,0.150271103382111,-0.017662894821167,0.240731271743775
0.409448818897638,-0.0030101466178894,-0.091908500289917,0.20001593971252501
0.410054512416717,0.032915146350860604,-0.111068656539917,0.137745431900025
0.410660205935796,0.0520753026008606,-0.065563285446167,-0.13528679466247498
0.411265899454876,-0.12036610364913901,-0.039218070602417,0.106610177993775
0.411871592973955,0.0784205174446106,-0.113463676071167,0.10182013893127499
0.412477286493035,-0.149106338024139,-0.051193168258667,-0.029905935287475403
0.413082980012114,-0.177846572399139,-0.046403129196167,0.137745431900025
0.413688673531193,-0.055700576305389396,-0.048798148727417,0.192830881118775
0.414294367050273,0.032915146350860604,0.14280341377258302,0.211991037368775
0.414900060569352,-0.048515517711639394,0.102088081741333,0.130560373306275
0.415505754088431,-0.0030101466178894,0.063767769241333,0.039549631118774596
0.416111447607511,0.157456161975861,0.145198433303833,-0.0562511501312254
0.41671714112659,-0.21616688489913902,0.035027534866333,-0.0706212673187254
0.417322834645669,-0.213771865367889,-0.115858695602417,0.0850550022125246
0.417928528164749,0.20775157213211098,-0.130228812789917,-0.14486687278747498
0.418534221683828,0.150271103382111,-0.24279473075866698,-0.0897814235687254
0.419139915202907,-0.15150135755538902,0.082927925491333,-0.0706212673187254
0.419745608721987,0.0065699315071106,0.075742866897583,0.0275745334625246
0.420351302241066,0.0472852635383606,-0.111068656539917,0.197620920181275
0.420956995760145,-0.252092177867889,0.049397652053833,0.0946350803375246
0.421562689279225,0.06405040025711059,-0.091908500289917,0.039549631118774596
0.422168382798304,0.12153086900711099,0.118853218460083,0.202410959243775
0.422774076317383,-0.213771865367889,0.075742866897583,0.22875617408752502
0.423379769836463,0.0017798924446106,-0.077538383102417,-0.0155358180999754
0.423985463355542,-0.053305556774139395,-0.029637992477417,0.264681467056275
0.424591156874621,-0.0030101466178894,-0.084723441696167,0.16409064674377502
0.425196850393701,0.0305201268196106,-0.115858695602417,0.118585275650025
0.42580254391278,-0.11797108411788901,-0.015267875289917,0.17367072486877502
0.426408237431859,-0.105995986461639,0.121248237991333,0.0323645725250246
0.427013930950939,-0.022170302867889402,-0.039218070602417,0.0826599826812746
0.427619624470018,0.11195079088211099,0.035027534866333,-0.051461111068725404
0.428225317989098,-0.103600966930389,0.097298042678833,0.017994455337524598
0.428831011508177,-0.149106338024139,0.066162788772583,0.554478830337525
0.429436705027256,0.176616318225861,-0.072748344039917,0.23354621315002502
0.430042398546336,0.11434581041336099,-0.022452933883667002,0.295816720962525
0.430648092065415,-0.15150135755538902,-0.101488578414917,0.176065744400025
0.431253785584494,0.07602549791336059,-0.094303519821167,-0.00356072044372537
0.431859479103574,-0.022170302867889402,0.173938667678833,0.17367072486877502
0.432465172622653,-0.0365404200553894,-0.13262383232116698,-0.0706212673187254
0.433070866141732,-0.048515517711639394,-0.0032927776336669798,-0.0945714626312254
0.433676559660812,-0.0628856348991394,0.123643257522583,0.15930060768127502
0.434282253179891,0.0832105565071106,0.047002632522583,0.120980295181275
0.43488794669897,-0.0389354395866394,-0.103883597946167,0.0682898654937746
0.43549364021805,-0.058095595836639397,-0.101488578414917,0.0706848850250246
0.436099333737129,-0.228141982555389,0.035027534866333,-0.111336599349975
0.436705027256208,-0.022170302867889402,-0.036823051071167,0.171275705337525
0.437310720775288,-0.0245653223991394,-0.125438773727417,0.147325510025025
0.437916414294367,-0.055700576305389396,-0.28111504325866704,0.185645822525025
0.438522107813446,-0.103600966930389,-0.015267875289917,-0.178397146224975
0.439127801332526,-0.048515517711639394,0.133223335647583,-0.0227208766937254
0.439733494851605,-0.0628856348991394,-0.058378226852417,0.109005197525025
0.440339188370684,-0.134736220836639,0.00389228096008302,-0.101756521224975
0.440944881889764,0.11913584947586099,-0.017662894821167,0.130560373306275
0.441550575408843,-0.12036610364913901,-0.20686943778991698,0.231151193618775
0.442156268927922,-0.0604906153678894,0.025447456741333,0.0754749240875246
0.442761962447002,0.0017798924446106,-0.00808281669616698,-0.0107457790374754
0.443367655966081,-0.153896377086639,0.013472359085083,0.0467346897125246
0.44397334948516,0.13350596666336098,-0.034428031539917,0.00601935768127463
0.44457904300424,0.14308604478836098,-0.058378226852417,0.0658948459625246
0.445184736523319,-0.158686416149139,0.025447456741333,0.10421515846252499
0.445790430042399,-0.046120498180389394,0.013472359085083,0.0467346897125246
0.446396123561478,0.07123545885086059,-0.024847953414917,0.029969552993774597
0.447001817080557,-0.0628856348991394,0.035027534866333,0.106610177993775
0.447607510599637,-0.12036610364913901,0.154778511428833,0.247916330337525
0.448213204118716,-0.048515517711639394,-0.017662894821167,0.243126291275025
0.448818897637795,-0.0844408106803894,-0.024847953414917,0.211991037368775
0.449424591156875,0.0999756932258606,0.195493843460083,0.132955392837525
0.450030284675954,0.07602549791336059,0.044607612991333,-0.0394860134124754
0.450635978195033,-0.192216689586639,-0.14699394950866698,0.211991037368775
0.451241671714113,-0.14671131849288901,0.109273140335083,0.0850550022125246
0.451847365233192,-0.168266494274139,0.013472359085083,0.128165353775025
0.452453058752271,-0.0173802638053894,-0.024847953414917,0.15451056861877502
0.453058752271351,0.0065699315071106,-0.067958304977417,0.314976877212525
0.45366444579043,0.10476573228836099,-0.048798148727417,0.14972052955627502
0.454270139309509,0.162246201038361,-0.039218070602417,0.0587097873687746
0.454875832828589,-0.103600966930389,0.011077339553832999,0.0874500217437746
0.455481526347668,-0.0365404200553894,0.068557808303833,0.10182013893127499
0.456087219866747,0.06644541978836059,-0.00568779716491698,0.271866525650025
0.456692913385827,-0.0389354395866394,-0.13741387138366698,0.123375314712525
0.457298606904906,0.042495224475860606,-0.103883597946167,0.0203894748687746
0.457904300423985,0.06884043931961059,0.023052437210082998,0.0227844944000246
0.458509993943065,0.0856055760383606,0.006287300491333019,0.21438605690002502
0.459115687462144,-0.0054051661491394,0.073347847366333,0.00362433815002463
0.459721380981224,0.0808155369758606,-0.13262383232116698,0.113795236587525
0.460327074500303,0.011359970569610599,-0.039218070602417,0.750870431900025
0.460932768019382,-0.273647353649139,0.068557808303833,0.113795236587525
0.461538461538462,-0.0796507716178894,-0.048798148727417,0.106610177993775
0.462144155057541,-0.153896377086639,-0.060773246383667004,0.281446603775025
0.46274984857662,-0.127551162242889,0.094903023147583,-0.0754113063812254
0.4633555420957,-0.0078001856803894,0.126038277053833,0.235941232681275
0.463961235614779,-0.132341201305389,0.082927925491333,0.183250802993775
0.464566929133858,-0.185031630992889,0.044607612991333,0.037154611587524596
0.465172622652938,-0.185031630992889,-0.020057914352417,0.192830881118775
0.465778316172017,-0.0269603419303894,0.044607612991333,0.15451056861877502
0.466384009691096,-0.022170302867889402,-0.125438773727417,-0.0562511501312254
0.466989703210176,0.19338145494461098,-0.099093558883667,0.132955392837525
0.467595396729255,0.11434581041336099,-0.072748344039917,0.0946350803375246
0.468201090248334,0.0185450291633606,-0.113463676071167,-0.013140798568725399
0.468806783767414,0.0951856541633606,-0.039218070602417,-0.0993615016937254
0.469412477286493,-0.0820457911491394,0.058977730178832996,0.0922400608062746
0.470018170805572,-0.11797108411788901,0.058977730178832996,0.0874500217437746
0.470623864324652,-0.0940208888053894,-0.089513480758667,0.12577033424377498
0.471229557843731,0.13829600572586098,0.011077339553832999,0.190435861587525
0.47183525136281,-0.0868358302116394,0.032632515335083,0.120980295181275
0.47244094488189,-0.0700706934928894,-0.048798148727417,-0.125706716537475
0.473046638400969,-0.0724657130241394,-0.15178398857116698,-0.06822624778747541
0.473652331920048,-0.218561904430389,0.121248237991333,0.0611048069000246
0.474258025439128,-0.0030101466178894,-0.07514336357116701,0.029969552993774597
0.474863718958207,0.06644541978836059,-0.077538383102417,0.276656564712525
0.475469412477286,-0.0149852442741394,0.061372749710083,0.15451056861877502
0.476075105996366,-0.0389354395866394,-0.135018851852417,0.283841623306275
0.476680799515445,0.0903956151008606,-0.079933402633667,0.10421515846252499
0.477286493034525,0.0808155369758606,-0.15178398857116698,-0.0562511501312254
0.477892186553604,-0.0724657130241394,-0.067958304977417,0.00841437721252463
0.478497880072683,0.0784205174446106,-0.125438773727417,0.0874500217437746
0.479103573591763,-0.0245653223991394,0.058977730178832996,0.192830881118775
0.479709267110842,-0.0437254786491394,-0.077538383102417,0.0994251194000246
0.480314960629921,0.131110947132111,0.037422554397583,-0.0203258571624754
0.480920654149001,-0.022170302867889402,0.209863960647583,-0.0179308376312254
0.48152634766808,-0.046120498180389394,-0.13262383232116698,0.0850550022125246
0.482132041187159,0.0041749119758606006,-0.115858695602417,0.015599435806274601
0.482737734706239,-0.0389354395866394,-0.036823051071167,0.252706369400025
0.483343428225318,0.0472852635383606,0.047002632522583,0.180855783462525
0.483949121744397,0.0784205174446106,0.035027534866333,0.130560373306275
0.484554815263477,0.0448902440071106,-0.082328422164917,0.322161935806275
0.485160508782556,-0.0365404200553894,-0.127833793258667,0.10182013893127499
0.485766202301635,0.0999756932258606,0.037422554397583,0.00362433815002463
0.486371895820715,-0.048515517711639394,0.061372749710083,0.15930060768127502
0.486977589339794,-0.153896377086639,-0.170944144821167,0.0634998264312746
0.487583282858873,0.0089649510383606,-0.036823051071167,0.0730799045562746
0.488188976377953,-0.0676756739616394,-0.0032927776336669798,0.113795236587525
0.488794669897032,-0.0389354395866394,-0.046403129196167,-0.152051931381225
0.489400363416111,-0.127551162242889,0.030237495803833,0.46825812721252497
0.490006056935191,-0.201796767711639,-0.091908500289917,0.374852365493775
0.49061175045427,-0.048515517711639394,0.00149726142883302,0.326951974868775
0.491217443973349,-0.0844408106803894,0.118853218460083,0.382037424087525
0.491823137492429,0.0305201268196106,-0.18770928153991698,0.0611048069000246
0.492428831011508,0.157456161975861,-0.070353324508667,-0.106546560287475
0.493034524530587,-0.053305556774139395,0.099693062210083,0.0323645725250246
0.493640218049667,0.0544703221321106,0.16675360908508302,0.331742013931275
0.494245911568746,-0.0293553614616394,0.13082831611633303,0.15930060768127502
0.494851605087826,0.061655380725860603,-0.139808890914917,0.120980295181275
0.495457298606905,-0.046120498180389394,0.035027534866333,0.0132044162750246
0.496062992125984,0.0161500096321106,-0.036823051071167,0.039549631118774596
0.496668685645064,0.145481064319611,0.123643257522583,0.384432443618775
0.497274379164143,-0.0317503809928894,-0.089513480758667,0.0826599826812746
0.497880072683222,-0.0269603419303894,-0.022452933883667002,0.0850550022125246
0.498485766202302,-0.0652806544303894,-0.067958304977417,0.322161935806275
0.499091459721381,-0.0173802638053894,-0.194894340133667,0.10421515846252499
0.49969715324046,-0.254487197399139,-0.060773246383667004,0.20480597877502502
0.50030284675954,-0.0006151270866394039,-0.027242972946167,0.202410959243775
0.500908540278619,0.190986435413361,0.027842476272583,0.295816720962525
0.501514233797698,-0.0772557520866394,-0.022452933883667002,0.029969552993774597
0.502119927316778,-0.0437254786491394,0.126038277053833,0.27905158424377496
0.502725620835857,0.10476573228836099,0.10448310127258299,0.16409064674377502
0.503331314354936,0.0041749119758606006,-0.051193168258667,0.152115549087525
0.503937007874016,0.0257300877571106,0.145198433303833,0.341322092056275
0.504542701393095,0.011359970569610599,0.080532905960083,0.109005197525025
0.505148394912174,0.171826279163361,0.056582710647583,0.0419446506500246
0.505754088431254,0.07363047838211059,-0.00808281669616698,0.190435861587525
0.506359781950333,0.037705185413360605,-0.135018851852417,0.271866525650025
0.506965475469413,0.040100204944610605,-0.0032927776336669798,0.113795236587525
0.507571168988492,-0.0772557520866394,0.090112984085083,0.0611048069000246
0.508176862507571,0.07123545885086059,-0.108673637008667,-0.0251158962249754
0.50878255602665,0.0496802830696106,-0.108673637008667,0.0778699436187746
0.50938824954573,0.06405040025711059,0.037422554397583,0.346112131118775
0.509993943064809,-0.0820457911491394,-0.18770928153991698,0.0419446506500246
0.510599636583889,-0.11797108411788901,0.023052437210082998,-0.113731618881225
0.511205330102968,0.0305201268196106,0.073347847366333,0.0922400608062746
0.511811023622047,0.0209400486946106,-0.209264457321167,-0.049066091537475404
0.512416717141127,-0.108391005992889,-0.23321465263366697,0.128165353775025
0.513022410660206,0.035310165882110604,0.00868232002258302,0.0539197483062746
0.513628104179285,0.0856055760383606,0.00149726142883302,0.0467346897125246
0.514233797698365,0.0281251072883606,0.027842476272583,0.255101388931275
0.514839491217444,-0.0006151270866394039,-0.022452933883667002,-0.0562511501312254
0.515445184736523,0.190986435413361,-0.044008109664917,0.188040842056275
0.516050878255603,0.0257300877571106,-0.020057914352417,0.33892707252502496
0.516656571774682,-0.0892308497428894,0.135618355178833,0.147325510025025
0.517262265293761,0.14787608385086098,0.099693062210083,-0.027510915756225402
0.517867958812841,0.12392588853836099,-0.058378226852417,-0.0107457790374754
0.51847365233192,0.0257300877571106,0.070952827835083,0.21438605690002502
0.519079345850999,-0.113181045055389,0.082927925491333,-0.0730162868499754
0.519685039370079,-0.0413304591178894,-0.094303519821167,-0.228692556381225
0.520290732889158,-0.012590224742889402,-0.063168265914917,0.676624826431275
0.520896426408237,-0.0437254786491394,-0.027242972946167,0.580824045181275
0.521502119927317,0.023335068225860598,0.085322945022583,-0.0179308376312254
0.522107813446396,0.11434581041336099,-0.106278617477417,-0.0179308376312254
0.522713506965475,-0.0820457911491394,-0.010477836227417001,-0.00595573997497537
0.523319200484555,-0.0844408106803894,-0.017662894821167,0.22396613502502502
0.523924894003634,0.236491806507111,-0.058378226852417,0.0108093967437746
0.524530587522714,0.258046982288361,0.17154364814758302,0.0994251194000246
0.525136281041793,-0.0652806544303894,-0.120648734664917,0.22875617408752502
0.525741974560872,-0.0269603419303894,0.056582710647583,0.14014045143127501
0.526347668079951,-0.0772557520866394,0.15238349189758302,0.192830881118775
0.526953361599031,-0.0197752833366394,-0.15178398857116698,0.132955392837525
0.52755905511811,-0.0700706934928894,-0.091908500289917,0.183250802993775
0.52816474863719,-0.11797108411788901,-0.00568779716491698,0.116190256118775
0.528770442156269,0.0856055760383606,-0.180524222946167,-0.029905935287475403
0.529376135675348,0.0856055760383606,0.027842476272583,-0.19037224388122498
0.529981829194428,0.07363047838211059,0.114063179397583,0.132955392837525
0.530587522713507,-0.12276112318038901,0.133223335647583,0.0611048069000246
0.531193216232586,-0.0006151270866394039,0.042212593460083,0.0658948459625246
0.531798909751666,-0.105995986461639,-0.154179008102417,0.31018683815002496
0.532404603270745,-0.0796507716178894,0.080532905960083,0.15451056861877502
0.533010296789824,-0.0868358302116394,0.020657417678832998,-0.0107457790374754
0.533615990308904,0.236491806507111,-0.051193168258667,-0.113731618881225
0.534221683827983,0.07363047838211059,0.066162788772583,0.20480597877502502
0.534827377347062,-0.213771865367889,0.121248237991333,0.113795236587525
0.535433070866142,0.210146591663361,-0.21165947685241698,0.16409064674377502
0.536038764385221,-0.022170302867889402,0.027842476272583,-0.00595573997497537
0.5366444579043,-0.11557606458663901,0.17154364814758302,0.166485666275025
0.53725015142338,0.040100204944610605,0.006287300491333019,0.116190256118775
0.537855844942459,-0.0317503809928894,-0.130228812789917,-0.00835075950622537
0.538461538461538,-0.0964159083366394,-0.103883597946167,0.0898450412750246
0.539067231980618,-0.0078001856803894,-0.180524222946167,0.0467346897125246
0.539672925499697,-0.0796507716178894,0.018262398147583,-0.128101736068725
0.540278619018776,-0.0317503809928894,0.13082831611633303,0.0108093967437746
0.540884312537856,0.061655380725860603,-0.194894340133667,0.243126291275025
0.541490006056935,-0.149106338024139,-0.130228812789917,-0.0610411891937254
0.542095699576015,0.0041749119758606006,-0.027242972946167,-0.33886345481872504
0.542701393095094,-0.0317503809928894,0.274529487991333,-0.0466710720062254
0.543307086614173,0.0185450291633606,-0.034428031539917,0.183250802993775
0.543912780133253,-0.050910537242889395,-0.094303519821167,0.183250802993775
0.544518473652332,0.040100204944610605,0.106878120803833,0.137745431900025
0.545124167171411,0.023335068225860598,0.049397652053833,0.180855783462525
0.545729860690491,-0.110786025524139,-0.036823051071167,0.264681467056275
0.54633555420957,0.0496802830696106,-0.034428031539917,0.130560373306275
0.546941247728649,-0.175451552867889,-0.101488578414917,0.130560373306275
0.547546941247729,-0.297597548961639,-0.079933402633667,0.0275745334625246
0.548152634766808,-0.32873280286788903,0.039817573928833,0.029969552993774597
0.548758328285887,-0.0676756739616394,0.073347847366333,0.276656564712525
0.549364021804967,0.10955577135086099,-0.027242972946167,-0.0825963649749754
0.549969715324046,0.035310165882110604,0.027842476272583,-0.391553884506225
0.550575408843125,-0.153896377086639,0.047002632522583,0.293421701431275
0.551181102362205,-0.058095595836639397,-0.034428031539917,0.0634998264312746
0.551786795881284,0.0017798924446106,0.145198433303833,-0.0730162868499754
0.552392489400363,-0.0964159083366394,-0.032033012008667,0.0108093967437746
0.552998182919443,-0.441298720836639,0.020657417678832998,0.00841437721252463
0.553603876438522,-0.264067275524139,-0.0032927776336669798,-0.0370909938812254
0.554209569957601,0.0951856541633606,-0.055983207321167,0.240731271743775
0.554815263476681,0.032915146350860604,0.14759345283508302,0.120980295181275
0.55542095699576,-0.15150135755538902,-0.012872855758667002,0.0563147678375246
0.556026650514839,-0.11557606458663901,0.027842476272583,0.22396613502502502
0.556632344033919,-0.153896377086639,0.011077339553832999,0.123375314712525
0.557238037552998,0.145481064319611,-0.135018851852417,0.123375314712525
0.557843731072078,0.341872665882111,-0.079933402633667,-0.113731618881225
0.558449424591157,-0.144316298961639,-0.072748344039917,-0.132891775131225
0.559055118110236,-0.0078001856803894,-0.089513480758667,-0.06343620872497541
0.559660811629316,0.035310165882110604,-0.180524222946167,0.274261545181275
0.560266505148395,-0.0389354395866394,0.030237495803833,0.123375314712525
0.560872198667474,-0.17066151380538902,0.080532905960083,0.147325510025025
0.561477892186554,-0.046120498180389394,-0.113463676071167,0.23354621315002502
0.562083585705633,0.07363047838211059,0.14280341377258302,0.343717111587525
0.562689279224712,0.265232040882111,0.025447456741333,0.255101388931275
0.563294972743792,0.12392588853836099,-0.020057914352417,0.111400217056275
0.563900666262871,-0.053305556774139395,-0.024847953414917,0.0634998264312746
0.56450635978195,0.0209400486946106,-0.044008109664917,-0.0849913845062254
0.56511205330103,0.0951856541633606,0.19788886299133301,0.17367072486877502
0.565717746820109,0.06644541978836059,-0.103883597946167,0.0203894748687746
0.566323440339188,0.07363047838211059,-0.16136406669616699,-0.0323009548187254
0.566929133858268,0.0592603611946106,-0.00568779716491698,0.286236642837525
0.567534827377347,-0.0437254786491394,0.058977730178832996,0.192830881118775
0.568140520896426,0.164641220569611,0.047002632522583,0.176065744400025
0.568746214415506,0.06644541978836059,0.044607612991333,0.176065744400025
0.569351907934585,0.0520753026008606,0.013472359085083,0.132955392837525
0.569957601453664,0.131110947132111,-0.103883597946167,-0.029905935287475403
0.570563294972744,-0.0365404200553894,-0.103883597946167,0.0251795139312746
0.571168988491823,-0.197006728649139,0.145198433303833,-0.0011657009124753702
0.571774682010902,-0.0988109278678894,-0.058378226852417,0.015599435806274601
0.572380375529982,0.0520753026008606,-0.020057914352417,0.216781076431275
0.572986069049061,0.0520753026008606,0.102088081741333,-0.06583122825622541
0.57359176256814,-0.199401748180389,-0.027242972946167,-0.0418810329437254
0.57419745608722,-0.223351943492889,0.027842476272583,0.0994251194000246
0.574803149606299,0.157456161975861,0.013472359085083,0.161695627212525
0.575408843125379,0.12871592760086098,-0.170944144821167,0.142535470962525
0.576014536644458,-0.055700576305389396,-0.113463676071167,0.0658948459625246
0.576620230163537,0.06884043931961059,0.073347847366333,0.0850550022125246
0.577225923682617,-0.199401748180389,0.094903023147583,0.183250802993775
0.577831617201696,-0.0293553614616394,0.00149726142883302,0.286236642837525
0.578437310720775,0.210146591663361,-0.060773246383667004,0.0467346897125246
0.579043004239855,-0.055700576305389396,-0.22123955497741699,0.36766730690002497
0.579648697758934,-0.0916258692741394,-0.223634574508667,0.171275705337525
0.580254391278013,0.13829600572586098,-0.13262383232116698,0.22396613502502502
0.580860084797093,0.0951856541633606,-0.072748344039917,0.729315256118775
0.581465778316172,-0.0796507716178894,-0.067958304977417,0.10421515846252499
0.582071471835251,-0.108391005992889,-0.103883597946167,0.21438605690002502
0.582677165354331,-0.17066151380538902,0.00149726142883302,0.128165353775025
0.58328285887341,-0.0604906153678894,-0.036823051071167,-0.00356072044372537
0.583888552392489,0.11674082994461099,-0.022452933883667002,0.142535470962525
0.584494245911569,0.167036240100861,0.10448310127258299,0.132955392837525
0.585099939430648,-0.11797108411788901,0.118853218460083,-0.152051931381225
0.585705632949727,-0.254487197399139,-0.0032927776336669798,0.029969552993774597
0.586311326468807,-0.012590224742889402,0.080532905960083,0.48981330299377496
0.586917019987886,-0.0868358302116394,-0.18291924247741698,0.27905158424377496
0.587522713506965,-0.058095595836639397,-0.19728935966491698,0.0634998264312746
0.588128407026045,-0.0988109278678894,-0.00568779716491698,0.00841437721252463
0.588734100545124,-0.163476455211639,-0.123043754196167,0.25989142799377496
0.589339794064203,0.0951856541633606,-0.053588187789917,0.0970300998687746
0.589945487583283,-0.022170302867889402,0.205073921585083,0.14972052955627502
0.590551181102362,-0.113181045055389,-0.264349906539917,0.183250802993775
0.591156874621442,-0.0173802638053894,-0.094303519821167,-0.0179308376312254
0.591762568140521,0.0305201268196106,0.049397652053833,0.21917609596252502
0.5923682616596,-0.0604906153678894,-0.070353324508667,0.171275705337525
0.59297395517868,0.0927906346321106,0.090112984085083,0.250311349868775
0.593579648697759,0.432883408069611,-0.041613090133667,0.128165353775025
0.594185342216838,0.145481064319611,-0.053588187789917,0.109005197525025
0.594791035735918,-0.0700706934928894,0.169148628616333,0.0658948459625246
0.595396729254997,-0.0389354395866394,0.164358589553833,0.252706369400025
0.596002422774076,-0.058095595836639397,-0.194894340133667,0.30779181861877497
0.596608116293156,-0.0676756739616394,-0.051193168258667,0.0682898654937746
0.597213809812235,0.06405040025711059,-0.048798148727417,0.274261545181275
0.597819503331314,0.226911728382111,-0.094303519821167,0.22396613502502502
0.598425196850394,-0.0437254786491394,0.039817573928833,0.0658948459625246
0.599030890369473,0.0257300877571106,0.073347847366333,0.0491297092437746
0.599636583888552,0.0927906346321106,0.027842476272583,0.0611048069000246
0.600242277407632,-0.273647353649139,-0.000897758102416984,0.255101388931275
0.600847970926711,0.0448902440071106,-0.106278617477417,0.111400217056275
0.60145366444579,0.023335068225860598,-0.14699394950866698,0.0850550022125246
0.60205935796487,-0.201796767711639,-0.00568779716491698,0.037154611587524596
0.602665051483949,0.0209400486946106,-0.089513480758667,0.137745431900025
0.603270745003028,0.0520753026008606,0.14759345283508302,0.350902170181275
0.603876438522108,-0.050910537242889395,0.066162788772583,0.116190256118775
0.604482132041187,0.10955577135086099,-0.058378226852417,0.14014045143127501
0.605087825560267,0.205356552600861,-0.087118461227417,0.26947150611877496
0.605693519079346,0.0161500096321106,-0.103883597946167,0.21438605690002502
0.606299212598425,-0.139526259899139,0.020657417678832998,-0.00835075950622537
0.606904906117504,-0.0676756739616394,-0.14220391044616698,0.00841437721252463
0.607510599636584,0.0305201268196106,-0.032033012008667,0.0874500217437746
0.608116293155663,0.07602549791336059,-0.063168265914917,0.21438605690002502
0.608721986674743,0.11434581041336099,-0.07514336357116701,-0.0849913845062254
0.609327680193822,-0.264067275524139,-0.00808281669616698,-0.31012322044372503
0.609933373712901,-0.223351943492889,-0.041613090133667,0.192830881118775
0.610539067231981,0.0999756932258606,-0.020057914352417,0.686204904556275
0.61114476075106,0.061655380725860603,0.19070380439758303,0.192830881118775
0.611750454270139,-0.0700706934928894,0.29608466377258297,-0.183187185287475
0.612356147789219,0.0999756932258606,-0.079933402633667,0.0946350803375246
0.612961841308298,-0.0269603419303894,-0.048798148727417,0.15451056861877502
0.613567534827377,-0.14671131849288901,0.066162788772583,0.147325510025025
0.614173228346457,-0.0413304591178894,-0.0032927776336669798,0.243126291275025
0.614778921865536,-0.110786025524139,0.111668159866333,0.132955392837525
0.615384615384615,-0.16587147474288902,0.068557808303833,0.10421515846252499
0.615990308903695,-0.0604906153678894,-0.17333916435241697,0.26947150611877496
0.616596002422774,0.12871592760086098,-0.20207939872741698,0.0108093967437746
0.617201695941853,-0.16108143568038902,-0.240399711227417,0.0634998264312746
0.617807389460933,-0.237722060680389,-0.14699394950866698,0.161695627212525
0.618413082980012,-0.0030101466178894,-0.039218070602417,0.197620920181275
0.619018776499091,0.0880005955696106,-0.113463676071167,0.197620920181275
0.619624470018171,0.0041749119758606006,-0.00808281669616698,0.20959601783752502
0.62023016353725,-0.0868358302116394,0.011077339553832999,-0.0586461696624754
0.620835857056329,0.0544703221321106,-0.070353324508667,0.0994251194000246
0.621441550575409,-0.0413304591178894,-0.113463676071167,0.286236642837525
0.622047244094488,0.253256943225861,0.030237495803833,0.00362433815002463
0.622652937613568,-0.050910537242889395,0.14759345283508302,0.317371896743775
0.623258631132647,-0.0269603419303894,-0.079933402633667,0.15930060768127502
0.623864324651726,0.10716075181961099,-0.106278617477417,0.00841437721252463
0.624470018170806,-0.12276112318038901,0.035027534866333,0.15451056861877502
0.625075711689885,0.032915146350860604,-0.060773246383667004,0.123375314712525
0.625681405208964,-0.0245653223991394,-0.154179008102417,0.10182013893127499
0.626287098728044,-0.0197752833366394,-0.012872855758667002,-0.255037771224975
0.626892792247123,0.0089649510383606,0.018262398147583,-0.0921764430999754
0.627498485766202,-0.055700576305389396,-0.170944144821167,0.16888068580627502
0.628104179285282,-0.113181045055389,0.013472359085083,0.14972052955627502
0.628709872804361,0.07363047838211059,-0.034428031539917,0.195225900650025
0.62931556632344,0.253256943225861,-0.264349906539917,-0.0730162868499754
0.62992125984252,0.040100204944610605,0.018262398147583,-0.0921764430999754
0.630526953361599,-0.134736220836639,0.133223335647583,0.0323645725250246
0.631132646880678,0.042495224475860606,0.00868232002258302,0.037154611587524596
0.631738340399758,-0.022170302867889402,0.023052437210082998,0.171275705337525
0.632344033918837,0.06644541978836059,-0.123043754196167,0.147325510025025
0.632949727437916,0.0185450291633606,0.080532905960083,0.106610177993775
0.633555420956996,-0.129946181774139,0.020657417678832998,0.293421701431275
0.634161114476075,-0.247302138805389,-0.051193168258667,0.22396613502502502
0.634766807995154,-0.235327041149139,-0.012872855758667002,0.202410959243775
0.635372501514234,-0.012590224742889402,-0.094303519821167,0.0802649631500246
0.635978195033313,0.200566513538361,0.061372749710083,-0.0754113063812254
0.636583888552392,-0.0030101466178894,-0.000897758102416984,0.0539197483062746
0.637189582071472,-0.0149852442741394,0.109273140335083,0.0563147678375246
0.637795275590551,0.040100204944610605,0.056582710647583,0.372457345962525
0.638400969109631,-0.144316298961639,-0.087118461227417,0.374852365493775
0.63900666262871,0.0017798924446106,0.035027534866333,0.0563147678375246
0.639612356147789,0.0161500096321106,0.075742866897583,-0.21432243919372498
0.640218049666869,0.12153086900711099,-0.15657402763366698,0.30779181861877497
0.640823743185948,0.301157333850861,-0.055983207321167,0.37006232643127496
0.641429436705027,0.13350596666336098,0.193098823928833,0.111400217056275
0.642035130224107,-0.0820457911491394,-0.010477836227417001,0.20959601783752502
0.642640823743186,-0.0604906153678894,-0.099093558883667,0.0203894748687746
0.643246517262265,0.0496802830696106,-0.084723441696167,0.262286447525025
0.643852210781345,0.21254161119461099,-0.036823051071167,0.0730799045562746
0.644457904300424,-0.11557606458663901,0.14759345283508302,0.111400217056275
0.645063597819503,-0.199401748180389,-0.058378226852417,0.245521310806275
0.645669291338583,0.222121689319611,-0.144598929977417,0.0539197483062746
0.646274984857662,-0.053305556774139395,0.106878120803833,0.037154611587524596
0.646880678376741,-0.0604906153678894,-0.063168265914917,0.00122931861877463
0.647486371895821,0.219726669788361,-0.072748344039917,0.137745431900025
0.6480920654149,0.0185450291633606,0.102088081741333,0.0347595920562746
0.648697758933979,-0.187426650524139,-0.106278617477417,0.10421515846252499
0.649303452453059,-0.058095595836639397,-0.223634574508667,0.21438605690002502
0.649909145972138,-0.010195205211639401,-0.041613090133667,-0.0969664821624754
0.650514839491217,-0.158686416149139,-0.053588187789917,0.10182013893127499
0.651120533010297,0.032915146350860604,-0.158969047164917,0.00122931861877463
0.651726226529376,0.040100204944610605,-0.144598929977417,-0.0993615016937254
0.652331920048455,-0.101205947399139,-0.039218070602417,0.015599435806274601
0.652937613567535,0.27002207994461097,-0.07514336357116701,0.176065744400025
0.653543307086614,0.210146591663361,-0.13262383232116698,0.27905158424377496
0.654149000605693,0.0568653416633606,-0.084723441696167,0.0946350803375246
0.654754694124773,-0.0197752833366394,-0.094303519821167,0.0850550022125246
0.655360387643852,-0.173056533336639,0.128433296585083,0.113795236587525
0.655966081162932,0.0209400486946106,0.169148628616333,0.21917609596252502
0.656571774682011,-0.110786025524139,0.061372749710083,0.30779181861877497
0.65717746820109,0.0017798924446106,-0.067958304977417,0.247916330337525
0.65778316172017,-0.0748607325553894,-0.20686943778991698,0.142535470962525
0.658388855239249,0.023335068225860598,-0.14699394950866698,-0.0802013454437254
0.658994548758328,0.023335068225860598,-0.14220391044616698,-0.111336599349975
0.659600242277408,-0.180241591930389,0.080532905960083,0.0898450412750246
0.660205935796487,-0.0197752833366394,-0.058378226852417,0.0227844944000246
0.660811629315566,0.0544703221321106,-0.020057914352417,-0.0107457790374754
0.661417322834646,-0.0868358302116394,0.011077339553832999,0.111400217056275
0.662023016353725,0.0784205174446106,-0.077538383102417,0.14014045143127501
0.662628709872804,0.183801376819611,0.118853218460083,0.22396613502502502
0.663234403391884,-0.0940208888053894,-0.00568779716491698,0.0203894748687746
0.663840096910963,-0.177846572399139,-0.089513480758667,0.0132044162750246
0.664445790430042,-0.0317503809928894,-0.053588187789917,0.324556955337525
0.665051483949122,0.0065699315071106,-0.000897758102416984,0.16888068580627502
0.665657177468201,-0.0988109278678894,0.032632515335083,-0.166422048568725
0.66626287098728,0.246071884632111,0.111668159866333,0.195225900650025
0.66686856450636,0.229306747913361,0.214653999710083,0.109005197525025
0.667474258025439,-0.182636611461639,-0.149388969039917,0.22396613502502502
0.668079951544518,-0.12036610364913901,-0.18291924247741698,-0.0251158962249754
0.668685645063598,-0.0030101466178894,0.14280341377258302,-0.0945714626312254
0.669291338582677,-0.0030101466178894,-0.158969047164917,-0.0346959743499754
0.669897032101756,0.226911728382111,-0.099093558883667,0.401197580337525
0.670502725620836,0.0592603611946106,-0.20686943778991698,0.183250802993775
0.671108419139915,-0.125156142711639,-0.226029594039917,0.161695627212525
0.671714112658994,-0.0916258692741394,-0.135018851852417,0.30060676002502495
0.672319806178074,0.023335068225860598,-0.19728935966491698,-0.29096306419372503
0.672925499697153,0.10476573228836099,-0.13262383232116698,0.15451056861877502
0.673531193216233,0.0257300877571106,-0.118253715133667,0.0323645725250246
0.674136886735312,-0.149106338024139,0.054187691116333,0.116190256118775
0.674742580254391,0.0161500096321106,0.051792671585083,0.116190256118775
0.675348273773471,-0.0054051661491394,0.00868232002258302,-0.00595573997497537
0.67595396729255,0.0448902440071106,-0.020057914352417,0.211991037368775
0.676559660811629,0.214936630725861,-0.067958304977417,0.185645822525025
0.677165354330709,-0.0389354395866394,0.056582710647583,-0.156841970443725
0.677771047849788,-0.149106338024139,0.073347847366333,0.156905588150025
0.678376741368867,-0.0173802638053894,-0.041613090133667,0.314976877212525
0.678982434887947,0.14308604478836098,-0.00808281669616698,-0.0730162868499754
0.679588128407026,-0.0341454005241394,0.082927925491333,0.226361154556275
0.680193821926105,-0.163476455211639,0.042212593460083,0.17846076393127502
0.680799515445185,-0.0293553614616394,0.00149726142883302,-0.161632009506225
0.681405208964264,0.0161500096321106,-0.072748344039917,0.17367072486877502
0.682010902483343,0.145481064319611,-0.044008109664917,0.36048224830627495
0.682616596002423,-0.149106338024139,-0.18770928153991698,0.17367072486877502
0.683222289521502,-0.0748607325553894,-0.091908500289917,-0.113731618881225
0.683827983040581,0.0472852635383606,-0.022452933883667002,-0.0538561305999754
0.684433676559661,0.11195079088211099,-0.180524222946167,0.17367072486877502
0.68503937007874,0.0089649510383606,-0.082328422164917,0.17846076393127502
0.68564506359782,-0.0676756739616394,-0.070353324508667,0.0970300998687746
0.686250757116899,-0.0365404200553894,0.032632515335083,0.0275745334625246
0.686856450635978,0.011359970569610599,-0.094303519821167,0.0419446506500246
0.687462144155058,-0.113181045055389,0.027842476272583,0.22396613502502502
0.688067837674137,-0.314362685680389,-0.099093558883667,0.120980295181275
0.688673531193216,0.0041749119758606006,-0.149388969039917,0.202410959243775
0.689279224712296,-0.0413304591178894,0.075742866897583,-0.0442760524749754
0.689884918231375,0.0568653416633606,-0.053588187789917,-0.0442760524749754
0.690490611750454,-0.113181045055389,0.032632515335083,0.10421515846252499
0.691096305269534,-0.053305556774139395,0.154778511428833,0.22875617408752502
0.691701998788613,0.0880005955696106,0.027842476272583,0.142535470962525
0.692307692307692,-0.0293553614616394,0.011077339553832999,-0.0370909938812254
0.692913385826772,-0.0413304591178894,0.023052437210082998,0.21917609596252502
0.693519079345851,-0.0676756739616394,-0.017662894821167,-0.0323009548187254
0.69412477286493,0.0089649510383606,0.00868232002258302,0.0611048069000246
0.69473046638401,0.0137549901008606,-0.144598929977417,0.20001593971252501
0.695336159903089,-0.15150135755538902,-0.14220391044616698,-0.06343620872497541
0.695941853422168,-0.199401748180389,-0.00808281669616698,0.0467346897125246
0.696547546941248,-0.223351943492889,-0.21165947685241698,0.0850550022125246
0.697153240460327,-0.0820457911491394,0.039817573928833,-0.0418810329437254
0.697758933979406,0.0065699315071106,0.118853218460083,0.0778699436187746
0.698364627498486,0.061655380725860603,-0.015267875289917,0.0419446506500246
0.698970321017565,-0.0341454005241394,0.23141913642883302,-0.192767263412475
0.699576014536644,-0.15150135755538902,-0.0032927776336669798,0.0778699436187746
0.700181708055724,-0.27843739271163903,-0.091908500289917,0.707760080337525
0.700787401574803,0.126320908069611,0.10448310127258299,0.698180002212525
0.701393095093882,-0.182636611461639,0.037422554397583,0.264681467056275
0.701998788612962,-0.0293553614616394,-0.00568779716491698,-0.0730162868499754
0.702604482132041,0.19817149400711098,-0.00808281669616698,0.0994251194000246
0.703210175651121,-0.240117080211639,-0.154179008102417,0.365272287368775
0.7038158691702,0.25086192369461097,-0.055983207321167,0.0467346897125246
0.704421562689279,0.12153086900711099,-0.032033012008667,0.0611048069000246
0.705027256208359,0.0041749119758606006,-0.106278617477417,0.20959601783752502
0.705632949727438,-0.201796767711639,0.011077339553832999,0.197620920181275
0.706238643246517,-0.0604906153678894,-0.125438773727417,0.15930060768127502
0.706844336765597,0.10476573228836099,0.21704901924133302,0.267076486587525
0.707450030284676,0.037705185413360605,0.21225898017883302,0.195225900650025
0.708055723803755,0.10716075181961099,-0.204474418258667,0.00601935768127463
0.708661417322835,-0.0413304591178894,-0.034428031539917,0.0563147678375246
0.709267110841914,0.0017798924446106,-0.012872855758667002,-0.0897814235687254
0.709872804360993,-0.0054051661491394,-0.017662894821167,0.0994251194000246
0.710478497880073,0.10237071275711099,0.030237495803833,0.0275745334625246
0.711084191399152,0.15266612291336099,-0.058378226852417,0.0539197483062746
0.711689884918231,0.0161500096321106,0.037422554397583,0.0922400608062746
0.712295578437311,0.07602549791336059,-0.072748344039917,0.135350412368775
0.71290127195639,-0.101205947399139,-0.077538383102417,0.128165353775025
0.713506965475469,-0.0269603419303894,-0.072748344039917,0.017994455337524598
0.714112658994549,0.035310165882110604,-0.044008109664917,0.14972052955627502
0.714718352513628,0.061655380725860603,-0.123043754196167,0.197620920181275
0.715324046032707,0.296367294788361,-0.14699394950866698,0.176065744400025
0.715929739551787,0.0784205174446106,0.097298042678833,0.0994251194000246
0.716535433070866,0.042495224475860606,0.020657417678832998,0.0946350803375246
0.717141126589945,0.181406357288361,0.051792671585083,0.188040842056275
0.717746820109025,0.07602549791336059,0.030237495803833,0.202410959243775
0.718352513628104,-0.0437254786491394,-0.091908500289917,0.10182013893127499
0.718958207147184,-0.0748607325553894,-0.087118461227417,0.283841623306275
0.719563900666263,-0.204191787242889,-0.077538383102417,0.0251795139312746
0.720169594185342,-0.27843739271163903,-0.096698539352417,0.0778699436187746
0.720775287704422,-0.0437254786491394,0.085322945022583,0.334137033462525
0.721380981223501,0.20775157213211098,0.085322945022583,0.0802649631500246
0.72198667474258,0.126320908069611,-0.130228812789917,0.130560373306275
0.72259236826166,-0.101205947399139,-0.175734183883667,-0.00356072044372537
0.723198061780739,-0.11797108411788901,0.126038277053833,-0.161632009506225
0.723803755299818,-0.050910537242889395,0.092508003616333,-0.0323009548187254
0.724409448818898,0.0880005955696106,0.070952827835083,0.128165353775025
0.725015142337977,0.0856055760383606,0.027842476272583,0.0754749240875246
0.725620835857056,0.0520753026008606,-0.144598929977417,-0.113731618881225
0.726226529376136,0.11913584947586099,0.018262398147583,-0.0418810329437254
0.726832222895215,-0.0197752833366394,0.042212593460083,0.123375314712525
0.727437916414294,0.0975806736946106,-0.190104301071167,-0.0562511501312254
0.728043609933374,0.18859141588211098,-0.010477836227417001,-0.147261892318725
0.728649303452453,0.356242783069611,0.10448310127258299,-0.029905935287475403
0.729254996971532,0.219726669788361,-0.245189750289917,0.0251795139312746
0.729860690490612,0.19817149400711098,0.027842476272583,0.0108093967437746
0.730466384009691,0.293972275257111,0.193098823928833,0.482628244400025
0.73107207752877,0.277207138538361,0.00149726142883302,0.726920236587525
0.73167777104785,0.38977305650711097,0.051792671585083,0.176065744400025
0.732283464566929,0.140691025257111,-0.0032927776336669798,-0.161632009506225
0.732889158086008,0.286787216663361,0.14759345283508302,0.147325510025025
0.733494851605088,0.392168076038361,0.145198433303833,0.231151193618775
0.734100545124167,0.526289169788361,-0.034428031539917,-0.0610411891937254
0.734706238643246,0.12871592760086098,-0.070353324508667,0.0922400608062746
0.735311932162326,0.06884043931961059,-0.000897758102416984,-0.0586461696624754
0.735917625681405,0.564609482288361,0.042212593460083,-0.0011657009124753702
0.736523319200485,0.454438583850861,-0.044008109664917,-0.0179308376312254
0.737129012719564,0.243676865100861,-0.18770928153991698,-0.13049675559997498
0.737734706238643,0.32031749010086097,-0.101488578414917,-0.00835075950622537
0.738340399757723,0.416118271350861,0.066162788772583,0.0443396701812746
0.738946093276802,0.373007919788361,-0.082328422164917,-0.0825963649749754
0.739551786795881,0.423303329944611,-0.15178398857116698,0.015599435806274601
0.740157480314961,0.274812119007111,-0.015267875289917,-0.15444695091247498
0.74076317383404,0.456833603382111,0.188308784866333,-0.0849913845062254
0.741368867353119,0.265232040882111,-0.051193168258667,0.118585275650025
0.741974560872199,0.27002207994461097,0.032632515335083,0.128165353775025
0.742580254391278,0.301157333850861,-0.000897758102416984,0.37964240455627496
0.743185947910357,0.394563095569611,-0.024847953414917,0.185645822525025
0.743791641429437,0.32031749010086097,0.058977730178832996,-0.0873864040374754
0.744397334948516,0.176616318225861,0.00389228096008302,0.245521310806275
0.745003028467595,0.411328232288361,0.018262398147583,0.27905158424377496
0.745608721986675,0.332292587757111,-0.015267875289917,-0.116126638412475
0.746214415505754,0.20296153306961098,0.039817573928833,-0.0730162868499754
0.746820109024833,0.06405040025711059,0.126038277053833,-0.101756521224975
0.747425802543913,0.06644541978836059,0.058977730178832996,0.0730799045562746
0.748031496062992,0.176616318225861,0.049397652053833,0.0203894748687746
0.748637189582071,0.25086192369461097,-0.091908500289917,0.113795236587525
0.749242883101151,0.0544703221321106,-0.223634574508667,0.118585275650025
0.74984857662023,0.07363047838211059,-0.044008109664917,-0.15444695091247498
0.75045427013931,0.0592603611946106,0.015867378616333,0.017994455337524598
0.751059963658389,-0.055700576305389396,0.054187691116333,0.135350412368775
0.751665657177468,0.11434581041336099,0.015867378616333,0.147325510025025
0.752271350696547,-0.048515517711639394,-0.015267875289917,0.38922248268127496
0.752877044215627,-0.0628856348991394,0.027842476272583,0.0563147678375246
0.753482737734706,0.186196396350861,0.111668159866333,0.0563147678375246
0.754088431253786,-0.0413304591178894,-0.000897758102416984,0.281446603775025
0.754694124772865,-0.046120498180389394,-0.106278617477417,0.0491297092437746
0.755299818291944,0.0041749119758606006,0.035027534866333,0.00362433815002463
0.755905511811024,0.11913584947586099,-0.060773246383667004,-0.0442760524749754
0.756511205330103,0.12153086900711099,-0.029637992477417,0.135350412368775
0.757116898849182,-0.0628856348991394,-0.051193168258667,0.116190256118775
0.757722592368262,-0.0652806544303894,-0.106278617477417,0.240731271743775
0.758328285887341,0.10716075181961099,-0.214054496383667,0.334137033462525
0.75893397940642,0.344267685413361,-0.072748344039917,-0.26940788841247504
0.7595396729255,0.162246201038361,0.023052437210082998,0.46825812721252497
0.760145366444579,0.135900986194611,-0.084723441696167,0.305396799087525
0.760751059963658,0.0951856541633606,0.011077339553832999,0.382037424087525
0.761356753482738,0.0784205174446106,0.011077339553832999,0.30779181861877497
0.761962447001817,-0.0341454005241394,-0.055983207321167,-0.183187185287475
0.762568140520896,0.042495224475860606,-0.123043754196167,0.22875617408752502
0.763173834039976,-0.0437254786491394,0.205073921585083,0.0730799045562746
0.763779527559055,-0.223351943492889,-0.120648734664917,-0.113731618881225
0.764385221078134,0.11434581041336099,-0.058378226852417,-0.123311697006225
0.764990914597214,-0.0245653223991394,0.183518745803833,0.355692209243775
0.765596608116293,0.0472852635383606,-0.106278617477417,0.281446603775025
0.766202301635373,0.0209400486946106,-0.055983207321167,0.31018683815002496
0.766807995154452,-0.189821670055389,-0.034428031539917,0.15451056861877502
0.767413688673531,0.0448902440071106,-0.015267875289917,0.10182013893127499
0.768019382192611,0.06884043931961059,-0.072748344039917,0.0467346897125246
0.76862507571169,0.0975806736946106,0.011077339553832999,0.00601935768127463
0.769230769230769,0.190986435413361,0.260159370803833,0.0347595920562746
0.769836462749849,-0.010195205211639401,-0.065563285446167,-0.0418810329437254
0.770442156268928,-0.113181045055389,0.032632515335083,0.0874500217437746
0.771047849788007,0.10476573228836099,0.056582710647583,0.0898450412750246
0.771653543307087,0.0496802830696106,-0.106278617477417,0.235941232681275
0.772259236826166,-0.0030101466178894,0.094903023147583,0.15930060768127502
0.772864930345245,-0.149106338024139,0.056582710647583,0.0994251194000246
0.773470623864325,-0.141921279430389,-0.00808281669616698,0.0826599826812746
0.774076317383404,-0.0796507716178894,-0.053588187789917,0.10421515846252499
0.774682010902483,-0.12276112318038901,-0.079933402633667,0.226361154556275
0.775287704421563,-0.0245653223991394,-0.096698539352417,0.0419446506500246
0.775893397940642,-0.022170302867889402,-0.027242972946167,0.303001779556275
0.776499091459721,-0.0796507716178894,0.015867378616333,0.350902170181275
0.777104784978801,-0.110786025524139,0.042212593460083,0.384432443618775
0.77771047849788,-0.0676756739616394,0.070952827835083,0.0898450412750246
0.778316172016959,0.12153086900711099,0.094903023147583,0.0203894748687746
0.778921865536039,0.0496802830696106,-0.046403129196167,0.283841623306275
0.779527559055118,0.11913584947586099,-0.084723441696167,0.128165353775025
0.780133252574197,0.0161500096321106,0.123643257522583,0.20001593971252501
0.780738946093277,-0.254487197399139,0.025447456741333,0.0730799045562746
0.781344639612356,-0.127551162242889,-0.101488578414917,0.247916330337525
0.781950333131435,-0.213771865367889,0.020657417678832998,0.207200998306275
0.782556026650515,-0.053305556774139395,0.006287300491333019,0.0323645725250246
0.783161720169594,0.0544703221321106,-0.13262383232116698,0.106610177993775
0.783767413688674,-0.235327041149139,-0.082328422164917,0.180855783462525
0.784373107207753,-0.22095692396163902,0.154778511428833,0.20959601783752502
0.784978800726832,-0.105995986461639,-0.21165947685241698,0.0658948459625246
0.785584494245912,-0.048515517711639394,-0.154179008102417,0.0611048069000246
0.786190187764991,0.07363047838211059,-0.055983207321167,0.142535470962525
0.78679588128407,-0.0437254786491394,-0.123043754196167,-0.0586461696624754
0.78740157480315,-0.249697158336639,0.10448310127258299,-0.06822624778747541
0.788007268322229,-0.314362685680389,-0.027242972946167,0.106610177993775
0.788612961841308,-0.12276112318038901,-0.175734183883667,0.147325510025025
0.789218655360388,-0.125156142711639,0.049397652053833,-0.0179308376312254
0.789824348879467,0.023335068225860598,0.21225898017883302,0.00362433815002463
0.790430042398546,-0.17066151380538902,-0.055983207321167,0.679019845962525
0.791035735917626,-0.185031630992889,-0.032033012008667,-0.0394860134124754
0.791641429436705,0.0089649510383606,-0.072748344039917,-0.00356072044372537
0.792247122955784,-0.010195205211639401,0.011077339553832999,-0.00595573997497537
0.792852816474864,0.10476573228836099,-0.13741387138366698,0.0730799045562746
0.793458509993943,0.0041749119758606006,0.00868232002258302,0.0994251194000246
0.794064203513022,-0.0772557520866394,0.068557808303833,-0.108941579818725
0.794669897032102,-0.055700576305389396,-0.072748344039917,0.17846076393127502
0.795275590551181,0.032915146350860604,0.025447456741333,0.20001593971252501
0.79588128407026,0.07602549791336059,0.015867378616333,0.286236642837525
0.79648697758934,0.035310165882110604,-0.079933402633667,0.113795236587525
0.797092671108419,0.14308604478836098,-0.060773246383667004,0.0970300998687746
0.797698364627498,-0.0916258692741394,0.061372749710083,0.0850550022125246
0.798304058146578,-0.0676756739616394,0.023052437210082998,0.0587097873687746
0.798909751665657,-0.0700706934928894,-0.120648734664917,-0.113731618881225
0.799515445184736,0.07602549791336059,-0.16854912528991697,0.195225900650025
0.800121138703816,0.0568653416633606,0.135618355178833,-0.106546560287475
0.800726832222895,-0.0748607325553894,-0.027242972946167,-0.113731618881225
0.801332525741975,-0.0437254786491394,0.027842476272583,0.22875617408752502
0.801938219261054,-0.0437254786491394,-0.022452933883667002,0.0515247287750246
0.802543912780133,-0.101205947399139,-0.067958304977417,0.207200998306275
0.803149606299213,-0.0628856348991394,0.00868232002258302,0.0443396701812746
0.803755299818292,0.253256943225861,-0.053588187789917,-0.0251158962249754
0.804360993337371,0.061655380725860603,0.135618355178833,0.0108093967437746
0.804966686856451,-0.11557606458663901,0.085322945022583,0.00841437721252463
0.80557238037553,-0.0173802638053894,0.063767769241333,0.156905588150025
0.806178073894609,-0.139526259899139,-0.149388969039917,0.0658948459625246
0.806783767413689,-0.20658680677413901,-0.25476982841491697,0.10421515846252499
0.807389460932768,-0.0030101466178894,-0.101488578414917,-0.0993615016937254
0.807995154451847,-0.0030101466178894,-0.125438773727417,-0.00595573997497537
0.808600847970927,-0.15150135755538902,-0.017662894821167,0.23354621315002502
0.809206541490006,-0.208981826305389,0.032632515335083,0.00362433815002463
0.809812235009085,0.0257300877571106,-0.149388969039917,-0.0873864040374754
0.810417928528165,-0.22574696302413902,-0.048798148727417,-0.106546560287475
0.811023622047244,-0.0892308497428894,0.018262398147583,-0.0825963649749754
0.811629315566323,-0.0006151270866394039,-0.18770928153991698,0.0251795139312746
0.812235009085403,-0.129946181774139,0.066162788772583,0.029969552993774597
0.812840702604482,0.10716075181961099,-0.024847953414917,-0.106546560287475
0.813446396123562,-0.0892308497428894,-0.166154105758667,0.0778699436187746
0.814052089642641,-0.103600966930389,-0.027242972946167,0.029969552993774597
0.81465778316172,0.0784205174446106,-0.053588187789917,0.039549631118774596
0.815263476680799,-0.022170302867889402,-0.21644951591491698,0.14493049049377502
0.815869170199879,-0.273647353649139,-0.333805472946167,-0.21911247825622499
0.816474863718958,-0.264067275524139,-0.072748344039917,-0.00595573997497537
0.817080557238038,-0.0197752833366394,-0.077538383102417,0.0515247287750246
0.817686250757117,0.0784205174446106,-0.18770928153991698,0.10421515846252499
0.818291944276196,0.0808155369758606,-0.103883597946167,-0.178397146224975
0.818897637795276,-0.137131240367889,-0.125438773727417,0.0802649631500246
0.819503331314355,-0.11557606458663901,-0.21165947685241698,0.039549631118774596
0.820109024833434,-0.0293553614616394,0.015867378616333,-0.0802013454437254
0.820714718352514,-0.15629139661788902,-0.20686943778991698,0.463468088150025
0.821320411871593,0.032915146350860604,-0.223634574508667,-0.108941579818725
0.821926105390672,0.13350596666336098,0.128433296585083,-0.25982781028747504
0.822531798909752,-0.254487197399139,-0.113463676071167,0.180855783462525
0.823137492428831,-0.333522841930389,-0.108673637008667,0.039549631118774596
0.82374318594791,-0.141921279430389,-0.032033012008667,-0.0203258571624754
0.82434887946699,0.19338145494461098,0.075742866897583,0.142535470962525
0.824954572986069,0.272417099475861,0.082927925491333,0.17846076393127502
0.825560266505148,0.061655380725860603,0.111668159866333,0.0203894748687746
0.826165960024228,0.06884043931961059,0.092508003616333,0.192830881118775
0.826771653543307,0.15266612291336099,-0.099093558883667,0.142535470962525
0.827377347062386,0.07363047838211059,0.178728706741333,0.0658948459625246
0.827983040581466,-0.235327041149139,0.114063179397583,0.0730799045562746
0.828588734100545,0.0903956151008606,0.032632515335083,0.0443396701812746
0.829194427619624,0.061655380725860603,0.078137886428833,0.120980295181275
0.829800121138704,-0.0676756739616394,0.058977730178832996,0.0132044162750246
0.830405814657783,0.0999756932258606,-0.017662894821167,0.15451056861877502
0.831011508176863,-0.0820457911491394,0.035027534866333,-0.0203258571624754
0.831617201695942,-0.163476455211639,0.00868232002258302,-0.0370909938812254
0.832222895215021,-0.144316298961639,0.013472359085083,0.0515247287750246
0.8328285887341,0.035310165882110604,0.123643257522583,0.171275705337525
0.83343428225318,-0.153896377086639,0.21704901924133302,-0.013140798568725399
0.834039975772259,-0.252092177867889,-0.027242972946167,-0.21432243919372498
0.834645669291339,-0.0365404200553894,0.015867378616333,0.183250802993775
0.835251362810418,0.0089649510383606,-0.012872855758667002,0.216781076431275
0.835857056329497,-0.012590224742889402,-0.024847953414917,0.0802649631500246
0.836462749848577,0.0592603611946106,0.082927925491333,0.015599435806274601
0.837068443367656,0.159851181507111,-0.0032927776336669798,0.21917609596252502
0.837674136886735,-0.137131240367889,-0.079933402633667,0.12577033424377498
0.838279830405815,-0.139526259899139,-0.048798148727417,0.111400217056275
0.838885523924894,-0.0341454005241394,0.020657417678832998,0.17846076393127502
0.839491217443973,-0.0844408106803894,-0.094303519821167,0.20959601783752502
0.840096910963053,0.0305201268196106,0.018262398147583,0.188040842056275
0.840702604482132,-0.0245653223991394,-0.19728935966491698,0.180855783462525
0.841308298001211,-0.134736220836639,-0.175734183883667,0.00601935768127463
0.841913991520291,-0.0940208888053894,-0.21165947685241698,-0.101756521224975
0.84251968503937,0.0017798924446106,-0.166154105758667,0.0730799045562746
0.843125378558449,0.0161500096321106,0.018262398147583,0.0658948459625246
0.843731072077529,-0.163476455211639,-0.175734183883667,0.137745431900025
0.844336765596608,-0.177846572399139,-0.077538383102417,0.147325510025025
0.844942459115687,0.13829600572586098,-0.096698539352417,0.27905158424377496
0.845548152634767,-0.12276112318038901,-0.118253715133667,0.176065744400025
0.846153846153846,-0.173056533336639,0.078137886428833,0.120980295181275
0.846759539672925,-0.0700706934928894,-0.20207939872741698,0.25989142799377496
0.847365233192005,-0.254487197399139,-0.036823051071167,0.029969552993774597
0.847970926711084,-0.299992568492889,0.011077339553832999,0.0515247287750246
0.848576620230164,-0.108391005992889,-0.032033012008667,0.183250802993775
0.849182313749243,0.023335068225860598,0.030237495803833,-0.108941579818725
0.849788007268322,0.13829600572586098,-0.158969047164917,0.226361154556275
0.850393700787402,-0.0197752833366394,-0.020057914352417,0.257496408462525
0.850999394306481,-0.0820457911491394,-0.18291924247741698,0.20001593971252501
0.85160508782556,0.176616318225861,-0.082328422164917,-0.0203258571624754
0.85221078134464,-0.0341454005241394,0.178728706741333,0.039549631118774596
0.852816474863719,-0.0940208888053894,0.056582710647583,0.0778699436187746
0.853422168382798,0.0592603611946106,0.070952827835083,0.039549631118774596
0.854027861901878,0.0568653416633606,0.13082831611633303,0.0994251194000246
0.854633555420957,0.0832105565071106,0.032632515335083,-0.0418810329437254
0.855239248940036,-0.0365404200553894,-0.094303519821167,0.0203894748687746
0.855844942459116,-0.0820457911491394,0.049397652053833,0.12577033424377498
0.856450635978195,-0.0173802638053894,-0.091908500289917,-0.013140798568725399
0.857056329497274,-0.0628856348991394,0.027842476272583,-0.13528679466247498
0.857662023016354,0.0496802830696106,0.262554390335083,0.128165353775025
0.858267716535433,-0.0149852442741394,0.18112372627258302,0.23354621315002502
0.858873410054512,0.0281251072883606,0.145198433303833,0.17367072486877502
0.859479103573592,-0.11557606458663901,0.078137886428833,0.132955392837525
0.860084797092671,-0.235327041149139,-0.067958304977417,0.22875617408752502
0.86069049061175,-0.0940208888053894,0.032632515335083,0.0515247287750246
0.86129618413083,-0.0078001856803894,-0.012872855758667002,0.0347595920562746
0.861901877649909,0.035310165882110604,-0.309855277633667,0.295816720962525
0.862507571168988,-0.0054051661491394,-0.14220391044616698,0.0419446506500246
0.863113264688068,-0.240117080211639,0.140408394241333,-0.20474236106872498
0.863718958207147,-0.16108143568038902,0.025447456741333,0.0515247287750246
0.864324651726227,-0.0317503809928894,-0.123043754196167,0.21438605690002502
0.864930345245306,0.040100204944610605,0.058977730178832996,0.037154611587524596
0.865536038764385,0.20775157213211098,0.037422554397583,0.192830881118775
0.866141732283465,0.0257300877571106,-0.18770928153991698,0.0203894748687746
0.866747425802544,-0.101205947399139,-0.103883597946167,-0.132891775131225
0.867353119321623,-0.108391005992889,-0.101488578414917,-0.0849913845062254
0.867958812840703,-0.218561904430389,-0.125438773727417,0.0730799045562746
0.868564506359782,-0.0844408106803894,-0.00808281669616698,0.123375314712525
0.869170199878861,0.0544703221321106,0.047002632522583,-0.0442760524749754
0.869775893397941,0.200566513538361,0.044607612991333,0.0132044162750246
0.87038158691702,0.07602549791336059,0.102088081741333,0.029969552993774597
0.870987280436099,-0.14671131849288901,-0.027242972946167,0.120980295181275
0.871592973955179,0.0975806736946106,-0.175734183883667,0.23833625221252502
0.872198667474258,0.0209400486946106,-0.020057914352417,0.111400217056275
0.872804360993337,0.150271103382111,0.044607612991333,0.039549631118774596
0.873410054512417,0.164641220569611,0.035027534866333,0.192830881118775
0.874015748031496,0.0999756932258606,-0.209264457321167,0.0323645725250246
0.874621441550575,-0.197006728649139,-0.020057914352417,0.0850550022125246
0.875227135069655,-0.144316298961639,-0.022452933883667002,0.0587097873687746
0.875832828588734,0.150271103382111,-0.010477836227417001,0.109005197525025
0.876438522107813,0.0520753026008606,0.058977730178832996,0.142535470962525
0.877044215626893,0.0281251072883606,0.047002632522583,-0.0251158962249754
0.877649909145972,-0.113181045055389,0.111668159866333,0.10182013893127499
0.878255602665051,-0.12036610364913901,0.078137886428833,0.240731271743775
0.878861296184131,0.0999756932258606,-0.067958304977417,0.0898450412750246
0.87946698970321,0.0065699315071106,-0.103883597946167,-0.156841970443725
0.880072683222289,-0.0892308497428894,0.090112984085083,0.473048166275025
0.880678376741369,0.035310165882110604,0.049397652053833,0.801165842056275
0.881284070260448,0.06405040025711059,0.042212593460083,0.305396799087525
0.881889763779528,0.06644541978836059,-0.089513480758667,0.326951974868775
0.882495457298607,-0.0844408106803894,0.080532905960083,0.0203894748687746
0.883101150817686,-0.175451552867889,0.114063179397583,-0.0442760524749754
0.883706844336766,0.0017798924446106,0.044607612991333,-0.0346959743499754
0.884312537855845,-0.11797108411788901,0.114063179397583,-0.00595573997497537
0.884918231374924,-0.0820457911491394,0.023052437210082998,0.00841437721252463
0.885523924894004,0.222121689319611,0.027842476272583,0.0203894748687746
0.886129618413083,-0.0293553614616394,0.17154364814758302,0.15930060768127502
0.886735311932162,-0.0293553614616394,0.073347847366333,0.0658948459625246
0.887341005451242,-0.0628856348991394,0.037422554397583,0.015599435806274601
0.887946698970321,-0.053305556774139395,0.037422554397583,0.0275745334625246
0.8885523924894,-0.0269603419303894,-0.00568779716491698,-0.0802013454437254
0.88915808600848,0.0496802830696106,0.092508003616333,0.0275745334625246
0.889763779527559,-0.185031630992889,-0.214054496383667,0.188040842056275
0.890369473046638,-0.11797108411788901,0.006287300491333019,0.14493049049377502
0.890975166565718,0.0065699315071106,0.15238349189758302,0.401197580337525
0.891580860084797,-0.113181045055389,-0.048798148727417,0.15930060768127502
0.892186553603876,0.0041749119758606006,0.00868232002258302,0.211991037368775
0.892792247122956,-0.0868358302116394,-0.032033012008667,0.188040842056275
0.893397940642035,-0.127551162242889,0.051792671585083,0.21438605690002502
0.894003634161115,0.0472852635383606,0.109273140335083,0.130560373306275
0.894609327680194,0.12153086900711099,0.10448310127258299,-0.049066091537475404
0.895215021199273,0.174221298694611,-0.118253715133667,0.0826599826812746
0.895820714718352,0.0137549901008606,-0.194894340133667,0.10421515846252499
0.896426408237432,-0.127551162242889,-0.051193168258667,0.180855783462525
0.897032101756511,-0.14671131849288901,0.078137886428833,-0.0394860134124754
0.897637795275591,-0.0078001856803894,0.011077339553832999,0.0754749240875246
0.89824348879467,0.332292587757111,0.044607612991333,0.20001593971252501
0.898849182313749,-0.16108143568038902,0.10448310127258299,0.00362433815002463
0.899454875832829,-0.235327041149139,-0.130228812789917,0.10182013893127499
0.900060569351908,0.10955577135086099,0.073347847366333,0.192830881118775
0.900666262870987,0.0903956151008606,0.015867378616333,0.120980295181275
0.901271956390067,0.0472852635383606,-0.113463676071167,0.171275705337525
0.901877649909146,-0.173056533336639,0.051792671585083,0.0563147678375246
0.902483343428225,0.135900986194611,-0.027242972946167,0.0203894748687746
0.903089036947305,0.0856055760383606,-0.07514336357116701,-0.0203258571624754
0.903694730466384,-0.0988109278678894,-0.101488578414917,0.0634998264312746
0.904300423985463,0.11674082994461099,0.054187691116333,0.16409064674377502
0.904906117504543,0.0520753026008606,-0.096698539352417,0.252706369400025
0.905511811023622,0.131110947132111,-0.084723441696167,-0.0323009548187254
0.906117504542701,0.06405040025711059,0.200283882522583,0.0275745334625246
0.906723198061781,-0.0844408106803894,-0.163759086227417,0.190435861587525
0.90732889158086,-0.0940208888053894,-0.084723441696167,0.0778699436187746
0.907934585099939,-0.0197752833366394,0.075742866897583,0.176065744400025
0.908540278619019,-0.0604906153678894,-0.032033012008667,0.00841437721252463
0.909145972138098,0.0137549901008606,0.018262398147583,0.0203894748687746
0.909751665657177,0.20296153306961098,-0.00568779716491698,-0.19037224388122498
0.910357359176257,-0.0389354395866394,0.135618355178833,0.36766730690002497
0.910963052695336,-0.046120498180389394,0.097298042678833,0.6430945529937749
0.911568746214416,0.344267685413361,-0.010477836227417001,0.231151193618775
0.912174439733495,0.06884043931961059,0.164358589553833,-0.166422048568725
0.912780133252574,0.10955577135086099,-0.194894340133667,0.0251795139312746
0.913385826771653,-0.055700576305389396,-0.290695121383667,0.0419446506500246
0.913991520290733,-0.0676756739616394,-0.180524222946167,-0.128101736068725
0.914597213809812,0.13350596666336098,-0.163759086227417,0.135350412368775
0.915202907328892,-0.105995986461639,0.018262398147583,0.216781076431275
0.915808600847971,-0.127551162242889,-0.0032927776336669798,0.20480597877502502
0.91641429436705,-0.158686416149139,0.102088081741333,0.0778699436187746
0.91701998788613,-0.010195205211639401,0.075742866897583,0.20001593971252501
0.917625681405209,0.0257300877571106,0.094903023147583,0.128165353775025
0.918231374924288,-0.055700576305389396,0.047002632522583,0.132955392837525
0.918837068443368,-0.11557606458663901,-0.000897758102416984,0.00362433815002463
0.919442761962447,-0.050910537242889395,-0.058378226852417,0.216781076431275
0.920048455481526,-0.0365404200553894,-0.063168265914917,0.331742013931275
0.920654149000606,-0.139526259899139,0.075742866897583,-0.029905935287475403
0.921259842519685,0.0089649510383606,-0.044008109664917,0.12577033424377498
0.921865536038764,0.14787608385086098,-0.18770928153991698,0.211991037368775
0.922471229557844,-0.105995986461639,-0.065563285446167,0.130560373306275
0.923076923076923,-0.149106338024139,-0.0032927776336669798,0.161695627212525
0.923682616596002,-0.050910537242889395,-0.149388969039917,0.128165353775025
0.924288310115082,-0.0389354395866394,0.097298042678833,0.039549631118774596
0.924894003634161,0.10237071275711099,0.00868232002258302,0.0563147678375246
0.92549969715324,-0.0724657130241394,-0.20207939872741698,0.0347595920562746
0.92610539067232,-0.125156142711639,-0.20686943778991698,-0.0969664821624754
0.926711084191399,-0.113181045055389,0.056582710647583,-0.15444695091247498
0.927316777710478,-0.14671131849288901,0.070952827835083,0.017994455337524598
0.927922471229558,0.0592603611946106,-0.096698539352417,0.113795236587525
0.928528164748637,-0.273647353649139,0.164358589553833,0.0611048069000246
0.929133858267717,-0.0820457911491394,-0.16136406669616699,0.142535470962525
0.929739551786796,0.0281251072883606,-0.087118461227417,0.166485666275025
0.930345245305875,-0.127551162242889,0.123643257522583,0.0491297092437746
0.930950938824954,0.0257300877571106,0.015867378616333,0.0611048069000246
0.931556632344034,-0.0772557520866394,-0.21644951591491698,0.132955392837525
0.932162325863113,-0.0078001856803894,-0.058378226852417,0.00601935768127463
0.932768019382193,-0.0772557520866394,0.082927925491333,-0.0107457790374754
0.933373712901272,0.0137549901008606,0.066162788772583,0.0467346897125246
0.933979406420351,0.281997177600861,0.14280341377258302,0.20959601783752502
0.934585099939431,0.19338145494461098,-0.034428031539917,0.190435861587525
0.93519079345851,-0.0437254786491394,-0.252374808883667,0.15930060768127502
0.935796486977589,-0.0437254786491394,-0.070353324508667,-0.0370909938812254
0.936402180496669,-0.14671131849288901,0.054187691116333,-0.0394860134124754
0.937007874015748,-0.132341201305389,-0.166154105758667,0.17846076393127502
0.937613567534827,-0.0868358302116394,-0.072748344039917,-0.0706212673187254
0.938219261053907,-0.15150135755538902,0.090112984085083,0.324556955337525
0.938824954572986,-0.0054051661491394,0.013472359085083,0.156905588150025
0.939430648092065,-0.0365404200553894,-0.058378226852417,0.6430945529937749
0.940036341611145,-0.058095595836639397,-0.15657402763366698,0.346112131118775
0.940642035130224,-0.0892308497428894,-0.099093558883667,-0.108941579818725
0.941247728649303,0.032915146350860604,0.020657417678832998,0.549688791275025
0.941853422168383,0.0856055760383606,-0.108673637008667,0.161695627212525
0.942459115687462,-0.0772557520866394,-0.338595512008667,0.00841437721252463
0.943064809206541,-0.0892308497428894,-0.067958304977417,0.0323645725250246
0.943670502725621,0.011359970569610599,0.121248237991333,0.128165353775025
0.9442761962447,0.126320908069611,-0.017662894821167,0.20959601783752502
0.94488188976378,-0.101205947399139,-0.058378226852417,0.291026681900025
0.945487583282859,-0.266462295055389,-0.120648734664917,0.247916330337525
0.946093276801938,-0.223351943492889,-0.020057914352417,0.128165353775025
0.946698970321018,-0.0700706934928894,-0.29309014091491703,-0.0610411891937254
0.947304663840097,0.0209400486946106,0.18591376533508303,-0.13528679466247498
0.947910357359176,-0.0988109278678894,0.109273140335083,0.0275745334625246
0.948516050878256,-0.12036610364913901,-0.15657402763366698,0.188040842056275
0.949121744397335,-0.11557606458663901,-0.010477836227417001,-0.0227208766937254
0.949727437916414,-0.141921279430389,-0.111068656539917,-0.207137380599975
0.950333131435494,-0.319152724742889,0.082927925491333,0.111400217056275
0.950938824954573,-0.11797108411788901,-0.091908500289917,0.132955392837525
0.951544518473652,0.13350596666336098,0.015867378616333,0.0826599826812746
0.952150211992732,0.14308604478836098,0.032632515335083,0.10421515846252499
0.952755905511811,0.296367294788361,-0.012872855758667002,0.192830881118775
0.95336159903089,0.14787608385086098,0.039817573928833,0.35808722877502497
0.95396729254997,-0.0604906153678894,-0.063168265914917,0.20001593971252501
