Time (s),Accel X (m/s^2),Accel Y (m/s^2),Accel Z (m/s^2)
0.0,-0.400615665435791,0.902000280761719,0.315620819377899
0.000605693519079346,0.114313533782959,-0.0320573364257812,2.2771418154716496
0.00121138703815869,-0.532341739654541,0.126013952636719,-0.273553985309601
0.00181708055723804,-0.422170841217041,-0.477530969238281,-2.5679826962471
0.00242277407631738,0.8136592369079589,-1.27507247314453,-0.671127227497101
0.00302846759539673,0.657982967376709,0.648128210449219,1.61611642484665
0.00363416111447607,0.102338436126709,0.267320104980469,0.658108612346649
0.00423985463355542,-0.285654727935791,-0.0296623168945312,-1.47824880952835
0.00484554815263477,-0.32876507949829104,0.7606941284179689,-0.319059356403351
0.00545124167171411,0.317890193939209,-0.264374230957031,2.1549958193778997
0.00605693519079346,-0.817349063873291,0.365515905761719,0.068933807659149
0.0066626287098728,-0.831719181060791,-0.5158512817382811,-2.2949504696846
0.00726832222895215,0.703488338470459,-1.25351729736328,-1.2746721493721
0.0078740157480315,0.799289119720459,0.549932409667969,1.0676569521904
0.00847970926711084,0.6555879478454589,0.195469519042969,1.64006662015915
0.00908540278619019,-0.08926312637329101,0.154754187011719,-0.565746368122101
0.00969109630526953,-0.608982364654541,0.6792634643554689,-0.726212676715851
0.0102967898243489,-0.24493939590454097,-0.154203332519531,1.5490558779716501
0.0109024833434282,-0.949075138092041,0.13080399169921902,1.4604401553154
0.0115081768625076,-1.04008588027954,-0.355384973144531,-1.66985037202835
0.0121138703815869,0.207719295501709,-1.28225753173828,-2.47457693452835
0.0127195639006663,1.42199419784546,-0.199708703613281,1.1730378115654
0.0133252574197456,1.1082466392517099,0.24097489013671902,2.2220563662529
0.013930950938825,0.114313533782959,0.23618485107421902,-0.702262481403351
0.0145366444579043,-0.611377384185791,0.363120886230469,-1.4998039853096
0.0151423379769836,-0.403010684967041,0.5379573120117189,1.0963971865654
0.015748031496063,-0.520366641998291,0.262530065917969,1.80292794828415
0.0163537250151423,-0.817349063873291,-0.115883020019531,-1.23874685640335
0.0169594185342217,0.011327693939209,-0.9349796997070311,-2.3763811337471004
0.017565112053301,1.27350298690796,-0.7984635864257811,0.076118866252899
0.0181708055723804,1.02921099472046,0.6816584838867189,2.38252267484665
0.0187764990914597,0.147843807220459,0.684053503417969,0.217425018596649
0.0193821926105391,-0.44851605606079104,0.21702469482421902,-1.8303166806221
0.0199878861296184,-0.273679630279541,0.8756550659179689,0.306040741252899
0.0205935796486978,0.107128475189209,0.09008865966796879,2.09033029203415
0.0211992731677771,-0.788608829498291,0.22660477294921902,-0.048422149372101
0.0218049666868564,-0.644907657623291,-0.273954309082031,-2.5440325009346
0.0224106602059358,1.01244585800171,-1.23675216064453,-1.1501311337471
0.0230163537250151,0.909460018157959,0.662498327636719,1.7286823428154001
0.0236220472440945,0.40890093612670897,0.7774592651367189,1.0820270693779
0.0242277407631738,-0.333555118560791,0.020633093261718798,-1.7057756649970999
0.0248334342822532,-0.376665470123291,0.7367439331054689,-0.7956682431221009
0.0254391278013325,0.337050350189209,0.0469783081054688,1.9466291201591501
0.0260448213204119,-0.49881146621704103,0.00626297607421875,0.241375213909149
0.0266505148394912,-1.13828168106079,-0.135043176269531,-2.32129568452835
0.0272562083585706,0.114313533782959,-1.24872725830078,-1.39202810640335
0.0278619018776499,1.29026812362671,0.0302131713867188,1.2592585146904
0.0284675953967293,0.720253475189209,0.461316687011719,1.8149030459404
0.0290732889158086,-0.350320255279541,-0.0823527465820312,-0.908234161090851
0.0296789824348879,-0.625747501373291,0.353540808105469,-1.13336599702835
0.0302846759539673,-0.084473087310791,0.183494421386719,1.4891803896904001
0.0308903694730466,-0.829324161529541,0.267320104980469,1.2305182803154
0.031496062992126,-0.973025333404541,-0.118278039550781,-1.78481130952835
0.0321017565112053,0.14065874862670902,-1.1696916137695301,-2.3069255673408504
0.0327074500302847,1.35493365097046,-0.273954309082031,0.888030487346649
0.033313143549364,1.1896773033142098,0.281690222167969,2.5310138857841498
0.0339188370684434,-0.031782657623291,0.219419714355469,-0.546586211872101
0.0345245305875227,-0.817349063873291,0.149964147949219,-1.7728362118721
0.0351302241066021,-0.201829044342041,0.425391394042969,1.24728341703415
0.0357359176256814,-0.156323673248291,0.363120886230469,1.93704904203415
0.0363416111447607,-1.1239115638732902,-0.127858117675781,-1.0687004696845999
0.0369473046638401,-0.25930951309204103,-0.925399621582031,-2.57995779390335
0.0375529981829194,1.1034566001892099,-0.970904992675781,-0.14422293062210098
0.0381586917019988,1.2375776939392098,0.406231237792969,2.0687751162529
0.0387643852210781,-0.120398380279541,0.633758093261719,0.363521210002899
0.0393700787401575,-0.7023881263732911,-0.144623254394531,-1.9404875790596
0.0399757722592368,-0.122793399810791,0.432576452636719,0.121624237346649
0.0405814657783162,0.030487850189209,0.312825476074219,2.93816720609665
0.0411871592973955,-0.666462833404541,-0.0703776489257812,0.43776681547164903
0.0417928528164749,-0.795793888092041,-0.15180831298828099,-2.5128972470283504
0.0423985463355542,0.830424373626709,-1.00204024658203,-1.1405510556221
0.0430042398546336,1.21841753768921,0.22181473388671902,1.9921344912529
0.0436099333737129,0.303520076751709,0.9163703979492189,1.4987604678154
0.0442156268927922,-0.395825626373291,-0.008107141113281249,-1.57404959077835
0.0448213204118716,-0.24972943496704098,0.382281042480469,-0.805248321247101
0.0454270139309509,0.401715877532959,0.10685379638671899,2.0448249209404
0.0460327074500303,-0.350320255279541,-0.111092980957031,0.5814679873466491
0.0466384009691096,-1.13828168106079,0.0589534057617188,-2.4961321103096004
0.047244094488189,0.162213924407959,-0.9972502075195311,-1.7249358212471
0.0478497880072683,1.1130366783142098,-0.29071944580078096,1.1251374209404
0.0484554815263477,0.978915584564209,0.42778641357421904,1.4891803896904001
0.049061175045427,-0.161113712310791,-0.106302941894531,-1.0255901181220999
0.0496668685645064,-0.549106876373291,0.312825476074219,-1.39202810640335
0.0502725620835857,-0.22817425918579098,0.255345007324219,1.4748102725029
0.050878255602665,-0.652092716217041,0.0350032104492188,1.6137214053154
0.0514839491217444,-0.9011747474670411,-0.0200822387695312,-1.8207366024971
0.0520896426408237,-0.125188419342041,-0.887079309082031,-2.37398611421585
0.0526953361599031,1.38846392440796,-0.7385880981445311,0.787439667034149
0.0533010296789824,1.33816851425171,0.178704382324219,2.3968927920341496
0.0539067231980618,-0.098843204498291,0.370305944824219,-0.40049002046585097
0.0545124167171411,-0.910754825592041,0.16193924560546902,-1.7273308407783499
0.0551181102362205,-0.381455509185791,0.528377233886719,1.2065680850029001
0.0557238037552998,-0.240149356842041,0.209839636230469,2.1573908389091496
0.0563294972743792,-1.05445599746704,-0.125463098144531,-0.970504668903351
0.0569351907934585,-0.752683536529541,-0.508666223144531,-2.86257009859085
0.0575408843125379,1.10585161972046,-0.8607340942382811,-0.46036550874710097
0.0581465778316172,1.32379839706421,0.00386795654296875,2.0831452334404
0.0587522713506965,-0.156323673248291,0.684053503417969,0.624578338909149
0.0593579648697759,-0.630537540435791,0.343960729980469,-1.98120291109085
0.0599636583888552,-0.38864056777954104,0.382281042480469,0.035403534221649
0.0605693519079346,0.040067928314209,0.422996374511719,2.9070319521904
0.0611750454270139,-0.434145938873291,0.193074499511719,0.15515451078414902
0.0617807389460933,-0.968235294342041,-0.14701827392578098,-2.6925237118721004
0.0623864324651726,0.5358369712829589,-1.00443526611328,-1.2076116024971
0.062992125984252,1.3261934165954599,-0.321854699707031,1.8005329287529
0.0635978195033313,0.720253475189209,0.822964636230469,1.13232247953415
0.0642035130224107,-0.565872013092041,0.21702469482421902,-1.75128103609085
0.06480920654149,-0.525156681060791,0.36791092529296904,-0.932184356403351
0.0654149000605694,0.258014705657959,0.320010534667969,2.15260079984665
0.0660205935796487,-0.410195743560791,-0.111092980957031,1.27602365140915
0.066626287098728,-1.2221073646545402,0.102063757324219,-2.20154470796585
0.0672319806178074,0.080783260345459,-0.982880090332031,-1.6099748837471
0.0678376741368867,1.4627095298767099,-0.606862023925781,1.32871408109665
0.0684433676559661,1.0483711509704599,0.7559040893554689,1.6568317568779
0.0690490611750454,-0.072497989654541,0.0781135620117188,-1.1285759579658499
0.0696547546941248,-0.632932559967041,0.291270300292969,-1.66027029390335
0.0702604482132041,-0.067707950592041,0.41820633544921904,1.28560372953415
0.0708661417322835,-0.326370059967041,-0.0536125122070312,1.4604401553154
0.0714718352513628,-1.28916791152954,0.042188269042968796,-1.7728362118721
0.0720775287704422,-0.486836368560791,-0.8822892700195311,-2.5320574032783503
0.0726832222895215,1.3261934165954599,-0.7984635864257811,0.47608712797164904
0.0732889158086008,1.51779497909546,0.00386795654296875,2.5621491396904
0.0738946093276802,0.248434627532959,0.40862625732421903,-0.038842071247101005
0.0745003028467595,-1.1119364662170401,0.169124304199219,-2.1632243954658503
0.0751059963658389,-0.36948041152954103,0.322405554199219,0.6221833193778991
0.0757116898849182,-0.031782657623291,0.284085241699219,2.56454415922165
0.0763173834039976,-0.786213809967041,0.0709285034179688,-0.683102325153351
0.0769230769230769,-0.8412992591857911,-0.5206413208007811,-2.7859294735908504
0.0775287704421563,1.01963091659546,-0.7960685668945311,-0.285529082965851
0.0781344639612356,1.6351509361267098,-0.312274621582031,2.0304548037529
0.078740157480315,0.248434627532959,0.6601033081054689,0.478482147502899
0.0793458509993943,-0.884409610748291,0.664893347167969,-1.7393059384346
0.0799515445184737,-0.422170841217041,0.422996374511719,-0.266368926715851
0.080557238037553,0.334655330657959,0.645733190917969,2.2436115420341496
0.0811629315566323,-0.532341739654541,0.10924881591796899,0.468902069377899
0.0817686250757117,-1.0808012123107902,0.121223913574219,-2.6446233212471
0.082374318594791,0.375370662689209,-0.508666223144531,-1.37286795015335
0.0829800121138704,1.5369551353454598,-0.453580773925781,1.5418708193779
0.0835857056329497,0.576552303314209,0.628968054199219,1.4987604678154
0.0841913991520291,-0.343135196685791,0.334380651855469,-1.49740896577835
0.0847970926711084,-0.630537540435791,0.422996374511719,-1.3417326962471
0.0854027861901878,0.054438045501709,0.442156530761719,2.2651667178154
0.0860084797092671,-0.000647403717040988,-0.170968469238281,1.58258615140915
0.0866141732283465,-1.30593304824829,0.00865799560546875,-2.2853703915596
0.0872198667474258,-0.465281192779541,-0.535011437988281,-2.0698186337471003
0.0878255602665051,1.20883745956421,-0.6403922973632811,1.0101764834404001
0.0884312537855845,0.969335506439209,0.336775671386719,2.0208747256279
0.0890369473046638,-0.156323673248291,0.284085241699219,-0.211283477497101
0.0896426408237432,-0.654487735748291,0.10685379638671899,-1.5620744931221
0.0902483343428225,-0.237754337310791,0.284085241699219,1.23770333890915
0.0908540278619019,-0.237754337310791,-0.0176872192382812,1.97536935453415
0.0914597213809812,-1.11433148574829,0.0757185424804688,-1.3896330868721
0.0920654149000606,-0.709573184967041,-0.475135949707031,-2.5775627743721
0.0926711084191399,1.30703326034546,-1.06431075439453,0.294065643596649
0.0932768019382193,1.57767046737671,-0.257189172363281,2.4950885928154
0.0938824954572986,0.332260311126709,0.609807897949219,0.09527902250289899
0.094488188976378,-1.02332074356079,0.19067947998046902,-2.6063030087471004
0.0950938824954573,-0.510786563873291,-0.0655876098632812,0.076118866252899
0.0956995760145366,0.030487850189209,0.28887528076171903,2.6531598818778996
0.096305269533616,-0.680832950592041,-0.0200822387695312,-0.21367849702835098
0.0969109630526953,-0.779028751373291,-0.331434777832031,-2.9128655087471
0.0975166565717747,0.919040096282959,-0.664342492675781,-1.19084646577835
0.098122350090854,1.72616167831421,-0.26916427001953097,2.16218087797165
0.0987280436099334,0.492726619720459,0.377491003417969,0.909585663127899
0.0993337371290127,-0.6640678138732911,0.470896765136719,-2.0746086728096
0.0999394306480921,-0.161113712310791,0.317615515136719,-0.453180450153351
0.100545124167171,0.432851131439209,0.30803543701171904,2.32504220609665
0.101150817686251,-0.381455509185791,0.178704382324219,1.1921979678154
0.10175651120533,-0.934705020904541,-0.17336348876953098,-2.4266765439033504
0.102362204724409,-0.036572696685791,-0.364965051269531,-1.6914055478096
0.102967898243489,1.46031451034546,-0.348199914550781,1.84603829984665
0.103573591762568,0.969335506439209,0.355935827636719,1.4269098818779
0.104179285281647,-0.335950138092041,0.669683386230469,-1.2076116024971
0.104784978800727,-0.486836368560791,0.284085241699219,-1.4135832821846
0.105390672319806,0.095153377532959,0.228999792480469,1.60174630765915
0.105996365838886,-0.13955853652954098,0.08529862060546879,1.67359689359665
0.106602059357965,-0.996975528717041,-0.314669641113281,-2.0075481259346
0.107207752877044,-0.276074649810791,-0.630812219238281,-2.13448416109085
0.107813446396124,1.5585103111267098,-0.6763175903320311,0.818574920940399
0.108419139915203,1.27829302597046,0.296060339355469,2.03763986234665
0.109024833434282,-0.364690372467041,0.5619075073242189,-0.630411895465851
0.109630526953362,-0.946680118560791,0.264925085449219,-1.8877971493721
0.110236220472441,-0.254519474029541,0.343960729980469,1.35745431547165
0.11084191399152,-0.23296429824829099,0.21223465576171902,2.1310456240653997
0.1114476075106,-0.975420352935791,-0.17336348876953098,-1.34891775484085
0.112053301029679,-0.678437931060791,-0.465555871582031,-2.7284490048408503
0.112658994548758,1.1681221275329599,-0.673922570800781,0.15994454984664902
0.113264688067838,1.8051973228454599,-0.317064660644531,2.4280280459404
0.113870381586917,0.35860552597045897,0.28887528076171903,0.310830780315399
0.114476075105996,-1.04008588027954,0.32959061279296903,-2.34524587984085
0.115081768625076,-0.465281192779541,0.10924881591796899,-0.022076934528351
0.115687462144155,-0.000647403717040988,0.15714920654296902,2.7537507021903997
0.116293155663234,-0.884409610748291,0.11164383544921899,-0.04602712984085101
0.116898849182314,-1.38736371231079,-0.139833215332031,-2.9272356259346
0.117504542701393,0.492726619720459,-0.623627160644531,-0.845963653278351
0.118110236220472,1.62796587753296,-0.544591516113281,2.3202521670341496
0.118715929739552,0.7753389244079589,0.363120886230469,1.09400216703415
0.119321623258631,-0.695203067779541,0.6169929565429689,-1.7632561337471
0.11992731677771,-0.834114200592041,0.286480261230469,-0.812433379840851
0.12053301029679,0.32986529159545896,0.238579870605469,2.6723200381279
0.121138703815869,-0.15392865371704098,0.135594030761719,1.0484967959404001
0.121744397334949,-0.872434513092041,-0.13264815673828098,-2.4626018368721003
0.122350090854028,-0.271284610748291,-0.5038761840820309,-1.61236990327835
0.122955784373107,1.3812788658142099,-0.467950891113281,1.45325509672165
0.123561477892187,1.10106158065796,0.10685379638671899,2.0208747256279
0.124167171411266,-0.599402286529541,0.688843542480469,-1.25311697359085
0.124772864930345,-0.8436942787170411,0.135594030761719,-1.6003948056221
0.125378558449425,0.315495174407959,-0.0416374145507812,1.5131305850029
0.125984251968504,0.016117733001709,0.214629675292969,2.0951203310966497
0.126589945487583,-0.999370548248291,-0.163783410644531,-1.67464041109085
0.127195639006663,-0.7622636146545411,-0.29071944580078096,-2.5200823056221
0.127801332525742,1.1250117759704599,-0.590096887207031,0.852105194377899
0.128407026044821,1.46031451034546,-0.19252364501953098,2.1597858584404
0.129012719563901,-0.098843204498291,0.523587194824219,-0.5561662899971009
0.12961841308298,-0.886804630279541,0.149964147949219,-2.2063347470283503
0.130224106602059,-0.48923138809204103,0.140384069824219,0.665293670940399
0.130829800121139,-0.177878849029541,0.281690222167969,2.72740548734665
0.131435493640218,-0.9011747474670411,-0.0512174926757812,-0.728607696247101
0.132041187159297,-0.853274356842041,-0.120673059082031,-2.9487908017158504
0.132646880678377,1.03879107284546,-0.786488488769531,-0.187333282184601
0.133252574197456,1.9201582603454599,-0.570936730957031,2.42563302640915
0.133858267716535,0.442431209564209,0.391861120605469,0.694033905315399
0.134463961235615,-1.1885770912170401,0.303245397949219,-2.30213552827835
0.135069654754694,-0.31918500137329103,0.00147293701171875,-0.266368926715851
0.135675348273773,0.071203182220459,0.0493733276367188,2.9764875185966497
0.136281041792853,-0.534736759185791,-0.0967228637695312,0.411421600627899
0.136886735311932,-1.11433148574829,-0.0416374145507812,-2.74281912202835
0.137492428831012,0.26998980331420896,-0.532616418457031,-0.936974395465851
0.138098122350091,1.7117915611267098,-0.436815637207031,1.9083088076591501
0.13870381586917,1.0962715415954598,0.17630936279296902,1.36224435453415
0.13930950938825,-0.7431034584045411,0.506822058105469,-1.5956047665596
0.139915202907329,-0.905964786529541,0.6002278198242189,-1.1645012509346
0.140520896426408,0.404110897064209,0.20744461669921901,2.17655099515915
0.141126589945488,0.049648006439209,0.315220495605469,1.3502692568779
0.141732283464567,-0.975420352935791,-0.19731368408203098,-2.4099114071846004
0.142337976983646,-0.7239433021545411,-0.314669641113281,-2.0985588681221
0.142943670502726,1.3261934165954599,-0.16857344970703098,1.3215290225029
0.143549364021805,1.22081255722046,-0.175758508300781,2.1454157412529
0.144155057540884,-0.302419864654541,0.633758093261719,-1.2219817196846
0.144760751059964,-0.805373966217041,0.28887528076171903,-1.9237224423408499
0.145366444579043,-0.029387638092041,0.10445877685546899,1.4173298037529
0.145972138098122,-0.170693790435791,0.228999792480469,1.9442341006279
0.146577831617202,-0.577847110748291,-0.24281905517578098,-1.59320974702835
0.147183525136281,-0.791003849029541,-0.158993371582031,-2.58474783296585
0.14778921865536,0.880719783782959,-0.441605676269531,0.672478729534149
0.14839491217444,1.67107622909546,-0.398495324707031,2.55496408109665
0.149000605693519,-0.072497989654541,0.7391389526367189,-0.225653594684601
0.149606299212598,-0.870039493560791,0.17151932373046902,-1.9117473446846
0.150211992731678,-0.15871869277954098,-0.13264815673828098,0.993411346721649
0.150817686250757,-0.118003360748291,0.23139481201171902,2.2795368350029
0.151423379769836,-0.8412992591857911,-0.357779992675781,-0.805248321247101
0.152029073288916,-1.14786175918579,-0.0703776489257812,-3.0086662899971004
0.152634766807995,0.770548885345459,-0.47992598876953096,-0.27115896577835097
0.153240460327075,1.9728486900329598,-0.5421964965820311,2.60765451078415
0.153846153846154,0.392135799407959,0.406231237792969,0.808994842815399
0.154451847365233,-1.17660199356079,0.530772253417969,-2.1320891415596
0.155057540884313,-0.611377384185791,0.0613484252929688,-0.505870879840851
0.155663234403392,0.281964900970459,-0.103907922363281,2.76572579984665
0.156268927922471,-0.34792523574829104,0.020633093261718798,0.871265350627899
0.156874621441551,-1.08319623184204,-0.0320573364257812,-2.4769719540596
0.15748031496063,0.14544878768920902,-0.23323897705078098,-1.3513127743721
0.158086008479709,1.69263140487671,-0.549381555175781,2.2148713076591497
0.158691701998789,1.39325396347046,0.0158430541992188,1.69754708890915
0.159297395517868,-0.47725629043579104,0.866074987792969,-2.0793987118721002
0.159903089036947,-0.810164005279541,0.6960286010742189,-1.8039714657783499
0.160508782556027,0.521466854095459,0.142779089355469,2.64597482328415
0.161114476075106,-0.180273868560791,0.382281042480469,1.73107736234665
0.161720169594185,-0.970630313873291,0.0278181518554688,-2.50810720796585
0.162325863113265,-0.6041923255920411,-0.376940148925781,-1.86145193452835
0.162931556632344,1.00765581893921,-0.125463098144531,1.1490876162529
0.163537250151423,1.6207808189392099,-0.271559289550781,2.0807502139091496
0.164142943670503,-0.062917911529541,0.8014094604492189,-0.853148711872101
0.164748637189582,-1.17420697402954,0.523587194824219,-1.78002127046585
0.165354330708661,0.061623104095459,-0.283534387207031,1.24249337797165
0.165960024227741,-0.015017520904540999,0.413416296386719,2.10949044828415
0.16656571774682,-0.728733341217041,-0.355384973144531,-1.3800530087471
0.167171411265899,-0.812559024810791,-0.0128971801757812,-2.8314348446846003
0.167777104784979,0.818449275970459,0.128408972167969,0.535962616252899
0.168382798304058,1.9201582603454599,-0.5589616333007811,2.7010602725029
0.168988491823137,0.143053768157959,0.497241979980469,-0.27115896577835097
0.169594185342217,-0.939495059967041,0.403836218261719,-2.2997405087471003
0.170199878861296,-0.32876507949829104,-0.245214074707031,0.409026581096649
0.170805572380376,-0.127583438873291,0.341565710449219,2.3370173037528996
0.171411265899455,-0.446121036529541,-0.23802901611328098,-0.338219512653351
0.172016959418534,-1.04008588027954,-0.18294356689453098,-2.9416057431221003
0.172622652937614,0.559787166595459,-0.154203332519531,-0.766928008747101
0.173228346456693,1.9800337486267099,-0.7170329223632811,2.2340314639091496
0.173834039975772,0.5933174400329589,0.264925085449219,1.07484201078415
0.174439733494852,-0.915544864654541,0.422996374511719,-2.0410783993721
0.175045427013931,-0.6640678138732911,0.11403885498046899,-0.893864043903351
0.17565112053301,0.21490435409545902,0.00626297607421875,2.6244196475029
0.17625681405209,-0.280864688873291,-0.101512902832031,1.04610177640915
0.176862507571169,-1.17420697402954,-0.0152921997070312,-2.8793352353096
0.177468201090248,-0.292839786529541,-0.221263879394531,-1.6770354306221
0.178073894609328,1.66149615097046,-0.41047042236328096,2.0639850771903996
0.178679588128407,1.44833941268921,-0.123068078613281,1.59695626859665
0.179285281647486,-0.45809613418579104,0.652918249511719,-1.6842204892158499
0.179890975166566,-1.1334916419982901,0.873260046386719,-1.59799978609085
0.180496668685645,0.167003963470459,-0.0799577270507812,1.81729806547165
0.181102362204724,-0.034177677154541,0.375095983886719,1.82208810453415
0.181708055723804,-0.659277774810791,0.044583288574218796,-1.7919963681221
0.182313749242883,-0.644907657623291,-0.240424035644531,-2.0123381649971
0.182919442761962,0.792104061126709,0.169124304199219,0.957486053752899
0.183525136281042,1.73095171737671,-0.5972819458007811,1.88435861234665
0.184130829800121,-0.046152774810791004,0.490056921386719,-0.560956329059601
0.1847365233192,-0.958655216217041,0.8157795776367189,-2.18238455171585
0.18534221683828,0.198139217376709,-0.391310266113281,0.746724335002899
0.185947910357359,-0.017412540435791,0.26971512451171903,2.43521310453415
0.186553603876439,-0.577847110748291,-0.35059493408203096,-0.898654082965851
0.187159297395518,-0.9610502357482911,-0.460765832519531,-2.80987966890335
0.187764990914597,0.27956988143920897,0.11403885498046899,-0.04602712984085101
0.188370684433677,1.7381367759704598,-0.772118371582031,2.3082770693779
0.188976377952756,0.44003619003295896,0.317615515136719,0.289275604534149
0.189582071471835,-1.13828168106079,0.7415339721679689,-1.4063982235908499
0.190187764990915,-0.532341739654541,-0.22844893798828098,0.052168670940398995
0.190793458509994,-0.13476849746704098,0.0350032104492188,2.51185372953415
0.191399152029073,-0.644907657623291,-0.156598352050781,0.308435760784149
0.192004845548153,-0.913149845123291,-0.331434777832031,-2.92005056734085
0.192610539067232,0.19095415878295902,-0.17815352783203098,-0.802853301715851
0.193216232586311,2.0470942955017097,-0.745773156738281,2.24840158109665
0.193821926105391,1.08429644393921,-0.0416374145507812,1.03173165922165
0.19442761962447,-0.745498477935791,0.5547224487304689,-1.86624197359085
0.195033313143549,-0.891594669342041,0.0589534057617188,-1.0351701962471
0.195639006662629,-0.038967716217041,-0.158993371582031,2.0783551943778997
0.196244700181708,-0.242544376373291,0.023028112792968798,1.1011872256279
0.196850393700787,-0.709573184967041,0.0805085815429688,-2.39793630952835
0.197456087219867,-0.5419218177795411,-0.005712121582031249,-1.62194998140335
0.198061780738946,1.37169878768921,-0.20689376220703098,1.56342599515915
0.198667474258025,1.4842647056579599,-0.386520227050781,1.84603829984665
0.199273167777105,-0.323975040435791,0.425391394042969,-1.3249675595283499
0.199878861296184,-1.05445599746704,0.7343489135742189,-1.74170095796585
0.200484554815263,0.365790584564209,-0.0967228637695312,1.68796701078415
0.201090248334343,0.28914995956420897,0.29845535888671904,2.0088996279716502
0.201695941853422,-0.776633731842041,-0.0512174926757812,-1.63632009859085
0.202301635372502,-0.872434513092041,-0.154203332519531,-2.1728044735908503
0.202907328891581,0.528651912689209,0.415811315917969,0.504827362346649
0.20351302241066,1.63754595565796,-0.458370812988281,1.92267892484665
0.20411871592974,0.107128475189209,0.11403885498046899,-0.216073516559601
0.204724409448819,-1.00416058731079,0.9594807495117189,-1.9883879696846
0.205330102967898,-0.019807559967041,-0.331434777832031,0.468902069377899
0.205935796486978,0.085573299407959,0.16193924560546902,2.0496149600029
0.206541490006057,-0.5227616615295411,-0.09193282470703121,-0.671127227497101
0.207147183525136,-0.632932559967041,-0.645182336425781,-2.8505950009346
0.207752877044216,0.157423885345459,0.116433874511719,-0.388514922809601
0.208358570563295,1.7285566978454598,-0.6379972778320311,2.6196296084403996
0.208964264082374,0.729833553314209,0.188284460449219,0.349151092815399
0.209569957601454,-0.973025333404541,0.667288366699219,-2.19196462984085
0.210175651120533,-0.21380414199829098,-0.415260461425781,-0.113087676715851
0.210781344639612,0.056833065032959,0.18588944091796902,2.0951203310966497
0.211387038158692,-0.915544864654541,0.173914343261719,0.016243377971649
0.211992731677771,-1.00655560684204,-0.6212321411132811,-2.5991179501533503
0.21259842519685,0.207719295501709,0.0781135620117188,-0.977689727497101
0.21320411871593,2.09259966659546,-0.669132531738281,2.22924142484665
0.213809812235009,1.08429644393921,-0.17336348876953098,1.41493478422165
0.214415505754088,-1.04487591934204,0.8349397338867189,-1.99078298921585
0.215021199273168,-1.0903812904357901,0.137989050292969,-1.1884514462470999
0.215626892792247,0.286754940032959,-0.16857344970703098,2.01368966703415
0.216232586311326,-0.307209903717041,-0.0512174926757812,1.37182443265915
0.216838279830406,-0.668857852935791,0.118828894042969,-2.0746086728096
0.217443973349485,-0.580242130279541,0.164334265136719,-1.8638469540595999
0.218049666868565,1.0819014244079599,-0.276349328613281,1.53468576078415
0.218655360387644,1.6950264244079598,-0.544591516113281,1.6520417178154
0.219261053906723,0.080783260345459,0.238579870605469,-1.05672537202835
0.219866747425803,-1.1239115638732902,0.770274206542969,-1.8782170712471
0.220472440944882,0.059228084564209,0.0110530151367188,1.87477853422165
0.221078134463961,0.382555721282959,0.142779089355469,2.4831134951591496
0.221683827983041,-0.805373966217041,0.102063757324219,-1.91414236421585
0.22228952150212,-0.690413028717041,-0.175758508300781,-2.3907512509346
0.222895215021199,0.392135799407959,0.384676062011719,0.516802460002899
0.223500908540279,1.7070015220642099,-0.199708703613281,2.03763986234665
0.224106602059358,0.44961626815795896,0.17630936279296902,-0.069977325153351
0.224712295578437,-1.06643109512329,1.15347733154297,-2.0770036923408504
0.225317989097517,-0.012622501373291,-0.25958419189453097,0.294065643596649
0.225923682616596,0.126288631439209,0.09008865966796879,1.9083088076591501
0.226529376135675,-0.652092716217041,0.193074499511719,-0.520240997028351
0.227135069654755,-0.750288516998291,-0.7361930786132811,-2.4913420712471
0.227740763173834,-0.19464398574829098,0.27929520263671903,-0.364564727497101
0.228346456692913,1.52498003768921,-0.47992598876953096,2.6483698428154
0.228952150211993,0.9932857017517089,-0.190128625488281,0.512012420940399
0.229557843731072,-0.937100040435791,0.902000280761719,-2.3691960751533503
0.230163537250151,-0.434145938873291,-0.113488000488281,-0.388514922809601
0.230769230769231,0.147843807220459,0.00147293701171875,2.4735334170341496
0.23137492428831,-0.735918399810791,0.264925085449219,0.334780975627899
0.231980617807389,-0.908359806060791,-0.501481164550781,-2.65659841890335
0.232586311326469,0.00414263534545901,-0.0368473754882812,-1.2890422665596
0.233192004845548,1.6040156822204599,-0.525431359863281,2.02326974515915
0.233797698364627,1.21362749862671,-0.5781217895507811,1.3981696475029
0.234403391883707,-0.640117618560791,0.6361531127929689,-1.93330252046585
0.235009085402786,-1.1358866615295402,0.29845535888671904,-1.37286795015335
0.235614778921866,0.284359920501709,-0.19731368408203098,2.0711701357841497
0.236220472440945,-0.041362735748291,-0.0320573364257812,1.56821603422165
0.236826165960024,-0.697598087310791,-0.278744348144531,-1.9261174618721
0.237431859479104,-0.9011747474670411,-0.0296623168945312,-2.1560393368721003
0.238037552998183,0.957360408782959,-0.21168380126953099,1.20417306547165
0.238643246517262,1.82435747909546,-0.42963057861328097,2.1693659365654
0.239248940036342,0.073598201751709,0.24097489013671902,-1.1836614071846
0.239854633555421,-1.09517132949829,0.906790319824219,-2.1320891415596
0.2404603270745,0.22448443222045902,0.0134480346679688,1.05089181547165
0.24106602059358,0.39932085800170897,0.0302131713867188,2.4208429873466497
0.241671714112659,-0.733523380279541,0.36791092529296904,-1.2866472470283499
0.242277407631738,-0.786213809967041,-0.302694543457031,-2.60390798921585
0.242883101150818,0.13586870956420902,0.391861120605469,0.301250702190399
0.243488794669897,1.6183857994079598,-0.0128971801757812,2.2076862490653997
0.244094488188976,0.7130684165954589,-0.123068078613281,0.43776681547164903
0.244700181708056,-0.9035697669982911,1.1654524291992199,-1.9356975399971
0.245305875227135,-0.316789981842041,-0.0512174926757812,0.037798553752899
0.245911568746214,0.092758358001709,-0.0847477661132812,1.91309884672165
0.246517262265294,-0.779028751373291,0.28887528076171903,-0.13943289155960098
0.247122955784373,-0.630537540435791,-0.848758996582031,-2.5919328915596003
0.247728649303452,0.26998980331420896,0.195469519042969,-0.893864043903351
0.248334342822532,1.7453218345642099,-0.106302941894531,2.2172663271903996
0.248940036341611,0.801684139251709,-0.432025598144531,0.804204803752899
0.24954572986069,-1.05445599746704,0.9762458862304689,-1.65548025484085
0.25015142337977,-0.580242130279541,-0.161388391113281,-0.40049002046585097
0.250757116898849,0.020907772064208997,-0.35059493408203096,2.6292096865654
0.251362810417929,-0.764658634185791,0.243369909667969,0.830550018596649
0.251968503937008,-0.9035697669982911,-0.647577355957031,-2.6182781064033502
0.252574197456087,-0.010227481842041,0.0134480346679688,-1.54051931734085
0.253179890975167,1.6303608970642098,-0.47992598876953096,2.1597858584404
0.253785584494246,1.4842647056579599,-0.527826379394531,1.69754708890915
0.254391278013325,-0.755078556060791,0.523587194824219,-1.88061209077835
0.254996971532405,-1.0688261146545401,0.238579870605469,-1.42076834077835
0.255602665051484,0.15981890487670902,-0.235633996582031,1.73107736234665
0.256208358570563,-0.106028263092041,-0.139833215332031,1.6424616396904
0.256814052089643,-0.666462833404541,-0.331434777832031,-1.86145193452835
0.257419745608722,-0.877224552154541,0.0805085815429688,-2.0746086728096
0.258025439127801,0.928620174407959,0.10685379638671899,1.04610177640915
0.258631132646881,1.4674995689392099,-0.511061242675781,2.2172663271903996
0.25923682616596,0.258014705657959,-0.0344523559570312,-0.7549529110908509
0.259842519685039,-1.14307172012329,0.6169929565429689,-2.1632243954658503
0.260448213204119,-0.508391544342041,0.20744461669921901,0.856895233440399
0.261053906723198,0.291544979095459,-0.046427453613281204,2.31546212797165
0.261659600242277,-0.470071231842041,0.15235916748046902,-0.850753692340851
0.262265293761357,-0.886804630279541,-0.14222823486328098,-2.4697868954658504
0.262870987280436,0.023302791595458998,0.0661384643554688,0.468902069377899
0.263476680799515,1.2974531822204598,-0.130253137207031,2.3753376162529
0.264082374318595,0.7729439048767089,-0.26916427001953097,0.042588592815399
0.264688067837674,-0.944285099029541,0.911580358886719,-2.0171282040596
0.265293761356753,-0.484441349029541,0.22181473388671902,0.104859100627899
0.265899454875833,0.15981890487670902,-0.508666223144531,2.0711701357841497
0.266505148394912,-0.688018009185791,0.590647741699219,-0.338219512653351
0.267110841913992,-0.759868595123291,-0.724217980957031,-2.7523992001533504
0.267716535433071,0.13107867050170902,-0.046427453613281204,-1.03277517671585
0.26832222895215,1.4627095298767099,0.20744461669921901,2.17655099515915
0.26892792247123,0.911855037689209,-0.666737512207031,1.36224435453415
0.269533615990309,-0.752683536529541,0.990616003417969,-1.8063664853096
0.270139309509388,-0.977815372467041,0.044583288574218796,-0.714237579059601
0.270745003028468,0.21011431503295902,-0.30987960205078097,2.02805978422165
0.271350696547547,-0.575452091217041,0.272110144042969,0.636553436565399
0.271956390066626,-0.496416446685791,-0.7577482543945311,-2.1512492978096
0.272562083585706,-0.161113712310791,-0.103907922363281,-1.43992849702835
0.273167777104785,1.1393818931579598,-0.0368473754882812,1.9250739443779001
0.273773470623864,1.5321650962829598,-0.535011437988281,1.6233014834404
0.274379164142944,-0.515576602935791,0.446946569824219,-1.32017752046585
0.274984857662023,-0.831719181060791,0.243369909667969,-1.37286795015335
0.275590551181102,0.193349178314209,-0.511061242675781,1.30476388578415
0.276196244700182,0.052043025970459,-0.0200822387695312,1.52510568265915
0.276801938219261,-0.6832279701232911,-0.127858117675781,-1.3896330868721
0.27740763173834,-0.831719181060791,0.044583288574218796,-2.08179373140335
0.27801332525742,0.669958065032959,0.300850378417969,0.837735077190399
0.278619018776499,1.49623980331421,-0.5158512817382811,2.0112946475029
0.279224712295578,0.557392147064209,-0.30029952392578096,0.064143768596649
0.279830405814658,-0.8221391029357911,0.650523229980469,-1.6578752743721
0.280436099333737,-0.374270450592041,0.219419714355469,1.0916071475029
0.281041792852816,0.152633846282959,-0.0536125122070312,3.1585090029716496
0.281647486371896,-0.443726016998291,0.470896765136719,-0.48192068452835096
0.282253179890975,-0.9035697669982911,-0.281139367675781,-2.3955412899971003
0.282858873410055,0.025697811126709,0.0829036010742188,-0.101112579059601
0.283464566929134,1.1848872642517099,0.300850378417969,2.0975153506278996
0.284070260448213,0.998075740814209,-0.527826379394531,0.624578338909149
0.284675953967293,-0.597007266998291,0.7343489135742189,-1.5333342587471
0.285281647486372,-0.7431034584045411,0.523587194824219,-0.38132986421585097
0.285887341005451,0.267594783782959,-0.317064660644531,1.8149030459404
0.286493034524531,-0.805373966217041,0.353540808105469,-0.005311797809601
0.28709872804361,-0.40780072402954104,-0.724217980957031,-2.2087297665596
0.287704421562689,-0.053337833404541,-0.0344523559570312,-0.980084747028351
0.288310115081769,1.24715777206421,0.346355749511719,1.7478424990654
0.288915808600848,1.21841753768921,-0.8966593872070311,1.1347174990654
0.289521502119927,-0.757473575592041,0.8540998901367189,-1.45908865327835
0.290127195639007,-0.791003849029541,0.38946610107421903,-0.587301543903351
0.290732889158086,0.176584041595459,-0.336224816894531,1.7071271670341501
0.291338582677165,-0.652092716217041,0.35833084716796904,0.768279510784149
0.291944276196245,-0.49881146621704103,-0.6571574340820311,-1.8782170712471
0.292549969715324,0.114313533782959,-0.180548547363281,-1.4902239071846
0.293155663234403,0.962150447845459,0.140384069824219,1.4843903506279
0.293761356753483,1.60641070175171,-0.745773156738281,1.7071271670341501
0.294367050272562,-0.5419218177795411,0.365515905761719,-1.0399602353096
0.294972743791641,-1.1454667396545402,0.413416296386719,-1.7656511532783499
0.295578437310721,-0.187458927154541,-0.6164421020507811,1.1538776553154
0.2961841308298,0.16460894393920902,-0.120673059082031,1.7526325381279
0.296789824348879,-0.5419218177795411,-0.230843957519531,-1.09025564546585
0.297395517867959,-0.654487735748291,0.195469519042969,-2.0458684384345998
0.298001211387038,0.5142817955017089,0.42778641357421904,0.533567596721649
0.298606904906118,1.57767046737671,-0.307484582519531,2.0735651553154
0.299212598425197,0.629242733001709,-0.317064660644531,-0.304689239215851
0.299818291944276,-0.846089298248291,0.605017858886719,-2.03868337984085
0.300423985463356,-0.28804974746704104,0.430181433105469,0.243770233440399
0.301029678982435,0.322680233001709,-0.0152921997070312,2.16697091703415
0.301635372501514,-0.19464398574829098,0.310430456542969,-0.39090994234085097
0.302241066020594,-0.764658634185791,-0.09432784423828121,-2.2518401181221
0.302846759539673,-0.14913861465454098,0.145174108886719,-0.366959747028351
0.303452453058752,0.971730525970459,0.35833084716796904,2.1645758975028997
0.304058146577832,1.1561470298767098,-0.532616418457031,0.816179901409149
0.304663840096911,-0.6233524818420411,0.36791092529296904,-1.7297258603096
0.30526953361599,-0.714363224029541,0.751114050292969,-0.429230254840851
0.30587522713507,0.056833065032959,-0.403285363769531,1.55384591703415
0.306480920654149,-0.707178165435791,0.188284460449219,0.025823456096649
0.307086614173228,-0.486836368560791,-0.511061242675781,-2.0267082821846
0.307692307692308,0.21969439315795902,-0.283534387207031,-0.913024200153351
0.308298001211387,1.18728228378296,0.446946569824219,1.57779611234665
0.308903694730466,1.2016524009704599,-0.7170329223632811,1.86040841703415
0.309509388249546,-0.620957462310791,0.7415339721679689,-1.2076116024971
0.310115081768625,-1.1957621498107902,0.7798542846679689,-1.3800530087471
0.310720775287704,0.119103572845459,-0.434420617675781,1.7813727725029
0.311326468806784,-0.5227616615295411,0.18588944091796902,1.1107673037529
0.311932162325863,-0.565872013092041,-0.484716027832031,-1.90935232515335
0.312537855844942,-0.352715274810791,-0.30987960205078097,-1.50219900484085
0.313143549364022,0.744203670501709,0.375095983886719,1.25686349515915
0.313749242883101,1.54653521347046,-0.6811076293945311,1.52510568265915
0.31435493640218,-0.125188419342041,0.140384069824219,-1.1261809384346
0.31496062992126,-0.9610502357482911,0.693633581542969,-1.6722453915596
0.315566323440339,-0.254519474029541,-0.408075402832031,1.1921979678154
0.316172016959419,0.133473690032959,-0.046427453613281204,1.55863595609665
0.316777710478498,-0.678437931060791,-0.20210372314453098,-0.881888946247101
0.317383403997577,-0.755078556060791,0.042188269042968796,-2.04347341890335
0.317989097516657,0.083178279876709,0.5211921752929689,0.631763397502899
0.318594791035736,1.26871294784546,-0.24760909423828098,2.1741559756278996
0.319200484554815,0.849584529876709,-0.278744348144531,-0.386119903278351
0.319806178073895,-0.6425126380920411,0.6145979370117189,-1.9740178524971
0.320411871592974,-0.460491153717041,0.5164021362304689,0.20065988187789902
0.321017565112053,0.099943416595459,-0.0847477661132812,1.92746896390915
0.321623258631133,-0.14434857559204098,0.08769364013671879,-0.21846853609085098
0.322228952150212,-0.549106876373291,-0.0631925903320312,-2.0650285946846
0.322834645669291,-0.161113712310791,0.29845535888671904,-0.30229421968460096
0.323440339188371,0.828029354095459,0.28887528076171903,1.8388532412529
0.32404603270745,1.0795064048767098,-0.338619836425781,0.507222381877899
0.324651726226529,-0.45809613418579104,0.372700964355469,-1.49740896577835
0.325257419745609,-0.824534122467041,0.6577082885742189,-0.395699981403351
0.325863113264688,0.085573299407959,-0.453580773925781,1.49636544828415
0.326468806783767,-0.704783145904541,0.209839636230469,0.279695526409149
0.327074500302847,-0.532341739654541,-0.15180831298828099,-1.7153557431221
0.327680193821926,0.056833065032959,-0.436815637207031,-1.0591203915596
0.328285887341005,1.02442095565796,0.267320104980469,1.3598493350029
0.328891580860085,0.983705623626709,-0.630812219238281,1.3981696475029
0.329497274379164,-0.403010684967041,0.0134480346679688,-1.26748709077835
0.330102967898244,-0.932310001373291,0.6409431518554689,-0.843568633747101
0.330708661417323,-0.000647403717040988,-0.487111047363281,1.45325509672165
0.331314354936402,-0.42935589981079103,-0.09432784423828121,0.837735077190399
0.331920048455482,-0.343135196685791,-0.135043176269531,-1.5429143368721
0.332525741974561,-0.13955853652954098,-0.513456262207031,-1.6842204892158499
0.33313143549364,0.7130684165954589,0.514007116699219,1.0628669131279
0.33373712901272,1.53456011581421,-0.604467004394531,1.5873761904716501
0.334342822531799,0.167003963470459,-0.103907922363281,-1.0471452939033499
0.334948516050878,-0.690413028717041,0.8564949096679689,-1.22916677827835
0.335554209569958,-0.175483829498291,-0.352989953613281,1.10358224515915
0.336159903089037,0.064018123626709,-0.0607975708007812,1.3790094912529
0.336765596608116,-0.647302677154541,0.0469783081054688,-0.781298125934601
0.337371290127196,-0.6640678138732911,-0.0607975708007812,-1.7824162899971
0.337976983646275,0.317890193939209,0.566697546386719,0.375496307659149
0.338582677165354,1.5656953697204599,-0.18773360595703098,1.8196930850029
0.339188370684434,0.705883358001709,-0.5805168090820311,0.567097870159149
0.339794064203513,-0.680832950592041,0.377491003417969,-1.5141741024971
0.340399757722592,-0.491626407623291,0.27929520263671903,0.363521210002899
0.341005451241672,0.152633846282959,-0.118278039550781,2.36815255765915
0.341611144760751,-0.15871869277954098,0.018238073730468797,0.10246408109664899
0.34221683827983,-0.5826371498107911,-0.0631925903320312,-1.61715994234085
0.34282253179891,0.035277889251709,0.228999792480469,-0.314269317340851
0.343428225317989,0.868744686126709,0.44934158935546903,1.6759919131279
0.344033918837068,0.940595272064209,-0.436815637207031,0.404236542034149
0.344639612356148,-0.180273868560791,0.0972737182617188,-1.42555837984085
0.345245305875227,-0.740708438873291,0.708003698730469,-0.510660918903351
0.345850999394306,0.21969439315795902,-0.362570031738281,1.31434396390915
0.346456692913386,-0.6041923255920411,-0.0105021606445312,0.131204315471649
0.347062386432465,-0.510786563873291,-0.22844893798828098,-1.6482951962471
0.347668079951545,-0.048547794342041,-0.49908614501953097,-1.03756521577835
0.348273773470624,0.617267635345459,0.296060339355469,1.1203473818779
0.348879466989703,1.1896773033142098,-0.288324426269531,1.1538776553154
0.349485160508783,0.00414263534545901,-0.106302941894531,-0.910629180622101
0.350090854027862,-0.831719181060791,0.810989538574219,-0.793273223590851
0.350696547546941,-0.276074649810791,-0.331434777832031,1.02215158109665
0.351302241066021,-0.460491153717041,0.039793249511718795,0.768279510784149
0.3519079345851,-0.697598087310791,-0.235633996582031,-1.2028215634346
0.352513628104179,-0.17308880996704099,-0.592491906738281,-1.32975759859085
0.353119321623259,0.552602108001709,0.33917069091796903,0.753909393596649
0.353725015142338,1.40522906112671,-0.669132531738281,1.48199533109665
0.354330708661417,0.152633846282959,-0.19731368408203098,-0.659152129840851
0.354936402180497,-0.999370548248291,0.7966194213867189,-1.4614836728096
0.355542095699576,-0.113213321685791,-0.209288781738281,0.7419342959403991
0.356147789218655,-0.237754337310791,-0.240424035644531,1.34308419828415
0.356753482737735,-0.620957462310791,0.042188269042968796,-0.802853301715851
0.357359176256814,-0.395825626373291,-0.261979211425781,-1.4854338681221
0.357964869775893,0.056833065032959,0.566697546386719,0.478482147502899
0.358570563294973,1.28547808456421,-0.166178430175781,1.89393869047165
0.359176256814052,0.916645076751709,-0.664342492675781,-0.014891875934601
0.359781950333131,-0.585032169342041,0.47808182373046904,-1.6842204892158499
0.360387643852211,-0.501206485748291,0.324800573730469,-0.019681914997101
0.36099333737129,0.308310115814209,-0.204498742675781,1.7143122256279
0.361599030890369,0.032882869720459,-0.00331710205078125,-0.005311797809601
0.362204724409449,-0.659277774810791,-0.106302941894531,-1.78002127046585
0.362810417928528,-0.24493939590454097,0.382281042480469,-0.505870879840851
0.363416111447607,0.7944990806579589,0.5379573120117189,1.5035505068779
0.364021804966687,0.909460018157959,-0.26916427001953097,0.8808454287528991
0.364627498485766,-0.20422406387329098,0.08529862060546879,-1.4375334774971
0.365233192004846,-0.666462833404541,0.784644323730469,-0.445995391559601
0.365838885523925,-0.031782657623291,-0.0320573364257812,1.3837995303154
0.366444579043004,-0.556291934967041,0.0493733276367188,0.344361053752899
0.367050272562084,-0.532341739654541,0.0972737182617188,-1.30580740327835
0.367655966081163,-0.14913861465454098,-0.400890344238281,-0.953739532184601
0.368261659600242,0.5358369712829589,0.264925085449219,1.05089181547165
0.368867353119322,1.1298018150329598,-0.221263879394531,1.22333322172165
0.369473046638401,0.16939898300170902,-0.048822473144531205,-0.946554473590851
0.37007874015748,-1.09277630996704,0.8540998901367189,-0.984874786090851
0.37068443367656,-0.486836368560791,-0.26916427001953097,1.59216622953415
0.371290127195639,-0.47725629043579104,-0.221263879394531,0.811389862346649
0.371895820714718,-0.834114200592041,-0.027267297363281203,-1.60278982515335
0.372501514233798,-0.019807559967041,-0.43921065673828097,-1.1932414853096
0.373107207752877,0.667563045501709,0.372700964355469,0.739539276409149
0.373712901271956,1.26871294784546,-0.295509484863281,1.3454792178154
0.374318594791036,0.222089412689209,-0.463160852050781,-0.644782012653351
0.374924288310115,-0.968235294342041,0.5571174682617189,-1.2459319149971
0.375529981829194,-0.283259708404541,-0.18294356689453098,0.717984100627899
0.376135675348274,0.035277889251709,-0.427235559082031,1.0101764834404001
0.376741368867353,-0.48923138809204103,-0.113488000488281,-0.891469024372101
0.377347062386432,-0.553896915435791,-0.123068078613281,-1.4375334774971
0.377952755905512,0.114313533782959,0.528377233886719,0.37789132719039903
0.378558449424591,0.959755428314209,-0.106302941894531,1.4652301943779
0.379164142943671,0.741808650970459,-0.693082727050781,-0.151407989215851
0.37976983646275,-0.39822064590454104,0.272110144042969,-1.52135916109085
0.380375529981829,-0.261704532623291,0.5571174682617189,0.083303924846649
0.380981223500909,0.035277889251709,-0.16857344970703098,1.6089313662529001
0.381586917019988,-0.350320255279541,-0.15180831298828099,-0.036447051715851005
0.382192610539067,-0.47725629043579104,-0.0631925903320312,-1.51177908296585
0.382798304058147,-0.16350873184204098,0.286480261230469,-0.19451834077835098
0.383403997577226,0.432851131439209,0.401441198730469,1.3358991396904
0.384009691096305,0.8352144126892089,-0.0871427856445312,0.713194061565399
0.384615384615385,0.17418902206420903,-0.0152921997070312,-0.905839141559601
0.385221078134464,-0.376665470123291,0.490056921386719,-0.345404571247101
0.385826771653543,-0.16350873184204098,0.0326081909179688,1.1586676943779
0.386432465172623,-0.719153263092041,-0.14222823486328098,0.09048898344039899
0.387038158691702,-0.635327579498291,0.0565583862304688,-1.5524944149971
0.387643852210781,-0.055732852935791,-0.441605676269531,-0.8747038876533509
0.388249545729861,0.610082576751709,0.272110144042969,1.15627267484665
0.38885523924894,0.911855037689209,-0.403285363769531,1.0484967959404001
0.389460932768019,0.09036333847045899,-0.352989953613281,-0.716632598590851
0.390066626287099,-1.0975663490295402,0.8205696166992189,-0.757347930622101
0.390672319806178,-0.494021427154541,-0.35059493408203096,1.0532868350029
0.391278013325257,-0.424565860748291,-0.30987960205078097,0.849710174846649
0.391883706844337,-0.836509220123291,-0.17815352783203098,-1.4471135556221
0.392489400363416,0.083178279876709,-0.5182463012695311,-1.23874685640335
0.393095093882495,0.495121639251709,0.300850378417969,0.638948456096649
0.393700787401575,1.30703326034546,-0.324249719238281,1.3023688662529
0.394306480920654,0.423271053314209,-0.49908614501953097,-0.606461700153351
0.394912174439733,-1.09517132949829,0.672078405761719,-1.4087932431221
0.395517867958813,-0.505996524810791,-0.08953780517578121,0.660503631877899
0.396123561477892,-0.19943402481079098,-0.374545129394531,1.0484967959404001
0.396729254996972,-0.352715274810791,-0.113488000488281,-0.6352019345283509
0.397334948516051,-0.40780072402954104,-0.427235559082031,-1.4878288876533499
0.39794064203513,0.315495174407959,0.612202917480469,0.104859100627899
0.39854633555421,0.768153865814209,0.291270300292969,1.64006662015915
0.399152029073289,0.8352144126892089,-0.396100305175781,-0.18972830171585098
0.399757722592368,-0.201829044342041,0.353540808105469,-0.977689727497101
0.400363416111448,-0.362295352935791,0.47808182373046904,0.131204315471649
0.400969109630527,0.111918514251709,-0.127858117675781,0.878450409221649
0.401574803149606,-0.26888959121704104,-0.214078820800781,0.009058319377899
0.402180496668686,-0.374270450592041,-0.166178430175781,-1.4183733212471
0.402786190187765,-0.029387638092041,0.0948786987304688,-0.424440215778351
0.403391883706844,0.39932085800170897,0.379886022949219,1.56342599515915
0.403997577225924,0.816054256439209,-0.120673059082031,0.696428924846649
0.404603270745003,0.23406451034545903,-0.264374230957031,-1.0064299618721
0.405208964264082,-0.41977582168579103,0.434971472167969,-0.378934844684601
0.405814657783162,-0.292839786529541,0.353540808105469,0.9215607607841491
0.406420351302241,-0.573057071685791,-0.180548547363281,0.049773651409148995
0.40702604482132,-0.577847110748291,-0.190128625488281,-1.7057756649970999
0.4076317383404,-0.082078067779541,-0.535011437988281,-1.0088249814033499
0.408237431859479,0.8926948814392089,0.039793249511718795,1.3263190615654001
0.408843125378558,0.8543745689392089,-0.0799577270507812,1.25207345609665
0.409448818897638,0.092758358001709,-0.0655876098632812,-0.841173614215851
0.410054512416717,-0.836509220123291,0.830149694824219,-0.537006133747101
0.410660205935796,-0.182668888092041,-0.0967228637695312,0.950300995159149
0.411265899454876,-0.055732852935791,-0.506271203613281,0.605418182659149
0.411871592973955,-0.757473575592041,0.044583288574218796,-1.2052165829658499
0.412477286493035,-0.041362735748291,-0.321854699707031,-1.27227712984085
0.413082980012114,0.545417049407959,0.164334265136719,0.523987518596649
0.413688673531193,1.2758980064392098,0.164334265136719,1.35745431547165
0.414294367050273,0.8136592369079589,-0.808043664550781,-0.350194610309601
0.414900060569352,-0.891594669342041,0.48766190185546904,-1.59320974702835
0.415505754088431,-0.484441349029541,0.365515905761719,0.358731170940399
0.416111447607511,-0.077288028717041,-0.525431359863281,1.44846505765915
0.41671714112659,-0.594612247467041,-0.0344523559570312,-0.465155547809601
0.417322834645669,-0.5036015052795411,-0.23323897705078098,-1.51177908296585
0.417928528164749,0.049648006439209,0.38946610107421903,0.25814035062789903
0.418534221683828,0.662773006439209,0.317615515136719,1.87477853422165
0.419139915202907,0.871139705657959,-0.484716027832031,-0.069977325153351
0.419745608721987,-0.019807559967041,0.00626297607421875,-1.5572844540596
0.420351302241066,-0.462886173248291,0.274505163574219,0.14078439359664902
0.420956995760145,-0.106028263092041,0.15714920654296902,1.29997384672165
0.421562689279225,-0.062917911529541,0.09008865966796879,0.09527902250289899
0.422168382798304,-0.38864056777954104,0.0110530151367188,-1.16210623140335
0.422774076317383,0.025697811126709,0.121223913574219,-0.419650176715851
0.423379769836463,0.519071834564209,0.5211921752929689,1.20896310453415
0.423985463355542,0.617267635345459,0.0924836791992188,0.756304413127899
0.424591156874621,-0.017412540435791,-0.170968469238281,-1.0016399228096
0.425196850393701,-0.19943402481079098,0.6169929565429689,-0.608856719684601
0.42580254391278,-0.192248966217041,0.10445877685546899,0.962276092815399
0.426408237431859,-0.6425126380920411,-0.35059493408203096,0.167129608440399
0.427013930950939,-0.699993106842041,-0.278744348144531,-1.4806438290596
0.427619624470018,-0.113213321685791,-0.487111047363281,-0.936974395465851
0.428225317989098,0.7753389244079589,0.142779089355469,0.962276092815399
0.428831011508177,0.899879940032959,0.09008865966796879,0.991016327190399
0.429436705027256,0.152633846282959,-0.271559289550781,-0.924999297809601
0.430042398546336,-0.740708438873291,0.5379573120117189,-1.2698821103096
0.430648092065415,-0.34792523574829104,0.260135046386719,1.33350412015915
0.431253785584494,-0.534736759185791,-0.434420617675781,1.48199533109665
0.431859479103574,-0.740708438873291,-0.0536125122070312,-1.03277517671585
0.432465172622653,-0.211409122467041,-0.774513391113281,-1.29622732515335
0.433070866141732,0.605292537689209,-0.08953780517578121,0.382681366252899
0.433676559660812,1.13219683456421,0.023028112792968798,1.2832087100029
0.434282253179891,0.646007869720459,-0.451185754394531,-0.42204519624710096
0.43488794669897,-0.678437931060791,0.7199787963867189,-1.3513127743721
0.43549364021805,-0.494021427154541,0.0709285034179688,0.485667206096649
0.436099333737129,0.167003963470459,-0.372150109863281,1.1347174990654
0.436705027256208,-0.225779239654541,-0.0584025512695312,-0.534611114215851
0.437310720775288,-0.470071231842041,-0.305089562988281,-1.3177825009346
0.437916414294367,0.128683650970459,0.42778641357421904,-0.019681914997101
0.438522107813446,0.643612850189209,0.6984236206054689,1.7047321475029
0.439127801332526,0.7154634361267089,-0.482321008300781,0.23898019437789902
0.439733494851605,-0.22338422012329098,0.173914343261719,-1.6866155087471
0.440339188370684,-0.187458927154541,0.475686804199219,0.116834198284149
0.440944881889764,0.073598201751709,-0.0344523559570312,1.3167389834404
0.441550575408843,-0.206619083404541,-0.00331710205078125,-0.254393829059601
0.442156268927922,-0.345530216217041,-0.22844893798828098,-1.17168630952835
0.442761962447002,-0.38864056777954104,0.149964147949219,-0.436415313434601
0.443367655966081,0.095153377532959,0.6960286010742189,0.969461151409149
0.44397334948516,0.586132381439209,0.121223913574219,0.567097870159149
0.44457904300424,0.162213924407959,-0.180548547363281,-0.862728789997101
0.445184736523319,-0.187458927154541,0.30803543701171904,-0.407675079059601
0.445790430042399,-0.108423282623291,0.14756912841796901,0.986226288127899
0.446396123561478,-0.788608829498291,0.10685379638671899,0.116834198284149
0.447001817080557,-0.920334903717041,0.0110530151367188,-1.3225725399971
0.447607510599637,-0.067707950592041,-0.352989953613281,-0.7956682431221009
0.448213204118716,0.765758846282959,0.142779089355469,0.967066131877899
0.448818897637795,1.06753130722046,0.26971512451171903,0.943115936565399
0.449424591156875,0.36100054550170896,-0.21168380126953099,-0.778903106403351
0.450030284675954,-0.5634769935607911,0.5786726440429689,-0.7357927548408509
0.450635978195033,-0.45809613418579104,0.370305944824219,1.01736154203415
0.451241671714113,-0.745498477935791,-0.302694543457031,0.468902069377899
0.451847365233192,-0.527551700592041,-0.209288781738281,-1.3034123837471
0.452453058752271,0.032882869720459,-0.6571574340820311,-1.0926506649971
0.453058752271351,0.643612850189209,0.0661384643554688,0.535962616252899
0.45366444579043,0.866349666595459,0.164334265136719,1.2017780459404
0.454270139309509,0.452011287689209,-0.467950891113281,-0.366959747028351
0.454875832828589,-0.759868595123291,0.23139481201171902,-1.3321526181221
0.455481526347668,-0.597007266998291,0.343960729980469,0.14557443265914902
0.456087219866747,-0.082078067779541,-0.38891524658203097,1.3071589053154
0.456692913385827,-0.513181583404541,-0.22844893798828098,-0.541796172809601
0.457298606904906,-0.482046329498291,-0.293114465332031,-1.48303884859085
0.457904300423985,0.181374080657959,0.406231237792969,0.171919647502899
0.458509993943065,0.629242733001709,0.6002278198242189,1.8101130068779
0.459115687462144,0.646007869720459,-0.494296105957031,0.030613495159149
0.459721380981224,-0.197039005279541,0.159544226074219,-1.7273308407783499
0.460327074500303,-0.321580020904541,0.473291784667969,0.43776681547164903
0.460932768019382,-0.065312931060791,0.0781135620117188,1.89872872953415
0.461538461538462,-0.055732852935791,-0.0392423950195312,-0.15380300874710098
0.462144155057541,-0.177878849029541,-0.331434777832031,-1.13815603609085
0.46274984857662,-0.115608341217041,0.137989050292969,-0.266368926715851
0.4633555420957,0.38016070175170896,0.7343489135742189,0.9814362490653991
0.463961235614779,0.679538143157959,0.173914343261719,0.595838104534149
0.464566929133858,-0.036572696685791,0.0254231323242188,-0.924999297809601
0.465172622652938,-0.323975040435791,0.202654577636719,-0.08434744234085101
0.465778316172017,-0.026992618560791,0.17151932373046902,1.2832087100029
0.466384009691096,-0.776633731842041,0.0469783081054688,-0.005311797809601
0.466989703210176,-0.824534122467041,-0.434420617675781,-1.6339250790596
0.467595396729255,0.085573299407959,-0.139833215332031,-1.0016399228096
0.468201090248334,0.617267635345459,0.0781135620117188,0.8808454287528991
0.468806783767414,0.983705623626709,0.26971512451171903,1.04610177640915
0.469412477286493,0.109523494720459,0.140384069824219,-0.869913848590851
0.470018170805572,-0.709573184967041,0.250554968261719,-0.719027618122101
0.470623864324652,-0.220989200592041,0.17630936279296902,0.914375702190399
0.471229557843731,-0.290444766998291,-0.554171594238281,0.605418182659149
0.47183525136281,-0.666462833404541,-0.252399133300781,-1.23874685640335
0.47244094488189,-0.285654727935791,-0.288324426269531,-1.1692912899971
0.473046638400969,0.995680721282959,-0.17336348876953098,0.770674530315399
0.473652331920048,0.9334102134704589,-0.0128971801757812,1.25686349515915
0.474258025439128,0.531046932220459,-0.463160852050781,-0.417255157184601
0.474863718958207,-0.814954044342041,0.11403885498046899,-1.2866472470283499
0.475469412477286,-0.570662052154541,0.5379573120117189,0.274905487346649
0.476075105996366,0.049648006439209,-0.484716027832031,1.19938302640915
0.476680799515445,-0.192248966217041,-0.467950891113281,-0.443600372028351
0.477286493034525,-0.494021427154541,-0.218868859863281,-1.3369426571846
0.477892186553604,0.066413143157959,0.312825476074219,0.083303924846649
0.478497880072683,0.619662654876709,0.731953894042969,1.56821603422165
0.479103573591763,0.607687557220459,-0.302694543457031,0.274905487346649
0.479709267110842,-0.101238224029541,-0.23323897705078098,-1.6770354306221
0.480314960629921,-0.484441349029541,0.434971472167969,-0.283134063434601
0.480920654149001,-0.010227481842041,-0.0296623168945312,1.2496784365654001
0.48152634766808,-0.28804974746704104,0.16193924560546902,-0.196913360309601
0.482132041187159,-0.496416446685791,0.0326081909179688,-1.42555837984085
0.482737734706239,0.032882869720459,-0.0176872192382812,-0.33103445405960097
0.483343428225318,0.356210506439209,0.784644323730469,1.0245466006279
0.483949121744397,0.454406307220459,0.173914343261719,0.21502999906539902
0.484554815263477,0.20532427597045902,-0.0560075317382812,-0.872308868122101
0.485160508782556,-0.058127872467041,0.324800573730469,-0.07716238374710101
0.485766202301635,0.14544878768920902,0.044583288574218796,1.2113581240654
0.486371895820715,-0.505996524810791,0.19067947998046902,0.236585174846649
0.486977589339794,-0.908359806060791,-0.0105021606445312,-1.40160818452835
0.487583282858873,-0.225779239654541,-0.305089562988281,-0.889074004840851
0.488188976377953,0.519071834564209,0.142779089355469,0.849710174846649
0.488794669897032,0.677143123626709,0.214629675292969,0.9215607607841491
0.489400363416111,0.193349178314209,-0.048822473144531205,-0.661547149372101
0.490006056935191,-0.35750531387329104,0.16193924560546902,-0.680707305622101
0.49061175045427,-0.678437931060791,0.27929520263671903,0.900005585002899
0.491217443973349,-0.654487735748291,-0.0152921997070312,0.638948456096649
0.491823137492429,-0.441330997467041,-0.5038761840820309,-1.4758537899971
0.492428831011508,-0.527551700592041,-0.149413293457031,-1.29143728609085
0.493034524530587,0.691513240814209,0.16193924560546902,0.5024323428153991
0.493640218049667,0.966940486907959,-0.0607975708007812,1.2353083193779
0.494245911568746,0.26998980331420896,-0.338619836425781,-0.546586211872101
0.494851605087826,-0.5443168373107911,-0.0128971801757812,-1.2650920712470999
0.495457298606905,-0.515576602935791,0.219419714355469,0.528777557659149
0.496062992125984,-0.192248966217041,-0.381730187988281,1.0245466006279
0.496668685645064,-0.400615665435791,-0.223658898925781,-0.642386993122101
0.497274379164143,-0.25930951309204103,-0.0584025512695312,-1.57404959077835
0.497880072683222,0.226879451751709,0.291270300292969,0.310830780315399
0.498485766202302,0.705883358001709,0.44934158935546903,1.7717926943779
0.499091459721381,0.423271053314209,-0.199708703613281,0.114439178752899
0.49969715324046,-0.261704532623291,-0.245214074707031,-1.63632009859085
0.50030284675954,-0.206619083404541,0.17151932373046902,-0.098717559528351
0.500908540278619,-0.050942813873291,0.0805085815429688,1.37182443265915
0.501514233797698,-0.16829877090454098,-0.130253137207031,-0.290319122028351
0.502119927316778,-0.441330997467041,-0.123068078613281,-1.4519035946846
0.502725620835857,-0.220989200592041,0.200259558105469,-0.405280059528351
0.503331314354936,0.198139217376709,0.909185339355469,1.1299274600029001
0.503937007874016,0.45919634628295897,0.360725866699219,0.43776681547164903
0.504542701393095,0.26998980331420896,-0.13743819580078098,-1.0208000790596
0.505148394912174,0.035277889251709,0.16672928466796902,-0.08674246187210101
0.505754088431254,0.035277889251709,-0.154203332519531,1.2305182803154
0.506359781950333,-0.649697696685791,0.415811315917969,-0.14901296968460098
0.506965475469413,-0.867644474029541,0.018238073730468797,-1.75128103609085
0.507571168988492,-0.070102970123291,-0.209288781738281,-0.9345793759346009
0.508176862507571,0.562182186126709,0.193074499511719,0.734749237346649
0.50878255602665,0.7130684165954589,0.0661384643554688,0.8209699404716491
0.50938824954573,0.236459529876709,0.0517683471679688,-0.637596954059601
0.509993943064809,-0.486836368560791,0.38946610107421903,-0.551376250934601
0.510599636583889,-0.280864688873291,0.327195593261719,0.957486053752899
0.511205330102968,-0.340740177154541,-0.17336348876953098,0.540752655315399
0.511811023622047,-0.836509220123291,-0.398495324707031,-1.42076834077835
0.512416717141127,-0.39822064590454104,-0.357779992675781,-1.3944231259346
0.513022410660206,0.696303279876709,-0.0584025512695312,0.811389862346649
0.513628104179285,1.01005083847046,0.0326081909179688,1.2975788271904
0.514233797698365,0.396925838470459,-0.37933516845703097,-0.467550567340851
0.514839491217444,-0.644907657623291,-0.21168380126953099,-1.1645012509346
0.515445184736523,-0.585032169342041,0.375095983886719,0.25814035062789903
0.516050878255603,-0.304814884185791,-0.170968469238281,0.938325897502899
0.516656571774682,-0.24493939590454097,-0.376940148925781,-0.853148711872101
0.517262265293761,-0.307209903717041,-0.08953780517578121,-1.2052165829658499
0.517867958812841,0.16939898300170902,0.291270300292969,0.655713592815399
0.51847365233192,0.492726619720459,0.506822058105469,1.58258615140915
0.519079345850999,0.475961483001709,-0.295509484863281,-0.20888845796585098
0.519685039370079,-0.015017520904540999,-0.463160852050781,-1.4279533993720999
0.520290732889158,-0.31918500137329103,0.286480261230469,0.10006906156539899
0.520896426408237,0.262804744720459,-0.0991178833007812,1.93704904203415
0.521502119927317,-0.18985394668579098,-0.29071944580078096,0.011453338909149
0.522107813446396,-0.35990033340454103,-0.331434777832031,-1.57883962984085
0.522713506965475,-0.038967716217041,-0.0991178833007812,0.009058319377899
0.523319200484555,-0.086868106842041,0.9546907104492189,1.2664435732841501
0.523924894003634,0.028092830657959,0.463711706542969,0.662898651409149
0.524530587522714,0.08796831893920899,-0.30987960205078097,-0.833988555622101
0.525136281041793,0.351420467376709,0.023028112792968798,-0.18972830171585098
0.525741974560872,0.253224666595459,-0.23802901611328098,1.09879220609665
0.526347668079951,-0.750288516998291,0.27929520263671903,0.109649139690399
0.526953361599031,-0.8436942787170411,-0.0152921997070312,-1.62194998140335
0.52755905511811,0.212509334564209,-0.393705285644531,-1.0088249814033499
0.52816474863719,0.8950899009704589,0.044583288574218796,0.876055389690399
0.528770442156269,0.931015193939209,0.08769364013671879,0.868870331096649
0.529376135675348,0.097548397064209,0.195469519042969,-0.625621856403351
0.529981829194428,-0.33834515762329104,0.382281042480469,-0.750162872028351
0.530587522713507,-0.22338422012329098,0.10924881591796899,0.957486053752899
0.531193216232586,-0.517971622467041,-0.214078820800781,0.859290252971649
0.531798909751666,-0.556291934967041,-0.293114465332031,-1.4087932431221
0.532404603270745,-0.211409122467041,-0.103907922363281,-1.13336599702835
0.533010296789824,0.602897518157959,0.0302131713867188,1.18501290922165
0.533615990308904,1.1417769126892099,-0.00331710205078125,1.3598493350029
0.534221683827983,0.5933174400329589,-0.161388391113281,-0.462760528278351
0.534827377347062,-0.261704532623291,-0.405680383300781,-1.1309709774971
0.535433070866142,-0.216199161529541,0.19067947998046902,0.495247284221649
0.536038764385221,-0.271284610748291,0.102063757324219,1.2975788271904
0.5366444579043,-0.177878849029541,-0.44879073486328097,-0.769323028278351
0.53725015142338,-0.585032169342041,-0.391310266113281,-1.58841970796585
0.537855844942459,0.123893611907959,0.14756912841796901,0.44734689359664903
0.538461538461538,0.497516658782959,0.257740026855469,1.65922677640915
0.539067231980618,0.243644588470459,0.0661384643554688,0.088093963909149
0.539672925499697,-0.141953556060791,-0.21168380126953099,-1.1692912899971
0.540278619018776,-0.197039005279541,-0.0105021606445312,-0.007706817340851
0.540884312537856,0.193349178314209,-0.0799577270507812,1.3358991396904
0.541490006056935,-0.151533634185791,-0.0105021606445312,-0.017286895465851
0.542095699576015,-0.644907657623291,-0.113488000488281,-1.53572927827835
0.542701393095094,-0.14913861465454098,-0.0655876098632812,-0.369354766559601
0.543307086614173,0.274779842376709,0.626573034667969,1.53468576078415
0.543912780133253,0.202929256439209,0.370305944824219,0.646133514690399
0.544518473652332,0.013722713470459,-0.0200822387695312,-1.01840505952835
0.545124167171411,-0.120398380279541,0.08769364013671879,0.13599435453414901
0.545729860690491,0.23406451034545903,0.0709285034179688,1.47241525297165
0.54633555420957,-0.635327579498291,0.343960729980469,0.248560272502899
0.546941247728649,-0.819744083404541,-0.170968469238281,-1.69380056734085
0.547546941247729,-0.292839786529541,-0.321854699707031,-1.1980315243721
0.548152634766808,0.866349666595459,0.233789831542969,1.00299142484665
0.548758328285887,1.06753130722046,-0.108697961425781,1.0437067568779
0.549364021804967,-0.026992618560791,0.09008865966796879,-0.833988555622101
0.549969715324046,-0.343135196685791,0.193074499511719,-0.924999297809601
0.550575408843125,-0.197039005279541,0.11164383544921899,1.1778278506279
0.551181102362205,-0.376665470123291,-0.194918664550781,1.45325509672165
0.551786795881284,-0.6425126380920411,-0.496691125488281,-1.2603020321846
0.552392489400363,-0.632932559967041,-0.223658898925781,-1.4806438290596
0.552998182919443,0.545417049407959,0.15714920654296902,0.722774139690399
0.553603876438522,1.19207232284546,0.0565583862304688,1.2879987490654001
0.554209569957601,0.22927447128295902,-0.417655480957031,-0.572931426715851
0.554815263476681,-0.426960880279541,-0.19731368408203098,-1.3608928524971
0.55542095699576,-0.446121036529541,0.0948786987304688,0.526382538127899
0.556026650514839,-0.410195743560791,0.0996687377929688,1.37661447172165
0.556632344033919,-0.197039005279541,-0.5374064575195311,-0.532216094684601
0.557238037552998,-0.273679630279541,-0.376940148925781,-1.7728362118721
0.557843731072078,-0.00543744277954099,0.32959061279296903,0.322805877971649
0.558449424591157,0.44003619003295896,0.506822058105469,1.6520417178154
0.559055118110236,0.729833553314209,0.11403885498046899,0.15036447172164902
0.559660811629316,0.099943416595459,-0.434420617675781,-1.26748709077835
0.560266505148395,-0.074893009185791,0.17630936279296902,-0.055607207965851
0.560872198667474,0.157423885345459,0.09008865966796879,1.43409494047165
0.561477892186554,-0.070102970123291,-0.101512902832031,0.083303924846649
0.562083585705633,-0.484441349029541,-0.108697961425781,-1.6051848446846
0.562689279224712,0.138263729095459,-0.216473840332031,-0.546586211872101
0.563294972743792,0.341840389251709,0.628968054199219,1.2975788271904
0.563900666262871,0.236459529876709,0.439761511230469,0.43776681547164903
0.56450635978195,0.102338436126709,-0.226053918457031,-1.02319509859085
0.56511205330103,0.035277889251709,0.26971512451171903,-0.357379668903351
0.565717746820109,0.09036333847045899,-0.190128625488281,1.1778278506279
0.566323440339188,-0.494021427154541,0.0781135620117188,0.303645721721649
0.566929133858268,-0.814954044342041,0.0637434448242188,-1.4950139462471
0.567534827377347,-0.561081974029541,-0.357779992675781,-1.05193533296585
0.568140520896426,0.737018611907959,0.19067947998046902,0.926350799846649
0.568746214415506,1.02921099472046,-0.19252364501953098,1.24249337797165
0.569351907934585,0.238854549407959,-0.14701827392578098,-0.891469024372101
0.569957601453664,-0.364690372467041,0.466106726074219,-1.0112200009346
0.570563294972744,-0.376665470123291,0.0829036010742188,1.05568185453415
0.571168988491823,-0.652092716217041,0.0517683471679688,0.7012189639091491
0.571774682010902,-0.580242130279541,-0.288324426269531,-1.0878606259346
0.572380375529982,-0.345530216217041,-0.364965051269531,-1.1118108212471
0.572986069049061,0.41848101425170897,0.23139481201171902,0.552727752971649
0.57359176256814,1.1082466392517099,-0.00331710205078125,1.1682477725029001
0.57419745608722,0.29873003768920897,-0.115883020019531,-0.6160417782783509
0.574803149606299,-0.505996524810791,-0.0631925903320312,-1.06151541109085
0.575408843125379,-0.335950138092041,0.0805085815429688,0.662898651409149
0.576014536644458,-0.101238224029541,-0.09432784423828121,1.47720529203415
0.576620230163537,-0.180273868560791,-0.405680383300781,-0.316664336872101
0.577225923682617,-0.47725629043579104,-0.264374230957031,-1.5908147274971
0.577831617201696,0.212509334564209,0.0805085815429688,0.052168670940398995
0.578437310720775,0.5741572837829589,0.571487585449219,1.81250802640915
0.579043004239855,0.511886775970459,0.0134480346679688,0.808994842815399
0.579648697758934,0.042462947845458995,-0.491901086425781,-1.2746721493721
0.580254391278013,-0.242544376373291,0.23618485107421902,-0.333429473590851
0.580860084797093,0.133473690032959,-0.111092980957031,1.9490241396904
0.581465778316172,-0.280864688873291,-0.0679826293945312,0.432976776409149
0.582071471835251,-0.764658634185791,-0.0727726684570312,-1.5045940243720999
0.582677165354331,-0.00304242324829099,0.0110530151367188,-0.098717559528351
0.58328285887341,0.30112505722045896,0.530772253417969,1.4412799990654
0.583888552392489,0.38974077987670896,0.300850378417969,0.8018097842216491
0.584494245911569,0.102338436126709,-0.18773360595703098,-1.1118108212471
0.585099939430648,-0.08926312637329101,-0.216473840332031,-0.680707305622101
0.585705632949727,-0.015017520904540999,-0.0512174926757812,1.18022287015915
0.586311326468807,-0.692808048248291,0.20744461669921901,0.265325409221649
0.586917019987886,-0.505996524810791,-0.13743819580078098,-1.59320974702835
0.587522713506965,-0.27846966934204104,-0.17336348876953098,-1.0399602353096
0.588128407026045,0.47835650253295897,0.178704382324219,0.749119354534149
0.588734100545124,0.782523983001709,-0.127858117675781,0.9215607607841491
0.589339794064203,0.222089412689209,-0.0200822387695312,-0.649572051715851
0.589945487583283,-0.31918500137329103,0.27929520263671903,-0.721422637653351
0.590551181102362,-0.14434857559204098,-0.0607975708007812,0.983831268596649
0.591156874621442,-0.355110294342041,0.0469783081054688,1.0868171084404001
0.591762568140521,-0.838904239654541,-0.19731368408203098,-0.843568633747101
0.5923682616596,-0.656882755279541,-0.405680383300781,-1.51656912202835
0.59297395517868,0.34902544784545897,0.0757185424804688,0.421001678752899
0.593579648697759,1.14417193222046,-0.0799577270507812,1.4173298037529
0.594185342216838,0.569367244720459,-0.357779992675781,-0.16338308687210099
0.594791035735918,-0.40780072402954104,-0.16857344970703098,-1.4806438290596
0.595396729254997,-0.35990033340454103,0.188284460449219,0.011453338909149
0.596002422774076,-0.311999942779541,-0.0416374145507812,1.21854318265915
0.596608116293156,-0.30960492324829103,-0.417655480957031,-0.335824493122101
0.597213809812235,-0.482046329498291,-0.23323897705078098,-1.35370779390335
0.597819503331314,-0.046152774810791004,0.23139481201171902,-0.029261993122101
0.598425196850394,0.6939082603454589,0.312825476074219,1.56342599515915
0.599030890369473,0.475961483001709,0.200259558105469,0.076118866252899
0.599636583888552,0.123893611907959,-0.278744348144531,-1.4063982235908499
0.600242277407632,-0.012622501373291,0.126013952636719,-0.309479278278351
0.600847970926711,0.126288631439209,0.00865799560546875,1.4364899600029
0.60145366444579,-0.12997845840454098,-0.170968469238281,0.363521210002899
0.60205935796487,-0.434145938873291,-0.00331710205078125,-1.77044119234085
0.602665051483949,-0.247334415435791,-0.0392423950195312,-0.570536407184601
0.603270745003028,0.32028521347045896,0.588252722167969,1.21854318265915
0.603876438522108,0.262804744720459,0.511612097167969,1.00778146390915
0.604482132041187,-0.050942813873291,-0.0392423950195312,-0.608856719684601
0.605087825560267,-0.14434857559204098,0.121223913574219,-0.649572051715851
0.605693519079346,0.102338436126709,0.149964147949219,1.2400983584404
0.606299212598425,-0.314394962310791,0.0278181518554688,0.655713592815399
0.606904906117504,-1.00176556777954,-0.139833215332031,-1.37286795015335
0.607510599636584,-0.501206485748291,-0.240424035644531,-1.13336599702835
0.608116293155663,0.45919634628295897,-0.0679826293945312,0.689243866252899
0.608721986674743,1.0819014244079599,-0.15180831298828099,1.17543283109665
0.609327680193822,0.49991167831420896,0.08529862060546879,0.191079803752899
0.609933373712901,-0.302419864654541,0.320010534667969,-0.604066680622101
0.610539067231981,-0.5227616615295411,-0.0775627075195312,0.883240448284149
0.61114476075106,-0.7838187904357911,0.0469783081054688,1.0341266787529
0.611750454270139,-0.594612247467041,-0.376940148925781,-0.996849883747101
0.612356147789219,-0.242544376373291,-0.487111047363281,-1.2411418759346
0.612961841308298,0.669958065032959,0.17630936279296902,0.547937713909149
0.613567534827377,1.0866914634704599,-0.024872277832031203,1.2832087100029
0.614173228346457,0.325075252532959,-0.125463098144531,-0.230443633747101
0.614778921865536,-0.443726016998291,-0.103907922363281,-1.2315617978096
0.615384615384615,-0.367085391998291,0.142779089355469,0.080908905315399
0.615990308903695,-0.137163516998291,-0.09193282470703121,1.3981696475029
0.616596002422774,-0.395825626373291,-0.5565666137695311,-0.42204519624710096
0.617201695941853,-0.6640678138732911,-0.25000411376953097,-1.5764446103096
0.617807389460933,-0.161113712310791,0.118828894042969,-0.206493438434601
0.618413082980012,0.487936580657959,0.320010534667969,1.6041413271904
0.619018776499091,0.49033160018920896,-0.0320573364257812,0.454531952190399
0.619624470018171,0.238854549407959,-0.415260461425781,-1.19084646577835
0.62023016353725,-0.046152774810791004,0.219419714355469,-0.534611114215851
0.620835857056329,0.011327693939209,0.24097489013671902,1.17543283109665
0.621441550575409,-0.015017520904540999,-0.09193282470703121,0.665293670940399
0.622047244094488,-0.33834515762329104,-0.103907922363281,-1.24353689546585
0.622652937613568,-0.041362735748291,-0.161388391113281,-0.465155547809601
0.623258631132647,0.34902544784545897,0.6577082885742189,1.26165353422165
0.623864324651726,0.28914995956420897,0.473291784667969,0.866475311565399
0.624470018170806,0.16939898300170902,-0.18294356689453098,-0.771718047809601
0.625075711689885,0.00174761581420901,0.173914343261719,-0.764532989215851
0.625681405208964,0.025697811126709,0.126013952636719,0.935930877971649
0.626287098728044,-0.197039005279541,0.248159948730469,0.988621307659149
0.626892792247123,-0.7622636146545411,-0.14222823486328098,-1.19084646577835
0.627498485766202,-0.5036015052795411,-0.295509484863281,-1.2219817196846
0.628104179285282,0.425666072845459,-0.044032434082031204,0.749119354534149
0.628709872804361,0.8543745689392089,0.0469783081054688,1.33829415922165
0.62931556632344,0.447221248626709,-0.218868859863281,-0.28073904390335097
0.62992125984252,-0.187458927154541,0.36791092529296904,-1.0088249814033499
0.630526953361599,-0.086868106842041,0.310430456542969,0.976646210002899
0.631132646880678,-0.565872013092041,0.135594030761719,1.1059772646904
0.631738340399758,-0.810164005279541,-0.324249719238281,-1.0687004696845999
0.632344033918837,-0.36948041152954103,-0.623627160644531,-1.4854338681221
0.632949727437916,0.255619686126709,0.370305944824219,0.365916229534149
0.633555420956996,1.08429644393921,-0.022477258300781202,1.4316999209404
0.634161114476075,0.531046932220459,-0.115883020019531,-0.18493826265335098
0.634766807995154,-0.30002484512329103,-0.0751676879882812,-1.4566936337471
0.635372501514234,-0.565872013092041,0.22660477294921902,0.128809295940399
0.635978195033313,-0.39822064590454104,0.14756912841796901,1.6233014834404
0.636583888552392,-0.285654727935791,-0.355384973144531,-0.034052032184601004
0.637189582071472,-0.41977582168579103,-0.38891524658203097,-1.3561028134346
0.637795275590551,0.104733455657959,-0.0368473754882812,-0.187333282184601
0.638400969109631,0.626847713470459,0.336775671386719,1.59216622953415
0.63900666262871,0.5358369712829589,0.195469519042969,0.516802460002899
0.639612356147789,-0.120398380279541,-0.118278039550781,-1.5956047665596
0.640218049666869,-0.132373477935791,0.164334265136719,-0.395699981403351
0.640823743185948,0.126288631439209,0.188284460449219,1.1921979678154
0.641429436705027,-0.048547794342041,-0.0775627075195312,0.923955780315399
0.642035130224107,-0.350320255279541,-0.293114465332031,-1.01361502046585
0.642640823743186,-0.053337833404541,0.0350032104492188,-0.879493926715851
0.643246517262265,0.176584041595459,0.434971472167969,1.2736286318779
0.643852210781345,0.475961483001709,0.264925085449219,0.993411346721649
0.644457904300424,0.111918514251709,-0.0631925903320312,-0.891469024372101
0.645063597819503,-0.141953556060791,0.202654577636719,-0.793273223590851
0.645669291338583,0.21490435409545902,-0.125463098144531,1.20417306547165
0.646274984857662,-0.36948041152954103,0.11164383544921899,0.792229706096649
0.646880678376741,-0.759868595123291,0.200259558105469,-1.32017752046585
0.647486371895821,-0.35750531387329104,-0.403285363769531,-1.58841970796585
0.6480920654149,0.588527400970459,0.0757185424804688,0.603023163127899
0.648697758933979,1.1513569908142098,-0.022477258300781202,1.3837995303154
0.649303452453059,0.495121639251709,-0.0584025512695312,-0.568141387653351
0.649909145972138,-0.551501895904541,0.281690222167969,-0.879493926715851
0.650514839491217,-0.31918500137329103,0.140384069824219,0.662898651409149
0.651120533010297,-0.441330997467041,-0.13743819580078098,1.1059772646904
0.651726226529376,-0.7215482826232911,-0.412865441894531,-0.707052520465851
0.652331920048455,-0.7239433021545411,-0.587701867675781,-1.3944231259346
0.652937613567535,0.416085994720459,-0.115883020019531,0.246165252971649
0.653543307086614,1.18009722518921,-0.0416374145507812,1.25207345609665
0.654149000605693,0.341840389251709,-0.103907922363281,0.116834198284149
0.654754694124773,-0.570662052154541,-0.0703776489257812,-1.4375334774971
0.655360387643852,-0.383850528717041,0.10924881591796899,-0.065187286090851
0.655966081162932,-0.08926312637329101,0.154754187011719,1.4748102725029
0.656571774682011,-0.050942813873291,-0.463160852050781,0.147969452190399
0.65717746820109,-0.261704532623291,-0.336224816894531,-1.34412771577835
0.65778316172017,-0.151533634185791,-0.0152921997070312,-0.115482696247101
0.658388855239249,0.710673397064209,0.197864538574219,1.6568317568779
0.658994548758328,0.727438533782959,0.154754187011719,0.734749237346649
0.659600242277408,0.14544878768920902,-0.305089562988281,-1.2459319149971
0.660205935796487,-0.072497989654541,0.145174108886719,-0.7357927548408509
0.660811629315566,0.133473690032959,0.19067947998046902,1.39098458890915
0.661417322834646,-0.16829877090454098,-0.08953780517578121,0.758699432659149
0.662023016353725,-0.395825626373291,-0.240424035644531,-1.3848430478095999
0.662628709872804,0.032882869720459,-0.17336348876953098,-0.6759172665596009
0.663234403391884,0.265199764251709,0.6984236206054689,1.2448883975029
0.663840096910963,0.471171443939209,0.784644323730469,1.0245466006279
0.664445790430042,0.171794002532959,0.0805085815429688,-0.924999297809601
0.665051483949122,-0.058127872467041,-0.005712121582031249,-0.841173614215851
0.665657177468201,0.23406451034545903,-0.185338586425781,1.0101764834404001
0.66626287098728,-0.395825626373291,0.243369909667969,0.847315155315399
0.66686856450636,-0.925124942779541,0.19067947998046902,-1.25311697359085
0.667474258025439,-0.508391544342041,-0.374545129394531,-1.5189641415596
0.668079951544518,0.428061092376709,0.00865799560546875,0.567097870159149
0.668685645063598,0.7944990806579589,-0.024872277832031203,1.3837995303154
0.669291338582677,0.363395565032959,0.15714920654296902,0.21982003812789902
0.669897032101756,-0.43893597793579103,0.545142370605469,-0.939369414997101
0.670502725620836,-0.122793399810791,0.0781135620117188,0.7610944521903991
0.671108419139915,-0.26888959121704104,0.154754187011719,1.1395075381279
0.671714112658994,-0.8412992591857911,-0.341014855957031,-0.810038360309601
0.672319806178074,-0.735918399810791,-0.546986535644531,-1.7201457821846
0.672925499697153,0.377765682220459,0.499636999511719,-0.132247832965851
0.673531193216233,0.976520565032959,-0.0416374145507812,1.67838693265915
0.674136886735312,0.49991167831420896,-0.19252364501953098,0.018638397502899
0.674742580254391,-0.465281192779541,-0.14701827392578098,-1.5045940243720999
0.675348273773471,-0.391035587310791,-0.223658898925781,-0.232838653278351
0.67595396729255,-0.211409122467041,0.145174108886719,1.29518380765915
0.676559660811629,-0.21859418106079098,-0.297904504394531,0.133599335002899
0.677165354330709,-0.177878849029541,-0.427235559082031,-1.7297258603096
0.677771047849788,-0.103633243560791,0.0110530151367188,-0.563351348590851
0.678376741368867,0.780128963470459,0.406231237792969,1.7454474795341501
0.678982434887947,0.327470272064209,0.305640417480469,0.694033905315399
0.679588128407026,-0.28804974746704104,-0.204498742675781,-1.47824880952835
0.680193821926105,-0.074893009185791,0.042188269042968796,-0.723817657184601
0.680799515445185,0.33944536972045897,-0.0128971801757812,1.4029596865654
0.681405208964264,-0.113213321685791,-0.0991178833007812,0.646133514690399
0.682010902483343,-0.374270450592041,-0.005712121582031249,-1.21958670015335
0.682616596002423,0.121498592376709,-0.0128971801757812,-0.932184356403351
0.683222289521502,0.32986529159545896,0.6361531127929689,1.0724469912529
0.683827983040581,0.44003619003295896,0.612202917480469,0.962276092815399
0.684433676559661,0.023302791595458998,-0.0727726684570312,-0.936974395465851
0.68503937007874,-0.13955853652954098,0.121223913574219,-0.707052520465851
0.68564506359782,0.37058062362670896,0.0350032104492188,1.12274240140915
0.686250757116899,-0.486836368560791,0.0948786987304688,0.974251190471649
0.686856450635978,-0.9634452552795411,0.200259558105469,-1.2842522274971
0.687462144155058,-0.709573184967041,-0.5398014770507811,-1.3082024228095999
0.688067837674137,0.540627010345459,-0.0368473754882812,0.535962616252899
0.688673531193216,0.957360408782959,0.154754187011719,1.4173298037529
0.689279224712296,0.492726619720459,0.0589534057617188,-0.366959747028351
0.689884918231375,-0.321580020904541,0.248159948730469,-1.2555119931221
0.690490611750454,-0.26888959121704104,-0.0967228637695312,0.749119354534149
0.691096305269534,-0.21380414199829098,0.0469783081054688,1.17064279203415
0.691701998788613,-0.8436942787170411,-0.367360070800781,-0.740582793903351
0.692307692307692,-0.630537540435791,-0.424840539550781,-1.5620744931221
0.692913385826772,0.49991167831420896,-0.0344523559570312,-0.170568145465851
0.693519079345851,1.0747163658142098,-0.221263879394531,1.21854318265915
0.69412477286493,0.423271053314209,-0.0823527465820312,0.107254120159149
0.69473046638401,-0.237754337310791,-0.0296623168945312,-1.38244802827835
0.695336159903089,-0.371875431060791,0.296060339355469,-0.22325857515335099
0.695941853422168,0.128683650970459,-0.0368473754882812,1.5490558779716501
0.696547546941248,-0.19943402481079098,-0.5565666137695311,0.310830780315399
0.697153240460327,-0.534736759185791,-0.317064660644531,-1.6674553524970999
0.697758933979406,-0.216199161529541,-0.0512174926757812,-0.548981231403351
0.698364627498486,0.650797908782959,0.38946610107421903,1.6137214053154
0.698970321017565,0.368185604095459,0.22660477294921902,0.6413434756278991
0.699576014536644,0.114313533782959,-0.331434777832031,-1.2363518368721
0.700181708055724,-0.00783246231079099,0.0829036010742188,-0.560956329059601
0.700787401574803,0.16939898300170902,0.10685379638671899,1.72149728422165
0.701393095093882,-0.098843204498291,-0.022477258300781202,0.859290252971649
0.701998788612962,-0.5227616615295411,0.11164383544921899,-1.37765798921585
0.702604482132041,0.061623104095459,-0.0128971801757812,-0.805248321247101
0.703210175651121,0.452011287689209,0.456526647949219,0.995806366252899
0.7038158691702,0.550207088470459,0.40862625732421903,1.1586676943779
0.704421562689279,0.107128475189209,-0.022477258300781202,-0.711842559528351
0.705027256208359,0.111918514251709,0.21223465576171902,-0.862728789997101
0.705632949727438,0.394530818939209,0.0302131713867188,0.739539276409149
0.706238643246517,-0.29762982559204104,-0.00331710205078125,0.916770721721649
0.706844336765597,-0.944285099029541,-0.0584025512695312,-0.984874786090851
0.707450030284676,-0.654487735748291,-0.156598352050781,-1.5764446103096
0.708055723803755,0.092758358001709,0.0996687377929688,0.212634979534149
0.708661417322835,0.940595272064209,-0.0751676879882812,1.60174630765915
0.709267110841914,0.799289119720459,-0.216473840332031,-0.175358184528351
0.709872804360993,-0.015017520904540999,0.276900183105469,-1.22437673921585
0.710478497880073,-0.010227481842041,0.15714920654296902,0.636553436565399
0.711084191399152,-0.22817425918579098,0.250554968261719,1.32392404203415
0.711689884918231,-0.8436942787170411,-0.14222823486328098,-0.551376250934601
0.712295578437311,-0.6425126380920411,-0.633207238769531,-1.4662737118720999
0.71290127195639,0.452011287689209,0.0948786987304688,-0.314269317340851
0.713506965475469,0.8926948814392089,-0.0152921997070312,1.3837995303154
0.714112658994549,0.787314022064209,-0.14222823486328098,0.46650704984664904
0.714718352513628,-0.16829877090454098,-0.317064660644531,-1.4135832821846
0.715324046032707,-0.49881146621704103,-0.118278039550781,-0.587301543903351
0.715929739551787,-0.352715274810791,0.0637434448242188,1.1299274600029001
0.716535433070866,-0.156323673248291,-0.391310266113281,0.35633615140914904
0.717141126589945,-0.608982364654541,-0.25000411376953097,-1.61236990327835
0.717746820109025,-0.062917911529541,-0.027267297363281203,-0.781298125934601
0.718352513628104,0.784919002532959,0.250554968261719,1.3167389834404
0.718958207147184,0.17418902206420903,0.22181473388671902,0.715589081096649
0.719563900666263,0.14544878768920902,-0.245214074707031,-1.04235525484085
0.720169594185342,-0.23296429824829099,0.149964147949219,-0.704657500934601
0.720775287704422,-0.019807559967041,0.36791092529296904,1.2448883975029
0.721380981223501,0.049648006439209,-0.108697961425781,0.914375702190399
0.72198667474258,-0.47725629043579104,-0.0679826293945312,-1.3225725399971
0.72259236826166,-0.254519474029541,0.0637434448242188,-0.886678985309601
0.723198061780739,0.322680233001709,0.528377233886719,0.904795624065399
0.723803755299818,0.396925838470459,0.583462683105469,1.1442975771904
0.724409448818898,0.27956988143920897,0.00386795654296875,-0.678312286090851
0.725015142337977,0.109523494720459,0.228999792480469,-0.8148283993721009
0.725620835857056,0.178979061126709,-0.005712121582031249,0.959881073284149
0.726226529376136,-0.12997845840454098,0.018238073730468797,1.0149665225029
0.726832222895215,-0.934705020904541,-0.008107141113281249,-0.905839141559601
0.727437916414294,-0.549106876373291,-0.475135949707031,-1.6195549618721
0.728043609933374,0.5334419517517089,0.102063757324219,0.22940011625289902
0.728649303452453,0.9741255455017089,0.219419714355469,1.35266427640915
0.729254996971532,0.629242733001709,-0.0871427856445312,0.500037323284149
0.729860690490612,-0.424565860748291,0.44934158935546903,-0.960924590778351
0.730466384009691,-0.381455509185791,0.13080399169921902,0.10006906156539899
0.73107207752877,-0.285654727935791,0.0972737182617188,1.4652301943779
0.73167777104785,-0.644907657623291,-0.130253137207031,-0.659152129840851
0.732283464566929,-0.618562442779541,-0.587701867675781,-1.8446867978096
0.732889158086008,0.284359920501709,0.0517683471679688,-0.24960378999710098
0.733494851605088,1.1417769126892099,0.0373982299804688,1.6688068545341501
0.734100545124167,0.902274959564209,-0.008107141113281249,0.545542694377899
0.734706238643246,-0.256914493560791,-0.204498742675781,-1.2866472470283499
0.735311932162326,-0.266494571685791,0.018238073730468797,-0.211283477497101
0.735917625681405,-0.077288028717041,0.195469519042969,1.1682477725029001
0.736523319200485,-0.19464398574829098,-0.446395715332031,0.468902069377899
0.737129012719564,-0.343135196685791,-0.302694543457031,-1.5716545712471
0.737734706238643,-0.323975040435791,0.020633093261718798,-0.996849883747101
0.738340399757723,0.346630428314209,0.310430456542969,1.3885895693779
0.738946093276802,0.679538143157959,0.178704382324219,0.998201385784149
0.739551786795881,0.281964900970459,-0.47992598876953096,-0.9154192196846009
0.740157480314961,-0.201829044342041,0.0134480346679688,-0.936974395465851
0.74076317383404,-0.180273868560791,0.188284460449219,1.0532868350029
0.741368867353119,-0.079683048248291,-0.0320573364257812,0.806599823284149
0.741974560872199,-0.295234806060791,-0.30029952392578096,-1.0591203915596
0.742580254391278,-0.13955853652954098,-0.355384973144531,-0.996849883747101
0.743185947910357,0.437641170501709,0.482871862792969,0.698823944377899
0.743791641429437,0.353815486907959,0.5810676635742189,0.955091034221649
0.744397334948516,0.15981890487670902,-0.027267297363281203,-0.606461700153351
0.745003028467595,-0.403010684967041,0.126013952636719,-0.786088164997101
0.745608721986675,-0.019807559967041,0.202654577636719,0.634158417034149
0.746214415505754,-0.108423282623291,0.0924836791992188,1.0916071475029
0.746820109024833,-0.779028751373291,0.0326081909179688,-0.992059844684601
0.747425802543913,-0.6640678138732911,-0.312274621582031,-1.5381242978096
0.748031496062992,0.353815486907959,-0.123068078613281,0.028218475627899
0.748637189582071,0.856769588470459,-0.022477258300781202,1.25207345609665
0.749242883101151,0.38974077987670896,-0.125463098144531,0.083303924846649
0.74984857662023,-0.443726016998291,0.202654577636719,-1.5141741024971
0.75045427013931,-0.44851605606079104,0.149964147949219,0.41621163969039904
0.751059963658389,-0.137163516998291,0.22181473388671902,1.52031564359665
0.751665657177468,-0.520366641998291,-0.190128625488281,-0.6950774228096009
0.752271350696547,-0.659277774810791,-0.5230363403320311,-1.87582205171585
0.752877044215627,0.21011431503295902,-0.0368473754882812,-0.192123321247101
0.753482737734706,0.988495662689209,-0.106302941894531,1.59695626859665
0.754088431253786,0.6531929283142089,-0.216473840332031,0.368311249065399
0.754694124772865,-0.350320255279541,-0.245214074707031,-1.4040032040596
0.755299818291944,-0.49881146621704103,-0.044032434082031204,-0.5154509579658509
0.755905511811024,-0.113213321685791,-0.0105021606445312,1.52031564359665
0.756511205330103,-0.216199161529541,-0.25958419189453097,0.409026581096649
0.757116898849182,-0.534736759185791,-0.14701827392578098,-1.71296072359085
0.757722592368262,-0.41977582168579103,0.10445877685546899,-0.9154192196846009
0.758328285887341,0.7346235923767089,0.365515905761719,1.31913400297165
0.75893397940642,0.540627010345459,0.118828894042969,1.09879220609665
0.7595396729255,0.284359920501709,-0.0751676879882812,-0.781298125934601
0.760145366444579,-0.235359317779541,0.293665319824219,-0.137037872028351
0.760751059963658,-0.077288028717041,0.0541633666992188,1.95141915922165
0.761356753482738,-0.036572696685791,-0.223658898925781,0.780254608440399
0.761962447001817,-0.587427188873291,-0.149413293457031,-1.7536760556221
0.762568140520896,-0.16829877090454098,-0.345804895019531,-1.21479666109085
0.763173834039976,0.423271053314209,0.446946569824219,0.890425506877899
0.763779527559055,0.5358369712829589,0.731953894042969,1.4221198428154
0.764385221078134,0.334655330657959,-0.199708703613281,-0.529821075153351
0.764990914597214,0.31070513534545896,-0.0416374145507812,-1.10941580171585
0.765596608116293,-0.038967716217041,-0.000922082519531245,0.806599823284149
0.766202301635373,-0.314394962310791,0.264925085449219,1.1730378115654
0.766807995154452,-1.00416058731079,-0.0847477661132812,-0.970504668903351
0.767413688673531,-0.752683536529541,-0.37933516845703097,-1.4758537899971
0.768019382192611,0.5933174400329589,0.0469783081054688,0.37789132719039903
0.76862507571169,1.1034566001892099,-0.0823527465820312,1.31913400297165
0.769230769230769,0.619662654876709,0.00626297607421875,-0.120272735309601
0.769836462749849,-0.668857852935791,0.260135046386719,-1.0926506649971
0.770442156268928,-0.443726016998291,0.10924881591796899,0.15515451078414902
0.771047849788007,-0.44851605606079104,-0.09193282470703121,1.48199533109665
0.771653543307087,-0.649697696685791,-0.25000411376953097,-0.266368926715851
0.772259236826166,-0.558686954498291,-0.6403922973632811,-1.9548576962471
0.772864930345245,0.15502886581420902,-0.180548547363281,-0.333429473590851
0.773470623864325,0.990890682220459,-0.0392423950195312,1.6568317568779
0.774076317383404,0.571762264251709,-0.307484582519531,0.586258026409149
0.774682010902483,0.047252986907958996,-0.158993371582031,-1.67464041109085
0.775287704421563,-0.529946720123291,0.0805085815429688,-0.376539825153351
0.775893397940642,-0.364690372467041,0.0972737182617188,1.73107736234665
0.776499091459721,0.00174761581420901,-0.501481164550781,0.243770233440399
0.777104784978801,-0.41738080215454104,-0.5805168090820311,-1.4423235165596
0.77771047849788,-0.156323673248291,0.0829036010742188,-0.826803497028351
0.778316172016959,0.792104061126709,0.320010534667969,1.3167389834404
0.778921865536039,0.602897518157959,0.420601354980469,1.1442975771904
0.779527559055118,0.126288631439209,-0.324249719238281,-1.14294607515335
0.780133252574197,-0.335950138092041,-0.101512902832031,-1.06630545015335
0.780738946093277,-0.019807559967041,0.209839636230469,1.00299142484665
0.781344639612356,-0.00783246231079099,-0.127858117675781,1.0963971865654
0.781950333131435,-0.470071231842041,-0.170968469238281,-1.3465227353095999
0.782556026650515,-0.086868106842041,-0.175758508300781,-1.18605642671585
0.783161720169594,0.346630428314209,0.7798542846679689,1.11795236234665
0.783767413688674,0.064018123626709,0.6409431518554689,1.19938302640915
0.784373107207753,0.152633846282959,-0.022477258300781202,-0.534611114215851
0.784978800726832,0.080783260345459,0.0996687377929688,-0.867518829059601
0.785584494245912,0.061623104095459,-0.199708703613281,0.588653045940399
0.786190187764991,-0.050942813873291,0.128408972167969,1.0197565615654
0.78679588128407,-0.908359806060791,0.315220495605469,-1.0447502743721
0.78740157480315,-0.5419218177795411,-0.412865441894531,-1.3800530087471
0.788007268322229,0.404110897064209,-0.0200822387695312,0.313225799846649
0.788612961841308,1.27829302597046,0.16672928466796902,1.2736286318779
0.789218655360388,0.626847713470459,-0.288324426269531,-0.055607207965851
0.789824348879467,-0.367085391998291,0.552327429199219,-0.956134551715851
0.790430042398546,-0.261704532623291,0.377491003417969,0.806599823284149
0.791035735917626,-0.573057071685791,-0.0584025512695312,1.78376779203415
0.791641429436705,-0.771843692779541,-0.214078820800781,-0.393304961872101
0.792247122955784,-0.7838187904357911,-0.6403922973632811,-2.1728044735908503
0.792852816474864,0.080783260345459,0.0781135620117188,-0.33103445405960097
0.793458509993943,0.758573787689209,-0.0607975708007812,1.93704904203415
0.794064203513022,0.7753389244079589,-0.0560075317382812,0.756304413127899
0.794669897032102,-0.034177677154541,-0.0799577270507812,-1.49740896577835
0.795275590551181,-0.098843204498291,-0.324249719238281,-0.316664336872101
0.79588128407026,-0.067707950592041,-0.024872277832031203,1.36224435453415
0.79648697758934,-0.41738080215454104,-0.432025598144531,0.23419015531539902
0.797092671108419,-0.49881146621704103,-0.551776574707031,-1.6722453915596
0.797698364627498,-0.000647403717040988,-0.0392423950195312,-0.683102325153351
0.798304058146578,0.801684139251709,0.42778641357421904,1.6233014834404
0.798909751665657,0.437641170501709,0.382281042480469,1.03652169828415
0.799515445184736,0.171794002532959,-0.106302941894531,-1.14773611421585
0.800121138703816,-0.058127872467041,-0.125463098144531,-0.857938750934601
0.800726832222895,0.14544878768920902,0.18109940185546902,0.9407209170341491
0.801332525741975,-0.026992618560791,0.0757185424804688,0.902400604534149
0.801938219261054,-0.412590763092041,-0.046427453613281204,-1.28185720796585
0.802543912780133,-0.19464398574829098,-0.123068078613281,-1.32017752046585
0.803149606299213,0.32028521347045896,0.291270300292969,1.1107673037529
0.803755299818292,0.356210506439209,0.6792634643554689,1.3885895693779
0.804360993337371,0.011327693939209,0.042188269042968796,-0.537006133747101
0.804966686856451,0.0065376548767090105,0.0110530151367188,-0.8747038876533509
0.80557238037553,0.226879451751709,0.123618933105469,1.0005964053154
0.806178073894609,-0.13955853652954098,0.0469783081054688,1.2257282412529
0.806783767413689,-1.10954144668579,0.0733235229492188,-0.9154192196846009
0.807389460932768,-0.757473575592041,-0.32903975830078097,-1.53572927827835
0.807995154451847,0.519071834564209,-0.111092980957031,0.298855682659149
0.808600847970927,1.11064165878296,0.250554968261719,1.56821603422165
0.809206541490006,0.684328182220459,-0.17815352783203098,0.116834198284149
0.809812235009085,-0.256914493560791,0.14756912841796901,-1.0974407040596
0.810417928528165,-0.335950138092041,0.13080399169921902,0.373101288127899
0.811023622047244,-0.283259708404541,-0.118278039550781,1.5275007021904001
0.811629315566323,-0.865249454498291,-0.367360070800781,-0.319059356403351
0.812235009085403,-0.515576602935791,-0.606862023925781,-1.86145193452835
0.812840702604482,0.20532427597045902,-0.0703776489257812,-0.26157888765335097
0.813446396123562,0.947780330657959,0.039793249511718795,1.6185114443779
0.814052089642641,0.887904842376709,-0.13743819580078098,0.308435760784149
0.81465778316172,-0.27846966934204104,-0.09432784423828121,-1.57883962984085
0.815263476680799,-0.534736759185791,0.0350032104492188,-0.328639434528351
0.815869170199879,-0.18985394668579098,-0.0967228637695312,1.71191720609665
0.816474863718958,-0.381455509185791,-0.348199914550781,0.605418182659149
0.817080557238038,-0.731128360748291,-0.496691125488281,-1.46387869234085
0.817686250757117,-0.376665470123291,-0.0655876098632812,-0.666337188434601
0.818291944276196,0.454406307220459,0.46850174560546903,1.3646393740654
0.818897637795276,0.605292537689209,0.262530065917969,1.1466925967216501
0.819503331314355,0.15981890487670902,-0.24281905517578098,-1.0064299618721
0.820109024833434,-0.12997845840454098,0.023028112792968798,-0.479525664997101
0.820714718352514,0.099943416595459,0.14756912841796901,1.4173298037529
0.821320411871593,0.147843807220459,-0.199708703613281,0.895215545940399
0.821926105390672,-0.441330997467041,-0.17815352783203098,-1.00403494234085
0.822531798909752,-0.494021427154541,-0.14701827392578098,-1.0447502743721
0.823137492428831,0.030487850189209,0.396651159667969,0.799414764690399
0.82374318594791,0.38016070175170896,0.446946569824219,1.46283517484665
0.82434887946699,0.27956988143920897,0.00626297607421875,-0.275949004840851
0.824954572986069,0.0065376548767090105,0.17151932373046902,-0.910629180622101
0.825560266505148,0.114313533782959,-0.008107141113281249,0.9215607607841491
0.826165960024228,0.0065376548767090105,0.135594030761719,1.0772370303154
0.826771653543307,-0.6041923255920411,0.0254231323242188,-0.766928008747101
0.827377347062386,-0.793398868560791,-0.331434777832031,-1.41118826265335
0.827983040581466,0.303520076751709,0.0254231323242188,0.064143768596649
0.828588734100545,0.799289119720459,-0.022477258300781202,1.48678537015915
0.829194427619624,0.461591365814209,-0.170968469238281,0.10246408109664899
0.829800121138704,-0.424565860748291,0.17630936279296902,-1.3608928524971
0.830405814657783,-0.37906048965454103,0.0326081909179688,-0.038842071247101005
0.831011508176863,-0.273679630279541,0.13080399169921902,1.14190255765915
0.831617201695942,-0.678437931060791,-0.0727726684570312,-0.22325857515335099
0.832222895215021,-0.688018009185791,-0.5781217895507811,-1.7776262509346
0.8328285887341,0.277174861907959,0.0134480346679688,-0.36216970796585096
0.83343428225318,1.0579512290954598,0.197864538574219,1.62090646390915
0.834039975772259,0.696303279876709,-0.005712121582031249,0.442556854534149
0.834645669291339,-0.15392865371704098,-0.32903975830078097,-1.4758537899971
0.835251362810418,-0.453306095123291,-0.0871427856445312,-0.522636016559601
0.835857056329497,-0.043757755279541004,0.267320104980469,1.4460700381279001
0.836462749848577,-0.103633243560791,-0.563751672363281,0.243770233440399
0.837068443367656,-0.120398380279541,-0.472740930175781,-1.4327434384346
0.837674136886735,-0.041362735748291,0.24576492919921902,-0.484315704059601
0.838279830405815,0.5549971275329589,0.22181473388671902,1.5801911318779
0.838885523924894,0.42087603378295896,0.17151932373046902,1.11316232328415
0.839491217443973,0.080783260345459,-0.281139367675781,-1.1980315243721
0.840096910963053,-0.290444766998291,0.00386795654296875,-1.16210623140335
0.840702604482132,-0.029387638092041,0.205049597167969,0.8209699404716491
0.841308298001211,-0.046152774810791004,-0.295509484863281,1.1538776553154
0.841913991520291,-0.386245548248291,-0.226053918457031,-1.0351701962471
0.84251968503937,-0.35990033340454103,-0.0560075317382812,-1.18126638765335
0.843125378558449,0.21490435409545902,0.482871862792969,0.971856170940399
0.843731072077529,0.277174861907959,0.502032019042969,1.4460700381279001
0.844336765596608,0.109523494720459,-0.23323897705078098,-0.151407989215851
0.844942459115687,0.030487850189209,0.243369909667969,-1.11899587984085
0.845548152634767,0.16460894393920902,0.121223913574219,0.610208221721649
0.846153846153846,0.052043025970459,-0.25958419189453097,1.3311091006279
0.846759539672925,-0.989790470123291,0.238579870605469,-0.896259063434601
0.847365233192005,-0.726338321685791,-0.271559289550781,-1.46866873140335
0.847970926711084,0.15502886581420902,0.042188269042968796,0.071328827190399
0.848576620230164,0.763363826751709,0.169124304199219,1.44846505765915
0.849182313749243,0.576552303314209,-0.393705285644531,0.749119354534149
0.849788007268322,-0.094053165435791,0.193074499511719,-0.759742950153351
0.850393700787402,-0.25212445449829096,0.133199011230469,0.27730050687789903
0.850999394306481,-0.441330997467041,-0.0727726684570312,1.8292731631279
0.85160508782556,-0.699993106842041,-0.283534387207031,0.052168670940398995
0.85221078134464,-0.628142520904541,-0.5374064575195311,-1.7967864071846
0.852816474863719,0.178979061126709,-0.024872277832031203,-0.21367849702835098
0.853422168382798,1.05555620956421,-0.09193282470703121,1.9011237490654
0.854027861901878,0.662773006439209,-0.09193282470703121,0.409026581096649
0.854633555420957,-0.242544376373291,-0.0344523559570312,-1.4519035946846
0.855239248940036,-0.333555118560791,0.0948786987304688,-0.366959747028351
0.855844942459116,-0.122793399810791,0.188284460449219,1.2400983584404
0.856450635978195,-0.242544376373291,-0.338619836425781,0.452136932659149
0.857056329497274,-0.460491153717041,-0.331434777832031,-1.4375334774971
0.857662023016354,-0.12997845840454098,0.116433874511719,-0.707052520465851
0.858267716535433,0.523861873626709,0.38946610107421903,1.2113581240654
0.858873410054512,0.590922420501709,0.193074499511719,0.979041229534149
0.859479103573592,0.341840389251709,-0.32903975830078097,-0.848358672809601
0.860084797092671,-0.000647403717040988,-0.0991178833007812,-1.2866472470283499
0.86069049061175,0.255619686126709,0.20744461669921901,0.962276092815399
0.86129618413083,0.116708553314209,-0.022477258300781202,1.13711251859665
0.861901877649909,-0.393430606842041,-0.0584025512695312,-1.11420584077835
0.862507571168988,-0.30960492324829103,-0.0799577270507812,-1.0160100399971
0.863113264688068,0.485541561126709,0.296060339355469,0.722774139690399
0.863718958207147,0.286754940032959,0.525982214355469,1.16585275297165
0.864324651726227,0.104733455657959,-0.00331710205078125,-0.072372344684601
0.864930345245306,0.056833065032959,0.0302131713867188,-0.8555437314033509
0.865536038764385,0.008932674407959008,0.233789831542969,0.737144256877899
0.866141732283465,-0.118003360748291,0.20744461669921901,1.2688385928154
0.866747425802544,-0.874829532623291,0.135594030761719,-0.592091582965851
0.867353119321623,-0.690413028717041,-0.29071944580078096,-1.2363518368721
0.867958812840703,0.21011431503295902,0.0781135620117188,-0.007706817340851
0.868564506359782,0.861559627532959,0.154754187011719,1.3454792178154
0.869170199878861,0.475961483001709,-0.101512902832031,0.392261444377899
0.869775893397941,-0.14913861465454098,0.334380651855469,-0.968109649372101
0.87038158691702,-0.443726016998291,0.116433874511719,0.181499725627899
0.870987280436099,-0.426960880279541,0.0493733276367188,1.4077497256279001
0.871592973955179,-0.630537540435791,-0.14222823486328098,-0.07955740327835101
0.872198667474258,-0.6640678138732911,-0.465555871582031,-1.83271170015335
0.872804360993337,0.36100054550170896,-0.166178430175781,-0.414860137653351
0.873410054512417,0.9741255455017089,0.0829036010742188,1.36224435453415
0.874015748031496,0.7537837486267089,0.039793249511718795,0.435371795940399
0.874621441550575,-0.33834515762329104,-0.25958419189453097,-1.13336599702835
0.875227135069655,-0.599402286529541,-0.204498742675781,-0.6759172665596009
0.875832828588734,-0.09165814590454101,-0.175758508300781,1.28081369047165
0.876438522107813,-0.254519474029541,-0.170968469238281,0.401841522502899
0.877044215626893,-0.5634769935607911,-0.455975793457031,-1.42555837984085
0.877649909145972,-0.034177677154541,-0.0823527465820312,-0.678312286090851
0.878255602665051,0.504701717376709,0.456526647949219,1.30476388578415
0.878861296184131,0.559787166595459,0.33917069091796903,1.20896310453415
0.87946698970321,0.32986529159545896,-0.0799577270507812,-0.936974395465851
0.880072683222289,-0.026992618560791,-0.16857344970703098,-1.30580740327835
0.880678376741369,0.157423885345459,0.13080399169921902,1.41493478422165
0.881284070260448,-0.036572696685791,0.197864538574219,1.0532868350029
0.881889763779528,-0.24493939590454097,-0.0512174926757812,-1.1692912899971
0.882495457298607,-0.558686954498291,-0.185338586425781,-0.999244903278351
0.883101150817686,0.267594783782959,0.303245397949219,0.40663156156539904
0.883706844336766,0.447221248626709,0.490056921386719,1.49157540922165
0.884312537855845,0.212509334564209,0.0781135620117188,-0.383724883747101
0.884918231374924,-0.15392865371704098,0.042188269042968796,-1.2746721493721
0.885523924894004,-0.053337833404541,-0.0344523559570312,0.650923553752899
0.886129618413083,0.128683650970459,-0.288324426269531,1.2017780459404
0.886735311932162,-0.517971622467041,0.0972737182617188,-0.685497344684601
0.887341005451242,-0.8412992591857911,-0.21168380126953099,-1.73691091890335
0.887946698970321,0.028092830657959,-0.135043176269531,-0.366959747028351
0.8885523924894,0.907064998626709,0.233789831542969,1.21854318265915
0.88915808600848,0.763363826751709,-0.21168380126953099,0.253350311565399
0.889763779527559,-0.19943402481079098,0.183494421386719,-1.2363518368721
0.890369473046638,-0.283259708404541,0.310430456542969,0.013848358440399
0.890975166565718,-0.146743595123291,-0.048822473144531205,1.21854318265915
0.891580860084797,-0.8436942787170411,-0.30029952392578096,0.037798553752899
0.892186553603876,-0.561081974029541,-0.6403922973632811,-1.6075798642158499
0.892792247122956,0.020907772064208997,-0.0799577270507812,-0.625621856403351
0.893397940642035,0.899879940032959,-0.0416374145507812,1.75502755765915
0.894003634161115,0.907064998626709,-0.261979211425781,0.734749237346649
0.894609327680194,-0.24972943496704098,-0.326644738769531,-1.3369426571846
0.895215021199273,-0.431750919342041,0.135594030761719,-0.819618438434601
0.895820714718352,-0.137163516998291,0.0373982299804688,1.3215290225029
0.896426408237432,-0.18985394668579098,-0.175758508300781,0.689243866252899
0.897032101756511,-0.405405704498291,-0.0655876098632812,-1.2603020321846
0.897637795275591,-0.395825626373291,-0.106302941894531,-0.714237579059601
0.89824348879467,0.41848101425170897,0.293665319824219,0.957486053752899
0.898849182313749,0.6531929283142089,0.11164383544921899,1.1778278506279
0.899454875832829,0.368185604095459,-0.170968469238281,-0.529821075153351
0.900060569351908,-0.019807559967041,-0.046427453613281204,-1.4471135556221
0.900666262870987,0.119103572845459,0.0709285034179688,0.574282928752899
0.901271956390067,0.092758358001709,0.17151932373046902,1.23291329984665
0.901877649909146,-0.35750531387329104,-0.0320573364257812,-0.929789336872101
0.902483343428225,-0.12997845840454098,-0.21168380126953099,-1.15252615327835
0.903089036947305,0.171794002532959,0.475686804199219,0.713194061565399
0.903694730466384,0.40890093612670897,0.552327429199219,1.39577462797165
0.904300423985463,0.26040972518920896,-0.008107141113281249,-0.386119903278351
0.904906117504543,0.16939898300170902,0.0110530151367188,-1.18126638765335
0.905511811023622,0.217299373626709,0.200259558105469,0.32759591703414903
0.906117504542701,-0.13476849746704098,0.0278181518554688,1.2400983584404
0.906723198061781,-0.692808048248291,0.0326081909179688,-0.292714141559601
0.90732889158086,-0.714363224029541,-0.30029952392578096,-1.6530852353096
0.907934585099939,0.43045611190795896,-0.0847477661132812,-0.278344024372101
0.908540278619019,0.7130684165954589,0.255345007324219,1.2927887881279
0.909145972138098,0.7130684165954589,-0.158993371582031,0.586258026409149
0.909751665657177,-0.311999942779541,0.202654577636719,-0.805248321247101
0.910357359176257,-0.527551700592041,0.286480261230469,0.116834198284149
0.910963052695336,-0.28804974746704104,0.116433874511719,1.75502755765915
0.911568746214416,-0.870039493560791,0.039793249511718795,0.09048898344039899
0.912174439733495,-0.611377384185791,-0.396100305175781,-1.6195549618721
0.912780133252574,0.020907772064208997,-0.0991178833007812,-0.513055938434601
0.913385826771653,0.708278377532959,-0.0512174926757812,1.77897775297165
0.913991520290733,0.787314022064209,-0.09432784423828121,0.797019745159149
0.914597213809812,-0.041362735748291,-0.08953780517578121,-1.6842204892158499
0.915202907328892,-0.640117618560791,-0.0584025512695312,-0.776508086872101
0.915808600847971,-0.34792523574829104,0.260135046386719,1.5083405459404
0.91641429436705,-0.170693790435791,-0.341014855957031,0.722774139690399
0.91701998788613,-0.27846966934204104,-0.441605676269531,-1.43034841890335
0.917625681405209,-0.491626407623291,-0.09193282470703121,-0.757347930622101
0.918231374924288,0.540627010345459,0.360725866699219,1.06526193265915
0.918837068443368,0.672353084564209,0.35833084716796904,0.9215607607841491
0.919442761962447,0.183769100189209,-0.204498742675781,-0.740582793903351
0.920048455481526,-0.122793399810791,-0.20689376220703098,-1.03277517671585
0.920654149000606,-0.038967716217041,0.08769364013671879,0.722774139690399
0.921259842519685,-0.220989200592041,-0.0775627075195312,1.1778278506279
0.921865536038764,-0.529946720123291,-0.23802901611328098,-0.881888946247101
0.922471229557844,-0.355110294342041,-0.163783410644531,-1.4135832821846
0.923076923076923,0.28914995956420897,0.387071081542969,0.246165252971649
0.923682616596002,0.456801326751709,0.8373347534179689,1.48678537015915
0.924288310115082,0.377765682220459,-0.0560075317382812,-0.110692657184601
0.924894003634161,-0.024597599029541003,0.020633093261718798,-1.2794621884346
0.92549969715324,0.123893611907959,-0.022477258300781202,0.392261444377899
0.92610539067232,0.078388240814209,-0.307484582519531,1.4796003115654
0.926711084191399,-0.699993106842041,0.248159948730469,-0.477130645465851
0.927316777710478,-0.671252872467041,-0.120673059082031,-1.7201457821846
0.927922471229558,0.231669490814209,-0.0847477661132812,-0.08434744234085101
0.928528164748637,1.02921099472046,0.0733235229492188,1.3861945498466501
0.929133858267717,0.545417049407959,-0.0775627075195312,0.373101288127899
0.929739551786796,0.030487850189209,0.149964147949219,-0.822013457965851
0.930345245305875,-0.165903751373291,0.209839636230469,0.15036447172164902
0.930950938824954,-0.25930951309204103,-0.000922082519531245,1.11316232328415
0.931556632344034,-0.606587345123291,-0.130253137207031,0.176709686565399
0.932162325863113,-0.678437931060791,-0.348199914550781,-1.6914055478096
0.932768019382193,-0.00304242324829099,-0.008107141113281249,-0.783693145465851
0.933373712901272,0.928620174407959,0.0326081909179688,1.60174630765915
0.933979406420351,0.887904842376709,-0.0392423950195312,0.883240448284149
0.934585099939431,-0.146743595123291,-0.046427453613281204,-1.2363518368721
0.93519079345851,-0.47965130996704103,-0.0200822387695312,-0.733397735309601
0.935796486977589,-0.295234806060791,0.15235916748046902,1.2161481631279
0.936402180496669,-0.240149356842041,-0.16857344970703098,0.816179901409149
0.937007874015748,-0.26888959121704104,-0.467950891113281,-1.18126638765335
0.937613567534827,-0.146743595123291,0.17630936279296902,-0.747767852497101
0.938219261053907,0.660377986907959,0.494846960449219,1.17064279203415
0.938824954572986,0.590922420501709,0.27929520263671903,1.07484201078415
0.939430648092065,0.15981890487670902,-0.0727726684570312,-0.383724883747101
0.940036341611145,-0.321580020904541,-0.240424035644531,-0.860333770465851
0.940642035130224,0.016117733001709,0.315220495605469,1.2353083193779
0.941247728649303,0.00414263534545901,-0.14222823486328098,1.3358991396904
0.941853422168383,-0.307209903717041,-0.0799577270507812,-0.7956682431221009
0.942459115687462,-0.23296429824829099,-0.257189172363281,-1.07588552827835
0.943064809206541,0.013722713470459,0.26971512451171903,0.480877167034149
0.943670502725621,0.243644588470459,0.7606941284179689,1.31913400297165
0.9442761962447,0.19095415878295902,-0.0584025512695312,0.083303924846649
0.94488188976378,0.111918514251709,0.023028112792968798,-0.790878204059601
0.945487583282859,0.35860552597045897,0.0565583862304688,0.162339569377899
0.946093276801938,-0.070102970123291,0.126013952636719,1.0820270693779
0.946698970321018,-0.757473575592041,0.396651159667969,-0.398095000934601
0.947304663840097,-0.8029789466857911,-0.15180831298828099,-1.6818254696846
0.947910357359176,-0.101238224029541,0.0517683471679688,-0.697472442340851
0.948516050878256,0.935805233001709,0.29845535888671904,1.3861945498466501
0.949121744397335,0.959755428314209,-0.14222823486328098,0.7610944521903991
0.949727437916414,-0.19464398574829098,0.178704382324219,-1.17168630952835
0.950333131435494,-0.549106876373291,0.27929520263671903,-0.038842071247101005
0.950938824954573,-0.331160099029541,0.0517683471679688,1.17543283109665
0.951544518473652,-0.6832279701232911,-0.0416374145507812,0.011453338909149
0.952150211992732,-0.649697696685791,-0.654762414550781,-1.27227712984085
0.952755905511811,-0.113213321685791,-0.170968469238281,-0.592091582965851
0.95336159903089,0.696303279876709,0.08769364013671879,1.1442975771904
0.95396729254997,0.840004451751709,-0.20210372314453098,0.878450409221649
0.954572986069049,0.00174761581420901,-0.139833215332031,-1.22916677827835
0.955178679588128,-0.47725629043579104,-0.240424035644531,-0.970504668903351
0.955784373107208,0.066413143157959,0.200259558105469,1.04131173734665
0.956390066626287,-0.074893009185791,-0.245214074707031,0.610208221721649
0.956995760145366,-0.44851605606079104,-0.585306848144531,-1.22916677827835
0.957601453664446,-0.513181583404541,-0.0152921997070312,-1.0974407040596
0.958207147183525,0.181374080657959,-0.008107141113281249,1.0700519717216501
0.958812840702604,0.665168025970459,0.272110144042969,1.22333322172165
0.959418534221684,0.16460894393920902,0.0924836791992188,-0.314269317340851
0.960024227740763,-0.086868106842041,-0.113488000488281,-1.0639104306221
0.960629921259842,0.198139217376709,-0.0176872192382812,0.538357635784149
0.961235614778922,0.085573299407959,-0.005712121582031249,0.995806366252899
0.961841308298001,-0.5227616615295411,-0.0703776489257812,-0.757347930622101
0.962447001817081,-0.520366641998291,-0.31945968017578097,-1.2028215634346
0.96305269533616,0.425666072845459,0.142779089355469,0.363521210002899
0.963658388855239,0.33944536972045897,0.552327429199219,1.1730378115654
0.964264082374319,0.317890193939209,0.24097489013671902,-0.14422293062210098
0.964869775893398,0.013722713470459,-0.046427453613281204,-0.853148711872101
0.965475469412477,0.313100154876709,0.0924836791992188,0.138389374065399
0.966081162931557,0.372975643157959,0.09008865966796879,1.3837995303154
0.966686856450636,-0.673647891998291,0.317615515136719,-0.378934844684601
0.967292549969715,-0.577847110748291,-0.21168380126953099,-1.7656511532783499
0.967898243488795,-0.026992618560791,-0.25958419189453097,-0.268763946247101
0.968503937007874,0.669958065032959,-0.0344523559570312,1.34308419828415
0.969109630526953,0.629242733001709,-0.0751676879882812,0.507222381877899
0.969715324046033,-0.084473087310791,0.23618485107421902,-0.539401153278351
0.970321017565112,-0.156323673248291,0.16193924560546902,-0.065187286090851
0.970926711084191,-0.34792523574829104,-0.0368473754882812,1.56342599515915
0.971532404603271,-0.867644474029541,0.018238073730468797,0.897610565471649
0.97213809812235,-0.740708438873291,-0.393705285644531,-1.5812346493721
0.972743791641429,-0.165903751373291,-0.317064660644531,-1.00403494234085
0.973349485160509,0.8328193931579589,-0.0392423950195312,0.904795624065399
0.973955178679588,0.883114803314209,-0.352989953613281,0.962276092815399
0.974560872198667,-0.177878849029541,-0.163783410644531,-1.0734905087471
0.975166565717747,-0.5036015052795411,-0.120673059082031,-1.2483269345283499
0.975772259236826,-0.350320255279541,0.0302131713867188,1.0484967959404001
0.976377952755905,-0.31918500137329103,-0.15180831298828099,0.991016327190399
0.976983646274985,-0.340740177154541,-0.400890344238281,-1.21479666109085
