Time (s),Accel X (m/s^2),Accel Y (m/s^2),Accel Z (m/s^2)
0.0,-0.103491413497925,0.0120618235588074,-0.13702234182357798
0.000605693519079346,-0.0340358470916748,0.0863074290275574,0.399462033176422
0.00121138703815869,0.193491008377075,0.014456843090057401,0.260550900363922
0.00181708055723804,-0.223242390060425,-0.18432977800369302,0.116849728488922
0.00242277407631738,-0.24719258537292502,-0.217860051441193,0.0905045136451723
0.00302846759539673,0.200676066970825,-0.11726923112869299,-0.184922732448578
0.00363416111447607,-0.163366901779175,0.0647522532463074,0.171935177707672
0.00423985463355542,0.0282346607208252,-0.162774602222443,0.0306290253639222
0.00484554815263477,0.06894999275207521,-0.0334435475349426,0.0473941620826723
0.00545124167171411,-0.230427448654175,-0.00470331315994262,0.205465451145172
0.00605693519079346,-0.0819362377166748,-0.12445428972244299,0.255760861301422
0.0066626287098728,0.00907450447082519,8.67259025573771e-05,0.234205685520172
0.00726832222895215,-0.156181843185425,-0.08373895769119259,0.159960080051422
0.0078740157480315,0.0833201099395752,0.040802057933807395,0.028234005832672198
0.00847970926711084,0.159960734939575,0.0120618235588074,0.20786047067642202
0.00908540278619019,-0.0292458080291748,-0.32084589128494295,0.298871212863922
0.00969109630526953,0.0306296802520752,-0.0262584889411926,-0.06756677541732771
0.0102967898243489,-0.170551960372925,-0.019073430347442598,-0.0531966582298277
0.0109024833434282,0.10248026618957501,-0.0573937428474426,0.00428381052017225
0.0115081768625076,0.042604777908325196,0.17013311262130698,0.459337521457672
0.0121138703815869,0.174330852127075,-0.155589543628693,-0.06517175588607771
0.0127195639006663,0.0162595630645752,0.0192468821525574,-0.034036501979827695
0.0133252574197456,-0.046010944747924803,0.196478327465057,0.104874630832672
0.013930950938825,0.06415995368957521,-0.0358385670661926,-0.0795418730735777
0.0145366444579043,-0.134626667404175,0.16534307355880698,0.24857580270767202
0.0151423379769836,0.0114695240020752,-0.162774602222443,0.126429806613922
0.015748031496063,-0.055591022872924806,-0.177144719409943,0.18391027536392202
0.0163537250151423,0.229416301345825,-0.0430236256599426,0.121639767551422
0.0169594185342217,0.186305949783325,-0.167564641284943,0.234205685520172
0.017565112053301,-0.170551960372925,0.040802057933807395,-0.0460115996360777
0.0181708055723804,-0.168156940841675,-0.32803094987869297,-0.0579866972923277
0.0187764990914597,0.06894999275207521,-0.143614445972443,0.0186539277076722
0.0193821926105391,-0.139416706466675,-0.08613397722244259,0.169540158176422
0.0199878861296184,-0.0771461986541748,-0.12445428972244299,0.30366125192642196
0.0205935796486978,-0.06277608146667481,-0.12445428972244299,0.191095333957672
0.0211992731677771,-0.129836628341675,-0.102899113941193,0.24378576364517202
0.0218049666868564,0.121640422439575,0.0767273509025574,0.241390744113922
0.0224106602059358,0.0881101490020752,-0.0669738209724426,0.052184201145172304
0.0230163537250151,0.169540813064575,-0.0166784108161926,0.0449991425514223
0.0236220472440945,-0.321438190841675,-0.007098332691192619,0.308451290988922
0.0242277407631738,-0.115466511154175,0.0551721751213074,-0.038826541042327696
0.0248334342822532,0.0881101490020752,0.0479871165275574,0.186305294895172
0.0254391278013325,0.0761350513458252,-0.12924432878494302,0.258155880832672
0.0260448213204119,0.0833201099395752,-0.18911981706619302,-0.0963070097923277
0.0266505148394912,0.033024699783325194,-0.0238634694099426,0.0210489472389222
0.0272562083585706,0.10008524665832501,-0.136429387378693,0.167145138645172
0.0278619018776499,-0.0268507884979248,-0.00230829362869262,0.145589962863922
0.0284675953967293,0.140800578689575,0.12223272199630701,0.104874630832672
0.0290732889158086,-0.108281452560425,0.0479871165275574,0.224625607395172
0.0296789824348879,-0.0987013744354248,0.0527771555900574,0.0641592988014223
0.0302846759539673,-0.127441608810425,-0.07415887956619259,0.126429806613922
0.0308903694730466,0.040209758377075196,-0.0669738209724426,0.140799923801422
0.031496062992126,-0.0747511791229248,-0.141219426441193,0.176725216770172
0.0321017565112053,-0.23761250724792501,-0.07894891862869259,0.140799923801422
0.0327074500302847,-0.228032429122925,-0.07415887956619259,0.255760861301422
0.033313143549364,-0.0843312572479248,0.0240369212150574,0.267735958957672
0.0339188370684434,0.318032024002075,-0.0669738209724426,0.056974240207672305
0.0345245305875227,-0.172946979904175,-0.141219426441193,0.0641592988014223
0.0351302241066021,0.0234446216583252,-0.16995966081619301,0.126429806613922
0.0357359176256814,-0.165761921310425,-0.105294133472443,0.186305294895172
0.0363416111447607,-0.0603810619354248,-0.00230829362869262,0.0330240448951723
0.0369473046638401,0.255761516189575,-0.07176386003494259,-0.06756677541732771
0.0375529981829194,-0.105886433029175,0.11265264387130701,0.181515255832672
0.0381586917019988,0.0593699146270752,-0.047813664722442605,0.306056271457672
0.0387643852210781,0.0138645435333252,-0.153194524097443,0.22223058786392202
0.0393700787401575,-0.194502155685425,0.155762995433807,0.155170040988922
0.0399757722592368,-0.21126729240417502,-0.0214684498786926,0.21265050973892202
0.0405814657783162,-0.00769063224792481,-0.11487421159744299,-0.17534265432357798
0.0411871592973955,-0.144206745529175,-0.186724797534943,0.119244748020172
0.0417928528164749,-0.108281452560425,-0.0597887623786926,0.38269689645767196
0.0423985463355542,-0.0987013744354248,-0.07894891862869259,0.0258389863014222
0.0430042398546336,-0.0364308666229248,-0.34958612565994296,0.164750119113922
0.0436099333737129,-0.113071491622925,0.241983698558807,0.126429806613922
0.0442156268927922,0.042604777908325196,0.0216419016838074,0.0617642792701723
0.0448213204118716,0.210256145095825,-0.0406286061286926,0.0258389863014222
0.0454270139309509,-0.0867262767791748,0.00248174543380738,0.0833194550514223
0.0460327074500303,0.06894999275207521,-0.177144719409943,0.0114688691139222
0.0466384009691096,0.0545798755645752,0.045592096996307396,0.104874630832672
0.047244094488189,0.315637004470825,0.0887024485588074,-0.038826541042327696
0.0478497880072683,0.11445536384582501,-0.052603703784942606,0.0378140839576723
0.0484554815263477,-0.057986042404174806,-0.0597887623786926,0.0210489472389222
0.049061175045427,0.116850383377075,-0.0669738209724426,0.234205685520172
0.0496668685645064,-0.000505573654174813,-0.07176386003494259,0.29168615427017197
0.0502725620835857,-0.0699611400604248,0.0336169993400574,-0.129837283229828
0.050878255602665,0.10248026618957501,-0.411856633472443,0.056974240207672305
0.0514839491217444,0.10008524665832501,-0.007098332691192619,-0.0029012480735777497
0.0520896426408237,-0.172946979904175,-0.0334435475349426,-0.06517175588607771
0.0526953361599031,0.183910930252075,-0.107689153003693,0.15756506052017202
0.0533010296789824,-0.0915163158416748,0.167738093090057,0.265340939426422
0.0539067231980618,0.061764934158325194,-0.0981090748786926,-0.122652224636078
0.0545124167171411,0.0593699146270752,-0.0166784108161926,-0.0627767363548277
0.0551181102362205,-0.189712116622925,-0.0597887623786926,0.167145138645172
0.0557238037552998,0.174330852127075,0.09349248762130741,0.191095333957672
0.0563294972743792,-0.0723561595916748,-0.126849309253693,0.0402091034889223
0.0569351907934585,0.0497898365020752,8.67259025573771e-05,0.0641592988014223
0.0575408843125379,-0.0220607494354248,0.0743323313713074,0.27252599802017197
0.0581465778316172,0.116850383377075,-0.11247919206619299,0.0402091034889223
0.0587522713506965,-0.00290059318542481,-0.0286535084724426,0.052184201145172304
0.0593579648697759,-0.115466511154175,0.0839124094963074,0.121639767551422
0.0599636583888552,-0.115466511154175,0.038407038402557395,0.052184201145172304
0.0605693519079346,-0.376523640060425,-0.13403436784744302,0.169540158176422
0.0611750454270139,0.07374003181457521,-0.19869989519119302,0.102479611301422
0.0617807389460933,-0.163366901779175,-0.210674992847443,-0.012481326198577801
0.0623864324651726,-0.103491413497925,0.10307256574630701,-0.127442263698578
0.062992125984252,0.23181132087707498,-0.052603703784942606,0.14319494333267202
0.0635978195033313,0.183910930252075,0.100677546215057,0.298871212863922
0.0642035130224107,-0.20647725334167502,-0.0262584889411926,0.00188879098892225
0.06480920654149,0.0473948169708252,-0.07655389909744259,0.0665543183326723
0.0654149000605694,0.205466106033325,-0.0334435475349426,0.145589962863922
0.0660205935796487,-0.050800983810424805,-0.18911981706619302,0.18391027536392202
0.066626287098728,-0.0244557689666748,0.0767273509025574,-0.14660241994857798
0.0672319806178074,-0.0196657299041748,-0.19390985612869302,0.112059689426422
0.0678376741368867,0.06894999275207521,-0.0214684498786926,0.059369259738922306
0.0684433676559661,-0.0939113353729248,-0.0933190358161926,0.00428381052017225
0.0690490611750454,0.10727030525207501,0.0695422923088074,-0.0484066191673277
0.0696547546941248,-0.050800983810424805,0.287489069652557,-0.17055261526107798
0.0702604482132041,-0.103491413497925,-0.0430236256599426,0.308451290988922
0.0708661417322835,-0.148996784591675,-0.0214684498786926,-0.0268514433860778
0.0714718352513628,-0.105886433029175,0.0216419016838074,0.176725216770172
0.0720775287704422,0.23181132087707498,-0.0981090748786926,0.682074337863922
0.0726832222895215,-0.0987013744354248,0.0168518626213074,0.159960080051422
0.0732889158086008,-0.0915163158416748,0.09828252668380741,0.00428381052017225
0.0738946093276802,-0.110676472091675,0.0216419016838074,0.0761343964576723
0.0745003028467595,-0.0412209056854248,-0.08613397722244259,0.14319494333267202
0.0751059963658389,0.0258396411895752,-0.00230829362869262,0.231810665988922
0.0757116898849182,-0.00769063224792481,0.155762995433807,-0.0891219511985777
0.0763173834039976,-0.00769063224792481,-0.167564641284943,0.028234005832672198
0.0769230769230769,0.061764934158325194,-0.18432977800369302,0.0833194550514223
0.0775287704421563,-0.122651569747925,0.11025762434005701,-0.0436165801048277
0.0781344639612356,-0.156181843185425,0.0216419016838074,0.234205685520172
0.078740157480315,0.186305949783325,-0.019073430347442598,0.136009884738922
0.0793458509993943,-0.0939113353729248,-0.13882440690994302,-0.034036501979827695
0.0799515445184737,0.07374003181457521,-0.136429387378693,0.056974240207672305
0.080557238037553,-0.0867262767791748,-0.0238634694099426,-0.139417361354828
0.0811629315566323,0.0449997974395752,-0.0214684498786926,-0.00529626760482775
0.0817686250757117,0.07134501228332521,0.0671472727775574,0.365931759738922
0.082374318594791,-0.048405964279174804,-0.0286535084724426,0.102479611301422
0.0829800121138704,0.033024699783325194,-0.12205927019119299,0.00907384958267225
0.0835857056329497,-0.158576862716675,-0.0238634694099426,0.116849728488922
0.0841913991520291,0.15277567634582498,-0.0214684498786926,0.0905045136451723
0.0847970926711084,0.00907450447082519,-0.11487421159744299,0.234205685520172
0.0854027861901878,0.116850383377075,-0.07415887956619259,0.17912023630142201
0.0860084797092671,0.0210496021270752,-0.215465031909943,0.260550900363922
0.0866141732283465,0.0761350513458252,0.0623572337150574,-0.0196663847923278
0.0872198667474258,-0.13223164787292502,-0.126849309253693,-0.0436165801048277
0.0878255602665051,-0.139416706466675,-0.0885289967536926,-0.036431521511077695
0.0884312537855845,0.0473948169708252,-0.00230829362869262,0.0617642792701723
0.0890369473046638,-0.18252705802917502,-0.07176386003494259,0.16235509958267202
0.0896426408237432,0.145590617752075,0.146182917308807,0.16235509958267202
0.0902483343428225,-0.0316408275604248,-0.0238634694099426,0.12882482614517202
0.0908540278619019,0.18151591072082499,-0.0669738209724426,0.0258389863014222
0.0914597213809812,-0.101096393966675,-0.141219426441193,0.16235509958267202
0.0920654149000606,-0.0124806713104248,-0.0909240162849426,0.0354190644264223
0.0926711084191399,-0.129836628341675,-0.0118883717536926,0.0330240448951723
0.0932768019382193,-0.254377643966675,-0.0214684498786926,-0.0867269316673277
0.0938824954572986,0.0473948169708252,0.00966680402755738,0.174330197238922
0.094488188976378,-0.204082233810425,-0.181934758472443,0.234205685520172
0.0950938824954573,0.035419719314575195,-0.0621837819099426,-0.18013269338607799
0.0956995760145366,-0.115466511154175,-0.0645788014411926,0.0665543183326723
0.096305269533616,0.0210496021270752,-0.0981090748786926,0.19349035348892202
0.0969109630526953,0.040209758377075196,0.0623572337150574,-0.0292464629173278
0.0975166565717747,0.040209758377075196,-0.047813664722442605,0.0641592988014223
0.098122350090854,-0.0388258861541748,-0.18911981706619302,0.327611447238922
0.0987280436099334,-0.0436159252166748,0.0791223704338074,-0.16576257619857798
0.0993337371290127,-0.0292458080291748,0.11265264387130701,-0.06756677541732771
0.0999394306480921,-0.0268507884979248,-0.241810246753693,0.46173254098892197
0.100545124167171,-0.0723561595916748,-0.045418645191192604,0.5766934784889219
0.101150817686251,-0.225637409591675,-0.17953973894119302,0.150380001926422
0.10175651120533,-0.0651711009979248,-0.0981090748786926,0.145589962863922
0.102362204724409,-0.263957722091675,-0.220255070972443,0.421017208957672
0.102967898243489,-0.0052956127166748105,-0.0597887623786926,-0.0244564238548278
0.103573591762568,-0.0795412181854248,-0.07894891862869259,0.15277502145767202
0.104179285281647,-0.15139180412292502,-0.246600285816193,0.0210489472389222
0.104784978800727,0.0569748950958252,0.00248174543380738,-0.06996179494857771
0.105390672319806,-0.0292458080291748,-0.07655389909744259,0.150380001926422
0.105996365838886,0.0761350513458252,-0.045418645191192604,0.15756506052017202
0.106602059357965,0.164750774002075,-0.052603703784942606,0.186305294895172
0.107207752877044,0.0569748950958252,-0.11487421159744299,0.13361486520767202
0.107813446396124,-0.14181172599792502,0.0168518626213074,0.0785294159889223
0.108419139915203,0.0282346607208252,0.198873346996307,0.13840490427017202
0.109024833434282,-0.0100856517791748,0.040802057933807395,0.00667883005142225
0.109630526953362,0.00667948493957519,0.0575671946525574,-0.0819368926048277
0.110236220472441,0.16714579353332498,-0.272945500659943,0.126429806613922
0.11084191399152,0.0114695240020752,-0.217860051441193,-0.07235681447982771
0.1114476075106,-0.13223164787292502,0.0072717844963073805,-0.07235681447982771
0.112053301029679,-0.115466511154175,-0.213070012378693,0.0976895722389223
0.112658994548758,0.155170695877075,-0.0286535084724426,-0.0987020293235777
0.113264688067838,-0.0052956127166748105,-0.0981090748786926,0.056974240207672305
0.113870381586917,-0.0651711009979248,-0.17474969987869302,0.0306290253639222
0.114476075105996,0.0545798755645752,-0.100504094409943,-0.302278689479828
0.115081768625076,-0.050800983810424805,-0.141219426441193,0.13840490427017202
0.115687462144155,-0.0364308666229248,-0.0238634694099426,0.0641592988014223
0.116293155663234,-0.101096393966675,-0.0693688405036926,0.0354190644264223
0.116898849182314,0.0114695240020752,-0.220255070972443,0.38269689645767196
0.117504542701393,-0.14660176506042502,-0.0382335865974426,-0.0436165801048277
0.118110236220472,0.10966532478332501,-0.150799504566193,0.224625607395172
0.118715929739552,-0.120256550216675,-0.0382335865974426,0.22223058786392202
0.119321623258631,-0.216057331466675,0.0336169993400574,-0.0029012480735777497
0.11992731677771,-0.0268507884979248,-0.105294133472443,0.274921017551422
0.12053301029679,-0.050800983810424805,0.191688288402557,0.255760861301422
0.121138703815869,-0.103491413497925,-0.0909240162849426,0.0761343964576723
0.121744397334949,-0.295092975997925,-0.102899113941193,0.15277502145767202
0.122350090854028,-0.18731709709167502,-0.00470331315994262,0.13361486520767202
0.122955784373107,-0.19210713615417502,-0.148404485034943,0.0785294159889223
0.123561477892187,0.0952952075958252,-0.08373895769119259,0.320426388645172
0.124167171411266,-0.0891212963104248,-0.0933190358161926,0.121639767551422
0.124772864930345,-0.0412209056854248,0.014456843090057401,-0.060381716823577694
0.125378558449425,-0.129836628341675,-0.014283391284942598,0.0426041230201723
0.125984251968504,-0.0268507884979248,-0.131639348316193,0.0761343964576723
0.126589945487583,0.037814738845825195,-0.256180363941193,0.15277502145767202
0.127195639006663,0.0186545825958252,-0.160379582691193,0.054579220676422305
0.127801332525742,0.14798563728332498,0.0815173899650574,-0.0244564238548278
0.128407026044821,-0.055591022872924806,-0.047813664722442605,0.131219845676422
0.129012719563901,0.277316691970825,-0.141219426441193,0.205465451145172
0.12961841308298,0.131220500564575,-0.00949335222244262,0.0857144745826723
0.130224106602059,0.035419719314575195,0.182108210277557,-0.115467166042328
0.130829800121139,0.145590617752075,-0.07415887956619259,-0.0220614043235778
0.131435493640218,0.0473948169708252,-0.102899113941193,0.672494259738922
0.132041187159297,-0.125046589279175,-0.11726923112869299,0.787455197238922
0.132646880678377,-0.0987013744354248,-0.00470331315994262,0.0186539277076722
0.133252574197456,-0.00290059318542481,-0.045418645191192604,-0.148997439479828
0.133858267716535,-0.125046589279175,-0.311265813159943,-0.0220614043235778
0.134463961235615,0.0952952075958252,-0.0981090748786926,-0.00529626760482775
0.135069654754694,-0.168156940841675,-0.186724797534943,-0.00529626760482775
0.135675348273773,-0.057986042404174806,-0.217860051441193,-0.017271365261077802
0.136281041792853,-0.0987013744354248,-0.08373895769119259,0.159960080051422
0.136886735311932,0.11206034431457501,0.040802057933807395,0.15277502145767202
0.137492428831012,0.140800578689575,-0.054998723316192606,-0.0795418730735777
0.138098122350091,-0.14181172599792502,-0.0909240162849426,0.13361486520767202
0.13870381586917,-0.0316408275604248,-0.100504094409943,0.169540158176422
0.13930950938825,-0.0939113353729248,-0.241810246753693,-0.21605798635482798
0.139915202907329,0.0976902271270752,0.0240369212150574,-0.0100863066673278
0.140520896426408,-0.122651569747925,-0.246600285816193,0.210255490207672
0.141126589945488,-0.00769063224792481,-0.28971063737869296,0.0258389863014222
0.141732283464567,-0.0172707103729248,0.0551721751213074,-0.117862185573578
0.142337976983646,0.17193583259582498,0.014456843090057401,0.0928995331764223
0.142943670502726,0.121640422439575,-0.014283391284942598,0.19828039255142202
0.143549364021805,-0.0148756908416748,-0.0645788014411926,0.114454708957672
0.144155057540884,0.06655497322082521,-0.18911981706619302,0.159960080051422
0.144760751059964,-0.115466511154175,-0.148404485034943,0.00667883005142225
0.145366444579043,0.16714579353332498,0.10786260480880701,0.0426041230201723
0.145972138098122,-0.103491413497925,-0.12205927019119299,0.32282140817642196
0.146577831617202,-0.0220607494354248,-0.0334435475349426,0.14319494333267202
0.147183525136281,0.195886027908325,-0.141219426441193,0.00428381052017225
0.14778921865536,0.061764934158325194,-0.0238634694099426,0.0665543183326723
0.14839491217444,-0.223242390060425,0.12462774152755701,0.0928995331764223
0.149000605693519,0.150380656814575,-0.13403436784744302,0.119244748020172
0.149606299212598,0.15756571540832498,-0.220255070972443,0.0881094941139223
0.150211992731678,-0.153786823654175,-0.162774602222443,0.0761343964576723
0.150817686250757,0.10487528572082501,0.0599622141838074,0.210255490207672
0.151423379769836,0.042604777908325196,-0.160379582691193,0.131219845676422
0.152029073288916,0.28929178962707497,-0.11247919206619299,0.150380001926422
0.152634766807995,-0.0364308666229248,0.0719373118400574,0.270130978488922
0.153240460327075,-0.101096393966675,-0.07655389909744259,0.234205685520172
0.153846153846154,-0.000505573654174813,0.00248174543380738,0.15756506052017202
0.154451847365233,0.0114695240020752,0.0839124094963074,0.14319494333267202
0.155057540884313,-0.0867262767791748,0.0719373118400574,0.119244748020172
0.155663234403392,-0.0891212963104248,0.148577936840057,0.145589962863922
0.156268927922471,0.00188944587707519,0.155762995433807,0.059369259738922306
0.156874621441551,-0.287907917404175,-0.143614445972443,0.14319494333267202
0.15748031496063,-0.103491413497925,-0.0645788014411926,0.0426041230201723
0.158086008479709,-0.113071491622925,-0.050208684253692605,0.0761343964576723
0.158691701998789,-0.115466511154175,-0.08373895769119259,0.31324133005142196
0.159297395517868,-0.20647725334167502,0.040802057933807395,0.16235509958267202
0.159903089036947,-0.110676472091675,-0.201094914722443,0.059369259738922306
0.160508782556027,0.0857151294708252,-0.0933190358161926,-0.0268514433860778
0.161114476075106,-0.0124806713104248,0.17013311262130698,-0.249588259792328
0.161720169594185,0.0545798755645752,0.127022761058807,0.533583126926422
0.162325863113265,-0.105886433029175,0.043197077465057396,0.485682736301422
0.162931556632344,0.10487528572082501,-0.0909240162849426,-0.113072146511078
0.163537250151423,-0.120256550216675,-0.146009465503693,0.224625607395172
0.164142943670503,-0.057986042404174806,-0.007098332691192619,0.186305294895172
0.164748637189582,0.0162595630645752,-0.0909240162849426,0.28210607614517197
0.165354330708661,-0.0340358470916748,-0.12445428972244299,-0.0100863066673278
0.165960024227741,-0.000505573654174813,0.045592096996307396,0.109664669895172
0.16656571774682,-0.13702168693542502,0.043197077465057396,0.176725216770172
0.167171411265899,0.14798563728332498,-0.0358385670661926,-0.07235681447982771
0.167777104784979,-0.000505573654174813,-0.0957140553474426,-0.0268514433860778
0.168382798304058,0.169540813064575,-0.146009465503693,0.301266232395172
0.168988491823137,0.0210496021270752,-0.0310485280036926,0.17912023630142201
0.169594185342217,0.042604777908325196,-0.007098332691192619,-0.0412215605735777
0.170199878861296,0.310846965408325,-0.136429387378693,0.210255490207672
0.170805572380376,0.0473948169708252,-0.014283391284942598,0.186305294895172
0.171411265899455,-0.240007526779175,-0.007098332691192619,0.191095333957672
0.172016959418534,0.128825481033325,-0.0885289967536926,0.0641592988014223
0.172622652937614,0.061764934158325194,0.17971319074630698,-0.108282107448578
0.173228346456693,-0.0987013744354248,-0.08373895769119259,0.00907384958267225
0.173834039975772,0.284501750564575,-0.12924432878494302,0.32282140817642196
0.174439733494852,0.12643046150207501,-0.052603703784942606,0.0976895722389223
0.175045427013931,-0.0172707103729248,-0.08134393815994259,0.056974240207672305
0.17565112053301,-0.0220607494354248,-0.08613397722244259,0.140799923801422
0.17625681405209,0.0952952075958252,-0.0382335865974426,0.164750119113922
0.176862507571169,0.061764934158325194,-0.136429387378693,0.19349035348892202
0.177468201090248,-0.213662311935425,-0.00230829362869262,-0.0076912871360777495
0.178073894609328,0.042604777908325196,0.12223272199630701,-0.0292464629173278
0.178679588128407,-0.0723561595916748,0.036012018871307394,0.0641592988014223
0.179285281647486,-0.122651569747925,0.138997858715057,0.0354190644264223
0.179890975166566,-0.0795412181854248,-0.00949335222244262,0.224625607395172
0.180496668685645,-0.06277608146667481,0.0240369212150574,0.195885373020172
0.181102362204724,-0.0268507884979248,-0.11008417253494299,-0.10109704885482801
0.181708055723804,-0.0963063549041748,-0.0310485280036926,0.0138638886451722
0.182313749242883,0.10008524665832501,-0.0166784108161926,0.219835568332672
0.182919442761962,0.0114695240020752,-0.162774602222443,0.102479611301422
0.183525136281042,-0.0316408275604248,0.18450322980880698,-0.10109704885482801
0.184130829800121,0.0210496021270752,0.038407038402557395,0.126429806613922
0.1847365233192,0.06415995368957521,-0.155589543628693,0.164750119113922
0.18534221683828,-0.170551960372925,0.134207819652557,0.059369259738922306
0.185947910357359,0.0473948169708252,-0.007098332691192619,0.0617642792701723
0.186553603876439,0.035419719314575195,8.67259025573771e-05,0.18391027536392202
0.187159297395518,-0.105886433029175,0.0168518626213074,0.339586544895172
0.187764990914597,-0.189712116622925,0.0599622141838074,0.155170040988922
0.188370684433677,0.128825481033325,-0.0909240162849426,0.0857144745826723
0.188976377952756,0.0234446216583252,-0.0430236256599426,0.176725216770172
0.189582071471835,-0.0867262767791748,0.014456843090057401,0.21744054880142202
0.190187764990915,0.138405559158325,-0.08134393815994259,-0.0795418730735777
0.190793458509994,-0.14181172599792502,-0.11966425065994299,0.054579220676422305
0.191399152029073,0.116850383377075,-0.105294133472443,0.595853634738922
0.192004845548153,-0.0340358470916748,-0.16995966081619301,0.624593869113922
0.192610539067232,-0.125046589279175,-0.148404485034943,-0.0268514433860778
0.193216232586311,-0.25916768302917503,0.0168518626213074,-0.0484066191673277
0.193821926105391,-0.168156940841675,0.0288269602775574,-0.0244564238548278
0.19442761962447,-0.046010944747924803,0.0216419016838074,-0.108282107448578
0.195033313143549,-0.0939113353729248,-0.0286535084724426,0.119244748020172
0.195639006662629,-0.050800983810424805,-0.0286535084724426,0.124034787082672
0.196244700181708,0.0905051685333252,-0.143614445972443,-0.036431521511077695
0.196850393700787,0.155170695877075,-0.13403436784744302,-0.0867269316673277
0.197456087219867,-0.0148756908416748,-0.186724797534943,0.0378140839576723
0.198061780738946,0.0785300708770752,-0.275340520191193,-0.0915169707298277
0.198667474258025,-0.0412209056854248,0.036012018871307394,0.164750119113922
0.199273167777105,0.040209758377075196,0.0623572337150574,0.20307043161392202
0.199878861296184,-0.0963063549041748,-0.08134393815994259,0.176725216770172
0.200484554815263,-0.254377643966675,-0.0406286061286926,0.0162589081764222
0.201090248334343,0.0138645435333252,0.0671472727775574,0.0928995331764223
0.201695941853422,-0.0675661205291748,-0.107689153003693,0.186305294895172
0.202301635372502,0.11206034431457501,-0.26097040300369295,0.346771603488922
0.202907328891581,-0.0316408275604248,-0.12205927019119299,-0.0316414824485778
0.20351302241066,-0.0148756908416748,0.136602839183807,-0.134627322292328
0.20411871592974,0.121640422439575,-0.0981090748786926,0.23899572458267201
0.204724409448819,0.0881101490020752,-0.07655389909744259,0.0761343964576723
0.205330102967898,0.121640422439575,0.045592096996307396,0.24378576364517202
0.205935796486978,0.07374003181457521,-0.105294133472443,0.028234005832672198
0.206541490006057,-0.00769063224792481,0.043197077465057396,0.20786047067642202
0.207147183525136,-0.122651569747925,-0.205884953784943,0.24378576364517202
0.207752877044216,0.138405559158325,-0.00230829362869262,-0.17534265432357798
0.208358570563295,-0.163366901779175,-0.18432977800369302,0.15277502145767202
0.208964264082374,-0.218452350997925,-0.08373895769119259,-0.034036501979827695
0.209569957601454,-0.101096393966675,-0.052603703784942606,-0.0316414824485778
0.210175651120533,0.0449997974395752,-0.332820988941193,-0.012481326198577801
0.210781344639612,0.116850383377075,0.10786260480880701,-0.034036501979827695
0.211387038158692,0.0569748950958252,0.045592096996307396,0.102479611301422
0.211992731677771,0.00428446540832519,-0.0933190358161926,0.0306290253639222
0.21259842519685,0.0306296802520752,0.0695422923088074,0.114454708957672
0.21320411871593,0.0929001880645752,-0.0286535084724426,0.102479611301422
0.213809812235009,-0.180132038497925,-0.052603703784942606,0.0665543183326723
0.214415505754088,0.0186545825958252,-0.00230829362869262,0.0354190644264223
0.215021199273168,-0.0364308666229248,-0.30887079362869296,0.056974240207672305
0.215626892792247,0.0449997974395752,0.0240369212150574,-0.0819368926048277
0.216232586311326,0.0809250904083252,0.148577936840057,-0.0220614043235778
0.216838279830406,0.033024699783325194,-0.287315617847443,0.0952945527076723
0.217443973349485,0.124035441970825,-0.126849309253693,0.174330197238922
0.218049666868565,-0.0052956127166748105,-0.167564641284943,0.14319494333267202
0.218655360387644,0.0593699146270752,-0.07176386003494259,0.0833194550514223
0.219261053906723,-0.0651711009979248,-0.148404485034943,0.270130978488922
0.219866747425803,0.0545798755645752,-0.141219426441193,0.267735958957672
0.220472440944882,0.06415995368957521,0.0240369212150574,-0.10349206838607801
0.221078134463961,0.0809250904083252,-0.100504094409943,-0.153787478542328
0.221683827983041,0.14798563728332498,-0.00470331315994262,0.399462033176422
0.22228952150212,0.17193583259582498,-0.0238634694099426,0.552743283176422
0.222895215021199,0.191095988845825,-0.203489934253693,0.17912023630142201
0.223500908540279,-0.120256550216675,0.16534307355880698,-0.14181238088607798
0.224106602059358,-0.0220607494354248,-0.0957140553474426,0.0857144745826723
0.224712295578437,-0.0196657299041748,-0.246600285816193,0.224625607395172
0.225317989097517,0.06894999275207521,-0.12205927019119299,-0.0268514433860778
0.225923682616596,-0.105886433029175,-0.11487421159744299,0.052184201145172304
0.226529376135675,-0.00769063224792481,0.17492315168380698,-0.012481326198577801
0.227135069654755,0.0976902271270752,-0.0334435475349426,0.0114688691139222
0.227740763173834,-0.0196657299041748,0.0623572337150574,0.210255490207672
0.228346456692913,0.0138645435333252,-0.08134393815994259,0.20786047067642202
0.228952150211993,-0.0915163158416748,-0.177144719409943,0.049789181613922304
0.229557843731072,0.10487528572082501,-0.0669738209724426,0.0330240448951723
0.230163537250151,-0.302278034591675,-0.0166784108161926,0.270130978488922
0.230769230769231,-0.218452350997925,0.040802057933807395,-0.060381716823577694
0.23137492428831,0.0449997974395752,-0.304080754566193,-0.0484066191673277
0.231980617807389,0.0234446216583252,-0.172354680347443,-0.00050622854232775
0.232586311326469,-0.110676472091675,0.043197077465057396,0.0330240448951723
0.233192004845548,-0.0963063549041748,8.67259025573771e-05,0.112059689426422
0.233797698364627,0.145590617752075,-0.153194524097443,0.13840490427017202
0.234403391883707,-0.0196657299041748,-0.0262584889411926,0.131219845676422
0.235009085402786,0.0114695240020752,-0.0214684498786926,-0.0555916777610777
0.235614778921866,-0.055591022872924806,-0.162774602222443,0.253365841770172
0.236220472440945,0.24139139900207499,0.0479871165275574,0.17912023630142201
0.236826165960024,0.00667948493957519,-0.014283391284942598,0.150380001926422
0.237431859479104,-0.0963063549041748,0.0168518626213074,0.0449991425514223
0.238037552998183,0.0186545825958252,-0.07176386003494259,0.12882482614517202
0.238643246517262,0.0785300708770752,0.0791223704338074,0.253365841770172
0.239248940036342,0.174330852127075,-0.18432977800369302,0.17912023630142201
0.239854633555421,-0.21126729240417502,-0.19869989519119302,0.0928995331764223
0.2404603270745,-0.0412209056854248,0.09588750715255741,-0.108282107448578
0.24106602059358,-0.0196657299041748,-0.196304875659943,0.052184201145172304
0.241671714112659,0.0593699146270752,-0.0310485280036926,0.306056271457672
0.242277407631738,-0.120256550216675,0.17492315168380698,-0.194502810573578
0.242883101150818,0.10487528572082501,0.0336169993400574,-0.0915169707298277
0.243488794669897,0.0545798755645752,-0.131639348316193,0.380301876926422
0.244094488188976,0.0306296802520752,0.09349248762130741,0.0378140839576723
0.244700181708056,-0.0675661205291748,0.00966680402755738,-0.034036501979827695
0.245305875227135,-0.13702168693542502,0.0120618235588074,0.150380001926422
0.245911568746214,-0.180132038497925,-0.19390985612869302,-0.06517175588607771
0.246517262265294,-0.0364308666229248,-0.34958612565994296,-0.134627322292328
0.247122955784373,0.229416301345825,-0.0286535084724426,0.0689493378639223
0.247728649303452,-0.316648151779175,-0.143614445972443,0.167145138645172
0.248334342822532,-0.115466511154175,-0.13403436784744302,0.124034787082672
0.248940036341611,-0.00290059318542481,-0.17474969987869302,0.22223058786392202
0.24954572986069,0.0449997974395752,-0.0430236256599426,0.0665543183326723
0.25015142337977,-0.180132038497925,-0.0669738209724426,0.497657833957672
0.250757116898849,-0.105886433029175,0.0168518626213074,0.619803830051422
0.251362810417929,-0.0651711009979248,0.0503821360588074,0.22223058786392202
0.251968503937008,-0.184922077560425,-0.311265813159943,0.435387326145172
0.252574197456087,0.284501750564575,-0.165169621753693,-0.10349206838607801
0.253179890975167,-0.103491413497925,-0.186724797534943,-0.117862185573578
0.253785584494246,0.0234446216583252,-0.00230829362869262,0.0833194550514223
0.254391278013325,-0.0172707103729248,-0.105294133472443,0.00188879098892225
0.254996971532405,-0.0244557689666748,-0.160379582691193,0.159960080051422
0.255602665051484,-0.053196003341674805,-0.0885289967536926,0.0952945527076723
0.256208358570563,-0.101096393966675,-0.148404485034943,0.0258389863014222
0.256814052089643,0.15756571540832498,0.10786260480880701,0.219835568332672
0.257419745608722,-0.13223164787292502,-0.0909240162849426,0.17912023630142201
0.258025439127801,0.133615520095825,-0.0693688405036926,0.241390744113922
0.258631132646881,-0.115466511154175,0.0527771555900574,0.19828039255142202
0.25923682616596,0.06655497322082521,0.00487676496505738,0.126429806613922
0.259842519685039,-0.046010944747924803,-0.131639348316193,0.174330197238922
0.260448213204119,-0.117861530685425,-0.186724797534943,0.00667883005142225
0.261053906723198,0.033024699783325194,-0.217860051441193,0.0857144745826723
0.261659600242277,-0.148996784591675,-0.11726923112869299,0.145589962863922
0.262265293761357,-0.057986042404174806,-0.11726923112869299,0.049789181613922304
0.262870987280436,-0.0843312572479248,-0.287315617847443,0.227020626926422
0.263476680799515,-0.055591022872924806,0.222823542308807,-0.0867269316673277
0.264082374318595,-0.17773701896667501,-0.0334435475349426,-0.0771468535423277
0.264688067837674,0.00667948493957519,-0.11726923112869299,0.00667883005142225
0.265293761356753,-0.117861530685425,0.0192468821525574,0.119244748020172
0.265899454875833,0.0569748950958252,-0.052603703784942606,0.258155880832672
0.266505148394912,0.0497898365020752,-0.162774602222443,0.049789181613922304
0.267110841913992,-0.000505573654174813,-0.0310485280036926,-0.012481326198577801
0.267716535433071,-0.000505573654174813,0.0503821360588074,-0.10349206838607801
0.26832222895215,-0.172946979904175,-0.22983514909744301,0.150380001926422
0.26892792247123,0.0473948169708252,-0.052603703784942606,0.0449991425514223
0.269533615990309,-0.158576862716675,-0.014283391284942598,0.059369259738922306
0.270139309509388,-0.110676472091675,0.038407038402557395,0.107269650363922
0.270745003028468,-0.0963063549041748,-0.16995966081619301,0.14319494333267202
0.271350696547547,0.06415995368957521,-0.0621837819099426,-0.0508016386985777
0.271956390066626,0.14798563728332498,-0.0885289967536926,0.181515255832672
0.272562083585706,0.0114695240020752,-0.217860051441193,0.181515255832672
0.273167777104785,-0.158576862716675,-0.11966425065994299,0.059369259738922306
0.273773470623864,-0.304673054122925,-0.0262584889411926,-0.0963070097923277
0.274379164142944,0.00188944587707519,0.0120618235588074,-0.16097253713607798
0.274984857662023,-0.13702168693542502,-0.208279973316193,0.234205685520172
0.275590551181102,-0.0316408275604248,-0.136429387378693,-0.158577517604828
0.276196244700182,-0.0244557689666748,-0.126849309253693,-0.060381716823577694
0.276801938219261,-0.0963063549041748,-0.0310485280036926,-0.06996179494857771
0.27740763173834,-0.0244557689666748,-0.0166784108161926,-0.0412215605735777
0.27801332525742,-0.20168721427917502,-0.00230829362869262,-0.0484066191673277
0.278619018776499,-0.0939113353729248,0.0647522532463074,0.00188879098892225
0.279224712295578,-0.120256550216675,-0.0406286061286926,-0.0316414824485778
0.279830405814658,-0.0891212963104248,0.0791223704338074,-0.0891219511985777
0.280436099333737,-0.122651569747925,0.0887024485588074,-0.14181238088607798
0.281041792852816,0.0929001880645752,0.0695422923088074,0.31324133005142196
0.281647486371896,-0.0196657299041748,-0.107689153003693,0.6581241425514219
0.282253179890975,-0.0795412181854248,0.00248174543380738,0.20786047067642202
0.282858873410055,-0.048405964279174804,-0.0382335865974426,0.33240148630142197
0.283464566929134,-0.115466511154175,-0.0118883717536926,0.0449991425514223
0.284070260448213,-0.0819362377166748,-0.222650090503693,-0.0292464629173278
0.284675953967293,-0.0244557689666748,-0.215465031909943,-0.0100863066673278
0.285281647486372,-0.223242390060425,0.11983770246505701,0.124034787082672
0.285887341005451,-0.13223164787292502,-0.08613397722244259,0.29168615427017197
0.286493034524531,0.0785300708770752,0.0767273509025574,0.164750119113922
0.28709872804361,-0.122651569747925,0.10307256574630701,0.205465451145172
0.287704421562689,-0.0100856517791748,0.10546758527755701,0.0426041230201723
0.288310115081769,-0.0412209056854248,-0.0334435475349426,-0.129837283229828
0.288915808600848,0.16235575447082498,-0.11966425065994299,-0.036431521511077695
0.289521502119927,-0.110676472091675,0.0288269602775574,0.0258389863014222
0.290127195639007,-0.048405964279174804,0.00966680402755738,-0.00529626760482775
0.290732889158086,0.0785300708770752,-0.13403436784744302,0.229415646457672
0.291338582677165,-0.25916768302917503,-0.050208684253692605,0.0833194550514223
0.291944276196245,-0.0292458080291748,0.0288269602775574,-0.0555916777610777
0.292549969715324,-0.06277608146667481,0.043197077465057396,0.0138638886451722
0.293155663234403,-0.290302936935425,-0.0358385670661926,0.126429806613922
0.293761356753483,-0.19210713615417502,-0.265760442066193,0.049789181613922304
0.294367050272562,-0.0412209056854248,-0.052603703784942606,-0.213662966823578
0.294972743791641,0.00428446540832519,-0.332820988941193,0.0449991425514223
0.295578437310721,-0.175341999435425,0.0288269602775574,-0.0867269316673277
0.2961841308298,-0.0292458080291748,0.0887024485588074,0.0689493378639223
0.296789824348879,-0.0364308666229248,-0.246600285816193,0.31324133005142196
0.297395517867959,0.0138645435333252,-0.0430236256599426,-0.110677126979828
0.298001211387038,0.0138645435333252,-0.136429387378693,0.00907384958267225
0.298606904906118,0.0833201099395752,-0.13882440690994302,0.0737393769264223
0.299212598425197,-0.0220607494354248,0.11265264387130701,-0.0148763457298278
0.299818291944276,-0.0891212963104248,0.0887024485588074,0.102479611301422
0.300423985463356,0.037814738845825195,-0.246600285816193,0.0881094941139223
0.301029678982435,0.10966532478332501,0.09349248762130741,0.0306290253639222
0.301635372501514,-0.156181843185425,0.100677546215057,-0.0412215605735777
0.302241066020594,-0.0891212963104248,0.0288269602775574,0.0402091034889223
0.302846759539673,0.23181132087707498,0.11025762434005701,0.24378576364517202
0.303452453058752,-0.213662311935425,0.143787897777557,0.0617642792701723
0.304058146577832,0.06415995368957521,0.155762995433807,0.219835568332672
0.304663840096911,-0.103491413497925,-0.237020207691193,0.40425207223892196
0.30526953361599,-0.101096393966675,-0.047813664722442605,-0.148997439479828
0.30587522713507,0.159960734939575,-0.107689153003693,-0.0100863066673278
0.306480920654149,-0.189712116622925,-0.0118883717536926,0.176725216770172
0.307086614173228,-0.0100856517791748,0.0479871165275574,0.219835568332672
0.307692307692308,-0.13223164787292502,-0.0262584889411926,0.325216427707672
0.308298001211387,-0.0699611400604248,0.045592096996307396,0.119244748020172
0.308903694730466,-0.055591022872924806,-0.227440129566193,0.227020626926422
0.309509388249546,0.00188944587707519,0.026431940746307402,0.24378576364517202
0.310115081768625,-0.00290059318542481,-0.19390985612869302,0.715604611301422
0.310720775287704,0.0905051685333252,-0.0118883717536926,-0.00050622854232775
0.311326468806784,0.15277567634582498,0.09349248762130741,-0.122652224636078
0.311932162325863,-0.15139180412292502,-0.0909240162849426,0.107269650363922
0.312537855844942,-0.0364308666229248,0.0695422923088074,-0.00529626760482775
0.313143549364022,0.0449997974395752,-0.107689153003693,0.26294591989517196
0.313749242883101,0.0593699146270752,0.0336169993400574,0.0258389863014222
0.31435493640218,-0.0412209056854248,0.153367975902557,0.0857144745826723
0.31496062992126,0.164750774002075,-0.177144719409943,0.28210607614517197
0.315566323440339,0.0593699146270752,-0.246600285816193,0.14798498239517202
0.316172016959419,0.0952952075958252,-0.0406286061286926,-0.14660241994857798
0.316777710478498,-0.0891212963104248,-0.0693688405036926,0.167145138645172
0.317383403997577,0.0497898365020752,0.0288269602775574,0.15756506052017202
0.317989097516657,0.06894999275207521,0.0312219798088074,0.0617642792701723
0.318594791035736,-0.19689717521667502,-0.0957140553474426,-0.0412215605735777
0.319200484554815,0.0976902271270752,0.0120618235588074,0.0737393769264223
0.319806178073895,-0.046010944747924803,-0.0358385670661926,0.0186539277076722
0.320411871592974,-0.105886433029175,-0.047813664722442605,-0.0579866972923277
0.321017565112053,0.0833201099395752,-0.08613397722244259,0.119244748020172
0.321623258631133,0.0449997974395752,0.0863074290275574,0.236600705051422
0.322228952150212,-0.0771461986541748,0.150972956371307,0.29168615427017197
0.322834645669291,-0.165761921310425,-0.165169621753693,0.210255490207672
0.323440339188371,-0.0124806713104248,-0.0621837819099426,-0.15139245901107798
0.32404603270745,-0.0364308666229248,0.10546758527755701,0.18391027536392202
0.324651726226529,0.0473948169708252,0.150972956371307,0.24857580270767202
0.325257419745609,0.21744120368957498,-0.11726923112869299,0.126429806613922
0.325863113264688,0.0569748950958252,-0.050208684253692605,0.301266232395172
0.326468806783767,-0.050800983810424805,-0.07415887956619259,0.215045529270172
0.327074500302847,0.0210496021270752,-0.0933190358161926,0.0234439667701722
0.327680193821926,-0.199292194747925,-0.11487421159744299,-0.0819368926048277
0.328285887341005,-0.0963063549041748,-0.143614445972443,0.0114688691139222
0.328891580860085,-0.0843312572479248,0.00248174543380738,-0.07475183401107771
0.329497274379164,-0.18252705802917502,-0.17474969987869302,0.231810665988922
0.330102967898244,-0.048405964279174804,0.036012018871307394,-0.110677126979828
0.330708661417323,-0.0819362377166748,0.0599622141838074,-0.13702234182357798
0.331314354936402,0.10008524665832501,-0.0118883717536926,0.231810665988922
0.331920048455482,-0.0244557689666748,-0.11008417253494299,0.0162589081764222
0.332525741974561,-0.0172707103729248,0.172528132152557,0.19349035348892202
0.33313143549364,-0.216057331466675,0.10546758527755701,0.274921017551422
0.33373712901272,-0.230427448654175,-0.107689153003693,0.0641592988014223
0.334342822531799,-0.0843312572479248,0.00248174543380738,0.126429806613922
0.334948516050878,0.06894999275207521,-0.007098332691192619,-0.0508016386985777
0.335554209569958,0.10248026618957501,0.0910974680900574,0.296476193332672
0.336159903089037,-0.0148756908416748,-0.12205927019119299,0.25097082223892203
0.336765596608116,-0.0603810619354248,-0.08134393815994259,0.0665543183326723
0.337371290127196,-0.165761921310425,-0.165169621753693,0.0905045136451723
0.337976983646275,-0.0244557689666748,-0.12924432878494302,-0.0268514433860778
0.338582677165354,-0.050800983810424805,0.0623572337150574,0.267735958957672
0.339188370684434,0.0234446216583252,-0.0118883717536926,0.056974240207672305
0.339794064203513,0.0306296802520752,-0.052603703784942606,0.0402091034889223
0.340399757722592,0.07134501228332521,-0.12924432878494302,-0.14181238088607798
0.341005451241672,0.203071086502075,0.026431940746307402,-0.17534265432357798
0.341611144760751,-0.048405964279174804,0.036012018871307394,-0.0627767363548277
0.34221683827983,0.0186545825958252,-0.0166784108161926,0.416227169895172
0.34282253179891,-0.139416706466675,-0.050208684253692605,0.059369259738922306
0.343428225317989,0.0258396411895752,0.0503821360588074,-0.28551355276107804
0.344033918837068,0.037814738845825195,-0.220255070972443,0.140799923801422
0.344639612356148,-0.0603810619354248,0.0887024485588074,-0.10349206838607801
0.345245305875227,-0.0268507884979248,-0.0310485280036926,0.186305294895172
0.345850999394306,0.16714579353332498,-0.186724797534943,0.215045529270172
0.346456692913386,0.124035441970825,0.16534307355880698,0.0138638886451722
0.347062386432465,-0.110676472091675,-0.11726923112869299,0.27252599802017197
0.347668079951545,0.0976902271270752,-0.0382335865974426,0.0402091034889223
0.348273773470624,0.10487528572082501,0.0887024485588074,0.0857144745826723
0.348879466989703,0.042604777908325196,0.23000860090255698,0.224625607395172
0.349485160508783,0.00428446540832519,-0.150799504566193,0.0952945527076723
0.350090854027862,-0.00290059318542481,-0.186724797534943,0.0928995331764223
0.350696547546941,-0.101096393966675,0.0647522532463074,0.0162589081764222
0.351302241066021,0.033024699783325194,-0.241810246753693,-0.0555916777610777
0.3519079345851,-0.0244557689666748,-0.213070012378693,-0.0508016386985777
0.352513628104179,-0.0196657299041748,0.026431940746307402,0.0473941620826723
0.353119321623259,-0.0316408275604248,-0.0573937428474426,0.171935177707672
0.353725015142338,-0.172946979904175,-0.045418645191192604,0.200675412082672
0.354330708661417,-0.134626667404175,-0.0669738209724426,0.159960080051422
0.354936402180497,-0.18252705802917502,-0.0981090748786926,0.210255490207672
0.355542095699576,0.033024699783325194,-0.0286535084724426,0.107269650363922
0.356147789218655,-0.046010944747924803,-0.232230168628693,0.028234005832672198
0.356753482737735,-0.129836628341675,-0.00470331315994262,-0.144207400417328
0.357359176256814,0.121640422439575,0.0216419016838074,-0.10349206838607801
0.357964869775893,-0.117861530685425,-0.19869989519119302,0.107269650363922
0.358570563294973,-0.172946979904175,-0.0262584889411926,-0.0579866972923277
0.359176256814052,-0.0675661205291748,0.0240369212150574,-0.060381716823577694
0.359781950333131,0.22702128181457498,-0.12205927019119299,-0.06996179494857771
0.360387643852211,-0.156181843185425,0.0671472727775574,-0.0412215605735777
0.36099333737129,-0.168156940841675,-0.0286535084724426,0.052184201145172304
0.361599030890369,-0.125046589279175,-0.0645788014411926,0.236600705051422
0.362204724409449,-0.156181843185425,0.0168518626213074,0.15756506052017202
0.362810417928528,-0.0436159252166748,-0.13882440690994302,0.17912023630142201
0.363416111447607,-0.18731709709167502,0.045592096996307396,0.20786047067642202
0.364021804966687,0.00188944587707519,0.00966680402755738,0.0976895722389223
0.364627498485766,-0.297487995529175,0.0336169993400574,0.114454708957672
0.365233192004846,-0.0388258861541748,-0.0981090748786926,-0.18013269338607799
0.365838885523925,-0.14660176506042502,-0.0981090748786926,0.0330240448951723
0.366444579043004,-0.218452350997925,0.0839124094963074,0.26294591989517196
0.367050272562084,-0.170551960372925,-0.210674992847443,0.12882482614517202
0.367655966081163,-0.168156940841675,-0.0669738209724426,-0.017271365261077802
0.368261659600242,-0.170551960372925,0.16534307355880698,0.0928995331764223
0.368867353119322,-0.101096393966675,-0.105294133472443,0.107269650363922
0.369473046638401,-0.103491413497925,-0.0238634694099426,0.22223058786392202
0.37007874015748,-0.228032429122925,-0.0573937428474426,-0.0819368926048277
0.37068443367656,0.10727030525207501,-0.0334435475349426,0.227020626926422
0.371290127195639,-0.223242390060425,-0.08373895769119259,0.365931759738922
0.371895820714718,0.00188944587707519,-0.19869989519119302,0.47370763864517196
0.372501514233798,-0.139416706466675,0.0288269602775574,0.210255490207672
0.373107207752877,-0.213662311935425,-0.047813664722442605,-0.22084802541732798
0.373712901271956,-0.0052956127166748105,-0.177144719409943,0.241390744113922
0.374318594791036,-0.158576862716675,-0.007098332691192619,0.0402091034889223
0.374924288310115,0.00428446540832519,0.0815173899650574,0.119244748020172
0.375529981829194,-0.127441608810425,-0.11726923112869299,0.131219845676422
0.376135675348274,-0.0963063549041748,0.040802057933807395,0.124034787082672
0.376741368867353,-0.117861530685425,-0.0310485280036926,0.028234005832672198
0.377347062386432,-0.0220607494354248,-0.0406286061286926,0.0928995331764223
0.377952755905512,0.037814738845825195,-0.07894891862869259,0.16235509958267202
0.378558449424591,-0.0388258861541748,-0.11966425065994299,0.171935177707672
0.379164142943671,-0.0100856517791748,-0.181934758472443,0.14319494333267202
0.37976983646275,-0.0963063549041748,-0.0382335865974426,-0.0843319121360777
0.380375529981829,-0.0148756908416748,0.191688288402557,0.00188879098892225
0.380981223500909,-0.184922077560425,-0.146009465503693,-0.034036501979827695
0.381586917019988,-0.0124806713104248,0.014456843090057401,-0.0196663847923278
0.382192610539067,0.133615520095825,0.040802057933807395,0.0952945527076723
0.382798304058147,0.0234446216583252,-0.0238634694099426,0.0737393769264223
0.383403997577226,-0.0292458080291748,-0.045418645191192604,0.109664669895172
0.384009691096305,0.061764934158325194,0.00487676496505738,0.140799923801422
0.384615384615385,0.0473948169708252,-0.201094914722443,0.246180783176422
0.385221078134464,-0.0891212963104248,0.0527771555900574,-0.017271365261077802
0.385826771653543,0.00428446540832519,0.17492315168380698,0.0449991425514223
0.386432465172623,-0.24240254631042502,-0.191514836597443,0.195885373020172
0.387038158691702,-0.0412209056854248,-0.181934758472443,-0.232823123073578
0.387643852210781,0.10727030525207501,-0.0645788014411926,-0.16576257619857798
0.388249545729861,-0.0052956127166748105,0.0288269602775574,0.126429806613922
0.38885523924894,-0.134626667404175,0.0671472727775574,0.0162589081764222
0.389460932768019,0.10248026618957501,0.16534307355880698,0.27252599802017197
0.390066626287099,0.0545798755645752,-0.07176386003494259,0.459337521457672
0.390672319806178,-0.302278034591675,0.11025762434005701,-0.153787478542328
0.391278013325257,-0.184922077560425,0.201268366527557,0.0473941620826723
0.391883706844337,-0.0819362377166748,0.0503821360588074,0.124034787082672
0.392489400363416,0.121640422439575,0.0168518626213074,-0.117862185573578
0.393095093882495,-0.00290059318542481,-0.210674992847443,-0.0316414824485778
0.393700787401575,-0.055591022872924806,0.00248174543380738,0.056974240207672305
0.394306480920654,-0.23761250724792501,0.0623572337150574,0.380301876926422
0.394912174439733,0.10487528572082501,0.0216419016838074,0.205465451145172
0.395517867958813,0.145590617752075,0.0479871165275574,0.234205685520172
0.396123561477892,0.07134501228332521,-0.210674992847443,0.0785294159889223
0.396729254996972,0.23660135993957498,-0.00949335222244262,-0.06517175588607771
0.397334948516051,-0.19689717521667502,0.036012018871307394,0.0210489472389222
0.39794064203513,0.00667948493957519,-0.18911981706619302,-0.13702234182357798
0.39854633555421,-0.208872272872925,-0.08134393815994259,-0.153787478542328
0.399152029073289,0.06415995368957521,-0.11008417253494299,0.00428381052017225
0.399757722592368,-0.0316408275604248,-0.19390985612869302,0.0881094941139223
0.400363416111448,0.0545798755645752,-0.0669738209724426,-0.16097253713607798
0.400969109630527,0.200676066970825,-0.11726923112869299,-0.182527712917328
0.401574803149606,0.0210496021270752,-0.0382335865974426,0.26294591989517196
0.402180496668686,-0.0388258861541748,-0.0118883717536926,0.545558224582672
0.402786190187765,-0.225637409591675,-0.052603703784942606,0.159960080051422
0.403391883706844,-0.053196003341674805,0.0767273509025574,0.0833194550514223
0.403997577225924,-0.101096393966675,-0.13403436784744302,0.112059689426422
0.404603270745003,-0.0220607494354248,-0.0693688405036926,0.00188879098892225
0.405208964264082,0.10727030525207501,-0.205884953784943,0.0665543183326723
0.405814657783162,-0.0388258861541748,0.0910974680900574,0.0354190644264223
0.406420351302241,-0.24719258537292502,0.16055303449630698,0.0905045136451723
0.40702604482132,0.11206034431457501,-0.08134393815994259,0.0186539277076722
0.4076317383404,0.00428446540832519,-0.155589543628693,0.114454708957672
0.408237431859479,-0.0148756908416748,-0.105294133472443,0.0138638886451722
0.408843125378558,0.136010539627075,-0.014283391284942598,-0.144207400417328
0.409448818897638,-0.057986042404174806,-0.28971063737869296,0.0976895722389223
0.410054512416717,-0.0196657299041748,-0.11247919206619299,-0.0220614043235778
0.410660205935796,-0.158576862716675,-0.0981090748786926,-0.07475183401107771
0.411265899454876,0.00428446540832519,-0.050208684253692605,0.0306290253639222
0.411871592973955,0.00667948493957519,0.0072717844963073805,0.16235509958267202
0.412477286493035,-0.26874776115417504,0.0791223704338074,-0.06517175588607771
0.413082980012114,0.0449997974395752,-0.105294133472443,-0.036431521511077695
0.413688673531193,0.0952952075958252,-0.181934758472443,0.229415646457672
0.414294367050273,-0.0412209056854248,-0.0166784108161926,-0.0292464629173278
0.414900060569352,-0.165761921310425,-0.210674992847443,0.100084591770172
0.415505754088431,0.23660135993957498,-0.0214684498786926,0.0689493378639223
0.416111447607511,-0.15139180412292502,0.043197077465057396,0.102479611301422
0.41671714112659,-0.115466511154175,0.0120618235588074,0.181515255832672
0.417322834645669,0.145590617752075,-0.160379582691193,0.0473941620826723
0.417928528164749,-0.134626667404175,-0.0118883717536926,0.171935177707672
0.418534221683828,0.11206034431457501,-0.12205927019119299,0.0641592988014223
0.419139915202907,0.0258396411895752,-0.203489934253693,0.0138638886451722
0.419745608721987,-0.0292458080291748,0.0336169993400574,0.21744054880142202
0.420351302241066,-0.117861530685425,-0.105294133472443,0.20307043161392202
0.420956995760145,-0.0220607494354248,0.0791223704338074,0.0330240448951723
0.421562689279225,-0.0987013744354248,-0.205884953784943,0.0354190644264223
0.422168382798304,-0.00290059318542481,0.12223272199630701,-0.113072146511078
0.422774076317383,0.0449997974395752,-0.0885289967536926,0.145589962863922
0.423379769836463,0.07134501228332521,-0.160379582691193,0.286896115207672
0.423985463355542,-0.0244557689666748,-0.0334435475349426,0.00907384958267225
0.424591156874621,-0.06277608146667481,-0.232230168628693,0.0713443573951723
0.425196850393701,-0.048405964279174804,0.0168518626213074,0.0641592988014223
0.42580254391278,-0.20647725334167502,0.0839124094963074,0.0928995331764223
0.426408237431859,-0.0771461986541748,0.09588750715255741,0.164750119113922
0.427013930950939,-0.0412209056854248,-0.0238634694099426,0.0928995331764223
0.427619624470018,0.265341594314575,0.203663386058807,0.119244748020172
0.428225317989098,-0.158576862716675,0.09588750715255741,0.100084591770172
0.428831011508177,0.0162595630645752,-0.0118883717536926,0.14798498239517202
0.429436705027256,0.22702128181457498,0.00248174543380738,0.059369259738922306
0.430042398546336,-0.0987013744354248,0.0719373118400574,-0.242403201198578
0.430648092065415,0.121640422439575,-0.052603703784942606,-0.283118533229828
0.431253785584494,0.119245402908325,0.043197077465057396,0.0378140839576723
0.431859479103574,-0.048405964279174804,-0.0118883717536926,0.832960568332672
0.432465172622653,-0.057986042404174806,-0.33761102800369297,0.13361486520767202
0.433070866141732,-0.050800983810424805,-0.0693688405036926,-0.22563806447982798
0.433676559660812,-0.115466511154175,0.00966680402755738,0.052184201145172304
0.434282253179891,-0.311858112716675,-0.045418645191192604,-0.06756677541732771
0.43488794669897,-0.256772663497925,-0.225045110034943,-0.110677126979828
0.43549364021805,-0.0867262767791748,-0.0214684498786926,-0.0939119902610777
0.436099333737129,-0.0220607494354248,0.134207819652557,0.22223058786392202
0.436705027256208,0.0569748950958252,-0.07415887956619259,-0.115467166042328
0.437310720775288,0.0833201099395752,-0.0118883717536926,0.0905045136451723
0.437916414294367,0.124035441970825,-0.213070012378693,0.155170040988922
0.438522107813446,0.0976902271270752,-0.0981090748786926,-0.204082888698578
0.439127801332526,-0.14660176506042502,-0.12924432878494302,0.0258389863014222
0.439733494851605,-0.129836628341675,0.00487676496505738,0.20786047067642202
0.440339188370684,-0.0052956127166748105,0.026431940746307402,0.286896115207672
0.440944881889764,-0.0100856517791748,-0.0909240162849426,0.224625607395172
0.441550575408843,-0.0843312572479248,8.67259025573771e-05,0.234205685520172
0.442156268927922,-0.261562702560425,-0.32084589128494295,0.20307043161392202
0.442761962447002,0.200676066970825,0.0192468821525574,-0.0460115996360777
0.443367655966081,-0.113071491622925,0.138997858715057,0.112059689426422
0.44397334948516,-0.105886433029175,0.014456843090057401,-0.0196663847923278
0.44457904300424,-0.0412209056854248,-0.13882440690994302,0.0473941620826723
0.445184736523319,-0.120256550216675,0.0336169993400574,0.126429806613922
0.445790430042399,0.193491008377075,-0.0166784108161926,0.219835568332672
0.446396123561478,0.0497898365020752,-0.162774602222443,0.100084591770172
0.447001817080557,0.136010539627075,-0.050208684253692605,0.0330240448951723
0.447607510599637,0.06415995368957521,-0.13882440690994302,0.124034787082672
0.448213204118716,-0.113071491622925,0.17971319074630698,-0.0268514433860778
0.448818897637795,-0.00290059318542481,-0.232230168628693,0.131219845676422
0.449424591156875,0.24139139900207499,-0.26815546159744297,-0.0436165801048277
0.450030284675954,0.00667948493957519,0.27790899152755705,-0.012481326198577801
0.450635978195033,-0.0172707103729248,-0.0933190358161926,0.056974240207672305
0.451241671714113,-0.160971882247925,-0.167564641284943,0.234205685520172
0.451847365233192,-0.0172707103729248,0.0527771555900574,0.270130978488922
0.452453058752271,0.18151591072082499,-0.019073430347442598,0.289291134738922
0.453058752271351,-0.204082233810425,-0.08373895769119259,0.231810665988922
0.45366444579043,0.10487528572082501,-0.12924432878494302,0.327611447238922
0.454270139309509,0.042604777908325196,-0.201094914722443,0.36353674020767196
0.454875832828589,0.07134501228332521,-0.0166784108161926,-0.18013269338607799
0.455481526347668,-0.050800983810424805,-0.08613397722244259,0.124034787082672
0.456087219866747,-0.046010944747924803,-0.00470331315994262,0.210255490207672
0.456692913385827,0.0186545825958252,-0.047813664722442605,0.150380001926422
0.457298606904906,0.0881101490020752,0.0503821360588074,-0.10109704885482801
0.457904300423985,0.0282346607208252,0.0192468821525574,0.0928995331764223
0.458509993943065,-0.19210713615417502,-0.186724797534943,0.164750119113922
0.459115687462144,-0.0412209056854248,0.143787897777557,-0.110677126979828
0.459721380981224,-0.13223164787292502,-0.18432977800369302,0.346771603488922
0.460327074500303,0.06655497322082521,0.00487676496505738,-0.0531966582298277
0.460932768019382,-0.194502155685425,-0.0430236256599426,-0.17534265432357798
0.461538461538462,-0.120256550216675,0.014456843090057401,0.684469357395172
0.462144155057541,0.0114695240020752,0.191688288402557,0.00907384958267225
0.46274984857662,-0.122651569747925,-0.0669738209724426,-0.184922732448578
0.4633555420957,-0.0100856517791748,-0.162774602222443,0.16235509958267202
0.463961235614779,-0.0196657299041748,-0.141219426441193,-0.017271365261077802
0.464566929133858,-0.055591022872924806,-0.00949335222244262,0.215045529270172
0.465172622652938,-0.134626667404175,0.0910974680900574,0.24857580270767202
0.465778316172017,-0.115466511154175,-0.0573937428474426,0.260550900363922
0.466384009691096,-0.0124806713104248,-0.148404485034943,0.116849728488922
0.466989703210176,-0.00290059318542481,-0.0621837819099426,-0.0316414824485778
0.467595396729255,-0.228032429122925,-0.313660832691193,0.0234439667701722
0.468201090248334,0.0857151294708252,-0.0406286061286926,0.0426041230201723
0.468806783767414,-0.0819362377166748,-0.148404485034943,0.0857144745826723
0.469412477286493,0.0545798755645752,-0.141219426441193,0.224625607395172
0.470018170805572,0.179120891189575,0.00248174543380738,0.0306290253639222
0.470623864324652,-0.0987013744354248,-0.153194524097443,0.16235509958267202
0.471229557843731,0.10008524665832501,-0.00230829362869262,0.229415646457672
0.47183525136281,-0.160971882247925,0.043197077465057396,0.21744054880142202
0.47244094488189,0.0976902271270752,0.0575671946525574,0.0905045136451723
0.473046638400969,0.0234446216583252,-0.0430236256599426,-0.017271365261077802
0.473652331920048,-0.13223164787292502,0.026431940746307402,0.100084591770172
0.474258025439128,-0.0699611400604248,0.136602839183807,0.167145138645172
0.474863718958207,-0.158576862716675,0.0479871165275574,0.0905045136451723
0.475469412477286,-0.0891212963104248,-0.0382335865974426,0.109664669895172
0.476075105996366,-0.316648151779175,-0.0358385670661926,0.186305294895172
0.476680799515445,-0.30946309318542503,-0.014283391284942598,0.17912023630142201
0.477286493034525,-0.134626667404175,-0.177144719409943,0.25097082223892203
0.477892186553604,-0.00290059318542481,0.0240369212150574,-0.012481326198577801
0.478497880072683,-0.0675661205291748,0.11504766340255701,-0.036431521511077695
0.479103573591763,-0.0675661205291748,0.301859186840057,0.0833194550514223
0.479709267110842,-0.13702168693542502,-0.007098332691192619,0.0928995331764223
0.480314960629921,-0.0891212963104248,-0.272945500659943,0.119244748020172
0.480920654149001,0.00428446540832519,0.100677546215057,0.056974240207672305
0.48152634766808,-0.048405964279174804,-0.323240910816193,0.255760861301422
0.482132041187159,0.0785300708770752,-0.102899113941193,0.052184201145172304
0.482737734706239,-0.189712116622925,-0.08373895769119259,0.0330240448951723
0.483343428225318,-0.0436159252166748,-0.007098332691192619,0.306056271457672
0.483949121744397,0.00428446540832519,-0.284920598316193,0.22223058786392202
0.484554815263477,0.0521848560333252,-0.241810246753693,-0.0029012480735777497
0.485160508782556,-0.184922077560425,0.0479871165275574,-0.177737673854828
0.485766202301635,-0.172946979904175,-0.227440129566193,0.00667883005142225
0.486371895820715,0.10487528572082501,-0.07655389909744259,-0.0029012480735777497
0.486977589339794,-0.290302936935425,-0.0334435475349426,0.12882482614517202
0.487583282858873,0.0114695240020752,-0.0166784108161926,0.159960080051422
0.488188976377953,-0.180132038497925,-0.0166784108161926,0.049789181613922304
0.488794669897032,-0.0148756908416748,0.153367975902557,-0.0100863066673278
0.489400363416111,-0.160971882247925,-0.07655389909744259,0.210255490207672
0.490006056935191,0.121640422439575,0.0671472727775574,0.028234005832672198
0.49061175045427,0.351562297439575,-0.131639348316193,0.389881955051422
0.491217443973349,-0.000505573654174813,-0.019073430347442598,0.0426041230201723
0.491823137492429,-0.0124806713104248,0.0072717844963073805,0.5383731659889219
0.492428831011508,0.0545798755645752,-0.13403436784744302,0.346771603488922
0.493034524530587,0.0545798755645752,0.0527771555900574,-0.110677126979828
0.493640218049667,-0.218452350997925,-0.210674992847443,0.31324133005142196
0.494245911568746,0.17193583259582498,-0.0430236256599426,-0.15618249807357798
0.494851605087826,-0.0148756908416748,-0.11247919206619299,0.13840490427017202
0.495457298606905,-0.0699611400604248,-0.17953973894119302,0.0641592988014223
0.496062992125984,0.10248026618957501,-0.052603703784942606,-0.0076912871360777495
0.496668685645064,-0.00290059318542481,-0.148404485034943,0.131219845676422
0.497274379164143,0.116850383377075,-0.0382335865974426,0.0354190644264223
0.497880072683222,0.0449997974395752,-0.0693688405036926,0.056974240207672305
0.498485766202302,-0.0891212963104248,-0.07176386003494259,0.200675412082672
0.499091459721381,-0.144206745529175,-0.160379582691193,-0.168157595729828
0.49969715324046,0.0306296802520752,0.014456843090057401,0.12882482614517202
0.50030284675954,-0.0795412181854248,0.0072717844963073805,0.298871212863922
0.500908540278619,-0.129836628341675,-0.11247919206619299,0.181515255832672
0.501514233797698,-0.139416706466675,-0.0981090748786926,0.0689493378639223
0.502119927316778,-0.0867262767791748,-0.153194524097443,-0.00050622854232775
0.502725620835857,-0.0436159252166748,-0.126849309253693,0.126429806613922
0.503331314354936,-0.108281452560425,0.00248174543380738,0.15277502145767202
0.503937007874016,0.0282346607208252,0.038407038402557395,-0.0460115996360777
0.504542701393095,0.00428446540832519,-0.131639348316193,0.0881094941139223
0.505148394912174,0.10008524665832501,0.0743323313713074,0.0761343964576723
0.505754088431254,-0.0675661205291748,-0.237020207691193,0.119244748020172
0.506359781950333,0.035419719314575195,0.0312219798088074,0.112059689426422
0.506965475469413,0.191095988845825,0.0767273509025574,-0.0076912871360777495
0.507571168988492,0.00428446540832519,-0.0573937428474426,0.119244748020172
0.508176862507571,-0.129836628341675,-0.203489934253693,0.0330240448951723
0.50878255602665,0.00907450447082519,-0.0909240162849426,-0.134627322292328
0.50938824954573,0.0282346607208252,-0.0334435475349426,-0.0196663847923278
0.509993943064809,-0.20168721427917502,-0.11966425065994299,0.140799923801422
0.510599636583889,0.06894999275207521,0.09828252668380741,0.200675412082672
0.511205330102968,0.124035441970825,-0.11726923112869299,0.112059689426422
0.511811023622047,0.040209758377075196,-0.165169621753693,0.12882482614517202
0.512416717141127,-0.189712116622925,-0.23462518815994302,-0.0843319121360777
0.513022410660206,0.0258396411895752,0.0072717844963073805,0.0809244355201723
0.513628104179285,-0.0172707103729248,-0.00949335222244262,0.308451290988922
0.514233797698365,-0.0220607494354248,0.00248174543380738,-0.0268514433860778
0.514839491217444,0.040209758377075196,-0.11966425065994299,0.0761343964576723
0.515445184736523,-0.323833210372925,-0.13882440690994302,0.0833194550514223
0.516050878255603,-0.110676472091675,0.0216419016838074,-0.0460115996360777
0.516656571774682,-0.00290059318542481,-0.222650090503693,0.0761343964576723
0.517262265293761,0.0138645435333252,-0.07894891862869259,-0.0963070097923277
0.517867958812841,-0.271142780685425,0.0839124094963074,-0.0579866972923277
0.51847365233192,0.16235575447082498,-0.256180363941193,0.22223058786392202
0.519079345850999,0.07134501228332521,0.043197077465057396,-0.0579866972923277
0.519685039370079,-0.0939113353729248,-0.045418645191192604,-0.0484066191673277
0.520290732889158,0.0282346607208252,-0.18911981706619302,-0.110677126979828
0.520896426408237,-0.0340358470916748,-0.0573937428474426,0.337191525363922
0.521502119927317,0.00907450447082519,0.158158014965057,0.6964444550514219
0.522107813446396,-0.20168721427917502,0.00248174543380738,-0.18013269338607799
0.522713506965475,-0.0675661205291748,-0.232230168628693,-0.21605798635482798
0.523319200484555,-0.204082233810425,-0.0166784108161926,-0.0100863066673278
0.523924894003634,0.06894999275207521,-0.105294133472443,-0.06996179494857771
0.524530587522714,0.0306296802520752,0.136602839183807,0.114454708957672
0.525136281041793,0.0114695240020752,-0.007098332691192619,0.056974240207672305
0.525741974560872,0.150380656814575,-0.146009465503693,0.267735958957672
0.526347668079951,0.159960734939575,-0.24420526628494302,0.315636349582672
0.526953361599031,0.267736613845825,0.0120618235588074,-0.0436165801048277
0.52755905511811,-0.0699611400604248,-0.186724797534943,0.00907384958267225
0.52816474863719,0.10248026618957501,0.12941778059005699,-0.0484066191673277
0.528770442156269,-0.15139180412292502,-0.00470331315994262,0.0354190644264223
0.529376135675348,-0.0939113353729248,-0.126849309253693,0.20307043161392202
0.529981829194428,0.00428446540832519,-0.00949335222244262,0.169540158176422
0.530587522713507,-0.0388258861541748,-0.13403436784744302,0.24857580270767202
0.531193216232586,0.16235575447082498,0.198873346996307,0.181515255832672
0.531798909751666,-0.134626667404175,-0.186724797534943,0.18391027536392202
0.532404603270745,0.0114695240020752,-0.0382335865974426,0.00188879098892225
0.533010296789824,-0.0292458080291748,-0.08134393815994259,0.0665543183326723
0.533615990308904,-0.00290059318542481,-0.186724797534943,0.0785294159889223
0.534221683827983,0.00188944587707519,-0.0693688405036926,0.059369259738922306
0.534827377347062,0.124035441970825,-0.014283391284942598,-0.038826541042327696
0.535433070866142,-0.0843312572479248,-0.301685735034943,0.049789181613922304
0.536038764385221,-0.32862324943542504,-0.162774602222443,0.124034787082672
0.5366444579043,0.0857151294708252,-0.177144719409943,0.0306290253639222
0.53725015142338,0.0761350513458252,-0.054998723316192606,0.028234005832672198
0.537855844942459,0.210256145095825,0.0192468821525574,-0.038826541042327696
0.538461538461538,-0.13223164787292502,-0.00949335222244262,0.195885373020172
0.539067231980618,-0.00290059318542481,-0.0669738209724426,0.0713443573951723
0.539672925499697,0.183910930252075,-0.208279973316193,0.13361486520767202
0.540278619018776,0.11445536384582501,-0.0334435475349426,0.0234439667701722
0.540884312537856,0.138405559158325,-0.220255070972443,0.00667883005142225
0.541490006056935,0.143195598220825,-0.0597887623786926,0.131219845676422
0.542095699576015,-0.0196657299041748,-0.054998723316192606,0.215045529270172
0.542701393095094,-0.0795412181854248,-0.19390985612869302,0.20307043161392202
0.543307086614173,0.040209758377075196,-0.203489934253693,0.258155880832672
0.543912780133253,-0.050800983810424805,-0.150799504566193,0.028234005832672198
0.544518473652332,-0.055591022872924806,-0.050208684253692605,-0.144207400417328
0.545124167171411,-0.156181843185425,-0.0286535084724426,-0.06996179494857771
0.545729860690491,-0.0436159252166748,-0.371141301441193,-0.0076912871360777495
0.54633555420957,-0.165761921310425,-0.31845087175369297,0.119244748020172
0.546941247728649,-0.0364308666229248,-0.0597887623786926,-0.148997439479828
0.547546941247729,-0.0771461986541748,-0.27055048112869295,0.124034787082672
0.548152634766808,-0.0268507884979248,-0.00230829362869262,-0.06996179494857771
0.548758328285887,0.186305949783325,-0.0933190358161926,0.0617642792701723
0.549364021804967,-0.050800983810424805,-0.143614445972443,0.119244748020172
0.549969715324046,-0.115466511154175,-0.0981090748786926,0.0785294159889223
0.550575408843125,0.0210496021270752,-0.107689153003693,-0.0316414824485778
0.551181102362205,0.0521848560333252,0.09349248762130741,-0.115467166042328
0.551786795881284,0.00667948493957519,-0.07894891862869259,0.47370763864517196
0.552392489400363,0.174330852127075,0.038407038402557395,0.301266232395172
0.552998182919443,-0.144206745529175,-0.052603703784942606,0.19349035348892202
0.553603876438522,0.119245402908325,-0.0262584889411926,0.0162589081764222
0.554209569957601,0.15756571540832498,0.0815173899650574,0.136009884738922
0.554815263476681,-0.189712116622925,-0.0597887623786926,0.370721798801422
0.55542095699576,0.0114695240020752,-0.146009465503693,0.176725216770172
0.556026650514839,-0.0651711009979248,-0.00949335222244262,0.186305294895172
0.556632344033919,0.06894999275207521,-0.102899113941193,0.224625607395172
0.557238037552998,-0.103491413497925,-0.0382335865974426,0.00428381052017225
0.557843731072078,-0.055591022872924806,0.0551721751213074,0.145589962863922
0.558449424591157,0.128825481033325,-0.019073430347442598,0.34437658395767196
0.559055118110236,-0.0436159252166748,0.0767273509025574,-0.0076912871360777495
0.559660811629316,-0.0963063549041748,-0.0358385670661926,0.253365841770172
0.560266505148395,-0.0723561595916748,-0.162774602222443,0.349166623020172
0.560872198667474,0.138405559158325,-0.143614445972443,0.16235509958267202
0.561477892186554,-0.18731709709167502,0.00248174543380738,-0.017271365261077802
0.562083585705633,-0.13702168693542502,-0.0166784108161926,-0.0436165801048277
0.562689279224712,-0.0340358470916748,-0.105294133472443,0.200675412082672
0.563294972743792,-0.172946979904175,0.12223272199630701,0.124034787082672
0.563900666262871,0.00188944587707519,-0.136429387378693,0.0617642792701723
0.56450635978195,-0.048405964279174804,-0.08373895769119259,0.12882482614517202
0.56511205330103,0.06655497322082521,0.11983770246505701,0.00428381052017225
0.565717746820109,0.035419719314575195,-0.11966425065994299,-0.0148763457298278
0.566323440339188,-0.103491413497925,0.0312219798088074,0.200675412082672
0.566929133858268,0.0258396411895752,-0.047813664722442605,0.124034787082672
0.567534827377347,0.255761516189575,-0.0406286061286926,0.22223058786392202
0.568140520896426,-0.129836628341675,0.00966680402755738,0.358746701145172
0.568746214415506,-0.0388258861541748,-0.263365422534943,0.0857144745826723
0.569351907934585,0.0258396411895752,-0.0430236256599426,0.145589962863922
0.569957601453664,0.119245402908325,0.136602839183807,0.0689493378639223
0.570563294972744,0.27013163337707496,0.09349248762130741,-0.158577517604828
0.571168988491823,0.16714579353332498,0.0312219798088074,0.052184201145172304
0.571774682010902,0.10008524665832501,-0.162774602222443,0.30366125192642196
0.572380375529982,-0.0603810619354248,-0.07415887956619259,0.267735958957672
0.572986069049061,0.07374003181457521,-0.0334435475349426,0.224625607395172
0.57359176256814,-0.0172707103729248,0.09828252668380741,0.22223058786392202
0.57419745608722,0.260551555252075,0.09828252668380741,0.155170040988922
0.574803149606299,0.0833201099395752,-0.32084589128494295,0.109664669895172
0.575408843125379,-0.103491413497925,-0.148404485034943,0.049789181613922304
0.576014536644458,0.0114695240020752,-0.00470331315994262,0.14798498239517202
0.576620230163537,-0.225637409591675,-0.26097040300369295,0.0928995331764223
0.577225923682617,0.164750774002075,-0.0430236256599426,0.049789181613922304
0.577831617201696,-0.170551960372925,-0.11247919206619299,0.0330240448951723
0.578437310720775,-0.0436159252166748,-0.019073430347442598,-0.0771468535423277
0.579043004239855,0.291686809158325,0.0192468821525574,0.121639767551422
0.579648697758934,0.0857151294708252,-0.0286535084724426,0.14319494333267202
0.580254391278013,-0.048405964279174804,-0.07655389909744259,0.00428381052017225
0.580860084797093,0.0881101490020752,-0.0430236256599426,0.00907384958267225
0.581465778316172,0.06415995368957521,0.138997858715057,0.490472775363922
0.582071471835251,-0.273537800216675,0.0695422923088074,0.0952945527076723
0.582677165354331,-0.0771461986541748,0.00248174543380738,-0.25677331838607803
0.58328285887341,0.0186545825958252,-0.11008417253494299,0.195885373020172
0.583888552392489,-0.194502155685425,-0.00949335222244262,0.0138638886451722
0.584494245911569,-0.208872272872925,-0.0310485280036926,0.104874630832672
0.585099939430648,0.119245402908325,-0.08373895769119259,0.0881094941139223
0.585705632949727,0.0114695240020752,-0.08134393815994259,0.145589962863922
0.586311326468807,-0.0651711009979248,-0.105294133472443,0.140799923801422
0.586917019987886,0.133615520095825,-0.181934758472443,0.176725216770172
0.587522713506965,0.11445536384582501,0.00487676496505738,-0.07235681447982771
0.588128407026045,0.219836223220825,0.0695422923088074,0.16235509958267202
0.588734100545124,-0.0915163158416748,-0.18911981706619302,0.28450109567642196
0.589339794064203,-0.00769063224792481,-0.0358385670661926,-0.0220614043235778
0.589945487583283,0.037814738845825195,-0.11726923112869299,0.310846310520172
0.590551181102362,-0.0843312572479248,-0.08373895769119259,0.049789181613922304
0.591156874621442,-0.148996784591675,-0.12924432878494302,0.114454708957672
0.591762568140521,-0.0364308666229248,-0.0885289967536926,0.241390744113922
0.5923682616596,-0.0915163158416748,0.0192468821525574,0.109664669895172
0.59297395517868,-0.189712116622925,-0.18911981706619302,0.20786047067642202
0.593579648697759,0.00428446540832519,0.0336169993400574,0.028234005832672198
0.594185342216838,-0.19689717521667502,-0.00470331315994262,0.0378140839576723
0.594791035735918,0.0521848560333252,-0.11487421159744299,0.054579220676422305
0.595396729254997,0.0545798755645752,0.0288269602775574,0.20307043161392202
0.596002422774076,-0.0723561595916748,-0.0118883717536926,0.17912023630142201
0.596608116293156,-0.101096393966675,-0.256180363941193,-0.06517175588607771
0.597213809812235,-0.000505573654174813,-0.181934758472443,0.0354190644264223
0.597819503331314,0.0449997974395752,-0.0621837819099426,-0.0436165801048277
0.598425196850394,-0.134626667404175,-0.019073430347442598,0.109664669895172
0.599030890369473,-0.057986042404174806,-0.050208684253692605,0.0402091034889223
0.599636583888552,-0.0196657299041748,-0.007098332691192619,-0.06996179494857771
0.600242277407632,-0.158576862716675,-0.0573937428474426,0.186305294895172
0.600847970926711,0.0952952075958252,-0.282525578784943,0.169540158176422
0.60145366444579,0.219836223220825,0.131812800121307,0.0665543183326723
0.60205935796487,-0.251982624435425,0.0863074290275574,0.102479611301422
0.602665051483949,0.159960734939575,-0.07415887956619259,0.200675412082672
0.603270745003028,0.0952952075958252,0.10307256574630701,0.215045529270172
0.603876438522108,-0.213662311935425,-0.07415887956619259,0.171935177707672
0.604482132041187,0.10008524665832501,-0.00949335222244262,0.18870031442642202
0.605087825560267,-0.0100856517791748,-0.16995966081619301,0.14319494333267202
0.605693519079346,0.210256145095825,-0.162774602222443,0.174330197238922
0.606299212598425,-0.110676472091675,0.11744268293380701,0.0857144745826723
0.606904906117504,-0.0172707103729248,-0.050208684253692605,0.0330240448951723
0.607510599636584,0.145590617752075,-0.08373895769119259,0.114454708957672
0.608116293155663,-0.0436159252166748,-0.08373895769119259,-0.0316414824485778
0.608721986674743,-0.050800983810424805,-0.17474969987869302,0.124034787082672
0.609327680193822,-0.000505573654174813,0.045592096996307396,-0.060381716823577694
0.609933373712901,-0.170551960372925,0.09828252668380741,0.0881094941139223
0.610539067231981,-0.0891212963104248,-0.107689153003693,0.631778927707672
0.61114476075106,0.195886027908325,-0.07894891862869259,0.454547482395172
0.611750454270139,0.0833201099395752,0.0695422923088074,0.20307043161392202
0.612356147789219,0.0809250904083252,-0.07655389909744259,0.0234439667701722
0.612961841308298,-0.158576862716675,-0.215465031909943,-0.0148763457298278
0.613567534827377,-0.053196003341674805,-0.0310485280036926,0.124034787082672
0.614173228346457,-0.170551960372925,-0.0645788014411926,0.052184201145172304
0.614778921865536,-0.103491413497925,0.026431940746307402,0.0785294159889223
0.615384615384615,-0.0124806713104248,0.0791223704338074,0.0833194550514223
0.615990308903695,-0.21126729240417502,0.0336169993400574,0.0449991425514223
0.616596002422774,0.0833201099395752,0.143787897777557,0.126429806613922
0.617201695941853,-0.0124806713104248,-0.0334435475349426,0.18391027536392202
0.617807389460933,-0.0244557689666748,-0.107689153003693,0.124034787082672
0.618413082980012,-0.129836628341675,0.0336169993400574,0.0952945527076723
0.619018776499091,0.0186545825958252,0.0839124094963074,0.0354190644264223
0.619624470018171,-0.0148756908416748,-0.11966425065994299,0.102479611301422
0.62023016353725,-0.00290059318542481,-0.07176386003494259,0.327611447238922
0.620835857056329,0.136010539627075,-0.11726923112869299,0.286896115207672
0.621441550575409,-0.0244557689666748,-0.29929071550369296,0.224625607395172
0.622047244094488,-0.0052956127166748105,0.0288269602775574,0.0186539277076722
0.622652937613568,-0.168156940841675,-0.0597887623786926,0.0665543183326723
0.623258631132647,0.0234446216583252,-0.07655389909744259,0.102479611301422
0.623864324651726,-0.244797565841675,-0.143614445972443,-0.00050622854232775
0.624470018170806,-0.0747511791229248,0.00248174543380738,0.0689493378639223
0.625075711689885,-0.0987013744354248,-0.052603703784942606,0.346771603488922
0.625681405208964,-0.342993366622925,-0.196304875659943,0.19349035348892202
0.626287098728044,-0.0172707103729248,0.11504766340255701,0.107269650363922
0.626892792247123,-0.0915163158416748,-0.0166784108161926,0.210255490207672
0.627498485766202,0.061764934158325194,-0.050208684253692605,0.0162589081764222
0.628104179285282,-0.144206745529175,0.0168518626213074,0.23899572458267201
0.628709872804361,0.0976902271270752,0.0743323313713074,0.246180783176422
0.62931556632344,0.205466106033325,-0.0214684498786926,-0.132232302761078
0.62992125984252,-0.050800983810424805,-0.047813664722442605,-0.0220614043235778
0.630526953361599,-0.0699611400604248,-0.0166784108161926,0.298871212863922
0.631132646880678,0.0569748950958252,0.131812800121307,0.136009884738922
0.631738340399758,-0.0292458080291748,0.10786260480880701,0.0210489472389222
0.632344033918837,-0.175341999435425,-0.157984563159943,0.14319494333267202
0.632949727437916,0.116850383377075,-0.0334435475349426,0.00428381052017225
0.633555420956996,0.00907450447082519,-0.107689153003693,0.0210489472389222
0.634161114476075,-0.053196003341674805,-0.00949335222244262,0.112059689426422
0.634766807995154,0.00188944587707519,-0.07655389909744259,0.140799923801422
0.635372501514234,0.327612102127075,-0.054998723316192606,0.131219845676422
0.635978195033313,0.16235575447082498,-0.0358385670661926,-0.0771468535423277
0.636583888552392,0.23181132087707498,-0.162774602222443,0.167145138645172
0.637189582071472,-0.0220607494354248,-0.054998723316192606,0.28450109567642196
0.637795275590551,-0.283117878341675,-0.162774602222443,0.0905045136451723
0.638400969109631,0.124035441970825,0.036012018871307394,0.028234005832672198
0.63900666262871,-0.129836628341675,0.0479871165275574,0.0473941620826723
0.639612356147789,0.260551555252075,-0.12924432878494302,0.0905045136451723
0.640218049666869,-0.129836628341675,-0.0981090748786926,-0.22084802541732798
0.640823743185948,-0.0939113353729248,0.150972956371307,0.18391027536392202
0.641429436705027,-0.0843312572479248,0.00487676496505738,0.665309201145172
0.642035130224107,-0.307068073654175,0.0503821360588074,0.24857580270767202
0.642640823743186,0.0929001880645752,0.0288269602775574,0.0354190644264223
0.643246517262265,-0.225637409591675,-0.102899113941193,0.0785294159889223
0.643852210781345,-0.0436159252166748,-0.0358385670661926,0.21744054880142202
0.644457904300424,-0.0292458080291748,-0.105294133472443,0.121639767551422
0.645063597819503,-0.0148756908416748,0.0767273509025574,0.0737393769264223
0.645669291338583,-0.0699611400604248,-0.205884953784943,0.0737393769264223
0.646274984857662,0.11445536384582501,-0.00230829362869262,0.131219845676422
0.646880678376741,-0.249587604904175,-0.13882440690994302,0.215045529270172
0.647486371895821,-0.115466511154175,-0.17953973894119302,0.0114688691139222
0.6480920654149,0.0545798755645752,-0.0957140553474426,-0.0963070097923277
0.648697758933979,-0.050800983810424805,-0.26815546159744297,-0.034036501979827695
0.649303452453059,0.11206034431457501,0.0288269602775574,0.114454708957672
0.649909145972138,-0.170551960372925,-0.172354680347443,0.171935177707672
0.650514839491217,0.15756571540832498,-0.102899113941193,-0.0029012480735777497
0.651120533010297,-0.0987013744354248,0.0216419016838074,0.171935177707672
0.651726226529376,0.248576457595825,0.038407038402557395,0.167145138645172
0.652331920048455,0.138405559158325,-0.143614445972443,0.0905045136451723
0.652937613567535,0.0186545825958252,-0.23462518815994302,0.231810665988922
0.653543307086614,0.06655497322082521,-0.0597887623786926,-0.0436165801048277
0.654149000605693,-0.000505573654174813,0.11504766340255701,0.0186539277076722
0.654754694124773,0.191095988845825,0.0288269602775574,0.056974240207672305
0.655360387643852,-0.189712116622925,-0.0933190358161926,-0.0029012480735777497
0.655966081162932,-0.158576862716675,-0.0669738209724426,0.126429806613922
0.656571774682011,-0.144206745529175,-0.153194524097443,0.274921017551422
0.65717746820109,-0.0052956127166748105,-0.08134393815994259,0.15277502145767202
0.65778316172017,0.0593699146270752,-0.11726923112869299,0.100084591770172
0.658388855239249,0.0952952075958252,-0.0382335865974426,0.056974240207672305
0.658994548758328,-0.19210713615417502,0.043197077465057396,0.109664669895172
0.659600242277408,-0.134626667404175,0.0336169993400574,0.19828039255142202
0.660205935796487,0.133615520095825,-0.0382335865974426,0.23899572458267201
0.660811629315566,0.0449997974395752,0.0336169993400574,0.0426041230201723
0.661417322834646,0.037814738845825195,0.040802057933807395,0.0186539277076722
0.662023016353725,-0.24240254631042502,-0.07655389909744259,0.327611447238922
0.662628709872804,-0.0963063549041748,-0.00949335222244262,0.150380001926422
0.663234403391884,-0.0388258861541748,-0.237020207691193,-0.012481326198577801
0.663840096910963,-0.0100856517791748,-0.160379582691193,-0.148997439479828
0.664445790430042,0.040209758377075196,0.026431940746307402,0.0473941620826723
0.665051483949122,0.0282346607208252,0.0671472727775574,-0.0412215605735777
0.665657177468201,0.0952952075958252,-0.0286535084724426,0.255760861301422
0.66626287098728,-0.0987013744354248,-0.177144719409943,0.301266232395172
0.66686856450636,-0.103491413497925,0.026431940746307402,-0.00050622854232775
0.667474258025439,-0.0436159252166748,-0.0669738209724426,0.25097082223892203
0.668079951544518,-0.144206745529175,-0.00230829362869262,0.056974240207672305
0.668685645063598,-0.144206745529175,-0.102899113941193,-0.16097253713607798
0.669291338582677,0.10727030525207501,-0.08134393815994259,0.100084591770172
0.669897032101756,-0.0172707103729248,-0.107689153003693,0.792245236301422
0.670502725620836,-0.194502155685425,-0.12445428972244299,0.140799923801422
0.671108419139915,0.121640422439575,0.10307256574630701,0.0857144745826723
0.671714112658994,0.0881101490020752,-0.0957140553474426,0.753924923801422
0.672319806178074,-0.0603810619354248,0.0503821360588074,0.34437658395767196
0.672925499697153,-0.14181172599792502,-0.105294133472443,-0.0412215605735777
0.673531193216233,-0.0172707103729248,0.0791223704338074,0.0641592988014223
0.674136886735312,-0.057986042404174806,0.0192468821525574,0.171935177707672
0.674742580254391,0.0809250904083252,-0.08613397722244259,0.00907384958267225
0.675348273773471,0.10248026618957501,-0.172354680347443,0.131219845676422
0.67595396729255,0.00907450447082519,-0.126849309253693,-0.0771468535423277
0.676559660811629,0.0593699146270752,-0.0430236256599426,0.0641592988014223
0.677165354330709,-0.25916768302917503,-0.052603703784942606,0.0234439667701722
0.677771047849788,-0.17773701896667501,-0.0238634694099426,-0.0148763457298278
0.678376741368867,-0.0963063549041748,-0.34958612565994296,-0.0220614043235778
0.678982434887947,-0.0364308666229248,-0.050208684253692605,-0.16576257619857798
0.679588128407026,-0.0891212963104248,-0.28971063737869296,0.112059689426422
0.680193821926105,-0.101096393966675,-0.136429387378693,-0.0531966582298277
0.680799515445185,-0.0124806713104248,0.043197077465057396,-0.06517175588607771
0.681405208964264,0.121640422439575,-0.0238634694099426,-0.12504724416732801
0.682010902483343,0.06415995368957521,-0.0334435475349426,-0.0843319121360777
0.682616596002423,-0.0915163158416748,-0.11726923112869299,0.19349035348892202
0.683222289521502,-0.0651711009979248,0.177318171215057,0.16235509958267202
0.683827983040581,-0.172946979904175,0.0551721751213074,0.126429806613922
0.684433676559661,-0.0412209056854248,-0.246600285816193,-0.038826541042327696
0.68503937007874,-0.18731709709167502,-0.24420526628494302,-0.07235681447982771
0.68564506359782,0.10487528572082501,0.00248174543380738,-0.0627767363548277
0.686250757116899,0.0306296802520752,-0.0621837819099426,0.100084591770172
0.686856450635978,-0.0100856517791748,-0.0957140553474426,0.169540158176422
0.687462144155058,0.07374003181457521,-0.052603703784942606,0.267735958957672
0.688067837674137,0.0952952075958252,-0.07176386003494259,0.0426041230201723
0.688673531193216,0.21744120368957498,-0.26097040300369295,0.00667883005142225
0.689279224712296,-0.297487995529175,0.138997858715057,-0.148997439479828
0.689884918231375,-0.00290059318542481,0.172528132152557,0.0905045136451723
0.690490611750454,-0.134626667404175,-0.27055048112869295,0.255760861301422
0.691096305269534,-0.0795412181854248,-0.0262584889411926,-0.0484066191673277
0.691701998788613,0.0306296802520752,-0.13403436784744302,0.215045529270172
0.692307692307692,0.229416301345825,0.0072717844963073805,0.114454708957672
0.692913385826772,0.16235575447082498,0.00248174543380738,0.28450109567642196
0.693519079345851,-0.0316408275604248,-0.0382335865974426,0.0785294159889223
0.69412477286493,0.0545798755645752,-0.0358385670661926,0.00428381052017225
0.69473046638401,-0.278327839279175,-0.208279973316193,0.279711056613922
0.695336159903089,-0.0723561595916748,-0.0334435475349426,0.059369259738922306
0.695941853422168,-0.189712116622925,-0.153194524097443,0.15277502145767202
0.696547546941248,-0.19210713615417502,-0.11726923112869299,0.21265050973892202
0.697153240460327,-0.122651569747925,-0.07176386003494259,0.18391027536392202
0.697758933979406,-0.19210713615417502,-0.0118883717536926,0.112059689426422
0.698364627498486,-0.0987013744354248,-0.222650090503693,0.171935177707672
0.698970321017565,0.00907450447082519,-0.0573937428474426,-0.0819368926048277
0.699576014536644,0.0162595630645752,0.10307256574630701,-0.06756677541732771
0.700181708055724,0.0809250904083252,-0.08373895769119259,0.124034787082672
0.700787401574803,0.12643046150207501,-0.047813664722442605,-0.117862185573578
0.701393095093882,-0.24719258537292502,-0.0382335865974426,0.375511837863922
0.701998788612962,0.0545798755645752,-0.148404485034943,0.852120724582672
0.702604482132041,0.11206034431457501,-0.165169621753693,0.246180783176422
0.703210175651121,0.0258396411895752,-0.107689153003693,-0.189712771511078
0.7038158691702,0.174330852127075,-0.306475774097443,0.186305294895172
0.704421562689279,0.188700969314575,-0.16995966081619301,-0.0819368926048277
0.705027256208359,-0.0148756908416748,0.11265264387130701,-0.328623904323578
0.705632949727438,-0.115466511154175,-0.0238634694099426,-0.362154177761078
0.706238643246517,-0.127441608810425,-0.07894891862869259,-0.0915169707298277
0.706844336765597,-0.0412209056854248,0.162948054027557,0.164750119113922
0.707450030284676,-0.053196003341674805,-0.0933190358161926,0.102479611301422
0.708055723803755,-0.362153522872925,0.0336169993400574,0.0306290253639222
0.708661417322835,0.155170695877075,0.00487676496505738,0.056974240207672305
0.709267110841914,0.145590617752075,-0.313660832691193,0.119244748020172
0.709872804360993,-0.168156940841675,-0.155589543628693,-0.10109704885482801
0.710478497880073,0.11206034431457501,-0.0933190358161926,0.059369259738922306
0.711084191399152,0.0138645435333252,0.10546758527755701,0.0162589081764222
0.711689884918231,-0.046010944747924803,-0.0286535084724426,0.0114688691139222
0.712295578437311,-0.165761921310425,-0.11008417253494299,0.21744054880142202
0.71290127195639,-0.0364308666229248,0.0695422923088074,0.15756506052017202
0.713506965475469,-0.0436159252166748,-0.26815546159744297,0.176725216770172
0.714112658994549,0.119245402908325,-0.17474969987869302,-0.0292464629173278
0.714718352513628,-0.163366901779175,-0.157984563159943,-0.0148763457298278
0.715324046032707,-0.0723561595916748,-0.203489934253693,0.224625607395172
0.715929739551787,-0.0987013744354248,-0.150799504566193,0.0737393769264223
0.716535433070866,-0.160971882247925,-0.0382335865974426,0.14319494333267202
0.717141126589945,-0.06277608146667481,8.67259025573771e-05,0.210255490207672
0.717746820109025,-0.19689717521667502,-0.220255070972443,-0.0627767363548277
0.718352513628104,0.06415995368957521,-0.00230829362869262,-0.0579866972923277
0.718958207147184,-0.249587604904175,-0.105294133472443,0.107269650363922
0.719563900666263,0.18151591072082499,-0.181934758472443,0.231810665988922
0.720169594185342,-0.158576862716675,-0.220255070972443,0.0809244355201723
0.720775287704422,-0.144206745529175,-0.296895695972443,-0.0987020293235777
0.721380981223501,-0.0987013744354248,0.0719373118400574,0.0905045136451723
0.72198667474258,-0.0963063549041748,0.273118952465057,0.174330197238922
0.72259236826166,0.0857151294708252,0.17013311262130698,0.298871212863922
0.723198061780739,-0.251982624435425,-0.222650090503693,-0.0555916777610777
0.723803755299818,-0.295092975997925,-0.16995966081619301,-0.491485232448578
0.724409448818898,-0.402868854904175,0.0312219798088074,-0.24000818166732799
0.725015142337977,-0.0100856517791748,0.325809382152557,0.131219845676422
0.725620835857056,0.07374003181457521,0.294674128246307,0.634173947238922
0.726226529376136,0.346772258377075,0.0216419016838074,0.495262814426422
0.726832222895215,0.128825481033325,-0.483707219409943,-0.144207400417328
0.727437916414294,-0.25916768302917503,-0.672913762378693,-0.46514001760482804
0.728043609933374,-0.577705280685425,0.194083307933807,-0.369339236354828
0.728649303452453,-0.326228229904175,0.361734675121307,-0.163367556667328
0.729254996971532,0.437783000564575,0.699432429027557,0.361141720676422
0.729860690490612,0.840146281814575,0.177318171215057,1.1562882050514198
0.730466384009691,0.658124797439575,-0.634593449878693,-0.19689783010482798
0.73107207752877,-0.881872761154175,-0.435806828784943,-1.08305505666733
0.73167777104785,-1.1573000072479198,-0.0262584889411926,-0.06517175588607771
0.732283464566929,-0.457954304122925,0.455140436840057,0.38269689645767196
0.732889158086008,0.708420207595825,0.8503186594963069,0.993426876926422
0.733494851605088,1.3742356372833302,0.18450322980880698,0.770690060520172
0.734100545124167,0.773085734939575,-0.347191106128693,-0.0148763457298278
0.734706238643246,-0.730986530685425,-1.19502802019119,-0.982464236354828
0.735311932162326,-1.7033644603729199,-0.538792668628693,-1.58840417776108
0.735917625681405,-0.644765827560425,0.553336237621307,-0.10349206838607801
0.736523319200485,0.631779582595825,0.943724421215057,1.44848058786392
0.737129012719564,1.39339579353333,1.05150030012131,1.49877599802017
0.737734706238643,0.828171184158325,-0.177144719409943,0.22223058786392202
0.738340399757723,-0.280722858810425,-1.4920104420661902,-1.6075643340110801
0.738946093276802,-1.7249196361541699,-0.881280461597443,-1.61474939260483
0.739551786795881,-1.17646016349792,0.900614069652557,-0.378919314479828
0.740157480314961,0.660519816970825,1.43230840559006,1.0700675019264199
0.74076317383404,1.83886942634583,0.876663874340057,1.5059610566139199
0.741368867353119,1.73588358650208,-0.737579289722443,0.579088498020172
0.741974560872199,-0.35975850334167503,-1.49440546159744,-1.0686849394798301
0.742580254391278,-1.93328633537292,-0.344796086597443,-1.91173181447983
0.743185947910357,-2.20631856193542,0.998809870433807,-1.0686849394798301
0.743791641429437,0.27971171150207497,1.02276006574631,0.603038693332672
0.744397334948516,2.4855246997833302,0.373709772777557,2.04963049020767
0.745003028467595,2.44480936775208,-0.474127141284943,0.818590451145172
0.745608721986675,-0.046010944747924803,-1.0297716725349402,-1.0854500761985801
0.746214415505754,-2.67095235099792,-0.311265813159943,-1.73210534963608
0.746820109024833,-2.89129414787292,0.47909063215255704,-1.37285241994858
0.747425802543913,0.119245402908325,0.42879522199630704,0.514422970676422
0.748031496062992,2.57174540290833,0.574891413402557,1.8484488495826699
0.748637189582071,2.59090555915833,0.12223272199630701,1.49638097848892
0.749242883101151,0.00188944587707519,-0.577112981128693,-0.13702234182357798
0.74984857662023,-2.5440163158416698,-1.13036249284744,-2.29972497854233
0.75045427013931,-2.72603780021667,-0.7088390553474431,-2.24942956838608
0.751059963658389,-0.29988301506042503,0.407240046215057,0.459337521457672
0.751665657177468,2.01610087165833,1.51613408918381,2.40888341989517
0.752271350696547,2.43522928962708,1.11377080793381,1.97538488473892
0.752877044215627,0.713210246658325,-0.876490422534943,-0.0891219511985777
0.753482737734706,-1.67222920646667,-2.18177606706619,-2.80507409963608
0.754088431253786,-2.84099873771667,-1.08006708269119,-2.51527673635483
0.754694124772865,-1.42075215568542,1.2023865305900598,0.164750119113922
0.755299818291944,1.3502854419708301,2.21068975324631,2.11190099802017
0.755905511811024,2.87591288337708,1.0395252024650599,2.09513586130142
0.756511205330103,1.92030009040833,-1.48243036394119,0.246180783176422
0.757116898849182,-1.0662892650604199,-2.22249139909744,-2.12967859182358
0.757722592368262,-3.35592793693542,-0.0885289967536926,-2.5799422636985803
0.758328285887341,-2.79070332756042,1.7747961985588099,-0.661531619167328
0.75893397940642,1.46285135993958,1.65265020246506,1.52272619333267
0.7595396729255,3.84589579353333,0.09349248762130741,2.38493322458267
0.760145366444579,2.73700175056458,-1.0776720631599401,0.804220333957672
0.760751059963658,-1.14532490959167,-1.34591425065994,-1.4494930449485801
0.761356753482738,-4.0888039134979195,0.014456843090057401,-2.06022302541733
0.761962447001817,-3.10205586662292,1.02515508527756,-1.45188806447983
0.762568140520896,1.7765989185333302,0.5293860423088069,1.25927404489517
0.763173834039976,4.10216288337708,0.16534307355880698,2.91423254098892
0.763779527559055,2.83998759040833,-0.162774602222443,1.59936681833267
0.764385221078134,-0.996833698654175,-0.562742863941193,-1.02796960744858
0.764990914597214,-4.10796406974792,-0.878885442066193,-3.47567956838608
0.765596608116293,-2.8362086986541697,-0.36874628190994296,-2.23026941213608
0.766202301635373,1.00540262947083,0.697037409496307,1.44848058786392
0.766807995154452,3.71416971931458,1.5352942454338099,3.42916174020767
0.767413688673531,2.83998759040833,0.919774225902557,1.77899328317642
0.768019382192611,-0.577705280685425,-0.902835637378693,-1.13814050588608
0.76862507571169,-3.22180684318542,-2.27757684831619,-3.4445443144798302
0.769230769230769,-3.0062550853729197,-0.924390813159943,-2.40750085744858
0.769836462749849,-0.599260456466675,1.4155432688713099,0.804220333957672
0.770442156268928,2.9046531177520802,1.9855579173088098,3.0315884980201697
0.771047849788007,3.40521219978333,0.692247370433807,2.5430045136451698
0.771653543307087,0.979057414627075,-1.56386102800369,-0.31664880666732803
0.772259236826166,-2.39792012443542,-1.89676874284744,-3.12121667776108
0.772864930345245,-4.13670430412292,0.0623572337150574,-3.1786971465110803
0.773470623864325,-2.00992696037292,1.9424475657463098,0.140799923801422
0.774076317383404,2.68670634040833,1.6263049876213098,2.82801183786392
0.774682010902483,4.75839823493958,-0.12445428972244299,2.72742101755142
0.775287704421563,1.9610154224395802,-1.34591425065994,0.279711056613922
0.775893397940642,-2.62065694084167,-1.52314569597244,-2.60149743947983
0.776499091459721,-5.08034199943543,-0.07894891862869259,-2.94638025197983
0.777104784978801,-2.64460713615417,1.2239417063713098,-0.762122439479828
0.77771047849788,2.90225809822083,0.577286432933807,2.34421789255142
0.778316172016959,5.16076151618957,0.24916875715255699,3.17768468942642
0.778921865536039,2.15501200447083,-0.5699279225349431,1.1682633027076699
0.779527559055118,-2.32127949943542,-1.02019159440994,-2.19194909963608
0.780133252574197,-5.14740254631043,-0.634593449878693,-3.99060876760483
0.780738946093277,-2.19913350334167,-0.208279973316193,-1.3584823027610802
0.781344639612356,2.43043925056458,0.984439753246307,2.30110754098892
0.781950333131435,4.53566141853333,1.39638311262131,3.62794836130142
0.782556026650515,2.4424143482208303,0.371314753246307,1.69995763864517
0.783161720169594,-1.6267238353729199,-1.00342645769119,-1.99795251760483
0.783767413688674,-4.12472920646667,-2.02849481706619,-4.07682947072983
0.784373107207753,-2.8960841869354197,-0.732789250659943,-1.92131189260483
0.784978800726832,1.0796482349395802,1.94005254621506,1.78138830270767
0.785584494245912,3.90337626228333,1.9807678782463098,3.56328283395767
0.786190187764991,3.56567850837708,0.44795537824630705,2.1837515839576698
0.78679588128407,-0.249587604904175,-1.65726678972244,-1.25789148244858
0.78740157480315,-3.4684938549041697,-2.34224237565994,-3.51160486135483
0.788007268322229,-4.23011006584167,0.038407038402557395,-2.4170809355735803
0.788612961841308,-0.213662311935425,2.13165410871506,1.1467081269264199
0.789218655360388,4.11892802009583,1.30776738996506,3.4076065644264197
0.789824348879467,4.54763651618958,-0.215465031909943,2.16459142770767
0.790430042398546,0.315637004470825,-1.2740636647224401,-0.27593347463607804
0.791035735917626,-3.92833760490417,-1.21179315690994,-2.50809167776108
0.791641429436705,-4.80251973381042,0.25156377668380697,-2.38834070119858
0.792247122955784,-1.07826436271667,1.53289922590256,0.801825314426422
0.792852816474864,4.28657938728333,0.6275818430900569,3.52975256052017
0.793458509993943,4.85659403572083,0.155762995433807,3.05074865427017
0.794064203513022,1.1179685474395802,-0.495682317066193,0.19349035348892202
0.794669897032102,-3.81577168693542,-1.20700311784744,-3.00865075979233
0.795275590551181,-4.98454121818543,-0.351981145191193,-3.78703210744858
0.79588128407026,-0.817207233810425,0.0192468821525574,-0.43639978322982803
0.79648697758934,3.72135477790833,0.773678034496307,3.58244299020767
0.797092671108419,4.39675028572083,1.3820129954338098,3.82913000192642
0.797698364627498,1.54428202400208,0.153367975902557,0.703629513645172
0.798304058146578,-3.03499531974792,-0.9698961842536931,-2.82423425588608
0.798909751665657,-4.51272237052917,-1.6548717701911901,-4.11514978322983
0.799515445184736,-1.65067403068542,-0.704049016284943,-1.1070052519798301
0.800121138703816,2.2364426685333303,2.14602422590256,2.73939611520767
0.800726832222895,4.31052958259583,1.66941533918381,3.63513341989517
0.801332525741975,2.42325419197083,0.00248174543380738,1.35507482614517
0.801938219261054,-2.01232197990417,-1.60218134050369,-2.11530847463608
0.802543912780133,-4.1486794017791695,-2.23207147722244,-3.7942171660423303
0.803149606299213,-3.2888673900604197,0.572496393871307,-1.6626497832298301
0.803755299818292,1.00540262947083,2.2178748118400597,1.74067297067642
0.804360993337371,4.90209940681458,0.862293757152557,3.33336095895767
0.804966686856451,3.37886698493958,-0.208279973316193,2.14782629098892
0.80557238037553,-1.2602858470916698,-1.2357433522224401,-1.61714441213608
0.806178073894609,-4.53188252677917,-1.32675409440994,-3.62896081838608
0.806783767413689,-4.18939473381042,0.682667292308807,-2.45300622854233
0.807389460932768,0.430597941970825,1.2838171946525598,1.02456213083267
0.807995154451847,5.31164774665832,0.558126276683807,3.47945715036392
0.808600847970927,4.13808817634583,0.206058405590057,2.34182287302017
0.809206541490006,-0.374128620529175,-0.8669103444099431,-0.608841189479828
0.809812235009085,-4.68037373771667,-1.29322382097244,-3.81816736135483
0.810417928528165,-4.64684346427917,-0.165169621753693,-3.08050134572983
0.811023622047244,0.662914836502075,-0.07415887956619259,0.526398068332672
0.811629315566323,4.77995341072083,1.0395252024650599,3.66147863473892
0.812235009085403,4.06623759040833,1.4251233469963098,3.18965978708267
0.812840702604482,-0.00769063224792481,-0.500472356128693,-0.338203982448578
0.813446396123562,-4.05287862052917,-1.20460809831619,-3.55950525197983
0.814052089642641,-4.10556905021667,-1.6764269459724401,-3.83972253713608
0.81465778316172,-0.194502155685425,-0.371141301441193,-0.0268514433860778
0.815263476680799,3.12978495368958,2.2609851634025597,3.23516515817642
0.815869170199879,4.13808817634583,1.46823369855881,3.21840002145767
0.816474863718958,0.888046672439575,-0.052603703784942606,0.397067013645172
0.817080557238038,-3.22420186271667,-1.39620966081619,-3.1451668730735802
0.817686250757117,-3.93791768302917,-1.89676874284744,-3.81816736135483
0.818291944276196,-1.9141261791229198,0.718592585277557,-0.666321658229828
0.818897637795276,2.2364426685333303,1.98316289777756,2.69868078317642
0.819503331314355,4.77995341072083,0.637161921215057,3.22319006052017
0.820109024833434,2.04723612556458,-0.222650090503693,1.2880142792701699
0.820714718352514,-2.3045143627166698,-1.14473261003494,-2.56557214651108
0.821320411871593,-4.55343770256042,-1.22137323503494,-3.52597497854233
0.821926105390672,-2.91045430412292,0.7114075266838069,-0.762122439479828
0.822531798909752,2.20530741462708,0.994019831371307,2.07597570505142
0.823137492428831,5.39307841072082,0.42879522199630704,3.91535070505142
0.82374318594791,2.55498026618958,0.541361139965057,1.8436588105201699
0.82434887946699,-1.74886983146667,-1.0297716725349402,-1.91652185354233
0.824954572986069,-4.96538106193543,-1.17347284440994,-3.84211755666733
0.825560266505148,-3.3487428783416697,0.12462774152755701,-2.19434411916733
0.826165960024228,2.37774882087708,-0.0334435475349426,1.62810705270767
0.826771653543307,4.80869364509583,1.25028692121506,3.9033756073951698
0.827377347062386,3.02919413337708,1.02276006574631,2.38014318552017
0.827983040581466,-1.4470973705291699,-0.859725285816193,-1.1189803496360802
0.828588734100545,-4.85042012443542,-0.9267858326911931,-3.84211755666733
0.829194427619624,-3.2984474681854197,-1.6381066334724401,-2.98470056447983
0.829800121138704,1.27364481697083,0.0575671946525574,1.18263341989517
0.830405814657783,3.7932053638458303,2.2777503001213097,3.69740392770767
0.831011508176863,3.7333298755645803,0.8694788157463069,2.53102941598892
0.831617201695942,-0.625605671310425,-0.143614445972443,-0.668716677761078
0.832222895215021,-3.90678242912292,-1.5734411061286901,-3.45891443166733
0.8328285887341,-3.2026466869354198,-1.66445184831619,-3.13079675588608
0.83343428225318,-0.467534382247925,0.8670837962150569,0.368326779270172
0.834039975772259,3.47466776618958,1.74845098371506,3.0315884980201697
0.834645669291339,4.38238016853333,0.46951055402755704,2.7920865448951697
0.835251362810418,0.686865031814575,-0.23462518815994302,0.37311681833267196
0.835857056329497,-3.4181984447479197,-1.3387291920661901,-2.8457894316673302
0.836462749848577,-4.21573994865417,-0.938760930347443,-3.23138757619858
0.837068443367656,-1.50936787834167,0.838343561840057,-0.611236209011078
0.837674136886735,3.53214823493958,1.02276006574631,2.69628576364517
0.838279830405815,5.07214579353332,0.206058405590057,3.60639318552017
0.838885523924894,1.15389384040833,0.206058405590057,0.991031857395172
0.839491217443973,-3.01823018302917,-1.2093981373786902,-2.73561853322983
0.840096910963053,-4.65881856193542,-0.7902697194099431,-3.88283288869858
0.840702604482132,-1.9045461009979199,0.16055303449630698,-1.1620907011985802
0.841308298001211,3.7069846607208303,-0.16995966081619301,2.83519689645767
0.841913991520291,4.75839823493958,1.33171758527756,3.7836246308326698
0.84251968503937,1.6520579029083302,0.7880481516838069,1.0964127167701698
0.843125378558449,-2.61586690177917,-0.9483410084724431,-2.13207361135483
0.843731072077529,-4.8073097728729195,-0.6298034108161931,-4.03371911916733
0.844336765596608,-1.65546406974792,-1.5686510670661902,-2.03148279104233
0.844942459115687,2.51426493415833,0.22521856184005698,2.15980138864517
0.845548152634767,4.10216288337708,2.52443731184006,3.81236486520767
0.846153846153846,2.32745341072083,0.577286432933807,2.13585119333267
0.846759539672925,-1.86862080802917,-0.157984563159943,-1.2483114043235801
0.847365233192005,-4.31633076896667,-1.4584801686286901,-3.73194665822983
0.847970926711084,-2.35480977287292,-1.23334833269119,-2.26858972463608
0.848576620230164,1.0892283130645801,1.22873174543381,1.24011388864517
0.849182313749243,4.21712382087708,1.7412659251213098,3.18726476755142
0.849788007268322,3.44592753181458,0.385684870433807,2.09992590036392
0.850393700787402,-0.690271198654175,-0.24420526628494302,-0.714222048854828
0.850999394306481,-3.71278584709167,-1.6285265553474402,-3.1451668730735802
0.85160508782556,-3.2888673900604197,-0.823799992847443,-2.03627283010483
0.85221078134464,-0.18252705802917502,0.859898737621307,0.638963986301422
0.852816474863719,3.99678202400208,0.699432429027557,3.12020422067642
0.853422168382798,4.55003153572083,0.402450007152557,3.20642492380142
0.854027861901878,-0.13223164787292502,0.232403620433807,-0.14660241994857798
0.854633555420957,-3.93312764396667,-1.30519891862869,-3.09008142385483
0.855239248940036,-4.49356221427917,-0.6465685475349431,-3.33676843557358
0.855844942459116,-0.352573444747925,0.09349248762130741,-0.563335818386078
0.856450635978195,4.45423075447083,-0.126849309253693,3.04595861520767
0.857056329497274,4.3201096607208305,1.59756475324631,3.72853918161392
0.857662023016354,0.33000712165832496,0.560521296215057,0.545558224582672
0.858267716535433,-3.49723408927917,-1.28364374284744,-2.79549402151108
0.858873410054512,-4.50553731193542,-0.754344426441193,-3.75110681447983
0.859479103573592,-0.527409870529175,-1.5087755787849402,-1.00401941213608
0.860084797092671,2.9214182544708303,0.601236628246307,2.57892980661392
0.86069049061175,3.85787089118958,2.36876104230881,3.4507169159889197
0.86129618413083,1.5682322193145801,0.16055303449630698,1.3910001191139199
0.861901877649909,-2.92482442131042,-0.045418645191192604,-2.17518396291733
0.862507571168988,-4.08640889396667,-1.42255487565994,-3.74631677541733
0.863113264688068,-1.0543141674041698,-1.35788934831619,-1.42554284963608
0.863718958207147,1.7167234302520802,1.51613408918381,1.89395422067642
0.864324651726227,4.2003586841583305,1.3604578196525599,2.9118375214576697
0.864930345245306,2.61485575447083,-0.0262584889411926,1.64487218942642
0.865536038764385,-1.8326955150604198,-0.17953973894119302,-1.51176355276108
0.866141732283465,-4.00497822990417,-1.44411005144119,-3.57387536916733
0.866747425802544,-2.97511983146667,-0.462152043628693,-2.16320886526108
0.867353119321623,1.0413279224395802,1.16646123762131,0.667704220676422
0.867958812840703,4.46381083259583,0.6706921946525569,3.21360998239517
0.868564506359782,3.72135477790833,0.364129694652557,2.6459903534889198
0.869170199878861,-1.24112569084167,0.11983770246505701,-1.0183895293235798
0.869775893397941,-4.11275410881042,-1.46806024675369,-3.60501062307358
0.87038158691702,-3.79182149162292,-0.534002629566193,-2.99667566213608
0.870987280436099,0.741950481033325,0.09828252668380741,0.437782345676422
0.871592973955179,4.82545878181458,0.09828252668380741,3.26869543161392
0.872198667474258,3.44113749275208,1.5352942454338099,2.78969152536392
0.872804360993337,-0.618420612716675,0.11504766340255701,-0.0891219511985777
0.873410054512417,-3.8876222728729197,-1.1495226490974402,-3.00865075979233
0.874015748031496,-4.00018819084167,-0.536397649097443,-3.29126306447983
0.874621441550575,0.816196086502075,-1.43932001237869,-0.469930056667328
0.875227135069655,3.41958231697083,1.10898076887131,2.74658117380142
0.875832828588734,3.57765360603333,2.38552617902756,3.21360998239517
0.876438522107813,0.382697551345825,-0.191514836597443,0.468917599582672
0.877044215626893,-3.61219502677917,-0.160379582691193,-2.63263269338608
0.877649909145972,-3.94989278068542,-1.40339471940994,-3.4014339629173302
0.878255602665051,-0.405263874435425,-1.04414178972244,-0.812417849636078
0.878861296184131,2.32505839118958,1.6430701243400598,2.42564855661392
0.87946698970321,4.02552225837708,1.26465703840256,2.89746740427017
0.880072683222289,1.6496628833770801,0.00487676496505738,1.05569738473892
0.880678376741369,-2.92242940177917,-0.12205927019119299,-1.79677087697983
0.881284070260448,-3.94989278068542,-1.5518859303474402,-3.32239831838608
0.881889763779528,-1.9644215892791699,-0.5459777272224431,-1.05670984182358
0.882495457298607,1.91551005134583,1.2359168040275599,1.66642736520767
0.883101150817686,4.56440165290833,0.431190241527557,3.27827550973892
0.883706844336766,2.59330057868958,0.301859186840057,2.06160558786392
0.884312537855845,-2.37875996818542,-0.07415887956619259,-1.75845056447983
0.884918231374924,-4.09359395256042,-1.5303307545661902,-3.31760827932358
0.885523924894004,-2.8697389720916697,-0.371141301441193,-2.2374544707298303
0.886129618413083,1.9729905200958302,0.0863074290275574,0.662914181613922
0.886735311932162,4.72965800056458,0.09349248762130741,3.6806387909889198
0.887341005451242,2.85435770759583,1.54966436262131,2.63401525583267
0.887946698970321,-1.37285176506042,-0.165169621753693,-0.874688357448578
0.8885523924894,-4.19657979240417,-0.912415715503693,-3.36550866994858
0.88915808600848,-3.33676778068542,-0.7088390553474431,-2.9823055449485802
0.889763779527559,1.73109354743958,-1.40099969987869,0.40185705270767197
0.890369473046638,3.57286356697083,1.40117315168381,2.90944250192642
0.890975166565718,3.18726542243958,1.8394617259025599,2.78729650583267
0.891580860084797,-0.515434772872925,-0.282525578784943,-0.0867269316673277
0.892186553603876,-4.04808858146667,-0.141219426441193,-2.92961511526108
0.892792247122956,-3.1954616283416697,-1.68600702409744,-3.09487146291733
0.893397940642035,0.315637004470825,-0.862120305347443,-0.0148763457298278
0.894003634161115,2.73700175056458,1.84904180402756,2.41606847848892
0.894609327680194,3.7668601490020803,1.00359990949631,2.52384435739517
0.895215021199273,0.6844700122833249,0.10546758527755701,0.655729123020172
0.895820714718352,-3.33916280021667,-0.395091496753693,-2.4865365019798302
0.896426408237432,-3.33676778068542,-1.50398553972244,-3.10445154104233
0.897032101756511,-1.48062764396667,-0.363956242847443,-0.675901736354828
0.897637795275591,2.69149637947083,1.21675664777756,1.96101476755142
0.89824348879467,4.25304911384583,0.0743323313713074,3.24953527536392
0.898849182313749,1.5754172779083302,0.701827448558807,1.2329288300514198
0.899454875832829,-2.8697389720916697,-0.28013055925369296,-2.24942956838608
0.900060569351908,-4.16783955802917,-1.45608514909744,-3.42538415822983
0.900666262870987,-1.97639668693542,0.045592096996307396,-1.78958581838608
0.901271956390067,2.9812937427520803,-0.284920598316193,1.89395422067642
0.901877649909146,4.5332663990020805,0.5054358469963071,3.74530431833267
0.902483343428225,1.8628196216583301,1.56403447980881,1.68798254098892
0.903089036947305,-2.23505879631042,-0.241810246753693,-1.6075643340110801
0.903694730466384,-4.33788594474792,-0.8477501881599431,-3.27210290822983
0.904300423985463,-2.49851094474792,-0.8094298756599431,-2.54880700979233
0.904906117504543,2.59809061775208,-0.9483410084724431,0.830565548801422
0.905511811023622,3.82913065681458,1.5999597727775599,3.58004797067642
0.906117504542701,2.59330057868958,1.55445440168381,2.22925695505142
0.906723198061781,-1.39919697990417,-0.23462518815994302,-0.7788875761985781
0.90732889158086,-4.25885030021667,-0.17474969987869302,-3.19306726369858
0.907934585099939,-2.4601906322479197,-1.5303307545661902,-2.8625545683860802
0.908540278619019,1.26166971931458,-0.347191106128693,0.806615353488922
0.909145972138098,3.2543259693145803,1.9161023509025599,2.63401525583267
0.909751665657177,3.36928690681458,0.6706921946525569,2.29392248239517
0.910357359176257,-0.297487995529175,0.273118952465057,-0.31664880666732803
0.910963052695336,-3.9810280345916698,-0.5316076100349431,-2.62544763479233
0.911568746214416,-2.78830830802917,-1.45608514909744,-1.97160730276108
0.912174439733495,-0.762121784591675,-0.0238634694099426,-0.407659548854828
0.912780133252574,3.28546122322083,1.1425110423088098,2.18614660348892
0.913385826771653,4.06623759040833,0.0216419016838074,3.26630041208267
0.913991520290733,0.686865031814575,0.680272272777557,0.569508419895172
0.914597213809812,-3.53315938224792,-0.47891718034744296,-2.7428035918235802
0.915202907328892,-3.94510274162292,-1.4105797780036902,-3.12121667776108
0.915808600847971,-1.07826436271667,0.026431940746307402,-0.992044314479828
0.91641429436705,3.56807352790833,-0.407066594409943,2.13106115427017
0.91701998788613,4.34166483650208,0.8263684641838069,3.0651187714576698
0.917625681405209,0.955107219314575,1.4370984446525599,1.04132726755142
0.918231374924288,-2.9631447338104198,-0.7878746998786931,-2.02669275197983
0.918837068443368,-4.44566182365417,-0.6681237233161931,-3.57387536916733
0.919442761962447,-1.3536916088104198,-0.874095403003693,-1.73210534963608
0.920048455481526,3.48185282478333,-0.838170110034943,1.83407873239517
0.920654149000606,3.56807352790833,1.9208923899650598,3.35970617380142
0.921259842519685,1.9610154224395802,1.13293096418381,1.7239078339576699
0.921865536038764,-2.52964619865417,-0.232230168628693,-1.44230798635483
0.922471229557844,-4.3881813549041695,-0.186724797534943,-3.7008114043235802
0.923076923076923,-1.4949977611541698,-1.73390741472244,-2.1775789824485803
0.923682616596002,1.50596171150208,-0.12924432878494302,1.4341104706764198
0.924288310115082,3.63513407478333,1.81072149152756,2.90704748239517
0.924894003634161,2.59809061775208,0.347364557933807,1.9514346894264198
0.92549969715324,-1.26507588615417,0.134207819652557,-0.668716677761078
0.92610539067232,-4.14388936271667,-0.8309850514411931,-2.9391951933860803
0.926711084191399,-2.33564961662292,-1.20460809831619,-2.39073572072983
0.927316777710478,0.186305949783325,0.282699030590057,0.349166623020172
0.927922471229558,3.89379618415833,1.09221563215256,2.75137121286392
0.928528164748637,3.58483866462708,0.25874883527755704,3.06990881052017
0.929133858267717,-0.534594929122925,0.5317810618400569,-0.0100863066673278
0.929739551786796,-3.79900655021667,-0.739974309253693,-2.94638025197983
0.930345245305875,-3.65291035881042,-1.14473261003494,-2.81225915822983
0.930950938824954,-0.275932819747925,-0.07655389909744259,-0.467535037136078
0.931556632344034,4.4135154224395805,-0.452571965503693,2.91423254098892
0.932162325863113,3.8698459888458303,0.991624811840057,2.94057775583267
0.932768019382193,-0.113071491622925,1.09700567121506,0.13361486520767202
0.933373712901272,-3.38945821037292,-0.876490422534943,-2.4266610136985802
0.933979406420351,-4.07682881584167,-0.486102238941193,-3.30323816213608
0.934585099939431,-0.462744343185425,-1.3291491139411902,-1.04952478322983
0.93519079345851,3.80039042243958,-0.404671574878693,2.25799718942642
0.935796486977589,3.60160380134583,2.09093877668381,3.28306554880142
0.936402180496669,1.00300760993958,0.871873835277557,1.01977209177017
0.937007874015748,-3.24815205802917,-0.0214684498786926,-2.12488855276108
0.937613567534827,-4.4145265697479195,-0.490892278003693,-3.33916345510483
0.938219261053907,-0.417238972091675,-1.6069713795661902,-1.47583825979233
0.938824954572986,2.34661356697083,0.194083307933807,2.01849523630142
0.939430648092065,3.88421610603333,1.91370733137131,2.86154211130142
0.940036341611145,1.7430686450958301,0.347364557933807,1.71432775583267
0.940642035130224,-2.18955342521667,0.43837530012130704,-0.936958865261078
0.941247728649303,-4.01455830802917,-1.0728820240974402,-3.34634851369858
0.941853422168383,-1.7943752025604198,-1.05372186784744,-1.52852868947983
0.942459115687462,1.2305344654083301,0.7114075266838069,1.20897863473892
0.943064809206541,3.9129563404083303,0.7114075266838069,2.7226309784889198
0.943670502725621,2.86393778572083,0.347364557933807,2.67473058786392
0.9442761962447,-1.4351222728729198,0.24437871809005698,-0.7788875761985781
0.94488188976378,-4.08401387443542,-1.19023798112869,-3.36071863088608
0.945487583282859,-3.14995625724792,-0.8261950123786931,-2.55359704885483
0.946093276801938,1.0125876880645799,-0.12445428972244299,0.279711056613922
0.946698970321018,4.68894266853333,-0.227440129566193,2.95734289255142
0.947304663840097,2.90704813728333,1.30297735090256,2.77532140817642
0.947910357359176,-1.23633565177917,0.658717096996307,-0.204082888698578
0.948516050878256,-4.09359395256042,-0.735184270191193,-3.05176111135483
0.949121744397335,-3.8373268627166697,-0.366351262378693,-2.86494958791733
0.949727437916414,0.785060832595825,-1.20700311784744,-0.331018923854828
0.950333131435494,4.3871702075958305,-0.0214684498786926,2.67473058786392
0.950938824954573,3.2040305591583302,2.04782842512131,2.6627554902076698
0.951544518473652,-0.172946979904175,0.752122858715057,0.255760861301422
0.952150211992732,-3.80379658927917,0.150972956371307,-2.35002038869858
0.952755905511811,-4.26603535881042,-0.754344426441193,-3.08289636526108
0.95336159903089,0.401857707595825,-1.54230585222244,-0.522620486354828
0.95396729254997,2.9381833911895803,0.455140436840057,1.9897550019264199
0.954572986069049,3.58483866462708,1.48260381574631,2.34900793161392
0.955178679588128,0.844936320877075,0.366524714183807,0.809010373020172
