Time (s),Accel X (m/s^2),Accel Y (m/s^2),Accel Z (m/s^2)
0.0,0.758668465805054,-1.13924736042023,-0.825745852661133
0.000605326876513317,0.0689028408050537,-0.19800468463897702,-0.6341442901611329
0.00121065375302663,0.116803231430054,0.657017288017273,0.9824938934326171
0.00181598062953995,-0.153833975601196,1.27493232707977,1.71297485046387
0.00242130750605327,-0.472371573257446,1.54317451457977,0.776522213745117
0.00302663438256659,-0.5298520420074461,0.285789260673523,-0.5958239776611329
0.0036319612590799,-0.13706883888244598,-0.420741501045227,-0.543133547973633
0.00423728813559322,0.39223047752380397,-0.655453415107727,-0.250941165161133
0.00484261501210654,0.214999032211304,-1.34521904010773,-0.607799075317383
0.00544794188861986,-0.13227879981994597,-0.0830437471389771,-1.0532727081298798
0.00605326876513317,0.296429696273804,0.453440627861023,0.242432858276367
0.00665859564164649,0.5287465908050539,0.45104560832977303,1.58364379577637
0.00726392251815981,-0.120303702163696,1.31085762004852,1.05673949890137
0.00786924939467312,-0.47476659278869604,0.668992385673523,0.0149060028076174
0.00847457627118644,-0.481951651382446,-0.32973075885772696,-0.844906008911133
0.00907990314769976,-0.398125967788696,-0.49977714557647696,-0.102449954223633
0.00968523002421308,0.535931649398804,-1.63980644245148,-0.234176028442383
0.0102905569007264,-0.122698721694946,-0.46864189167022696,-1.08201294250488
0.0108958837772397,0.131173348617554,0.374404983329773,-0.37308716125488295
0.011501210653753,0.40181055564880397,0.30973945598602304,1.48065795593262
0.0121065375302663,0.104828133773804,1.54317451457977,1.5860388153076201
0.0127118644067797,-0.182574209976196,0.558821487236023,0.263988034057617
0.013317191283293,-0.831624502944946,-0.039933395576477106,-0.820955813598633
0.0139225181598063,-1.1070517490387002,-0.8111296846389769,-1.0221374542236301
0.0145278450363196,0.277269540023804,-2.00624443073273,-0.502418215942383
0.0151331719128329,0.6461025478363039,-1.21588798542023,-0.763475344848633
0.0157384987893462,0.485636239242554,-0.0543035127639771,-0.33955688781738297
0.0163438256658596,0.480846200180054,0.853408889579773,1.2219958465576202
0.0169491525423729,0.145543465805054,1.60305000286102,1.58364379577637
0.0175544794188862,-0.172994131851196,1.1168610380172699,0.434034420776367
0.0181598062953995,-0.845994620132446,0.417515334892273,-0.7371301300048829
0.0187651331719128,-0.491531729507446,-0.602762985420227,-0.818560794067383
0.0193704600484262,0.47366114158630396,-1.58232597370148,-0.219805911254883
0.0199757869249395,0.842494149398804,-1.39072441120148,-0.943101809692383
0.0205811138014528,0.375465340805054,-0.162079391670227,-1.1179382354736298
0.0211864406779661,-0.0364780185699463,0.915679397392273,0.546600338745117
0.0217917675544794,-0.0197128818511963,1.06656562786102,1.82793578796387
0.0223970944309927,0.0377675868988037,1.29169746379852,0.989678952026367
0.0230024213075061,-0.36459569435119604,0.546846389579773,-0.143165286254883
0.0236077481840194,-0.38615087013244603,-0.384816208076477,-0.761080325317383
0.0242130750605327,-0.0292929599761963,-0.542887497138977,-0.375482180786133
0.024818401937046,0.502401375961304,-1.11290214557648,-0.243756106567383
0.0254237288135593,-0.110723624038696,-0.217164840888977,-0.964656985473633
0.0260290556900726,0.00902735252380369,0.42949043254852304,0.0125109832763674
0.026634382566586,0.579042000961304,0.568401565361023,1.61717406921387
0.0272397094430993,0.16709864158630403,1.31085762004852,1.2818713348388702
0.0278450363196126,-0.443631338882446,0.748028030204773,0.0747814910888675
0.0284503631961259,-0.654393057632446,-0.363261032295227,-0.626959231567383
0.0290556900726392,-0.5106918857574461,-0.602762985420227,-0.6556994659423829
0.0296610169491525,0.406600594711304,-1.69489189167023,-0.43296264953613295
0.0302663438256659,0.159913582992554,-0.849449997138977,-1.16104858703613
0.0308716707021792,-0.0604282138824463,0.158853225517273,-0.44254272766113295
0.0314769975786925,0.478451180648804,0.266629104423523,1.65309936218262
0.0320823244552058,0.43294580955505396,1.57191474895477,1.6507043426513701
0.0326876513317191,-0.25681981544494603,0.728867873954773,0.613660885620117
0.0332929782082324,-1.07591649513245,0.125322952079773,-0.7347351104736329
0.0338983050847458,-0.951375479507446,-0.720118942451477,-0.967052005004883
0.0345036319612591,0.308404793930054,-2.14755058307648,-0.648514407348633
0.0351089588377724,0.466476082992554,-1.3931194307327301,-0.909571536254883
0.0357142857142857,0.30361475486755396,-0.106993942451477,-0.5551086456298829
0.036319612590799,0.744298348617554,0.942024612236023,1.14296020202637
0.0369249394673124,0.169493661117554,1.45216377239227,1.75129516296387
0.0375302663438257,-0.340645499038696,1.00429512004852,0.8435827606201171
0.038135593220339,-0.860364737319946,0.37919502239227304,-0.571873782348633
0.0387409200968523,-0.757378897476196,-0.518937301826477,-1.18020874328613
0.0393462469733656,0.119198250961304,-1.48173515338898,-0.27010132141113297
0.0399515738498789,0.823333993148804,-1.58711601276398,-0.5383435089111329
0.0405569007263923,0.389835457992554,-0.33931083698272696,-0.761080325317383
0.0411622276029056,-0.0340829990386963,0.692942580986023,0.7429919403076171
0.0417675544794189,-0.0987485263824463,1.15757637004852,1.8542810028076202
0.0423728813559322,-0.204129385757446,1.39707832317352,1.1669103973388701
0.0429782082324455,-0.417286124038696,0.851013870048523,-0.229385989379883
0.0435835351089588,-0.362200674819946,-0.351285934638977,-0.9957922393798829
0.0441888619854722,-0.0364780185699463,-0.576417770576477,-0.464097903442383
0.0447941888619855,0.47126612205505397,-1.19433280963898,-0.35153198547363296
0.0453995157384988,0.344330086898804,-0.30817558307647697,-1.12751831359863
0.0460048426150121,0.20302393455505402,0.515711135673523,-0.296446536254883
0.0466101694915254,0.571856942367554,0.383985061454773,1.47347289733887
0.0472154963680387,0.0712978603363037,1.21026679973602,1.1070349090576201
0.0478208232445521,-0.362200674819946,0.829458694267273,0.00293090515136745
0.0484261501210654,-0.661578116226196,0.000781936454772948,-0.792215579223633
0.0490314769975787,-0.572962393569946,-0.578812790107727,-0.44254272766113295
0.049636803874092,0.552696786117554,-1.74518730182648,-0.059339602661132605
0.0502421307506053,0.356305184555054,-0.815919723701477,-1.07722290344238
0.0508474576271186,-0.35501561622619604,0.283394241142273,-0.904781497192383
0.051452784503632,0.540721688461304,0.42949043254852304,1.1669103973388701
0.0520581113801453,0.41139063377380397,1.24619209270477,1.92613158874512
0.0526634382566586,-0.357410635757446,0.690547561454773,0.180162350463867
0.0532687651331719,-0.711873526382446,0.142088088798523,-0.899991458129883
0.0538740920096852,-0.903475088882446,-0.435111618232727,-1.06764282531738
0.0544794188861985,0.195838875961304,-1.84338310260773,-0.988607180786133
0.0550847457627119,0.46168604393005397,-1.54400566120148,-0.6940197784423829
0.0556900726392252,0.418575692367554,-0.152499313545227,-0.5766638214111329
0.0562953995157385,0.619757332992554,0.486970901298523,0.7190417449951171
0.0569007263922518,-0.0412680576324463,1.29888252239227,1.85667602233887
0.0575060532687651,-0.378965811538696,1.0402204130172699,0.869927975463867
0.0581113801452785,-0.901080069351196,0.6833625028610231,-0.624564212036133
0.0587167070217918,-0.786119131851196,-0.509357223701477,-0.8952014190673829
0.0593220338983051,0.126383309555054,-1.6110662080764802,-0.306026614379883
0.0599273607748184,1.1011562587738,-1.4961052705764801,-0.447332766723633
0.0605326876513317,0.598202157211304,-0.39918632526397696,-1.20894897766113
0.061138014527845,0.16709864158630403,0.5851667020797731,0.232852780151367
0.0617433414043584,0.0712978603363037,1.18631660442352,1.8039855926513702
0.0623486682808717,-0.27597997169494604,1.26535224895477,0.9609387176513671
0.062953995157385,-0.517876944351196,0.848618850517273,-0.169510501098633
0.0635593220338983,-0.661578116226196,0.0343122098922729,-0.698809817504883
0.0641646489104116,0.0641128017425537,-0.554862594795227,-0.507208255004883
0.0647699757869249,0.643707528305054,-1.36677421588898,-0.387457278442383
0.0653753026634383,0.181468758773804,-0.621923141670227,-1.4077355987548799
0.0659806295399516,-0.0388730381011963,0.467810745048523,-0.523973391723633
0.0665859564164649,0.315589852523804,0.383985061454773,1.24594604187012
0.0671912832929782,0.219789071273804,1.1432062528610198,1.0256042449951202
0.0677966101694915,-0.261609854507446,0.999505080986023,0.36457885437011706
0.0684019370460048,-0.491531729507446,0.0678424833297729,-0.607799075317383
0.0690072639225182,-0.438841299819946,-0.360866012763977,-0.387457278442383
0.0696125907990315,0.186258797836304,-1.66615165729523,-0.119215090942383
0.0702179176755448,0.662867684555054,-1.00752128620148,-0.8544860870361329
0.0708232445520581,-0.0724033115386963,0.357639846611023,-0.298841555786133
0.0714285714285714,0.5287465908050539,0.29057929973602303,1.12619506530762
0.0720338983050847,0.440130868148804,1.01387519817352,1.6147790496826202
0.0726392251815981,0.0329775478363037,0.657017288017273,0.551390377807617
0.0732445520581114,-0.544222159194946,0.0965827177047729,-0.600614016723633
0.0738498789346247,-1.0160410068512,-0.303385544013977,-0.902386477661133
0.074455205811138,0.135963387680054,-1.56077079792023,-0.672464602661133
0.0750605326876513,0.9478750087738039,-1.86972831745148,-0.591033938598633
0.0756658595641646,0.497611336898804,-0.00640312213897705,-0.785030520629883
0.076271186440678,0.46168604393005397,0.570796584892273,0.6998815887451171
0.0768765133171913,0.00902735252380369,1.30846260051727,1.63154418640137
0.0774818401937046,-0.252029776382446,0.942024612236023,0.8986682098388671
0.0780871670702179,-0.826834463882446,0.45823066692352304,-0.226990969848633
0.0786924939467312,-0.872339834976196,-0.00640312213897705,-1.0532727081298798
0.0792978208232446,-0.0101328037261963,-1.29731864948273,-0.502418215942383
0.0799031476997579,0.943084969711304,-1.80027275104523,-0.41380249328613294
0.0805084745762712,0.581437020492554,-0.588392868232727,-0.689229739379883
0.0811138014527845,0.0976430751800537,0.7049176786422731,0.09394164733886749
0.0817191283292978,0.028187508773803698,1.19589668254852,1.46868285827637
0.0823244552058111,-0.299930167007446,1.17913154582977,1.2004406707763702
0.0829297820823245,-0.48674169044494603,0.692942580986023,-0.162325442504883
0.0835351089588378,-0.577752432632446,0.00557197551727295,-0.464097903442383
0.0841404358353511,-0.199339346694946,-0.559652633857727,-0.38266723937988295
0.0847457627118644,0.26289942283630396,-1.2733684541702301,-0.495233157348633
0.0853510895883777,0.394625497055054,-0.617133102607727,-0.938311770629883
0.0859564164648911,-0.0029477451324463103,0.49894599895477304,-0.356322024536133
0.0865617433414044,0.552696786117554,0.283394241142273,1.0423693817138702
0.0871670702179177,0.0593227626800537,1.11925605754852,1.18607055358887
0.087772397094431,-0.34543553810119604,0.946814651298523,0.163397213745117
0.0883777239709443,-0.525062002944946,-0.0566985322952271,-0.550318606567383
0.0889830508474576,-0.915450186538696,-0.370446090888977,-0.686834719848633
0.0895883777239709,0.159913582992554,-1.70926200885773,-0.334766848754883
0.0901937046004843,0.488031258773804,-1.12727226276398,-0.6533044464111329
0.0907990314769976,-0.0987485263824463,0.223518752861023,-0.650909426879883
0.0914043583535109,0.959850106430054,0.257049026298523,1.19804565124512
0.0920096852300242,0.296429696273804,1.05938056926727,1.8686511199951201
0.0926150121065375,0.0521377040863037,0.953999709892273,0.635216061401367
0.0932203389830508,-0.568172354507446,0.14448310832977299,-0.610194094848633
0.0938256658595642,-1.22919774513245,-0.38002616901397696,-0.962261965942383
0.0944309927360775,-0.199339346694946,-1.25899833698273,-0.722760012817383
0.0950363196125908,1.00296045799255,-2.00863945026398,-0.8736462432861329
0.0956416464891041,0.722743172836304,-0.17405448932647702,-0.603009036254883
0.0962469733656174,0.5263515712738039,0.616301955986023,0.884298092651367
0.0968523002421308,0.112013192367554,1.1767365262985199,1.5644836395263702
0.0974576271186441,0.0305825283050537,1.22703193645477,1.03278930358887
0.0980629539951574,-0.735823721694946,0.716892776298523,-0.286866458129883
0.0986682808716707,-1.0352011631012001,-0.104598922920227,-0.7538952667236329
0.099273607748184,0.035372567367553696,-1.23265312213898,-0.277286380004883
0.0998789346246973,1.0053554775238,-1.60867118854523,-0.567083743286133
0.100484261501211,0.722743172836304,-0.583602829170227,-0.0665246612548825
0.101089588377724,0.274874520492554,0.702522659111023,0.493909909057617
0.101694915254237,0.0784829189300537,1.1982917020797699,1.2986364715576202
0.102300242130751,-0.299930167007446,1.25577217082977,1.1022448699951202
0.102905569007264,-0.19215428810119597,0.695337600517273,0.0053259246826174505
0.103510895883777,-0.539432120132446,0.228308791923523,-0.219805911254883
0.104116222760291,-0.0747983310699463,-0.346495895576477,-0.29165649719238296
0.104721549636804,0.45210596580505397,-1.2350481416702301,-0.33237182922363295
0.105326876513317,0.344330086898804,-0.7129338838577269,-1.06045776672363
0.105932203389831,0.21260401268005402,0.187593459892273,-0.397037356567383
0.106537530266344,0.519166512680054,0.233098830986023,1.1717004364013701
0.107142857142857,0.13835840721130402,0.994715041923523,0.9633337371826171
0.10774818401937,-0.149043936538696,0.965974807548523,0.39571410827636705
0.108353510895884,-0.637627920913696,0.34087470989227303,-0.155140383911133
0.108958837772397,-0.692713370132446,-0.152499313545227,-0.583848880004883
0.10956416464891,-0.25681981544494603,-1.66136161823273,-0.720364993286133
0.110169491525424,0.41378565330505396,-1.48413017292023,-0.9742370635986329
0.110774818401937,-0.223289542007446,0.173223342704773,-0.624564212036133
0.11138014527845,0.38265039939880396,0.381590041923523,0.9417785614013671
0.111985472154964,0.289244637680054,0.872569045829773,1.44712768249512
0.112590799031477,0.43294580955505396,0.719287795829773,0.810052487182617
0.11319612590799,-0.814859366226196,0.463020705986023,-0.31321167297363295
0.113801452784504,-1.3465537021637002,0.0271271512985229,-0.926336672973633
0.114406779661017,-0.108328604507446,-1.48892021198273,-0.418592532348633
0.11501210653753,0.679632821273804,-1.96313407917023,-0.720364993286133
0.115617433414044,0.897579598617554,-0.26027519245147696,-0.830535891723633
0.116222760290557,0.555091805648804,0.551636428642273,0.611265866088867
0.11682808716707,0.18386377830505402,1.00669013957977,1.8303308074951201
0.117433414043584,-0.280770010757446,1.30606758098602,0.989678952026367
0.118038740920097,-1.0591513584137,0.750423049736023,-0.346741946411133
0.11864406779661,-1.2483579013824502,-0.0016130830764770501,-0.5335534698486329
0.119249394673123,-0.208919424819946,-1.07458183307648,-0.43056763000488296
0.119854721549637,0.861654305648804,-2.03019462604523,-0.691624758911133
0.12046004842615,0.796988778305054,-0.6338982393264769,-0.703599856567383
0.121065375302663,0.385045418930054,0.633067092704773,-0.052154544067382604
0.121670702179177,-0.20173436622619598,1.17434150676727,0.9034582489013671
0.12227602905569,-0.508296866226196,1.45216377239227,1.22439086608887
0.122881355932203,-0.357410635757446,0.6642023466110231,0.39810912780761704
0.123486682808717,-0.642417959976196,0.0678424833297729,0.0460412567138674
0.12409200968523,-0.5298520420074461,-0.5117522432327269,-0.0761047393798825
0.124697336561743,0.394625497055054,-1.48652519245148,-0.6149841339111329
0.125302663438257,0.7466933681488039,-0.947645797920227,-0.9933972198486329
0.12590799031477,-0.117908682632446,0.213938674736023,-0.284471438598633
0.126513317191283,0.32277491111755396,0.22591377239227298,1.08308471374512
0.127118644067797,0.0808779384613037,1.03303535442352,0.944173580932617
0.12772397094431,-0.232869620132446,0.937234573173523,0.31667846374511704
0.128329297820823,-0.501111807632446,0.0965827177047729,-0.102449954223633
0.128934624697337,-0.716663565444946,-0.06627861042022709,-0.720364993286133
0.12953995157385,0.0928530361175537,-1.66375663776398,-0.763475344848633
0.130145278450363,0.873629403305054,-1.66375663776398,-0.9359167510986329
0.130750605326877,0.0233974697113037,0.28099922161102303,-0.583848880004883
0.13135593220339,0.488031258773804,0.374404983329773,0.857952877807617
0.131961259079903,0.35391016502380396,0.9228644559860231,1.6507043426513701
0.132566585956416,0.420970711898804,0.798323440361023,0.7837072723388671
0.13317191283293,-0.661578116226196,0.0127570341110229,-0.466492922973633
0.133777239709443,-1.5309702060699502,0.137298049736023,-0.564688723754883
0.134382566585956,-0.299930167007446,-1.12487724323273,-0.6772546417236329
0.13498789346247,0.993380379867554,-2.15473564167023,-0.780240481567383
0.135593220338983,0.808963875961304,-0.334520797920227,-0.722760012817383
0.136198547215496,0.684422860336304,0.307344436454773,0.546600338745117
0.13680387409201,0.24373926658630402,0.934839553642273,1.53334838562012
0.137409200968523,-0.242449698257446,1.17434150676727,0.908248287963867
0.138014527845036,-0.663973135757446,0.434280471611023,-0.155140383911133
0.13861985472155,-1.4950449131012,0.101372756767273,-0.650909426879883
0.139225181598063,-0.48434667091369604,-0.815919723701477,-0.495233157348633
0.139830508474576,0.892789559555054,-1.87930839557648,-0.579058840942383
0.14043583535109,0.820938973617554,-0.9524358369827269,-0.871251223754883
0.141041162227603,0.365885262680054,0.486970901298523,-0.119215090942383
0.141646489104116,0.231764168930054,0.934839553642273,0.994468991088867
0.14225181598063,-0.187364249038696,1.28930244426727,0.9609387176513671
0.142857142857143,-0.290350088882446,0.7647931669235231,0.29512328796386705
0.143462469733656,-0.6304428623199461,0.20435859661102299,-0.246151126098633
0.144067796610169,-0.604097647476196,-0.11657402057647699,-0.35153198547363296
0.144673123486683,0.298824715805054,-1.42664970417023,-0.358717044067383
0.145278450363196,0.777828622055054,-0.9332756807327269,-0.749105227661133
0.145883777239709,-0.07000829200744631,0.453440627861023,-0.507208255004883
0.146489104116223,0.519166512680054,0.326504592704773,1.1238000457763702
0.147094430992736,0.00423731346130369,0.965974807548523,0.984888912963867
0.147699757869249,-0.12509374122619601,0.9037042997360231,0.28793822937011704
0.148305084745763,-0.26639989356994603,-0.11657402057647699,-0.0162292510986326
0.148910411622276,-1.2315927646637002,0.125322952079773,-0.564688723754883
0.149515738498789,-0.163414053726196,-1.18475273151398,-0.5766638214111329
0.150121065375303,0.808963875961304,-1.69968193073273,-0.919151614379883
0.150726392251816,-0.16101903419494598,0.520501174736023,-0.708389895629883
0.151331719128329,0.785013680648804,0.29057929973602303,0.7405969207763671
0.151937046004843,0.552696786117554,0.9228644559860231,1.57166869812012
0.152542372881356,0.231764168930054,1.01387519817352,0.884298092651367
0.153147699757869,-0.323880362319946,-0.147709274482727,-0.32997680969238297
0.153753026634383,-1.3705038974762,0.14448310832977299,-0.904781497192383
0.154358353510896,-0.704688467788696,-1.23025810260773,-0.727550051879883
0.154963680387409,0.8472841884613039,-2.16192070026398,-0.959866946411133
0.155569007263923,0.943084969711304,-0.38721122760772697,-0.6556994659423829
0.156174334140436,0.729928231430054,0.206753616142273,0.412479244995117
0.156779661016949,0.236554207992554,0.937234573173523,1.31300658874512
0.157384987893462,-0.101143545913696,1.28690742473602,1.17409545593262
0.157990314769976,-0.407706045913696,0.312134475517273,0.0484362762451174
0.158595641646489,-1.3273935459137,0.228308791923523,-0.7538952667236329
0.159200968523002,-0.577752432632446,-0.35847099323272696,-0.7179699737548829
0.159806295399516,0.464081063461304,-1.81464286823273,-0.5383435089111329
0.160411622276029,1.1466616298675498,-0.8925603487014769,-0.0186242706298826
0.161016949152542,0.691607918930054,0.515711135673523,0.25919799499511703
0.161622276029056,0.260504403305054,0.678572463798523,1.0758996551513702
0.162227602905569,-0.412496084976196,1.15757637004852,1.2651061981201202
0.162832929782082,-0.36459569435119604,0.652227248954773,0.36936889343261703
0.163438256658596,-0.807674307632446,0.0654474637985229,-0.0713147003173825
0.164043583535109,-0.723848624038696,0.0678424833297729,-0.246151126098633
0.164648910411622,0.370675301742554,-1.42664970417023,-0.476073001098633
0.165254237288136,0.9478750087738039,-1.09134696979523,-1.14188843078613
0.165859564164649,-0.0268979404449463,0.45823066692352304,-0.385062258911133
0.166464891041162,0.488031258773804,0.0846076200485229,0.826817623901367
0.167070217917676,0.298824715805054,0.812693557548523,0.994468991088867
0.167675544794189,-0.21131444435119598,1.03064033489227,0.517860104370117
0.168280871670702,-0.16101903419494598,0.0103620145797729,0.0747814910888675
0.168886198547216,-1.0160410068512,0.242678909111023,-0.265311282348633
0.169491525423729,-0.218499502944946,-1.05781669635773,-0.485653079223633
0.170096852300242,0.720348153305054,-2.07569999713898,-1.01255737609863
0.170702179176755,-0.237659659194946,0.292974319267273,-0.880831301879883
0.171307506053269,0.562276864242554,0.23070381145477298,0.697486569213867
0.171912832929782,0.670052743148804,0.5444513700485231,1.1022448699951202
0.172518159806295,0.255714364242554,0.896519241142273,0.714251705932617
0.173123486682809,-0.431656241226196,-0.06627861042022709,0.0771765106201175
0.173728813559322,-1.58366063575745,0.34087470989227303,-0.5359484893798829
0.174334140435835,-0.800489249038696,-0.775204391670227,-0.8544860870361329
0.174939467312349,0.672447762680054,-2.11162529010773,-0.8760412628173829
0.175544794188862,0.696397957992554,-0.490197067451477,-0.8952014190673829
0.176150121065375,0.773038582992554,0.434280471611023,0.359788815307617
0.176755447941889,0.389835457992554,0.769583205986023,1.6291491668701201
0.177360774818402,-0.434051260757446,1.36833808879852,0.867532955932617
0.177966101694915,-0.592122549819946,0.28099922161102303,0.0747814910888675
0.178571428571429,-1.4543295810699501,0.0798175809860229,-0.368297122192383
0.179176755447942,-0.901080069351196,-0.360866012763977,-0.416197512817383
0.179782082324455,0.511981454086304,-1.89607353229523,-0.923941653442383
0.180387409200969,0.871234383773804,-1.00033622760773,-1.02932251281738
0.180992736077482,0.399415536117554,0.508526077079773,-0.236571047973633
0.181598062953995,0.24373926658630402,0.786348342704773,0.872322994995117
0.182203389830508,-0.357410635757446,1.32043769817352,1.02081420593262
0.182808716707022,-0.177784170913696,0.877359084892273,0.263988034057617
0.183414043583535,-0.663973135757446,0.218728713798523,-0.0210192901611326
0.184019370460048,-0.8891049716949461,0.26902412395477304,-0.346741946411133
0.184624697336562,0.0257924892425537,-1.0769768526077301,-0.5575036651611329
0.185230024213075,0.804173836898804,-1.25899833698273,-0.763475344848633
0.185835351089588,0.0832729579925537,0.47020576457977303,-0.5335534698486329
0.186440677966102,0.538326668930054,0.357639846611023,0.834002682495117
0.187046004842615,0.205418954086304,0.549241409111023,1.21481078796387
0.187651331719128,-0.0915634677886963,1.0402204130172699,0.460379635620117
0.188256658595642,0.121593270492554,-0.0998088838577271,0.352603756713867
0.188861985472155,-0.8100693271636961,0.18040840129852298,0.572945553588867
0.189467312348668,-0.553802237319946,-0.890165329170227,-0.7730554229736329
0.190072639225182,0.717953133773804,-2.35831230182648,-1.3478601104736299
0.190677966101695,0.0257924892425537,0.27860420207977304,0.149027096557617
0.191283292978208,0.337145028305054,0.49894599895477304,0.644796139526367
0.191888619854722,0.365885262680054,0.520501174736023,1.1190100067138702
0.192493946731235,-0.0508481357574463,1.16236640911102,0.9992590301513671
0.193099273607748,0.107223153305054,-0.190819626045227,0.0652014129638675
0.193704600484262,-1.3465537021637002,0.254654006767273,-0.337161868286133
0.194309927360775,-0.802884268569946,-0.523727340888977,-0.550318606567383
0.194915254237288,0.823333993148804,-2.32717704792023,-0.9933972198486329
0.195520581113801,0.753878426742554,-0.854240036201477,-0.883226321411133
0.196125907990315,0.856864266586304,0.374404983329773,0.352603756713867
0.196731234866828,0.751483407211304,0.8653839872360231,1.30582153015137
0.197336561743341,-0.189759268569946,1.4162384794235199,0.893878170776367
0.197941888619855,-0.26639989356994603,0.237888870048523,0.192137448120117
0.198547215496368,-1.1166318271637001,0.257049026298523,-0.28926147766113297
0.199152542372881,-1.02801610450745,-0.12854911823272702,-0.705994876098633
0.199757869249395,0.258109383773804,-1.96073905963898,-0.919151614379883
0.200363196125908,1.0604409267425499,-1.17996269245148,-0.808980715942383
0.200968523002421,0.308404793930054,0.43907051067352304,-0.150350344848633
0.201573849878935,0.25092432518005403,0.798323440361023,1.1501452606201201
0.202179176755448,-0.223289542007446,1.42581855754852,1.29384643249512
0.202784503631961,-0.584937491226196,1.06656562786102,0.374158932495117
0.203389830508475,-0.453211417007446,0.055867385673522896,-0.09526489562988251
0.203995157384988,-0.9082651279449461,0.381590041923523,-0.545528567504883
0.204600484261501,-0.144253897476196,-0.962015915107727,-0.612589114379883
0.205205811138015,0.852074227523804,-1.76913749713898,-0.983817141723633
0.205811138014528,0.0952480556488037,0.352849807548523,-0.44972778625488297
0.206416464891041,0.516771493148804,0.36003486614227304,0.869927975463867
0.207021791767555,0.241344247055054,0.513316116142273,0.716646725463867
0.207627118644068,-0.17538915138244598,1.44976875286102,0.27835815124511704
0.208232445520581,-0.0963535068511963,-0.0471184541702271,0.103521725463867
0.208837772397094,-0.740613760757446,0.18998847942352298,-0.104844973754883
0.209443099273608,-0.438841299819946,-0.502172165107727,-0.6964147979736329
0.210048426150121,0.665262704086304,-2.15952568073273,-1.12751831359863
0.210653753026634,0.46168604393005397,0.0750275419235229,-0.9359167510986329
0.211259079903148,0.543116707992554,0.549241409111023,0.49869994812011703
0.211864406779661,0.454500985336304,0.49894599895477304,1.4064123504638701
0.212469733656174,0.0928530361175537,1.32522773723602,0.6208459442138671
0.213075060532688,-0.117908682632446,0.00317695598602295,-0.08568481750488251
0.213680387409201,-1.3657138584137,-0.0950188447952271,-0.531158450317383
0.214285714285714,-1.3393686435699501,-0.195609665107727,-0.971842044067383
0.214891041162228,0.296429696273804,-2.19784599323273,-1.1562585479736298
0.215496368038741,0.950270028305054,-0.849449997138977,-0.612589114379883
0.216101694915254,0.940689950180054,0.192383498954773,0.201717526245117
0.216707021791768,0.583832040023804,0.333689651298523,1.2052307098388702
0.217312348668281,-0.42686620216369603,1.53838447551727,0.987283932495117
0.217917675544794,-0.412496084976196,0.27860420207977304,0.117891842651367
0.218523002421308,-0.982510733413696,-0.0638835908889771,-0.09286987609863251
0.219128329297821,-1.1980624912262001,0.0199420927047729,-0.104844973754883
0.219733656174334,0.236554207992554,-1.83619804401398,-0.818560794067383
0.220338983050847,0.969430184555054,-1.34282402057648,-0.346741946411133
0.220944309927361,0.552696786117554,0.39117012004852303,0.33583861999511705
0.221549636803874,0.562276864242554,0.582771682548523,0.695091549682617
0.222154963680387,-0.26639989356994603,1.24619209270477,0.788497311401367
0.222760290556901,-0.398125967788696,1.13362617473602,0.29751830749511704
0.223365617433414,-0.37657079200744603,-0.147709274482727,0.237642819213867
0.223970944309927,-0.891499991226196,0.326504592704773,-0.365902102661133
0.224576271186441,-0.268794913101196,-0.494987106513977,-0.859276126098633
0.225181598062954,0.971825204086304,-1.7906926729202302,-0.758685305786133
0.225786924939467,0.346725106430054,0.233098830986023,-0.35153198547363296
0.226392251815981,0.485636239242554,0.589956741142273,0.46516967468261705
0.226997578692494,0.274874520492554,0.515711135673523,0.869927975463867
0.227602905569007,-0.299930167007446,1.42581855754852,0.165792233276367
0.228208232445521,-0.14664891700744598,-0.0303533174514771,0.0675964324951175
0.228813559322034,-0.867549795913696,0.0774225614547729,0.144237057495117
0.229418886198547,-0.640022940444946,-0.166869430732727,-0.741920169067383
0.230024213075061,0.598202157211304,-2.04935478229523,-1.01974243469238
0.230629539951574,0.200628915023804,-0.25788017292022697,-0.919151614379883
0.231234866828087,0.447315926742554,0.482180862236023,0.36697387390136704
0.2318401937046,0.892789559555054,0.283394241142273,1.4998181121826202
0.232445520581114,-0.07000829200744631,1.3228327177047698,0.752572018432617
0.233050847457627,-0.0963535068511963,0.0702375028610229,0.290333248901367
0.23365617433414,-0.8891049716949461,-0.25548515338897704,-0.140770266723633
0.234261501210654,-1.22919774513245,-0.0543035127639771,-1.10117309875488
0.234866828087167,0.437735848617554,-2.28406669635773,-1.20415893859863
0.23547215496368,0.820938973617554,-0.902140426826477,-0.8736462432861329
0.236077481840194,0.8472841884613039,0.465415725517273,0.232852780151367
0.236682808716707,0.9071596767425539,0.316924514579773,1.5429284637451202
0.23728813559322,-0.228079581069946,1.24619209270477,0.956148678588867
0.237893462469734,-0.321485342788696,0.6234870145797731,0.204112545776367
0.238498789346247,-0.771749014663696,0.13011299114227298,-0.140770266723633
0.23910411622276,-1.4663046787262002,0.0941876981735229,-0.31081665344238296
0.239709443099274,0.0329775478363037,-1.5559807588577301,-1.0532727081298798
0.240314769975787,0.871234383773804,-1.6110662080764802,-1.1682336456298799
0.2409200968523,0.583832040023804,0.18998847942352298,-0.08568481750488251
0.241525423728814,0.698792977523804,0.44865058879852304,0.9609387176513671
0.242130750605327,-0.153833975601196,1.1432062528610198,0.7238317840576171
0.24273607748184,-0.759773917007446,1.08812080364227,0.45558959655761705
0.243341404358354,-0.244844717788696,-0.19800468463897702,0.5226501434326171
0.243946731234867,-0.743008780288696,0.0989777372360229,-0.00664917297363255
0.24455205811138,-0.584937491226196,-0.384816208076477,-0.931126712036133
0.245157384987893,0.696397957992554,-1.52724052448273,-1.06045776672363
0.245762711864407,0.325169930648804,0.00796699504852295,-0.32997680969238297
0.24636803874092,0.509586434555054,0.594746780204773,0.493909909057617
0.246973365617433,0.315589852523804,0.19477851848602298,0.893878170776367
0.247578692493947,-0.0987485263824463,1.35875801067352,0.362183834838867
0.24818401937046,0.0808779384613037,0.182803420829773,0.292728268432617
0.248789346246973,-0.565777334976196,-0.272250290107727,0.5226501434326171
0.249394673123487,-0.822044424819946,0.00317695598602295,-0.5575036651611329
0.25,0.662867684555054,-2.32238700885773,-1.3478601104736299
0.250605326876513,0.337145028305054,-0.47822196979522696,0.09154662780761749
0.251210653753027,0.387440438461304,1.01627021770477,0.422059323120117
0.25181598062954,0.674842782211304,0.18040840129852298,0.8627429168701171
0.252421307506053,-0.204129385757446,1.1000959012985199,0.6998815887451171
0.253026634382567,-0.153833975601196,-0.0806487276077271,0.0316711395263674
0.25363196125908,-0.7693539951324461,-0.432716598701477,0.235247799682617
0.254237288135593,-1.4543295810699501,0.247468948173523,-0.6365393096923829
0.254842615012107,0.0952480556488037,-2.00384941120148,-1.2161340362548798
0.25544794188862,0.919134774398804,-1.24223320026398,-0.866461184692383
0.256053268765133,0.641312508773804,0.436675491142273,0.216087643432617
0.256658595641647,0.818543954086304,0.223518752861023,1.3752770965576202
0.25726392251816,0.00423731346130369,1.08093574504852,0.9824938934326171
0.257869249394673,-0.340645499038696,0.915679397392273,-0.00185913391113255
0.258474576271186,-0.642417959976196,-0.0590935518264771,0.0460412567138674
0.2590799031477,-1.31541844825745,0.357639846611023,-0.337161868286133
0.259685230024213,-0.0963535068511963,-1.30450370807648,-0.899991458129883
0.260290556900726,1.01254053611755,-1.64938652057648,-1.16104858703613
0.26089588377724,0.751483407211304,0.508526077079773,-0.238966067504883
0.261501210653753,0.725138192367554,0.5037360380172731,1.0423693817138702
0.262106537530266,0.035372567367553696,0.913284377861023,1.1070349090576201
0.26271186440678,-0.498716788101196,1.41384345989227,0.331048580932617
0.263317191283293,-0.271189932632446,0.13490303020477298,0.216087643432617
0.263922518159806,-0.872339834976196,0.26902412395477304,-0.0329943878173826
0.26452784503632,-0.695108389663696,-0.061488571357727104,-0.8568811065673829
0.265133171912833,0.840099129867554,-1.72602714557648,-0.782635501098633
0.265738498789346,0.605387215805054,-0.19800468463897702,-0.5958239776611329
0.26634382566586,0.320379891586304,0.834248733329773,0.290333248901367
0.266949152542373,0.389835457992554,0.26902412395477304,1.10942992858887
0.267554479418886,-0.479556631851196,1.2198468778610199,0.206507565307617
0.2681598062954,-0.42447118263244604,0.36003486614227304,0.0652014129638675
0.268765133171913,-0.517876944351196,-0.130944137763977,0.170582272338867
0.269370460048426,-1.10465672950745,0.336084670829773,-0.43296264953613295
0.269975786924939,0.502401375961304,-1.98229423542023,-0.880831301879883
0.270581113801453,0.48324121971130396,-0.744069137763977,-0.981422122192383
0.271186440677966,0.346725106430054,0.8246686552047731,0.180162350463867
0.271791767554479,0.998170418930054,0.24507392864227298,1.25313110046387
0.272397094430993,0.27247950096130397,1.1000959012985199,0.716646725463867
0.273002421307506,-0.113118643569946,0.257049026298523,0.0532263153076174
0.273607748184019,-0.513086905288696,-0.425531540107727,0.44600951843261705
0.274213075060533,-1.3705038974762,0.367219924736023,-0.397037356567383
0.274818401937046,-0.261609854507446,-1.73321220417023,-1.2664294464111299
0.275423728813559,0.660472665023804,-1.53921562213898,-0.7754504425048829
0.276029055690073,0.717953133773804,0.25225898723602297,0.25680297546386704
0.276634382566586,1.0101455165863,0.233098830986023,1.1453552215576202
0.277239709443099,-0.101143545913696,1.2198468778610199,0.948963619995117
0.277845036319613,-0.577752432632446,0.834248733329773,0.0556213348388674
0.278450363196126,-0.333460440444946,-0.171659469795227,0.0412512176513674
0.279055690072639,-1.2842831943512,0.285789260673523,-0.198250735473633
0.279661016949153,-0.36459569435119604,-0.885375290107727,-0.385062258911133
0.280266343825666,0.672447762680054,-1.65178154010773,-0.5958239776611329
0.280871670702179,0.7083730556488039,-0.0543035127639771,0.156212155151367
0.281476997578692,0.741903329086304,0.47978584270477304,1.2914514129638701
0.282082324455206,0.0689028408050537,0.953999709892273,1.04955444030762
0.282687651331719,-0.534642081069946,1.3779181669235199,0.165792233276367
0.283292978208232,-0.407706045913696,0.0367072294235229,0.0436462371826174
0.283898305084746,-0.745403799819946,0.211543655204773,0.577735592651367
0.284503631961259,-0.754983877944946,0.058262405204772896,-0.562293704223633
0.285108958837772,0.562276864242554,-1.78350761432648,-1.1634436065673799
0.285714285714286,0.655682625961304,-0.22434989948272702,-0.768265383911133
0.286319612590799,0.636522469711304,0.807903518486023,0.5202551239013671
0.286924939467312,0.504796395492554,0.0606574247360229,0.9202233856201171
0.287530266343826,-0.283165030288696,1.09051582317352,-0.052154544067382604
0.288135593220339,-0.398125967788696,0.288184280204773,0.113101803588867
0.288740920096852,-0.410101065444946,-0.207584762763977,0.216087643432617
0.289346246973366,-0.927425284194946,0.5037360380172731,-0.46170288391113296
0.289951573849879,0.485636239242554,-1.92720878620148,-1.21852905578613
0.290556900726392,0.641312508773804,-1.00991630573273,-1.35983520812988
0.291162227602906,0.24852930564880402,0.9228644559860231,0.0771765106201175
0.291767554479419,0.6868178798675539,0.106162795829773,1.46868285827637
0.292372881355932,0.0808779384613037,1.0019001005172699,0.807657467651367
0.292978208232446,-0.0292929599761963,0.314529495048523,0.0053259246826174505
0.293583535108959,-0.467581534194946,-0.506962204170227,0.187347409057617
0.294188861985472,-1.4112192295074502,0.44865058879852304,-0.648514407348633
0.294794188861985,-0.199339346694946,-1.53682060260773,-1.3095397979736298
0.295399515738499,0.650892586898804,-1.54640068073273,-0.804190676879883
0.296004842615012,0.677237801742554,0.42949043254852304,-0.121610110473633
0.296610169491525,0.979010262680054,0.0702375028610229,1.1190100067138702
0.297215496368039,0.205418954086304,0.858198928642273,0.9417785614013671
0.297820823244552,-0.6711581943511961,1.06896064739227,-0.246151126098633
0.298426150121065,-0.46518651466369604,-0.0255632783889771,-0.00185913391113255
0.299031476997579,-0.980115713882446,0.628277053642273,0.115496823120117
0.299636803874092,-0.539432120132446,-0.878190231513977,-0.902386477661133
0.300242130750605,0.631732430648804,-1.82182792682648,-1.4173156768798798
0.300847457627119,0.849679207992554,-0.0040081026077270505,-0.31081665344238296
0.301452784503632,0.734718270492554,0.467810745048523,0.865137936401367
0.302058111380145,0.24373926658630402,0.846223830986023,1.0256042449951202
0.302663438256659,-0.41489110450744604,1.20068672161102,0.40768920593261704
0.303268765133172,-0.13706883888244598,0.247468948173523,0.115496823120117
0.303874092009685,-0.860364737319946,0.0702375028610229,0.49630492858886704
0.304479418886199,-1.02801610450745,0.18998847942352298,-0.631749270629883
0.305084745762712,0.24852930564880402,-1.37395927448273,-1.35504516906738
0.305690072639225,0.622152352523804,-0.559652633857727,-0.603009036254883
0.306295399515739,0.617362313461304,0.652227248954773,0.38613403015136705
0.306900726392252,0.562276864242554,0.223518752861023,1.16930541687012
0.307506053268765,-0.22089452247619598,1.0234552762985198,0.331048580932617
0.308111380145278,-0.417286124038696,0.436675491142273,0.156212155151367
0.308716707021792,-0.204129385757446,-0.6123430635452269,0.558575436401367
0.309322033898305,-0.872339834976196,0.417515334892273,-0.109635012817383
0.309927360774818,0.265294442367554,-1.74518730182648,-0.7730554229736329
0.310532687651332,0.6077822353363039,-1.30689872760773,-0.277286380004883
0.311138014527845,0.191048836898804,1.01148017864227,0.27596313171386705
0.311743341404358,0.543116707992554,0.0151520536422729,0.9609387176513671
0.312348668280872,0.123988290023804,1.10967597942352,0.766942135620117
0.312953995157385,-0.252029776382446,0.601931838798523,-0.26291626281738295
0.313559322033898,-0.19215428810119597,-0.648268356513977,0.235247799682617
0.314164648910412,-1.6794614170074502,0.43907051067352304,-0.205435794067383
0.314769975786925,-0.48434667091369604,-1.34042900104523,-1.1347033721923798
0.315375302663438,0.593412118148804,-1.75955741901398,-0.7970056182861329
0.315980629539952,0.761063485336304,0.19956855754852298,0.146632077026367
0.316585956416465,1.1490566493988,0.146878127861023,1.17409545593262
0.317191283292978,0.0305825283050537,0.8845441434860231,0.9034582489013671
0.317796610169492,-0.417286124038696,0.870174026298523,-0.028204348754882598
0.318401937046005,-0.568172354507446,-0.22913993854522702,0.163397213745117
0.319007263922518,-1.1621371982574502,0.44865058879852304,-0.0689196807861325
0.319612590799031,-0.781329092788696,-0.463851852607727,-0.866461184692383
0.320217917675545,0.555091805648804,-1.6326213838577301,-1.03411255187988
0.320823244552058,0.775433602523804,-0.035143356513977105,-0.526368411254883
0.321428571428571,0.979010262680054,0.554031448173523,1.00165404968262
0.322033898305085,0.488031258773804,0.755213088798523,1.23636596374512
0.322639225181598,-0.6496030185699461,1.3563629911422699,-0.0737097198486325
0.323244552058111,-0.422076163101196,0.427095413017273,0.0819665496826175
0.323849878934625,-0.723848624038696,-0.039933395576477106,0.34781371765136704
0.324455205811138,-0.781329092788696,0.321714553642273,-0.497628176879883
0.325060532687651,0.236554207992554,-1.17996269245148,-1.3095397979736298
0.325665859564165,0.581437020492554,-0.746464157295227,-0.543133547973633
0.326271186440678,0.46168604393005397,0.800718459892273,0.481934811401367
0.326876513317191,0.634127450180054,0.257049026298523,0.845977780151367
0.327481840193705,-0.177784170913696,0.877359084892273,0.292728268432617
0.328087167070218,-0.800489249038696,0.771978225517273,-0.234176028442383
0.328692493946731,-0.309510245132446,-0.5716277315139769,0.261593014526367
0.329297820823245,-1.0519662998199502,0.30973945598602304,-0.547923587036133
0.329903147699758,-0.0340829990386963,-1.61346122760773,-1.2281091339111299
0.330508474576271,0.629337411117554,-1.6326213838577301,-0.902386477661133
0.331113801452785,0.0305825283050537,0.915679397392273,0.206507565307617
0.331719128329298,0.689212899398804,0.113347854423523,1.38246215515137
0.332324455205811,0.104828133773804,0.8845441434860231,0.697486569213867
0.332929782082324,-0.194549307632446,0.870174026298523,-0.09047485656738251
0.333535108958838,0.00902735252380369,-1.02189140338898,0.240037838745117
0.334140435835351,-1.38247899513245,0.048682327079772894,-0.0737097198486325
0.334745762711864,-0.584937491226196,-1.06260673542023,-1.14428345031738
0.335351089588378,0.6269423915863039,-1.9703191377639802,-1.37660034484863
0.335956416464891,0.600597176742554,0.367219924736023,-0.147955325317383
0.336561743341404,1.15624170799255,0.0438922880172729,1.2052307098388702
0.337167070217918,0.298824715805054,0.534871291923523,0.7813122528076171
0.337772397094431,-0.498716788101196,1.31085762004852,-0.29405151672363294
0.338377723970944,-0.343040518569946,-0.336915817451477,0.244827877807617
0.338983050847458,-0.9705356357574461,0.285789260673523,0.49869994812011703
0.339588377723971,-0.647207999038696,-0.420741501045227,-0.6341442901611329
0.340193704600484,0.454500985336304,-1.84098808307648,-1.28558960266113
0.340799031476998,0.435340829086304,-0.241115036201477,-0.234176028442383
0.341404358353511,1.1203164150237999,0.446255569267273,0.7214367645263671
0.342009685230024,0.653287606430054,0.613906936454773,1.1118249481201201
0.342615012106538,-0.534642081069946,1.16715644817352,-0.011439212036132601
0.343220338983051,-0.352620596694946,0.642647170829773,-0.265311282348633
0.343825665859564,-0.680738272476196,0.0391022489547729,0.43882445983886703
0.344430992736078,-0.9705356357574461,0.36003486614227304,-0.39943237609863297
0.345036319612591,0.18386377830505402,-1.03626152057648,-1.3526501495361298
0.345641646489104,0.696397957992554,-0.789574508857727,-0.705994876098633
0.346246973365617,0.643707528305054,0.647437209892273,0.434034420776367
0.346852300242131,0.8065688564300539,0.25944404582977304,0.776522213745117
0.347457627118644,-0.0316879795074463,0.795928420829773,0.170582272338867
0.348062953995157,-0.647207999038696,1.03064033489227,-0.183880618286133
0.348668280871671,-0.182574209976196,-0.530912399482727,0.575340573120117
0.349273607748184,-1.0352011631012001,0.0893976591110229,-0.100054934692383
0.349878934624697,-0.249634756851196,-1.25899833698273,-1.12751831359863
0.350484261501211,0.892789559555054,-1.6541765596389801,-1.1945788604736298
0.351089588377724,0.296429696273804,0.628277053642273,0.0436462371826174
0.351694915254237,0.722743172836304,0.343269729423523,1.2100207489013701
0.352300242130751,0.14793848533630402,0.671387405204773,0.927408444213867
0.352905569007264,-0.371780752944946,0.910889358329773,-0.167115481567383
0.353510895883777,-0.213709463882446,-0.564442672920227,0.08915160827636749
0.354116222760291,-1.39205907325745,-0.0135881807327271,0.129866940307617
0.354721549636804,-0.920240225601196,-0.806339645576477,-0.979027102661133
0.355326876513317,0.696397957992554,-2.00863945026398,-1.68076782531738
0.355932203389831,0.897579598617554,0.0295221708297729,-0.47128296203613296
0.356537530266344,1.1586367275237999,0.32889961223602304,1.31300658874512
0.357142857142857,0.365885262680054,0.577981643486023,1.0591345184326202
0.35774818401937,-0.369385733413696,1.05459053020477,-0.528763430786133
0.358353510895884,-0.314300284194946,-0.286620407295227,-0.205435794067383
0.358958837772397,-1.10465672950745,0.19477851848602298,0.35499877624511705
0.35956416464891,-0.922635245132446,-0.145314254951477,-0.43296264953613295
0.360169491525424,0.229369149398804,-1.64699150104523,-1.28558960266113
0.360774818401937,0.552696786117554,-0.420741501045227,-0.603009036254883
0.36138014527845,0.799383797836304,0.443860549736023,0.826817623901367
0.361985472154964,0.6077822353363039,0.714497756767273,1.03997436218262
0.362590799031477,-0.331065420913696,1.15278633098602,0.172977291870117
0.36319612590799,-0.580147452163696,0.697732620048523,-0.253336184692383
0.363801452784504,-0.343040518569946,0.0343122098922729,0.5202551239013671
0.364406779661017,-0.905870108413696,0.25944404582977304,-0.028204348754882598
0.36501210653753,-0.0221079013824463,-1.12727226276398,-1.34546509094238
0.365617433414044,0.540721688461304,-1.12487724323273,-0.981422122192383
0.366222760290557,0.36349024314880396,0.728867873954773,0.216087643432617
0.36682808716707,0.622152352523804,0.374404983329773,0.8795080535888671
0.367433414043584,0.0257924892425537,0.616301955986023,0.177767330932617
0.368038740920097,-0.733428702163696,0.961184768486023,-0.5167883331298829
0.36864406779661,-0.0580331943511963,-0.360866012763977,0.192137448120117
0.369249394673124,-0.857969717788696,0.197173538017273,-0.32279175109863295
0.369854721549637,-0.302325186538696,-0.882980270576477,-1.20176391906738
0.37046004842615,0.859259286117554,-1.61825126667023,-0.7970056182861329
0.371065375302663,0.308404793930054,0.601931838798523,0.192137448120117
0.371670702179177,0.8065688564300539,0.36003486614227304,1.21241576843262
0.37227602905569,0.26289942283630396,0.738447952079773,0.834002682495117
0.372881355932203,-0.448421377944946,1.09291084270477,-0.0808947784423825
0.373486682808717,-0.17059911231994598,-0.583602829170227,0.101126705932617
0.37409200968523,-1.1453720615387002,0.000781936454772948,-0.0473645050048826
0.374697336561743,-1.2124326084137,-0.578812790107727,-0.983817141723633
0.375302663438257,0.485636239242554,-1.86014823932648,-1.62328735656738
0.37590799031477,0.835309090805054,0.0774225614547729,-0.128795169067383
0.376513317191283,1.0772060634612999,0.39117012004852303,1.22439086608887
0.377118644067797,0.435340829086304,0.257049026298523,1.01602416687012
0.37772397094431,-0.39573094825744604,1.21745185832977,-0.138375247192383
0.378329297820823,-0.527457022476196,-0.0830437471389771,-0.121610110473633
0.378934624697337,-0.539432120132446,-0.0471184541702271,0.532230221557617
0.37953995157385,-0.951375479507446,-0.0135881807327271,-0.610194094848633
0.380145278450363,0.123988290023804,-1.46257499713898,-1.36702026672363
0.380750605326877,0.725138192367554,-0.523727340888977,-0.550318606567383
0.38135593220339,0.761063485336304,0.501341018486023,0.5418102996826171
0.381961259079903,0.794593758773804,0.767188186454773,1.14296020202637
0.382566585956416,-0.515481924819946,1.21026679973602,0.137051998901367
0.38317191283293,-0.582542471694946,0.853408889579773,-0.41140747375488296
0.383777239709443,-0.400520987319946,-0.22913993854522702,0.412479244995117
0.384382566585956,-0.877129874038696,0.257049026298523,-0.0425744659423826
0.38498789346247,-0.0508481357574463,-0.799154586982727,-1.13230835266113
0.385593220338983,0.631732430648804,-1.12248222370148,-0.945496829223633
0.386198547215496,0.38265039939880396,0.580376663017273,0.0436462371826174
0.38680387409201,0.48324121971130396,0.41991035442352304,0.905853268432617
0.387409200968523,0.428155770492554,0.5851667020797731,0.46756469421386704
0.388014527845036,-0.881919913101196,0.8438288114547731,-0.500023196411133
0.38861985472155,-0.278374991226196,-0.336915817451477,0.158607174682617
0.389225181598063,-0.606492667007446,-0.0758586885452271,0.129866940307617
0.389830508474576,-0.371780752944946,-0.559652633857727,-0.9574719268798829
0.39043583535109,0.641312508773804,-1.7356072237014801,-1.2233190948486299
0.391041162227603,0.296429696273804,0.386380080986023,-0.09286987609863251
0.391646489104116,0.816148934555054,0.654622268486023,1.32737670593262
0.39225181598063,0.404205575180054,0.42949043254852304,0.812447506713867
0.392857142857143,-0.501111807632446,1.2030817411422698,-0.497628176879883
0.393462469733656,-0.14664891700744598,-0.6937737276077269,0.0652014129638675
0.394067796610169,-0.707083487319946,-0.207584762763977,0.0436462371826174
0.394673123486683,-0.987300772476196,-0.46864189167022696,-1.4771911651611298
0.395278450363196,0.6269423915863039,-2.03498466510773,-1.6735827667236298
0.395883777239709,0.840099129867554,-0.26985527057647696,-0.624564212036133
0.396489104116223,1.1394765712738,0.295369338798523,1.0902697723388701
0.397094430992736,0.480846200180054,0.422305373954773,1.37048705749512
0.397699757869249,-0.460396475601196,1.1599713895797699,-0.107239993286133
0.398305084745763,-0.412496084976196,-0.293805465888977,-0.188670657348633
0.398910411622276,-0.640022940444946,-0.11896904010772699,0.161002194213867
0.399515738498789,-1.1693222568512,0.0798175809860229,-0.37069214172363296
0.400121065375303,0.14793848533630402,-1.46976005573273,-1.5322766143798798
0.400726392251816,0.5862270595550539,-0.530912399482727,-0.27968139953613297
0.401331719128329,1.05086084861755,0.472600784111023,0.989678952026367
0.401937046004843,0.8257290126800539,0.5061310575485231,1.0854797332763702
0.402542372881356,-0.343040518569946,1.01387519817352,0.141842037963867
0.403147699757869,-0.42686620216369603,0.8031134794235231,-0.478468020629883
0.403753026634383,-0.515481924819946,-0.0590935518264771,0.673536373901367
0.404358353510896,-0.946585440444946,0.187593459892273,-0.0665246612548825
0.404963680387409,-0.323880362319946,-0.8518450166702269,-1.1083581573486299
0.405569007263923,0.370675301742554,-0.983571090888977,-1.27840454406738
0.406174334140436,0.41139063377380397,0.530081252861023,-0.124005130004883
0.406779661016949,0.634127450180054,0.554031448173523,1.02081420593262
0.407384987893463,0.0736928798675537,0.36961494426727304,0.546600338745117
0.407990314769976,-0.503506827163696,0.9827399442672731,-0.540738528442383
0.408595641646489,-0.31669530372619603,0.0654474637985229,0.175372311401367
0.409200968523002,-0.716663565444946,0.13490303020477298,0.340628659057617
0.409806295399516,-0.261609854507446,-0.602762985420227,-0.899991458129883
0.410411622276029,0.614967293930054,-1.67333671588898,-1.5107214385986298
0.411016949152542,0.47366114158630396,0.357639846611023,-0.416197512817383
0.411622276029056,0.8664443447113039,0.40075019817352303,1.1621203582763702
0.412227602905569,0.416180672836304,0.474995803642273,0.867532955932617
0.412832929782082,-0.49632176856994603,1.02585029582977,-0.35392700500488294
0.413438256658596,-0.489136709976196,-0.23392997760772702,0.192137448120117
0.414043583535109,-0.745403799819946,-0.250695114326477,0.30949340515136703
0.414648910411622,-1.2459628818512,-0.566837692451477,-1.0317175323486298
0.415254237288136,0.258109383773804,-1.80027275104523,-1.8484191925048798
0.415859564164649,0.9454799892425539,-0.406371383857727,-0.550318606567383
0.416464891041162,1.01254053611755,0.467810745048523,1.04955444030762
0.417070217917676,0.842494149398804,0.44865058879852304,1.15972533874512
0.417675544794189,-0.30711522560119603,1.0617755887985199,-0.145560305786133
0.418280871670702,-0.33585545997619604,0.0702375028610229,-0.454517825317383
0.418886198547216,-0.6687631748199461,-0.104598922920227,0.546600338745117
0.419491525423729,-1.3202084873199502,0.24028388957977298,-0.191065676879883
0.420096852300242,-0.103538565444946,-1.1584075166702301,-1.39336548156738
0.420702179176755,0.380255379867554,-0.842264938545227,-1.1514685089111298
0.421307506053269,0.940689950180054,0.5851667020797731,0.656771237182617
0.421912832929782,0.775433602523804,0.700127639579773,1.4710778778076201
0.422518159806295,-0.228079581069946,1.10728095989227,0.38852904968261703
0.423123486682809,-0.525062002944946,0.898914260673523,-0.523973391723633
0.423728813559322,-0.517876944351196,-0.15968437213897702,0.570550534057617
0.424334140435835,-0.7286386631011961,0.288184280204773,0.120286862182617
0.424939467312349,-0.539432120132446,-0.581207809638977,-1.0963830596923798
0.425544794188862,0.289244637680054,-1.0554216768264801,-1.39815552062988
0.426150121065375,0.444920907211304,0.48936592082977304,-0.167115481567383
0.426755447941889,0.864049325180054,0.436675491142273,1.4231774871826202
0.427360774818402,0.428155770492554,0.26902412395477304,0.747781979370117
0.427966101694915,-0.654393057632446,1.16236640911102,-0.586243899536133
0.428571428571429,-0.508296866226196,0.216333694267273,-0.00664917297363255
0.429176755447942,-0.881919913101196,0.0438922880172729,0.6591662567138671
0.429782082324455,-0.618467764663696,-0.336915817451477,-0.684439700317383
0.430387409200969,0.399415536117554,-1.8553582002639801,-1.1035681182861299
0.430992736077482,0.310799813461304,-0.15489433307647701,0.27596313171386705
0.431598062953995,0.679632821273804,0.671387405204773,1.1669103973388701
0.432203389830508,0.315589852523804,0.5061310575485231,0.989678952026367
0.432808716707022,-0.268794913101196,1.19350166301727,-0.164720462036133
0.433414043583535,-0.213709463882446,-0.0782537080764771,-0.124005130004883
0.434019370460048,-0.5705673740386961,-0.37763114948272697,0.434034420776367
0.434624697336562,-1.27230809669495,-0.0279582979202271,-0.981422122192383
0.435230024213075,0.0138173915863037,-1.82661796588898,-1.5658068878173799
0.435835351089588,0.837704110336304,-0.626713180732727,-0.7970056182861329
0.436440677966102,1.1777968837738,0.434280471611023,0.690301510620117
0.437046004842615,0.935899911117554,0.053472366142272895,1.5046081512451202
0.437651331719128,-0.40531102638244604,1.19589668254852,0.0268811004638674
0.438256658595642,-0.48674169044494603,0.192383498954773,-0.6149841339111329
0.438861985472155,-0.283165030288696,-0.415951461982727,0.41726928405761704
0.439467312348668,-1.0807065341949502,-0.0471184541702271,0.08915160827636749
0.440072639225182,-0.264004874038696,-1.2134929658889801,-1.3789953643798798
0.440677966101695,0.444920907211304,-1.11050712604523,-1.29516968078613
0.441283292978208,0.794593758773804,0.314529495048523,0.362183834838867
0.441888619854722,0.842494149398804,0.635462112236023,1.35611694030762
0.442493946731235,-0.0795883701324463,0.788743362236023,0.161002194213867
0.443099273607748,-0.412496084976196,0.6857575223922731,-0.44972778625488297
0.443704600484262,-0.323880362319946,-0.262670211982727,0.618450924682617
0.444309927360775,-0.711873526382446,0.110952834892273,0.129866940307617
0.444915254237288,-0.778934073257446,-0.504567184638977,-1.00297729797363
0.445520581113801,0.16709864158630403,-0.756044235420227,-1.20415893859863
0.446125907990315,0.516771493148804,0.38877510051727304,-0.00664917297363255
0.446731234866828,0.928714852523804,0.36961494426727304,1.1669103973388701
0.447336561743341,0.408995614242554,0.314529495048523,0.5825256317138671
0.447941888619855,-0.37657079200744603,0.951604690361023,-0.519183352661133
0.448547215496368,-0.378965811538696,0.0989777372360229,-0.08568481750488251
0.449152542372881,-0.640022940444946,-0.11417900104522699,0.47474975280761705
0.449757869249395,-0.896290030288696,-0.241115036201477,-0.40182739562988296
0.450363196125908,0.29163965721130397,-1.57993095417023,-1.46521606750488
0.450968523002421,0.533536629867554,-0.0806487276077271,-0.550318606567383
0.451573849878935,0.574251961898804,0.712102737236023,1.00644408874512
0.452179176755448,0.614967293930054,0.24028388957977298,1.2004406707763702
0.452784503631961,-0.40531102638244604,0.877359084892273,-0.219805911254883
0.453389830508475,-0.383755850601196,-0.00879814167022705,-0.34913696594238297
0.453995157384988,-0.6711581943511961,-0.44708671588897697,0.7214367645263671
0.454600484261501,-1.11423680763245,-0.06867362995147709,-0.6149841339111329
0.455205811138015,-0.0724033115386963,-1.71884208698273,-1.3861804229736299
0.455811138014528,0.7466933681488039,-0.722513961982727,-0.6365393096923829
0.456416464891041,1.1346865322112998,0.30973945598602304,0.668746334838867
0.457021791767554,0.928714852523804,0.197173538017273,1.65549438171387
0.457627118644068,0.0784829189300537,1.17913154582977,0.29751830749511704
0.458232445520581,-0.26639989356994603,-0.032748336982727104,-0.425777590942383
0.458837772397094,-0.328670401382446,-0.430321579170227,0.572945553588867
0.459443099273608,-1.0495712802887,0.33847969036102304,0.434034420776367
0.460048426150121,-0.115513663101196,-0.976386032295227,-1.23050415344238
0.460653753026634,0.36349024314880396,-0.942855758857727,-1.17062866516113
0.461259079903148,0.734718270492554,0.27860420207977304,0.6040808074951171
0.461864406779661,0.962245125961304,0.297764358329773,1.6411242645263702
0.462469733656174,0.00902735252380369,0.872569045829773,0.675931393432617
0.463075060532688,-0.472371573257446,0.9228644559860231,-0.729945071411133
0.463680387409201,-0.31669530372619603,-0.19800468463897702,0.587315670776367
0.464285714285714,-0.580147452163696,0.18998847942352298,0.6400061004638671
0.464891041162228,-0.525062002944946,-0.277040329170227,-0.8736462432861329
0.465496368038741,-0.0388730381011963,-0.796759567451477,-1.30235473937988
0.466101694915254,0.14314844627380402,0.12292793254852301,-0.0425744659423826
0.466707021791768,1.1370815517425499,0.537266311454773,1.56208861999512
0.467312348668281,0.519166512680054,0.491760940361023,1.0591345184326202
0.467917675544794,-0.544222159194946,0.760003127861023,-0.686834719848633
0.468523002421308,-0.651998038101196,0.38877510051727304,-0.267706301879883
0.469128329297821,-0.453211417007446,-0.0471184541702271,0.644796139526367
0.469733656174334,-0.417286124038696,-0.351285934638977,-0.358717044067383
0.470338983050847,0.16230860252380402,-1.6158562471389801,-1.60652221984863
0.470944309927361,0.47366114158630396,-0.24830009479522702,-0.612589114379883
0.471549636803874,0.844889168930054,0.678572463798523,0.934593502807617
0.472154963680387,0.909554696273804,0.431885452079773,1.1357751434326202
0.472760290556901,-0.182574209976196,0.870174026298523,0.0053259246826174505
0.473365617433414,-0.259214834976196,-0.0495134737014771,-0.603009036254883
0.473970944309927,-0.572962393569946,-0.33931083698272696,0.48911986999511703
0.474576271186441,-1.1717172763824502,-0.26746025104522697,-0.6149841339111329
0.475181598062954,0.13835840721130402,-1.56077079792023,-1.70471802062988
0.475786924939467,0.832914071273804,-0.827894821357727,-0.9957922393798829
0.476392251815981,1.2592275478363,0.427095413017273,0.824422604370117
0.476997578692494,0.890394540023804,0.580376663017273,1.4830529754638702
0.477602905569007,-0.237659659194946,0.839038772392273,0.0771765106201175
0.478208232445521,-0.678343252944946,0.142088088798523,-0.38985229797363297
0.478813559322034,-0.673553213882446,-0.346495895576477,0.42445434265136706
0.479418886198547,-1.01843602638245,-0.0016130830764770501,0.129866940307617
0.480024213075061,-0.29514012794494604,-0.882980270576477,-0.878436282348633
0.480629539951574,0.315589852523804,-1.02189140338898,-1.26403442687988
0.481234866828087,0.756273446273804,0.31931953411102304,0.182557369995117
0.481840193704601,1.0388857509612999,0.542056350517273,1.4782629364013702
0.482445520581114,0.231764168930054,0.819878616142273,0.493909909057617
0.483050847457627,-0.520271963882446,1.02585029582977,-0.6533044464111329
0.48365617433414,-0.30711522560119603,-0.00879814167022705,-0.167115481567383
0.484261501210654,-0.735823721694946,0.0965827177047729,0.651981198120117
0.484866828087167,-0.7286386631011961,-0.212374801826477,-0.682044680786133
0.48547215496368,0.315589852523804,-0.9332756807327269,-1.9298498565673798
0.486077481840194,0.107223153305054,0.022337112236022902,-0.5167883331298829
0.486682808716707,0.921529793930054,0.551636428642273,1.15254028015137
0.48728813559322,0.286849618148804,0.372009963798523,0.975308834838867
0.487893462469734,-0.431656241226196,0.867779006767273,-0.224595950317383
0.488498789346247,-0.558592276382446,0.35045478801727303,-0.0617346221923826
0.48910411622276,-0.596912588882446,-0.04472343463897711,0.6639562957763671
0.489709443099274,-0.707083487319946,-0.13812919635772702,-0.157535403442383
0.490314769975787,0.210208993148804,-1.54640068073273,-1.5538317901611298
0.4909200968523,0.394625497055054,-0.372841110420227,-1.0221374542236301
0.491525423728814,0.612572274398804,0.640252151298523,0.807657467651367
0.492130750605327,0.897579598617554,0.573191604423523,1.31300658874512
0.49273607748184,-0.22089452247619598,0.956394729423523,0.019696041870117403
0.493341404358354,-0.371780752944946,0.209148635673523,-0.5551086456298829
0.493946731234867,-0.247239737319946,-0.28901542682647696,0.491514889526367
0.49455205811138,-1.0495712802887,-0.43750663776397697,-0.140770266723633
0.495157384987893,-0.0604282138824463,-1.41227958698273,-1.38139038391113
0.495762711864407,0.543116707992554,-1.0769768526077301,-1.13709839172363
0.49636803874092,1.0915761806487998,0.427095413017273,0.671141354370117
0.496973365617433,0.935899911117554,0.558821487236023,1.34893188171387
0.497578692493947,-0.199339346694946,0.628277053642273,0.290333248901367
0.49818401937046,-0.520271963882446,0.443860549736023,-0.48086304016113296
0.498789346246973,-0.280770010757446,-0.26985527057647696,0.134656979370117
0.499394673123487,-0.8891049716949461,-0.0782537080764771,0.43882445983886703
0.5,-0.623257803726196,-0.897350387763977,-0.7946105987548829
0.500605326876513,0.19823389549255402,-0.815919723701477,-1.45803100891113
0.501210653753027,0.631732430648804,0.237888870048523,0.141842037963867
0.50181598062954,0.895184579086304,0.405540237236023,1.3680920379638701
0.502421307506053,0.35151514549255397,0.630672073173523,0.37894897155761703
0.503026634382567,-0.30472020606994604,0.997110061454773,-0.583848880004883
0.50363196125908,-0.577752432632446,0.146878127861023,0.137051998901367
0.504237288135593,-0.481951651382446,0.0247321317672729,0.786102291870117
0.504842615012107,-0.546617178726196,-0.207584762763977,-0.591033938598633
0.50544794188862,0.169493661117554,-1.04584159870148,-1.4724011260986298
0.506053268765133,-0.0987485263824463,0.0103620145797729,-0.42338257141113295
0.506658595641647,0.981405282211304,0.659412307548523,0.984888912963867
0.50726392251816,0.564671883773804,0.297764358329773,1.04476440124512
0.507869249394673,-0.357410635757446,0.939629592704773,-0.36111206359863296
0.508474576271186,-0.517876944351196,0.434280471611023,-0.250941165161133
0.5090799031477,-0.477161612319946,-0.296200485420227,0.5442053192138671
0.509685230024213,-0.7885141513824461,-0.104598922920227,-0.267706301879883
0.510290556900726,-0.0532431552886963,-1.50329032917023,-1.0915930206298798
0.51089588377724,0.41378565330505396,-0.6530583955764769,-0.938311770629883
0.511501210653753,0.619757332992554,0.48936592082977304,0.726226803588867
0.512106537530266,0.7658535243988039,0.29057929973602303,1.4231774871826202
0.51271186440678,-0.0268979404449463,0.831853713798523,0.261593014526367
0.513317191283293,-0.398125967788696,0.304949416923523,-0.425777590942383
0.513922518159806,-0.568172354507446,-0.535702438545227,0.28793822937011704
0.51452784503632,-1.0256210849762002,-0.0758586885452271,-0.0401794464111326
0.515133171912833,-0.18017919044494599,-1.42904472370148,-1.59933716125488
0.515738498789346,0.614967293930054,-1.35958915729523,-1.08201294250488
0.51634382566586,0.928714852523804,0.142088088798523,0.374158932495117
0.516949152542373,0.9670351650238039,0.30973945598602304,1.2818713348388702
0.517554479418886,0.22218409080505402,0.716892776298523,0.472354733276367
0.5181598062954,-0.5490121982574461,0.417515334892273,-0.40182739562988296
0.518765133171913,-0.503506827163696,-0.19321464557647702,0.374158932495117
0.519370460048426,-0.8292294834136961,0.0870026395797729,0.0963366668701175
0.51997578692494,-0.469976553726196,-0.703353805732727,-0.8329309112548829
0.520581113801453,0.116803231430054,-1.01470634479523,-1.3191198760986298
0.521186440677966,0.41378565330505396,0.137298049736023,0.206507565307617
0.521791767554479,0.9071596767425539,0.496550979423523,1.4710778778076201
0.522397094430993,0.514376473617554,0.671387405204773,0.668746334838867
0.523002421307506,-0.541827139663696,1.02585029582977,-0.5575036651611329
0.523607748184019,-0.438841299819946,0.173223342704773,-0.31081665344238296
0.524213075060533,-0.40531102638244604,-0.25548515338897704,0.764547116088867
0.524818401937046,-0.6903183506011961,-0.236324997138977,-0.394642337036133
0.525423728813559,0.107223153305054,-0.973991012763977,-1.50353638000488
0.526029055690073,0.0665078212738037,-0.00640312213897705,-0.739525149536133
0.526634382566586,0.914344735336304,0.422305373954773,1.2004406707763702
0.527239709443099,0.758668465805054,0.209148635673523,1.31779662780762
0.527845036319613,-0.273584952163696,1.0569855497360199,-0.365902102661133
0.528450363196126,-0.778934073257446,0.446255569267273,-0.679649661254883
0.529055690072639,-0.400520987319946,-0.04472343463897711,0.42684936218261704
0.529661016949153,-0.759773917007446,-0.0950188447952271,0.194532467651367
0.530266343825666,-0.0724033115386963,-1.51047538776398,-1.2831945831298799
0.530871670702179,0.337145028305054,-0.705748825263977,-1.0915930206298798
0.531476997578692,0.696397957992554,0.549241409111023,0.290333248901367
0.532082324455206,0.919134774398804,0.6234870145797731,1.3369567840576202
0.532687651331719,0.0617177822113037,0.831853713798523,0.28793822937011704
0.533292978208233,-0.560987295913696,0.24986396770477298,-0.545528567504883
0.533898305084746,-0.697503409194946,-0.32973075885772696,0.402899166870117
0.534503631961259,-1.1070517490387002,-0.186029586982727,-0.43056763000488296
0.535108958837772,-0.213709463882446,-1.36916923542023,-1.4987463409423798
0.535714285714286,0.614967293930054,-1.38832939167023,-1.01016235656738
0.536319612590799,0.849679207992554,0.163643264579773,0.180162350463867
0.536924939467312,0.928714852523804,0.41991035442352304,1.59322387390137
0.537530266343826,0.123988290023804,0.870174026298523,0.7789172332763671
0.538135593220339,-0.628047842788696,0.5851667020797731,-0.622169192504883
0.538740920096852,-0.218499502944946,-0.22913993854522702,0.149027096557617
0.539346246973366,-0.6088876865386961,-0.06867362995147709,0.731016842651367
0.539951573849879,-0.5490121982574461,-0.609948044013977,-0.5982189971923829
0.540556900726392,0.205418954086304,-0.7536492158889769,-1.72627319641113
0.541162227602906,0.478451180648804,0.046287307548522894,0.00772094421386745
0.541767554479419,1.0101455165863,0.453440627861023,1.4495227020263701
0.542372881355932,0.420970711898804,0.494155959892273,0.7429919403076171
0.542978208232446,-0.568172354507446,0.898914260673523,-0.6173791534423829
0.543583535108959,-0.534642081069946,0.146878127861023,-0.29165649719238296
0.544188861985472,-0.489136709976196,0.18040840129852298,0.977703854370117
0.544794188861985,-0.541827139663696,0.058262405204772896,-0.267706301879883
0.545399515738499,0.0641128017425537,-1.18235771198273,-1.35025513000488
0.546004842615012,-0.23526463966369598,-0.11417900104522699,-0.6149841339111329
0.546610169491525,0.550301766586304,0.609116897392273,1.0519494598388701
0.547215496368039,0.495216317367554,0.173223342704773,1.14775024108887
0.547820823244552,-0.19694432716369598,0.537266311454773,-0.521578372192383
0.548426150121065,-0.5705673740386961,0.472600784111023,-0.41380249328613294
0.549031476997579,-0.30472020606994604,-0.277040329170227,0.517860104370117
0.549636803874092,-0.575357413101196,0.00557197551727295,-0.138375247192383
0.550242130750605,-0.242449698257446,-1.05781669635773,-0.899991458129883
0.550847457627119,0.0425576259613037,-0.923695602607727,-0.820955813598633
0.551452784503632,0.555091805648804,0.412725295829773,0.568155514526367
0.552058111380145,1.0053554775238,0.364824905204773,1.7991955535888702
0.552663438256659,0.289244637680054,0.748028030204773,0.36697387390136704
0.553268765133172,-0.45560643653869604,0.441465530204773,-0.418592532348633
0.553874092009685,-0.553802237319946,-0.5716277315139769,0.249617916870117
0.554479418886199,-1.02322606544495,-0.25548515338897704,-0.011439212036132601
0.555084745762712,-0.362200674819946,-1.17277763385773,-1.32151489562988
0.555690072639225,0.591017098617554,-1.2733684541702301,-1.4388708526611298
0.556295399515738,0.775433602523804,0.242678909111023,0.117891842651367
0.556900726392252,1.03649073143005,0.273814163017273,1.4878430145263701
0.557506053268765,0.255714364242554,0.6043268583297731,0.7837072723388671
0.558111380145279,-0.843599600601196,0.697732620048523,-0.643724368286133
0.558716707021792,-0.517876944351196,-0.0566985322952271,0.08915160827636749
0.559322033898305,-0.5106918857574461,-0.0183782197952271,0.8986682098388671
0.559927360774818,-0.481951651382446,-0.49738212604522697,-0.622169192504883
0.560532687651332,0.308404793930054,-1.13445732135773,-1.76459350891113
0.561138014527845,0.466476082992554,-0.032748336982727104,-0.188670657348633
0.561743341404358,0.837704110336304,0.575586623954773,1.4016223114013702
0.562348668280872,0.631732430648804,0.534871291923523,1.19086059265137
0.562953995157385,-0.575357413101196,1.02824531536102,-0.605404055786133
0.563559322033898,-0.393335928726196,0.228308791923523,-0.33237182922363295
0.564164648910412,-0.139463858413696,-0.0303533174514771,0.927408444213867
0.564769975786925,-0.8483896396636961,0.110952834892273,0.0460412567138674
0.565375302663438,-0.103538565444946,-0.847054977607727,-1.44366089172363
0.565980629539952,-0.13227879981994597,-0.13812919635772702,-1.03890259094238
0.566585956416465,0.650892586898804,0.534871291923523,0.853162838745117
0.567191283292978,0.7466933681488039,0.156458205986023,1.14775024108887
0.567796610169492,-0.105933584976196,0.616301955986023,-0.226990969848633
0.568401937046005,-0.6088876865386961,0.575586623954773,-0.559898684692383
0.569007263922518,-0.472371573257446,-0.039933395576477106,0.6040808074951171
0.569612590799031,-0.577752432632446,-0.142919235420227,0.196927487182617
0.570217917675545,-0.26639989356994603,-1.41946464557648,-1.2065539581298799
0.570823244552058,0.420970711898804,-1.0171013643264801,-1.2544543487548798
0.571428571428572,0.617362313461304,0.587561721611023,0.5609704559326171
0.572033898305085,0.9861953212738039,0.372009963798523,1.70818481140137
0.572639225181598,0.186258797836304,0.518106155204773,0.48911986999511703
0.573244552058111,-0.616072745132446,0.678572463798523,-0.5575036651611329
0.573849878934625,-0.513086905288696,-0.607553024482727,0.129866940307617
0.574455205811138,-0.980115713882446,-0.310570602607727,0.0460412567138674
0.575060532687651,-0.458001456069946,-0.839869919013977,-1.25205932922363
0.575665859564165,0.38265039939880396,-1.45538993854523,-1.3957605010986298
0.576271186440678,0.974220223617554,0.127717971611023,0.08915160827636749
0.576876513317191,1.0053554775238,0.218728713798523,1.57166869812012
0.577481840193705,0.219789071273804,0.6450421903610231,1.00644408874512
0.578087167070218,-0.637627920913696,0.726472854423523,-0.38985229797363297
0.578692493946731,-0.328670401382446,-0.33931083698272696,0.060411373901367395
0.579297820823245,-0.7310336826324461,-0.22434989948272702,0.644796139526367
0.579903147699758,-0.867549795913696,-0.5740227510452269,-0.607799075317383
0.580508474576271,0.102433114242554,-1.29971366901398,-1.0532727081298798
0.581113801452785,0.650892586898804,-0.11178398151397699,0.184952389526367
0.581719128329298,1.0317006923675498,0.666597366142273,1.3417468231201202
0.582324455205811,0.476056161117554,0.374404983329773,1.00644408874512
0.582929782082324,-0.35501561622619604,1.09291084270477,-0.6173791534423829
0.583535108958838,-0.532247061538696,0.333689651298523,-0.0761047393798825
0.584140435835351,-0.36699071388244603,0.000781936454772948,0.910643307495117
0.584745762711864,-0.898685049819946,0.12292793254852301,0.0795715301513675
0.585351089588378,-0.297535147476196,-0.866215133857727,-1.26163940734863
0.585956416464891,0.0114223720550537,-0.272250290107727,-0.971842044067383
0.586561743341404,0.576646981430054,0.522896194267273,0.793287350463867
0.587167070217918,0.763458504867554,0.254654006767273,1.25313110046387
0.587772397094431,-0.0915634677886963,0.697732620048523,0.0149060028076174
0.588377723970944,-0.697503409194946,0.496550979423523,-0.519183352661133
0.588983050847458,-0.422076163101196,-0.23872001667022702,0.453194577026367
0.589588377723971,-0.699898428726196,-0.032748336982727104,0.129866940307617
0.590193704600484,-0.12509374122619601,-1.16798759479523,-1.0365075714111298
0.590799031476998,0.29403467674255396,-0.9524358369827269,-1.18020874328613
0.591404358353511,0.440130868148804,0.34087470989227303,0.225667721557617
0.592009685230024,0.921529793930054,0.539661330986023,1.5596936004638702
0.592615012106538,0.265294442367554,0.628277053642273,0.731016842651367
0.593220338983051,-0.577752432632446,0.465415725517273,-0.43056763000488296
0.593825665859564,-0.654393057632446,-0.363261032295227,0.247222897338867
0.594430992736077,-0.965745596694946,-0.195609665107727,0.103521725463867
0.595036319612591,-0.36699071388244603,-1.13445732135773,-1.17541870422363
0.595641646489104,0.5263515712738039,-1.4362297822952301,-1.59454712219238
0.596246973365617,0.9454799892425539,0.115742873954773,0.168187252807617
0.596852300242131,0.899974618148804,0.477390823173523,1.4878430145263701
0.597457627118644,0.394625497055054,0.740842971611023,0.453194577026367
0.598062953995157,-0.412496084976196,0.819878616142273,-0.466492922973633
0.598668280871671,-0.479556631851196,0.0870026395797729,-0.0665246612548825
0.599273607748184,-0.743008780288696,-0.18363456745147702,0.697486569213867
0.599878934624697,-0.814859366226196,-0.451876754951477,-0.497628176879883
0.600484261501211,0.112013192367554,-1.19912284870148,-1.7166931182861298
0.601089588377724,0.6461025478363039,-0.250695114326477,-0.325186770629883
0.601694915254237,0.9670351650238039,0.712102737236023,0.996864010620117
0.602300242130751,0.600597176742554,0.522896194267273,1.0471594207763701
0.602905569007264,-0.48434667091369604,1.05938056926727,-0.26052124328613296
0.603510895883777,-0.501111807632446,0.47978584270477304,-0.250941165161133
0.604116222760291,0.00184229393005369,-0.403976364326477,1.02799926452637
0.604721549636804,-0.704688467788696,-0.12136405963897699,0.0460412567138674
0.605326876513317,-0.15622899513244598,-0.765624313545227,-1.36223022766113
0.605932203389831,0.0401626064300537,-0.26027519245147696,-1.00537231750488
0.606537530266344,0.794593758773804,0.573191604423523,0.793287350463867
0.607142857142857,0.864049325180054,0.30015937786102304,1.4782629364013702
0.60774818401937,0.0665078212738037,0.597141799736023,-0.025809329223632597
0.608353510895884,-0.656788077163696,0.657017288017273,-0.581453860473633
0.608958837772397,-0.40531102638244604,-0.0279582979202271,0.362183834838867
0.60956416464891,-0.577752432632446,0.19956855754852298,0.115496823120117
0.610169491525424,-0.15143895606994598,-1.05063163776398,-1.21852905578613
0.610774818401937,0.289244637680054,-1.28773857135773,-0.943101809692383
0.61138014527845,0.466476082992554,0.38877510051727304,0.630426022338867
0.611985472154964,0.8257290126800539,0.518106155204773,1.20762572937012
0.612590799031477,0.14793848533630402,0.769583205986023,0.48672485046386704
0.61319612590799,-0.40531102638244604,0.676177444267273,-0.38985229797363297
0.613801452784504,-0.563382315444946,-0.300990524482727,0.105916744995117
0.614406779661017,-0.913055167007446,-0.25788017292022697,-0.0832897979736325
0.61501210653753,-0.539432120132446,-0.775204391670227,-1.07243286437988
0.615617433414044,0.164703622055054,-1.3763542940139801,-1.6520275909423798
0.616222760290557,0.756273446273804,-0.16447441120147702,-0.107239993286133
0.61682808716707,1.2185122158050499,0.405540237236023,1.59561889343262
0.617433414043584,0.370675301742554,0.630672073173523,0.764547116088867
0.618038740920097,-0.716663565444946,1.06417060832977,-0.746710208129883
0.61864406779661,-0.740613760757446,-0.135734176826477,-0.0784997589111325
0.619249394673124,-0.505901846694946,-0.145314254951477,0.855557858276367
0.619854721549637,-0.575357413101196,-0.365656051826477,-0.42338257141113295
0.62046004842615,0.121593270492554,-1.3715642549514802,-1.6424475128173799
0.621065375302663,0.820938973617554,-0.382421188545227,-0.725155032348633
0.621670702179177,1.0293056728363,0.472600784111023,0.829212643432617
0.62227602905569,0.830519051742554,0.719287795829773,1.24115600280762
0.622881355932203,-0.184969229507446,0.846223830986023,-0.27968139953613297
0.623486682808717,-0.541827139663696,0.295369338798523,-0.509603274536133
0.62409200968523,-0.208919424819946,-0.15489433307647701,0.9226184051513671
0.624697336561743,-0.687923331069946,-0.039933395576477106,0.0412512176513674
0.625302663438257,-0.259214834976196,-0.741674118232727,-1.32390991516113
0.62590799031477,0.0641128017425537,-0.346495895576477,-1.15386352844238
0.626513317191283,0.516771493148804,0.640252151298523,0.35739379577636704
0.627118644067797,0.916739754867554,0.321714553642273,1.3034265106201202
0.62772397094431,0.246134286117554,0.652227248954773,0.29751830749511704
0.628329297820823,-0.675948233413696,0.654622268486023,-0.5982189971923829
0.628934624697337,-0.26639989356994603,-0.13812919635772702,0.32625854187011705
0.62953995157385,-0.6496030185699461,0.048682327079772894,0.261593014526367
0.630145278450363,-0.297535147476196,-1.05302665729523,-0.844906008911133
0.630750605326877,0.33235498924255397,-0.9931511690139769,-1.50353638000488
0.63135593220339,0.29163965721130397,0.561216506767273,-0.152745364379883
0.631961259079903,0.9670351650238039,0.6258820341110231,1.77524535827637
0.632566585956416,0.29163965721130397,0.6258820341110231,0.857952877807617
0.63317191283293,-0.458001456069946,0.613906936454773,-0.5383435089111329
0.633777239709443,-0.381360831069946,-0.406371383857727,-0.0186242706298826
0.634382566585956,-0.980115713882446,-0.334520797920227,0.0220910614013674
0.63498789346247,-0.618467764663696,-0.882980270576477,-1.30235473937988
0.635593220338983,0.33235498924255397,-1.4146746065139801,-1.37181030578613
0.636198547215496,1.0293056728363,-0.0566985322952271,-0.00425415344238255
0.63680387409201,1.16103174705505,0.45823066692352304,1.20762572937012
0.637409200968523,0.387440438461304,0.40075019817352303,1.1190100067138702
0.638014527845036,-0.738218741226196,0.779163284111023,-0.454517825317383
0.63861985472155,-0.623257803726196,0.00317695598602295,-0.210225833129883
0.639225181598063,-0.532247061538696,-0.171659469795227,0.5034899871826171
0.639830508474576,-0.628047842788696,-0.291410446357727,-0.250941165161133
0.64043583535109,0.0186074306488037,-1.4314397432327302,-1.61131225891113
0.641041162227603,0.523956551742554,-0.430321579170227,-1.18260376281738
0.641646489104116,1.0676259853363,0.472600784111023,0.9633337371826171
0.64225181598063,0.485636239242554,0.436675491142273,1.27468627624512
0.642857142857143,-0.290350088882446,0.913284377861023,-0.167115481567383
0.643462469733656,-0.41489110450744604,0.441465530204773,-0.38266723937988295
0.64406779661017,-0.182574209976196,-0.245905075263977,0.824422604370117
0.644673123486683,-0.625652823257446,0.36961494426727304,0.206507565307617
0.645278450363196,-0.290350088882446,-0.760834274482727,-1.4388708526611298
0.645883777239709,0.0641128017425537,-0.557257614326477,-1.2448742706298799
0.646489104116223,0.641312508773804,0.752818069267273,0.632821041870117
0.647094430992736,0.818543954086304,0.233098830986023,1.5093981903076201
0.647699757869249,0.12877832908630402,0.642647170829773,0.31667846374511704
0.648305084745763,-0.620862784194946,0.692942580986023,-0.610194094848633
0.648910411622276,-0.544222159194946,-0.00879814167022705,0.35739379577636704
0.649515738498789,-0.7909091709136961,0.0630524442672729,0.151422116088867
0.650121065375303,-0.302325186538696,-0.935670700263977,-0.792215579223633
0.650726392251816,0.107223153305054,-1.10571708698273,-1.2448742706298799
0.651331719128329,0.636522469711304,0.345664748954773,-0.135980227661133
0.651937046004843,0.993380379867554,0.592351760673523,1.5596936004638702
0.652542372881356,0.317984872055054,0.5037360380172731,0.891483151245117
0.653147699757869,-0.18017919044494599,0.609116897392273,-0.5383435089111329
0.653753026634383,-0.44602635841369603,-0.142919235420227,-0.344346926879883
0.654358353510896,-1.0950766513824501,-0.0974138643264771,0.290333248901367
0.654963680387409,-0.766958975601196,-0.897350387763977,-0.682044680786133
0.655569007263923,0.672447762680054,-1.59909111042023,-1.58975708312988
0.656174334140436,0.6269423915863039,-0.23872001667022702,-0.128795169067383
0.656779661016949,1.0005654384613,0.297764358329773,1.36090697937012
0.657384987893462,0.485636239242554,0.680967483329773,0.9034582489013671
0.657990314769976,-0.553802237319946,0.9851349637985231,-0.591033938598633
0.658595641646489,-0.632837881851196,-0.0255632783889771,-0.128795169067383
0.659200968523002,-0.604097647476196,-0.16447441120147702,0.795682369995117
0.659806295399516,-0.714268545913696,-0.11657402057647699,-0.406617434692383
0.660411622276029,-0.115513663101196,-0.995546188545227,-1.28079956359863
0.661016949152542,0.5263515712738039,-0.5333074190139769,-0.765870364379883
0.661622276029056,0.739508309555054,0.6450421903610231,0.824422604370117
0.662227602905569,0.650892586898804,0.477390823173523,1.27947631530762
0.662832929782082,-0.302325186538696,0.647437209892273,0.0101159637451174
0.663438256658596,-0.441236319351196,0.781558303642273,-0.528763430786133
0.664043583535109,-0.47476659278869604,-0.145314254951477,0.6400061004638671
0.664648910411622,-0.759773917007446,0.132508010673523,0.27596313171386705
0.665254237288136,-0.472371573257446,-0.782389450263977,-1.35983520812988
0.665859564164649,0.0617177822113037,-0.430321579170227,-1.23050415344238
0.666464891041162,0.564671883773804,0.633067092704773,0.532230221557617
0.667070217917676,0.9071596767425539,0.237888870048523,1.43275756530762
0.667675544794189,0.298824715805054,0.43907051067352304,0.44600951843261705
0.668280871670702,-0.678343252944946,0.6642023466110231,-0.485653079223633
0.668886198547216,-0.493926749038696,0.000781936454772948,0.261593014526367
0.669491525423729,-0.927425284194946,-0.0135881807327271,0.228062741088867
0.670096852300242,-0.26639989356994603,-0.830289840888977,-0.844906008911133
0.670702179176755,0.0138173915863037,-1.32605888385773,-1.12033325500488
0.671307506053269,0.289244637680054,0.154063186454773,0.184952389526367
0.671912832929782,0.909554696273804,0.46062568645477303,1.71297485046387
0.672518159806295,0.20302393455505402,0.829458694267273,1.0471594207763701
0.673123486682809,-0.228079581069946,0.748028030204773,-0.226990969848633
0.673728813559322,-0.43644628028869603,-0.202794723701477,-0.217410891723633
0.674334140435835,-1.0567563388824501,-0.13333915729522702,0.216087643432617
0.674939467312349,-0.714268545913696,-0.724908981513977,-0.959866946411133
0.675544794188862,0.36349024314880396,-1.56556083698273,-1.59454712219238
0.676150121065375,0.792198739242554,-0.43990165729522696,-0.238966067504883
0.676755447941889,1.1035512783050498,0.501341018486023,1.19804565124512
0.677360774818402,0.6868178798675539,0.5061310575485231,1.19086059265137
0.677966101694915,-0.338250479507446,0.889334182548523,-0.215015872192383
0.678571428571429,-0.49632176856994603,0.18998847942352298,-0.09286987609863251
0.679176755447942,-0.479556631851196,-0.250695114326477,0.649586178588867
0.679782082324455,-0.637627920913696,-0.315360641670227,-0.193460696411133
0.680387409200969,-0.110723624038696,-1.17756767292023,-1.29037964172363
0.680992736077482,0.464081063461304,-0.432716598701477,-0.670069583129883
0.681598062953995,0.974220223617554,0.678572463798523,1.0639245574951202
0.682203389830509,0.650892586898804,0.30973945598602304,1.42078246765137
0.682808716707022,-0.338250479507446,0.786348342704773,0.0699914520263675
0.683414043583535,-0.553802237319946,0.642647170829773,-0.591033938598633
0.684019370460048,-0.280770010757446,-0.0854387666702271,0.402899166870117
0.684624697336562,-0.501111807632446,0.046287307548522894,0.472354733276367
0.685230024213075,-0.350225577163696,-0.688983688545227,-0.885621340942383
0.685835351089588,0.13835840721130402,-0.494987106513977,-1.20415893859863
0.686440677966102,0.454500985336304,0.551636428642273,0.29751830749511704
0.687046004842615,0.808963875961304,0.383985061454773,1.3297717254638701
0.687651331719128,0.260504403305054,0.587561721611023,0.5394152801513671
0.688256658595642,-0.766958975601196,0.834248733329773,-0.365902102661133
0.688861985472155,-0.525062002944946,-0.0806487276077271,0.261593014526367
0.689467312348668,-0.814859366226196,0.110952834892273,0.340628659057617
0.690072639225182,-0.264004874038696,-0.856635055732727,-0.9550769073486329
0.690677966101695,0.229369149398804,-1.3979094697952301,-1.35983520812988
0.691283292978208,0.394625497055054,0.20435859661102299,-0.114425051879883
0.691888619854722,0.770643563461304,0.348059768486023,1.29624145202637
0.692493946731235,0.42336573143005396,0.453440627861023,0.9585436981201171
0.693099273607748,-0.467581534194946,0.609116897392273,-0.346741946411133
0.693704600484262,-0.625652823257446,-0.562047653388977,-0.397037356567383
0.694309927360775,-0.747798819351196,-0.332125778388977,0.26877807312011703
0.694915254237288,-0.754983877944946,-0.748859176826477,-0.646119387817383
0.695520581113801,0.241344247055054,-1.52724052448273,-1.56820190734863
0.696125907990315,0.476056161117554,-0.375236129951477,-0.32039673156738296
0.696731234866828,0.911949715805054,0.45823066692352304,1.10942992858887
0.697336561743341,0.602992196273804,0.6833625028610231,1.2770812957763702
0.697941888619855,-0.532247061538696,0.8031134794235231,-0.540738528442383
0.698547215496368,-0.752588858413696,-0.11657402057647699,-0.42338257141113295
0.699152542372881,-0.522666983413696,-0.21476982135772701,1.25792113952637
0.699757869249395,-0.905870108413696,-0.23872001667022702,0.0149060028076174
0.700363196125908,-0.13227879981994597,-1.32126884479523,-1.41971069641113
0.700968523002421,0.468871102523804,-0.641083297920227,-0.162325442504883
0.701573849878935,0.823333993148804,0.47020576457977303,1.0471594207763701
0.702179176755448,0.981405282211304,0.530081252861023,1.3201916473388702
0.702784503631961,-0.17538915138244598,1.08812080364227,0.321468502807617
0.703389830508475,-0.299930167007446,0.527686233329773,-0.682044680786133
0.703995157384988,-0.489136709976196,-0.392001266670227,0.553785397338867
0.704600484261501,-0.805279288101196,0.37919502239227304,0.525045162963867
0.705205811138015,-0.292745108413696,-0.607553024482727,-0.830535891723633
0.705811138014528,0.0545327236175537,-0.605158004951477,-1.34067505187988
0.706416464891041,0.581437020492554,0.48936592082977304,0.33583861999511705
0.707021791767555,0.780223641586304,0.39117012004852303,1.5093981903076201
0.707627118644068,0.234159188461304,0.594746780204773,0.350208737182617
0.708232445520581,-0.580147452163696,0.760003127861023,-0.6556994659423829
0.708837772397094,-0.35501561622619604,0.0127570341110229,0.28793822937011704
0.709443099273608,-0.632837881851196,-0.06627861042022709,0.807657467651367
0.710048426150121,-0.580147452163696,-0.904535446357727,-0.991002200317383
0.710653753026634,0.0665078212738037,-1.44341484088898,-1.5274865753173799
0.711259079903148,0.6077822353363039,0.302554397392273,-0.191065676879883
0.711864406779661,0.7874087001800539,0.712102737236023,1.1788854949951202
0.712469733656174,0.277269540023804,0.48936592082977304,0.8795080535888671
0.713075060532688,-0.0819833896636963,0.719287795829773,-0.145560305786133
0.713680387409201,-0.568172354507446,-0.207584762763977,-0.171905520629883
0.714285714285714,-0.980115713882446,-0.200399704170227,0.117891842651367
0.714891041162228,-0.802884268569946,-0.542887497138977,-0.497628176879883
0.715496368038741,0.387440438461304,-1.5775359346389801,-1.35504516906738
0.716101694915254,0.957455086898804,-0.432716598701477,-0.646119387817383
0.716707021791768,1.0604409267425499,0.362429885673523,1.10463988952637
0.717312348668281,0.7059780361175539,0.601931838798523,1.27947631530762
0.717917675544794,-0.704688467788696,0.913284377861023,-0.418592532348633
0.718523002421308,-0.48674169044494603,-0.147709274482727,-0.48325805969238295
0.719128329297821,-0.5106918857574461,-0.171659469795227,0.450799557495117
0.719733656174334,-0.723848624038696,-0.0758586885452271,-0.274891360473633
0.720338983050848,0.0377675868988037,-1.20391288776398,-1.20176391906738
0.720944309927361,0.43294580955505396,-0.562047653388977,-0.9335217315673829
0.721549636803874,0.9861953212738039,0.257049026298523,0.5992907684326171
0.722154963680387,0.873629403305054,0.594746780204773,1.46389281921387
0.722760290556901,-0.110723624038696,0.987529983329773,0.132261959838867
0.723365617433414,-0.525062002944946,0.6642023466110231,-0.552713626098633
0.723970944309927,-0.311905264663696,-0.135734176826477,0.678326412963867
0.724576271186441,-0.628047842788696,0.295369338798523,0.441219479370117
0.725181598062954,-0.42447118263244604,-0.564442672920227,-0.907176516723633
0.725786924939467,-0.0747983310699463,-0.6937737276077269,-1.2113439971923798
0.726392251815981,0.349120125961304,0.5037360380172731,0.0556213348388674
0.726997578692494,0.7682485439300539,0.314529495048523,1.4614977996826202
0.727602905569007,0.380255379867554,0.352849807548523,0.43642944030761704
0.728208232445521,-0.357410635757446,0.618696975517273,-0.6940197784423829
0.728813559322034,-0.41489110450744604,0.12292793254852301,0.0436462371826174
0.729418886198547,-0.558592276382446,-0.07106864948272709,0.637611080932617
0.730024213075061,-0.0747983310699463,-0.756044235420227,-0.579058840942383
0.730629539951574,0.325169930648804,-1.3332439424514801,-1.1394934112548798
0.731234866828087,0.418575692367554,0.0343122098922729,-0.5335534698486329
0.731840193704601,0.720348153305054,0.554031448173523,1.20762572937012
0.732445520581114,0.41378565330505396,0.573191604423523,1.4231774871826202
0.733050847457627,-0.290350088882446,0.6833625028610231,-0.41380249328613294
0.73365617433414,-0.49632176856994603,-0.22913993854522702,-0.26052124328613296
0.734261501210654,-0.7310336826324461,-0.262670211982727,0.08436156921386749
0.734866828087167,-0.834019522476196,-0.679403610420227,-0.8928063995361329
0.73547215496368,0.306009774398804,-1.5176604463577301,-1.42210571594238
0.736077481840194,0.614967293930054,-0.43990165729522696,-0.497628176879883
0.736682808716707,1.20414209861755,0.501341018486023,1.1405651824951202
0.73728813559322,0.780223641586304,0.427095413017273,1.50221313171387
0.737893462469734,-0.6088876865386961,0.649832229423523,-0.200645755004883
0.738498789346247,-0.587332510757446,0.182803420829773,-0.476073001098633
0.73910411622276,-0.268794913101196,-0.372841110420227,0.795682369995117
0.739709443099274,-0.5897275302886961,-0.200399704170227,-0.023414309692382597
0.740314769975787,-0.314300284194946,-1.0985320283889801,-1.3861804229736299
0.7409200968523,0.490426278305054,-0.6913787080764769,-1.03411255187988
0.741525423728814,0.6269423915863039,0.434280471611023,0.532230221557617
0.742130750605327,1.0245156337738,0.554031448173523,1.39922729187012
0.74273607748184,0.26289942283630396,0.731262893486023,0.156212155151367
0.743341404358353,-0.508296866226196,0.736052932548523,-0.5575036651611329
0.743946731234867,-0.292745108413696,-0.18363456745147702,0.5825256317138671
0.74455205811138,-0.666368155288696,0.12292793254852301,0.371763912963867
0.745157384987894,-0.661578116226196,-0.38960624713897696,-0.9766320831298829
0.745762711864407,-0.163414053726196,-0.641083297920227,-1.44845093078613
0.74636803874092,0.329959969711304,0.321714553642273,0.0244860809326174
0.746973365617433,0.804173836898804,0.36961494426727304,1.16930541687012
0.747578692493947,0.49282129783630396,0.542056350517273,0.628031002807617
0.74818401937046,-0.422076163101196,0.8438288114547731,-0.686834719848633
0.748789346246973,-0.450816397476196,0.13011299114227298,-0.140770266723633
0.749394673123487,-0.831624502944946,-0.0183782197952271,0.616055905151367
0.75,-0.43644628028869603,-0.509357223701477,-0.722760012817383
0.750605326876513,0.229369149398804,-1.5559807588577301,-1.24726929016113
0.751210653753027,0.404205575180054,0.151668166923523,-0.464097903442383
0.75181598062954,0.890394540023804,0.654622268486023,1.27229125671387
0.752421307506053,0.605387215805054,0.381590041923523,1.41359740905762
0.753026634382567,-0.29514012794494604,0.793533401298523,-0.00185913391113255
0.75363196125908,-0.616072745132446,-0.200399704170227,-0.47367798156738294
0.754237288135593,-0.637627920913696,-0.135734176826477,-0.0401794464111326
0.754842615012107,-0.841204581069946,-0.475826950263977,-0.435357669067383
0.75544794188862,0.0832729579925537,-1.44341484088898,-1.3742053253173798
0.756053268765133,0.571856942367554,-0.444691696357727,-0.488048098754883
0.756658595641647,1.1754018642425499,0.336084670829773,1.2219958465576202
0.75726392251816,0.981405282211304,0.530081252861023,1.58364379577637
0.757869249394673,-0.208919424819946,0.6450421903610231,-0.171905520629883
0.758474576271187,-0.390940909194946,0.20435859661102299,-0.447332766723633
0.7590799031477,-0.5298520420074461,-0.241115036201477,0.481934811401367
0.759685230024213,-0.594517569351196,-0.12854911823272702,-0.26052124328613296
0.760290556900726,-0.105933584976196,-1.03147148151398,-1.50353638000488
0.76089588377724,0.564671883773804,-0.688983688545227,-0.9742370635986329
0.761501210653753,0.8281240322113039,0.45823066692352304,0.5394152801513671
0.762106537530266,0.921529793930054,0.5037360380172731,1.2483410614013701
0.76271186440678,0.253319344711304,0.8438288114547731,0.359788815307617
0.763317191283293,-0.635232901382446,0.839038772392273,-0.6748596221923829
0.763922518159806,-0.371780752944946,-0.17405448932647702,0.5010949676513671
0.76452784503632,-0.302325186538696,0.151668166923523,0.527440182495117
0.765133171912833,-0.48674169044494603,-0.466246872138977,-0.662884524536133
0.765738498789346,0.210208993148804,-0.839869919013977,-1.51311645812988
0.76634382566586,0.557486825180054,0.38877510051727304,-0.124005130004883
0.766949152542373,0.775433602523804,0.549241409111023,1.24594604187012
0.767554479418886,0.636522469711304,0.621091995048523,0.608870846557617
0.7681598062954,-0.48674169044494603,1.03782539348602,-0.650909426879883
0.768765133171913,-0.350225577163696,0.12053291301727301,-0.212620852661133
0.769370460048426,-0.501111807632446,-0.17405448932647702,0.831607662963867
0.76997578692494,-0.340645499038696,-0.35847099323272696,-0.667674563598633
0.770581113801453,0.107223153305054,-1.40988456745148,-1.6568176300048798
0.771186440677966,0.315589852523804,0.0750275419235229,-0.32997680969238297
0.771791767554479,0.974220223617554,0.549241409111023,1.62196410827637
0.772397094430993,0.641312508773804,0.522896194267273,1.3680920379638701
0.773002421307506,0.0329775478363037,0.913284377861023,-0.26291626281738295
0.773607748184019,-0.680738272476196,-0.21476982135772701,0.0436462371826174
0.774213075060533,-0.7310336826324461,-0.375236129951477,0.139447018432617
0.774818401937046,-0.7310336826324461,-0.559652633857727,-0.6580944854736329
0.775423728813559,0.236554207992554,-1.53203056354523,-1.4125256378173798
0.776029055690073,0.684422860336304,-0.564442672920227,-0.7754504425048829
0.776634382566586,1.0987612392425499,0.168433303642273,1.0471594207763701
0.777239709443099,0.6461025478363039,0.530081252861023,1.53334838562012
0.777845036319613,-0.23047460060119598,0.827063674736023,-0.107239993286133
0.778450363196126,-0.513086905288696,0.33129463176727303,-0.763475344848633
0.779055690072639,-0.618467764663696,-0.212374801826477,0.40529418640136705
0.779661016949153,-0.580147452163696,-0.18363456745147702,0.187347409057617
0.780266343825666,-0.297535147476196,-0.6123430635452269,-0.950286868286133
0.780871670702179,0.444920907211304,-0.648268356513977,-1.30714477844238
0.781476997578692,0.658077645492554,0.33847969036102304,0.548995358276367
0.782082324455206,0.842494149398804,0.5037360380172731,1.8375158660888702
0.782687651331719,0.18386377830505402,0.788743362236023,0.249617916870117
0.783292978208233,-0.678343252944946,0.891729202079773,-0.725155032348633
0.783898305084746,-0.309510245132446,-0.265065231513977,0.42445434265136706
0.784503631961259,-0.28556004981994604,0.12292793254852301,0.589710690307617
0.785108958837772,-0.632837881851196,-0.46864189167022696,-0.583848880004883
0.785714285714286,-0.149043936538696,-0.825499801826477,-1.3310949737548798
0.786319612590799,0.0928530361175537,0.37919502239227304,0.113101803588867
0.786924939467312,0.988590340805054,0.39835517864227304,1.54532348327637
0.787530266343826,0.468871102523804,0.35045478801727303,0.910643307495117
0.788135593220339,-0.601702627944946,0.757608108329773,-0.528763430786133
0.788740920096852,-0.477161612319946,0.30015937786102304,-0.193460696411133
0.789346246973366,-0.515481924819946,0.022337112236022902,0.649586178588867
0.789951573849879,-0.477161612319946,-0.423136520576477,-0.622169192504883
0.790556900726392,-0.0364780185699463,-1.47934013385773,-0.919151614379883
0.791162227602906,0.255714364242554,-0.0590935518264771,0.0053259246826174505
0.791767554479419,0.729928231430054,0.707312698173523,1.49742309265137
0.792372881355932,0.464081063461304,0.412725295829773,1.60040893249512
0.792978208232446,-0.254424795913696,0.692942580986023,-0.186275637817383
0.793583535108959,-0.481951651382446,-0.039933395576477106,-0.200645755004883
0.794188861985472,-0.695108389663696,-0.310570602607727,0.31907348327636703
0.794794188861985,-1.00885594825745,-0.332125778388977,-0.689229739379883
0.795399515738499,0.0856679775238037,-1.3931194307327301,-1.49635132141113
0.796004842615012,0.823333993148804,-0.605158004951477,-0.811375735473633
0.796610169491525,1.0484658290862998,0.522896194267273,0.754967037963867
0.797215496368039,0.840099129867554,0.618696975517273,1.39443725280762
0.797820823244552,-0.0436630771636963,0.858198928642273,-0.0329943878173826
0.798426150121065,-0.800489249038696,0.16124824504852298,-0.5766638214111329
0.799031476997579,-0.513086905288696,-0.324940719795227,0.548995358276367
0.799636803874092,-0.584937491226196,-0.037538376045227105,0.235247799682617
0.800242130750605,-0.13706883888244598,-1.03626152057648,-0.983817141723633
0.800847457627119,0.5071914150238039,-1.0171013643264801,-1.13709839172363
0.801452784503632,0.662867684555054,0.42949043254852304,0.410084225463867
0.802058111380145,0.785013680648804,0.7049176786422731,1.5596936004638702
0.802663438256659,0.22218409080505402,0.697732620048523,0.41726928405761704
0.803268765133172,-0.45560643653869604,0.973159866142273,-0.497628176879883
0.803874092009685,-0.49632176856994603,-0.19800468463897702,0.39571410827636705
0.804479418886199,-0.640022940444946,0.0774225614547729,0.632821041870117
0.805084745762712,-0.587332510757446,-0.303385544013977,-0.579058840942383
0.805690072639225,0.0736928798675537,-0.983571090888977,-1.49156128234863
0.806295399515739,0.14793848533630402,0.35045478801727303,-0.171905520629883
0.806900726392252,0.962245125961304,0.5636115262985231,1.49263305358887
0.807506053268765,0.408995614242554,0.5444513700485231,0.790892330932617
0.808111380145279,-0.661578116226196,1.02106025676727,-0.629354251098633
0.808716707021792,-0.778934073257446,0.23549385051727298,-0.284471438598633
0.809322033898305,-0.6304428623199461,0.17082832317352298,0.47474975280761705
0.809927360774818,-0.582542471694946,-0.22913993854522702,-0.31081665344238296
0.810532687651332,0.171888680648804,-1.56556083698273,-1.48198120422363
0.811138014527845,0.286849618148804,-0.21476982135772701,-0.698809817504883
0.811743341404358,0.880814461898804,0.599536819267273,1.0136291473388699
0.812348668280872,0.682027840805054,0.5660065458297731,1.27229125671387
0.812953995157385,-0.311905264663696,0.8031134794235231,-0.179090579223633
0.813559322033898,-0.479556631851196,0.0319171903610229,-0.444937747192383
0.814164648910412,-0.697503409194946,-0.17884452838897702,0.402899166870117
0.814769975786925,-0.901080069351196,-0.39918632526397696,-0.521578372192383
0.815375302663438,0.0257924892425537,-1.60627616901398,-1.4939563018798798
0.815980629539952,0.636522469711304,-0.650663376045227,-0.866461184692383
0.816585956416465,1.0867861415862998,0.362429885673523,0.915433346557617
0.817191283292978,0.861654305648804,0.295369338798523,1.78961547546387
0.817796610169492,-0.321485342788696,0.726472854423523,0.31667846374511704
0.818401937046005,-0.6687631748199461,0.434280471611023,-0.6556994659423829
0.819007263922518,-0.501111807632446,-0.217164840888977,0.7621520965576171
0.819612590799031,-0.831624502944946,-0.035143356513977105,0.5992907684326171
0.820217917675545,-0.343040518569946,-0.973991012763977,-0.983817141723633
0.820823244552058,0.397020516586304,-1.06021171588898,-0.698809817504883
0.821428571428572,0.8065688564300539,0.582771682548523,0.572945553588867
0.822033898305085,0.9263198329925539,0.700127639579773,1.4016223114013702
0.822639225181598,0.14793848533630402,0.736052932548523,0.479539791870117
0.823244552058111,-0.48674169044494603,0.642647170829773,-0.552713626098633
0.823849878934625,-0.22568456153869598,-0.13333915729522702,0.204112545776367
0.824455205811138,-0.381360831069946,0.33847969036102304,0.537020260620117
0.825060532687651,-0.651998038101196,-0.411161422920227,-0.804190676879883
0.825665859564165,0.0784829189300537,-1.00991630573273,-1.5059313995361299
0.826271186440678,0.15272852439880402,0.324109573173523,-0.241361087036133
0.826876513317191,1.0053554775238,0.640252151298523,1.2698962371826201
0.827481840193705,0.677237801742554,0.314529495048523,0.7405969207763671
0.828087167070218,-0.5490121982574461,0.872569045829773,-0.559898684692383
0.828692493946731,-0.434051260757446,0.288184280204773,-0.174300540161133
0.829297820823245,-0.249634756851196,-0.150104294013977,0.45558959655761705
0.829903147699758,-0.7501938388824461,-0.226744919013977,-0.547923587036133
0.830508474576271,0.00184229393005369,-1.51047538776398,-1.72627319641113
0.831113801452785,0.480846200180054,-0.44708671588897697,-0.811375735473633
0.831719128329298,0.7682485439300539,0.5061310575485231,1.2052307098388702
0.832324455205811,0.653287606430054,0.527686233329773,1.45910278015137
0.832929782082324,-0.13227879981994597,0.8629889677047731,-0.44014770812988296
0.833535108958838,-0.453211417007446,-0.157289352607727,-0.435357669067383
0.834140435835351,-0.429261221694946,-0.516542282295227,0.192137448120117
0.834745762711864,-0.752588858413696,-0.442296676826477,-0.404222415161133
0.835351089588378,0.00184229393005369,-1.46497001667023,-1.18260376281738
0.835956416464891,0.42336573143005396,-0.748859176826477,-1.01255737609863
0.836561743341404,1.1514516689300498,0.292974319267273,0.687906491088867
0.837167070217918,1.0772060634612999,0.343269729423523,1.47347289733887
0.837772397094431,-0.000552725601196305,0.6258820341110231,0.38852904968261703
0.838377723970944,-0.419681143569946,0.38877510051727304,-0.42338257141113295
0.838983050847458,-0.532247061538696,-0.24351005573272702,0.431639401245117
0.839588377723971,-0.740613760757446,-0.140524215888977,0.40529418640136705
0.840193704600484,-0.553802237319946,-0.9332756807327269,-1.2233190948486299
0.840799031476998,0.356305184555054,-1.14403739948273,-1.48198120422363
0.841404358353511,0.7275332118988039,0.17561836223602298,0.374158932495117
0.842009685230024,1.04607080955505,0.592351760673523,1.59561889343262
0.842615012106538,0.169493661117554,0.716892776298523,0.7429919403076171
0.843220338983051,-0.716663565444946,0.812693557548523,-0.698809817504883
0.843825665859564,-0.434051260757446,-0.11178398151397699,0.314283444213867
0.844430992736077,-0.319090323257446,0.233098830986023,0.946568600463867
0.845036319612591,-0.6711581943511961,-0.102203903388977,-0.564688723754883
0.845641646489104,-0.271189932632446,-1.05063163776398,-1.3095397979736298
0.846246973365617,0.0617177822113037,0.125322952079773,-0.27249634094238295
0.846852300242131,0.964640145492554,0.187593459892273,1.43754760437012
0.847457627118644,0.670052743148804,0.33847969036102304,1.05434447937012
0.848062953995157,-0.565777334976196,0.800718459892273,-0.567083743286133
0.848668280871671,-0.556197256851196,0.101372756767273,-0.167115481567383
0.849273607748184,-0.517876944351196,-0.102203903388977,0.5633654754638671
0.849878934624697,-0.568172354507446,-0.5524675752639769,-0.744315188598633
0.850484261501211,0.035372567367553696,-1.24223320026398,-1.4245007354736299
0.851089588377724,0.298824715805054,-0.39918632526397696,-1.0868029815673799
0.851694915254237,0.804173836898804,0.49894599895477304,0.6016857879638671
0.852300242130751,0.677237801742554,0.635462112236023,1.7441101043701202
0.852905569007264,-0.000552725601196305,0.812693557548523,0.168187252807617
0.853510895883777,-0.577752432632446,0.115742873954773,-0.318001712036133
0.854116222760291,-0.572962393569946,-0.305780563545227,0.362183834838867
0.854721549636804,-0.884314932632446,-0.528517379951477,-0.39224731750488295
0.855326876513317,0.14793848533630402,-1.4745500947952301,-1.55143677062988
0.855932203389831,0.789803719711304,-0.7536492158889769,-1.0580627471923798
0.856537530266344,1.0149355556488,0.34087470989227303,0.34541869812011705
0.857142857142857,0.964640145492554,0.707312698173523,1.4567077606201202
0.85774818401937,0.0880629970550537,0.7647931669235231,0.340628659057617
0.858353510895884,-0.683133292007446,0.510921096611023,-0.909571536254883
0.858958837772397,-0.6496030185699461,-0.13333915729522702,0.434034420776367
0.859564164648911,-0.707083487319946,-0.0926238252639771,0.34541869812011705
0.860169491525424,-0.508296866226196,-0.741674118232727,-1.15865356750488
0.860774818401937,0.210208993148804,-1.04584159870148,-1.23050415344238
0.86138014527845,0.5670669033050539,0.395960159111023,0.192137448120117
0.861985472154964,0.940689950180054,0.601931838798523,1.3585119598388702
0.862590799031477,0.171888680648804,0.609116897392273,0.769337155151367
0.86319612590799,-0.695108389663696,0.874964065361023,-0.6149841339111329
0.863801452784504,-0.287955069351196,-0.0638835908889771,0.08915160827636749
0.864406779661017,-0.417286124038696,0.18998847942352298,0.886693112182617
0.86501210653753,-0.707083487319946,-0.130944137763977,-0.511998294067383
0.865617433414044,-0.0197128818511963,-0.7728093721389769,-1.5586218292236298
0.866222760290557,-0.00773778419494631,0.30973945598602304,-0.44254272766113295
0.86682808716707,0.6676577236175539,0.367219924736023,1.4183874481201202
0.867433414043584,0.562276864242554,0.372009963798523,1.03278930358887
0.868038740920097,-0.42686620216369603,0.810298538017273,-0.488048098754883
0.86864406779661,-0.587332510757446,0.218728713798523,-0.0641296417236325
0.869249394673124,-0.350225577163696,-0.171659469795227,0.764547116088867
0.869854721549637,-0.726243643569946,-0.212374801826477,-0.418592532348633
0.87046004842615,0.0186074306488037,-1.42904472370148,-1.5442517120361299
0.871065375302663,0.298824715805054,-0.432716598701477,-0.7562902862548829
0.871670702179177,0.643707528305054,0.630672073173523,0.874718014526367
0.87227602905569,0.749088387680054,0.261839065361023,1.6075939910888701
0.872881355932203,-0.017317862319946302,0.6043268583297731,0.340628659057617
0.873486682808717,-0.6687631748199461,0.16603828411102298,-0.435357669067383
0.87409200968523,-0.637627920913696,-0.463851852607727,0.441219479370117
0.874697336561743,-0.762168936538696,-0.250695114326477,-0.133585208129883
0.875302663438257,-0.242449698257446,-1.32366386432648,-1.38857544250488
0.87590799031477,0.464081063461304,-0.957225876045227,-0.998187258911133
0.876513317191283,1.0652309658050498,0.582771682548523,0.551390377807617
0.877118644067797,1.1466616298675498,0.24986396770477298,1.30582153015137
0.87772397094431,0.22697412986755403,0.6234870145797731,0.127471920776367
0.878329297820823,-0.719058584976196,0.7647931669235231,-0.650909426879883
0.878934624697337,-0.371780752944946,-0.284225387763977,0.340628659057617
0.87953995157385,-0.6088876865386961,-0.011193161201477099,0.872322994995117
0.880145278450363,-0.369385733413696,-0.411161422920227,-0.808980715942383
0.880750605326877,0.377860360336304,-1.2949236299514801,-1.5155114776611298
0.88135593220339,0.485636239242554,0.211543655204773,0.443614498901367
0.881961259079903,0.971825204086304,0.477390823173523,1.4351525848388702
0.882566585956416,0.49282129783630396,0.467810745048523,0.558575436401367
0.88317191283293,-0.539432120132446,1.01627021770477,-0.662884524536133
0.883777239709443,-0.498716788101196,0.110952834892273,-0.0138342315673826
0.884382566585956,-0.28556004981994604,0.25225898723602297,0.831607662963867
0.88498789346247,-0.716663565444946,-0.11657402057647699,-0.36111206359863296
0.885593220338983,-0.184969229507446,-0.839869919013977,-1.52509155578613
0.886198547215496,0.12877832908630402,0.412725295829773,-0.454517825317383
0.88680387409201,0.9071596767425539,0.6043268583297731,1.49263305358887
0.887409200968523,0.581437020492554,0.28099922161102303,0.824422604370117
0.888014527845036,-0.369385733413696,0.839038772392273,-0.672464602661133
0.88861985472155,-0.553802237319946,0.24507392864227298,-0.174300540161133
0.889225181598063,-0.441236319351196,0.0822126005172729,0.750176998901367
0.889830508474576,-0.687923331069946,-0.19321464557647702,-0.147955325317383
0.89043583535109,-0.223289542007446,-1.48892021198273,-1.4676110870361299
0.891041162227603,0.14314844627380402,-0.16447441120147702,-1.02453247375488
0.891646489104116,0.440130868148804,0.395960159111023,0.932198483276367
0.89225181598063,0.751483407211304,0.307344436454773,1.60040893249512
0.892857142857143,-0.0412680576324463,0.819878616142273,0.151422116088867
0.893462469733656,-0.596912588882446,0.16603828411102298,-0.646119387817383
0.89406779661017,-0.594517569351196,-0.23872001667022702,-0.023414309692382597
0.894673123486683,-0.972930655288696,-0.25788017292022697,0.0053259246826174505
0.895278450363196,-0.280770010757446,-1.28534355182648,-1.34546509094238
0.895883777239709,0.468871102523804,-0.995546188545227,-1.30714477844238
0.896489104116223,0.983800301742554,0.357639846611023,0.460379635620117
0.897094430992736,0.859259286117554,0.424700393486023,1.6507043426513701
0.897699757869249,0.0665078212738037,0.810298538017273,0.412479244995117
0.898305084745763,-0.771749014663696,0.673782424736023,-0.708389895629883
0.898910411622276,-0.565777334976196,-0.231534958076477,0.323863522338867
0.899515738498789,-0.592122549819946,0.022337112236022902,0.400504147338867
0.900121065375303,-0.369385733413696,-0.614738083076477,-0.871251223754883
0.900726392251816,0.334750008773804,-0.997941208076477,-1.4173156768798798
0.901331719128329,0.5071914150238039,0.125322952079773,-0.222200930786133
0.901937046004843,1.0149355556488,0.47020576457977303,1.3585119598388702
0.902542372881356,0.397020516586304,0.551636428642273,1.01602416687012
0.903147699757869,-0.675948233413696,0.992320022392273,-0.852091067504883
0.903753026634383,-0.575357413101196,0.058262405204772896,-0.222200930786133
0.904358353510896,-0.290350088882446,0.142088088798523,0.975308834838867
0.904963680387409,-0.814859366226196,0.0391022489547729,0.0149060028076174
0.905569007263923,-0.264004874038696,-0.866215133857727,-1.36223022766113
0.906174334140436,-0.103538565444946,0.022337112236022902,-0.844906008911133
0.906779661016949,0.653287606430054,0.46062568645477303,1.22918090515137
0.907384987893463,0.7083730556488039,0.30973945598602304,1.13817016296387
0.907990314769976,-0.319090323257446,0.707312698173523,-0.5383435089111329
0.908595641646489,-0.6112827060699461,0.618696975517273,-0.502418215942383
0.909200968523002,-0.254424795913696,-0.035143356513977105,0.273568112182617
0.909806295399516,-0.47476659278869604,-0.11417900104522699,-0.286866458129883
0.910411622276029,-0.00534276466369631,-1.3380339815139801,-1.35025513000488
0.911016949152542,0.279664559555054,-0.756044235420227,-0.888016360473633
0.911622276029056,0.713163094711304,0.31931953411102304,0.635216061401367
0.912227602905569,0.897579598617554,0.42949043254852304,1.2914514129638701
0.912832929782082,0.0305825283050537,0.8629889677047731,0.42924438171386703
0.913438256658596,-0.48434667091369604,0.31931953411102304,-0.507208255004883
0.914043583535109,-0.522666983413696,-0.226744919013977,0.196927487182617
0.914648910411622,-0.920240225601196,-0.207584762763977,-0.056944583129882605
0.915254237288136,-0.0340829990386963,-1.2518132783889802,-1.4292907745361298
0.915859564164649,0.674842782211304,-1.12966728229523,-1.3191198760986298
0.916464891041162,0.9454799892425539,0.28099922161102303,0.105916744995117
0.917070217917676,1.1490566493988,0.520501174736023,1.5165832489013702
0.917675544794189,0.16709864158630403,0.697732620048523,0.671141354370117
0.918280871670702,-0.522666983413696,0.860593948173523,-0.6365393096923829
0.918886198547216,-0.30472020606994604,-0.23392997760772702,0.230457760620117
0.919491525423729,-0.599307608413696,-0.32733573932647697,0.47714477233886704
0.920096852300242,-0.640022940444946,-0.569232711982727,-0.830535891723633
0.920702179176755,0.104828133773804,-1.28773857135773,-1.7933337432861298
0.921307506053269,0.569461922836304,0.18519844036102298,-0.224595950317383
0.921912832929782,1.1442666103363,0.709707717704773,1.63154418640137
0.922518159806295,0.478451180648804,0.680967483329773,0.9800988739013671
0.923123486682809,-0.481951651382446,1.08572578411102,-0.46170288391113296
0.923728813559322,-0.513086905288696,0.36961494426727304,-0.32039673156738296
0.924334140435835,-0.458001456069946,0.110952834892273,0.666351315307617
0.924939467312349,-0.814859366226196,-0.18842460651397702,-0.147955325317383
0.925544794188862,-0.117908682632446,-0.844659958076477,-1.38857544250488
0.926150121065375,0.0473476650238037,0.0295221708297729,-0.840115969848633
0.926755447941889,0.734718270492554,0.6234870145797731,0.886693112182617
0.927360774818402,0.813753915023804,0.24507392864227298,1.34893188171387
0.927966101694915,-0.26639989356994603,0.8629889677047731,-0.229385989379883
0.928571428571429,-0.6711581943511961,0.520501174736023,-0.5575036651611329
0.929176755447942,-0.441236319351196,-0.0950188447952271,0.613660885620117
0.929782082324455,-0.917845206069946,0.16603828411102298,0.113101803588867
0.930387409200969,-0.12509374122619601,-1.35719413776398,-1.34067505187988
0.930992736077482,0.44252588768005396,-0.887770309638977,-1.15386352844238
0.931598062953995,0.602992196273804,0.601931838798523,0.422059323120117
0.932203389830509,0.9263198329925539,0.472600784111023,1.6075939910888701
0.932808716707022,0.0569277431488037,0.970764846611023,0.508280026245117
0.933414043583535,-0.673553213882446,0.609116897392273,-0.662884524536133
0.934019370460048,-0.6903183506011961,-0.483012008857727,0.189742428588867
0.934624697336562,-0.999275870132446,-0.250695114326477,-0.0186242706298826
0.935230024213075,-0.390940909194946,-1.1536174776077301,-1.0269274932861299
0.935835351089588,0.416180672836304,-1.1967278291702301,-1.19697388000488
0.936440677966102,0.916739754867554,0.33847969036102304,0.0556213348388674
0.937046004842615,1.0101455165863,0.36961494426727304,1.37048705749512
0.937651331719128,0.284454598617554,0.415120315361023,0.929803463745117
0.938256658595642,-0.637627920913696,0.870174026298523,-0.45212280578613295
0.938861985472155,-0.46518651466369604,0.0295221708297729,-0.224595950317383
0.939467312348668,-0.592122549819946,-0.17884452838897702,0.558575436401367
0.940072639225182,-0.642417959976196,-0.806339645576477,-0.727550051879883
0.940677966101695,0.267689461898804,-1.16080253620148,-1.6041272003173799
0.941283292978208,0.42336573143005396,-0.0135881807327271,-0.5934289581298829
0.941888619854722,0.854469247055054,0.551636428642273,1.19086059265137
0.942493946731235,0.504796395492554,0.530081252861023,1.0854797332763702
0.943099273607748,-0.30711522560119603,0.726472854423523,-0.600614016723633
0.943704600484262,-0.359805655288696,0.321714553642273,-0.27968139953613297
0.944309927360775,-0.357410635757446,-0.0040081026077270505,0.728621823120117
0.944915254237288,-0.836414542007446,0.115742873954773,0.000535885620117449
0.945520581113802,-0.0771933506011963,-0.904535446357727,-1.1849987823486299
0.946125907990315,0.270084481430054,-0.17884452838897702,-0.820955813598633
0.946731234866828,0.854469247055054,0.719287795829773,0.9393835418701171
0.947336561743341,0.7658535243988039,0.223518752861023,1.43754760437012
0.947941888619855,-0.0292929599761963,0.7432379911422731,-0.0401794464111326
0.948547215496368,-0.501111807632446,0.534871291923523,-0.626959231567383
0.949152542372881,-0.362200674819946,-0.217164840888977,0.48432983093261706
0.949757869249395,-0.525062002944946,-0.06867362995147709,0.0556213348388674
0.950363196125908,-0.187364249038696,-1.19912284870148,-1.1993688995361298
0.950968523002421,0.301219735336304,-0.815919723701477,-1.1251232940673799
0.951573849878935,0.516771493148804,0.484575881767273,0.493909909057617
0.952179176755448,0.928714852523804,0.5061310575485231,1.57166869812012
0.952784503631961,0.20302393455505402,0.616301955986023,0.546600338745117
0.953389830508475,-0.477161612319946,0.597141799736023,-0.48325805969238295
0.953995157384988,-0.481951651382446,-0.305780563545227,-0.0329943878173826
0.954600484261501,-0.944190420913696,-0.392001266670227,0.168187252807617
0.955205811138015,-0.402916006851196,-1.08176689167023,-1.04129761047363
0.955811138014528,0.265294442367554,-1.16559257526398,-1.25684936828613
0.956416464891041,0.883209481430054,0.295369338798523,0.211297604370117
0.957021791767555,0.919134774398804,0.556426467704773,1.51418822937012
0.957627118644068,0.0952480556488037,0.570796584892273,0.8196325653076171
0.958232445520581,-0.587332510757446,0.652227248954773,-0.545528567504883
0.958837772397094,-0.580147452163696,0.053472366142272895,-0.0473645050048826
0.959443099273608,-0.697503409194946,-0.07106864948272709,0.810052487182617
0.960048426150121,-0.752588858413696,-0.722513961982727,-0.358717044067383
0.960653753026634,0.150333504867554,-1.3547991182327301,-1.69753296203613
0.961259079903148,0.698792977523804,-0.130944137763977,-0.47367798156738294
0.961864406779661,0.940689950180054,0.542056350517273,1.02081420593262
0.962469733656174,0.571856942367554,0.637857131767273,1.02081420593262
0.963075060532688,-0.30711522560119603,1.20547676067352,-0.444937747192383
0.963680387409201,-0.472371573257446,0.288184280204773,-0.5551086456298829
0.964285714285714,-0.292745108413696,-0.22913993854522702,0.678326412963867
0.964891041162228,-0.814859366226196,-0.0016130830764770501,-0.0689196807861325
0.965496368038741,-0.27597997169494604,-0.7919695283889769,-1.2065539581298799
0.966101694915254,0.0545327236175537,-0.152499313545227,-0.8161657745361329
0.966707021791768,0.5479067470550539,0.601931838798523,0.7238317840576171
0.967312348668281,0.758668465805054,0.28099922161102303,1.48065795593262
0.967917675544794,0.123988290023804,0.601931838798523,0.211297604370117
0.968523002421308,-0.42447118263244604,0.575586623954773,-0.6964147979736329
0.969128329297821,-0.359805655288696,-0.0638835908889771,0.25680297546386704
0.969733656174334,-0.505901846694946,-0.11657402057647699,-0.0425744659423826
0.970338983050848,-0.0987485263824463,-1.31408378620148,-1.3047497589111299
0.970944309927361,0.502401375961304,-1.01949638385773,-0.785030520629883
0.971549636803874,0.744298348617554,0.534871291923523,0.453194577026367
0.972154963680387,0.7275332118988039,0.417515334892273,1.27229125671387
