Time (s),Accel X (m/s^2),Accel Y (m/s^2),Accel Z (m/s^2)
0.0,-1.12231803388596,6.623635048770909,-0.36689266777038604
0.000606060606060606,14.725526204395301,-11.185730185604099,-0.342942472457886
0.00121212121212121,-0.0206090495109558,0.7151218651771549,-2.60384090995789
0.00181818181818182,-11.574183268261,8.6019211815834,2.4736004962921103
0.00242424242424242,-0.406207194042206,-6.115473837947841,0.217492097854614
0.00303030303030303,7.19079475908279,0.980969033145905,0.397118562698364
0.00363636363636364,2.83425423173904,1.1797556542396501,0.6030902423858641
0.00424242424242424,-7.41163932294846,-1.0500075293541,-0.824341398239136
0.00484848484848485,-5.79021110029221,7.67265360345841,2.3466644611358602
0.00545454545454545,11.3940540364265,-6.096313681697841,-2.34517880058289
0.00606060606060606,6.36690804033279,-6.18492940435409,-0.690220304489136
0.00666666666666667,-11.4951476237297,10.3047800683022,-0.010034757614135501
0.00727272727272727,-3.23951529951096,-3.28935079107285,-0.0794903240203855
0.00787878787878788,6.65191536455154,-3.04505879888535,1.46769229316711
0.00848484848484848,3.4737244465827897,4.2908860253334,-0.47466854667663605
0.00909090909090909,-5.73512565107346,-4.0006715918541,0.236652254104614
0.0096969696969697,-8.56843375654221,6.45598368158341,1.00784854316711
0.0103030303030303,8.46494514970779,0.051701455020904494,0.234257234573364
0.0109090909090909,9.84208138017654,-11.200100302791599,-1.8925201091766402
0.0115151515151515,-8.410362467479711,7.62475321283341,-0.244746671676636
0.0121212121212121,-7.59366080732346,2.1186033104896502,0.811456941604614
0.0127272727272727,5.85197884111404,-6.31186543951034,0.0498407306671145
0.0133333333333333,5.018512044239039,4.98304666986466,0.512079500198364
0.0139393939393939,-3.7113341471672103,-2.28823262701035,-0.951277433395386
0.0145454545454545,-10.3311681315422,2.6311374901771503,1.01503360176086
0.0151515151515152,5.5382312825202895,3.72326639642715,0.478549226760864
0.0157575757575758,13.4465857747078,-11.0827443457603,-3.60256405448914
0.0163636363636364,-7.11465690107346,2.8395041893959,0.909652742385864
0.016969696969697,-8.82709586591721,6.66195536127091,0.787506746292114
0.0175757575757576,3.70604134111404,-7.78240743169784,0.114506258010864
0.0181818181818182,5.84000374345779,2.99518045892715,0.727631258010864
0.0187878787878788,-1.5222862956047098,0.660036415958405,-1.25783993339539
0.0193939393939394,-8.86781119794846,-1.8259938574791,1.5371478595733599
0.02,0.911053548145294,8.23548319330215,-0.113020597457886
0.0206060606060606,13.439400716114,-8.5943190527916,-2.1272320232391397
0.0212121212121212,-1.84561393232346,-4.759892783260351,-0.0603301677703855
0.0218181818181818,-10.700001139354699,11.619645790958401,-1.0925835857391402
0.0224242424242424,0.7074768879890441,-5.92626729497909,1.63773867988586
0.023030303030303,7.7200940754890395,-0.767395224666595,1.03419375801086
0.0236363636363636,1.48585823564529,4.6309787987709,-0.800391202926636
0.0242424242424242,-9.26059440107346,-4.75031270513535,0.5048944416046139
0.0248484848484848,-2.72219108076096,7.60080301752091,0.6438055744171141
0.0254545454545455,11.7700721028328,-2.69538594732285,-0.254326749801636
0.0260606060606061,3.36594856767654,-9.0493727637291,-2.1463921794891396
0.0266666666666667,-10.4030187174797,10.6664280175209,0.109716218948364
0.0272727272727273,-2.15936149091721,-1.6224171973228498,1.0246136798858598
0.0278787878787879,8.00510139970779,-4.8652736426353504,-0.0148247966766355
0.0284848484848485,2.11095833330154,6.04883036127091,0.792296785354614
0.0290909090909091,-7.14339713544846,-4.45812032232285,-0.771650968551636
0.0296969696969697,-5.85487662763596,4.02024881830215,0.993478425979614
0.0303030303030303,9.19542610673904,3.04308084955215,-0.5560992107391359
0.0309090909090909,9.09483528642654,-11.8299904395103,-1.44465145683289
0.0315151515151515,-10.5347447916985,6.02727518548966,-0.6950103435516359
0.0321212121212121,-5.44053824872971,4.300466103458399,0.737211336135864
0.0327272727272727,6.7620862629890395,-7.96682393560409,1.70479922676086
0.0333333333333333,3.77549690752029,5.9602146386146595,-0.951277433395386
0.0339393939393939,-5.38305777997971,-1.8643141699791,0.833012117385864
0.0345454545454545,-8.58040885419846,-0.472807822322845,0.104926179885864
0.0351515151515151,8.34758919267654,6.5924997948646595,0.45220401191711396
0.0357575757575758,10.3186902668953,-10.0217506934166,-2.5463604412078897
0.0363636363636364,-7.89543326826096,0.37742411127090497,-1.5117120037078902
0.036969696969697,-7.44277457685471,7.67983866205216,2.79213809394836
0.0375757575757576,3.66772102861404,-6.9465456152915905,-0.7333306560516359
0.0381818181818182,6.15375130205154,1.4791330956459001,1.48445742988586
0.0387878787878788,-2.8634972331047104,2.2694895409584,-0.709380460739136
0.0393939393939394,-9.64140250654221,-3.1336745215415998,-0.42676815605163604
0.04,4.91073616533279,6.95414774408341,2.24607364082336
0.0406060606060606,11.813182454395301,-4.8820387793541,-2.4601397380828898
0.0412121212121212,-4.9998546549797105,-6.489096884822841,-0.704590421676636
0.0418181818181818,-8.635494303417211,10.5227268456459,0.416278718948364
0.0424242424242424,1.92414680986404,-4.28567891607285,0.986293367385864
0.043030303030303,8.25897347002029,-1.5864919043541,0.102531160354614
0.0436363636363636,-1.0384923502922099,5.313559365177159,-0.11062557792663599
0.0442424242424242,-9.473751139354711,-5.849626669979091,0.0354706134796145
0.0448484848484848,0.6691565754890441,6.649980263614659,0.387538484573364
0.0454545454545455,9.81813118486404,-0.034519248104095505,0.0019403400421144801
0.0460606060606061,1.55052376298904,-10.1798219824791,-2.1272320232391397
0.0466666666666667,-9.08815299482346,8.40313456048965,0.143246492385864
0.0472727272727273,-1.35702994794846,0.346288857364655,0.8210370197296141
0.0478787878787879,7.83505501298904,-5.729875693416591,0.686915925979614
0.0484848484848485,0.6068860676765441,6.18295145502091,0.0354706134796145
0.0490909090909091,-8.19720572919846,-3.10253926763535,-0.661480070114136
0.0496969696969697,-3.33052604169846,0.7749973534584049,1.25693057441711
0.0503030303030303,10.201334309864,4.8273704003333995,-0.623159757614136
0.0509090909090909,5.55260139970779,-9.62657247076035,-2.08891171073914
0.0515151515151515,-9.64140250654221,2.9472800683021503,0.0234955158233645
0.0521212121212121,-4.25021354169846,5.17225321283341,1.14915469551086
0.0527272727272727,6.37169807939529,-7.23634297857284,0.564769929885864
0.0533333333333333,3.23182747392654,4.580683388614649,-0.11062557792663599
0.0539393939393939,-6.55182731122971,-0.056074423885345503,0.5072894611358639
0.0545454545454545,-7.05717643232346,-2.1660866309166,-0.32857235527038603
0.0551515151515152,8.65654671220779,5.85483377923966,0.160011629104614
0.0557575757575758,9.21219124345779,-7.03037129888534,-0.30701717948913604
0.0563636363636364,-9.46417106122971,-1.09072286138535,-2.2230328044891396
0.056969696969697,-5.91954215497971,7.19364969720841,1.1778949298858599
0.0575757575757576,4.79577522783279,-5.995722861385341,0.873727449417114
0.0581818181818182,5.4184803059577895,1.1246702050209,-0.544124113082886
0.0587878787878788,-3.7903697916984602,2.80357889642715,0.612670320510864
0.0593939393939394,-9.959940104198461,-4.35752950201035,-0.750095792770386
0.06,8.69247200517654,6.530229287052159,1.57307315254211
0.0606060606060606,7.94283089189529,-2.3960085059166,-0.9177471599578859
0.0612121212121212,-6.46081656904221,-6.57052754888534,-4.040852628707889
0.0618181818181818,-5.42137809247971,6.60686991205216,3.64237002754211
0.0624242424242424,1.2319861653327902,-0.506338095760345,-1.04947323417664
0.063030303030303,7.97875618486404,-2.6882008887291,1.0796991291046099
0.0636363636363636,-2.3509630534172103,4.88245584955215,0.116901277542114
0.0642424242424242,-9.85695426435471,-4.01743672857285,-1.37280087089539
0.0648484848484848,3.35876350908279,3.06224100580215,2.53826602363586
0.0654545454545455,8.70923714189529,2.55928690423965,-1.71049862480164
0.0660606060606061,-0.40860221357345605,-8.8673512793541,-1.3704058513641402
0.0666666666666667,-7.35894889326096,5.5410862206459095,-0.31420223808288605
0.0672727272727273,0.0320813801765442,1.8144358300209,0.615065340042114
0.0678787878787879,7.506937337207789,-5.40654805669784,1.11083438301086
0.0684848484848485,-1.49354606122971,5.34948465814591,-0.491433683395386
0.0690909090909091,-8.99235221357346,-2.7073610449791,0.844987215042114
0.0696969696969697,-0.0421642252922058,-0.000988974666595451,0.770741609573364
0.0703030303030303,10.0648181965828,4.8010251854896495,0.8785174884796141
0.0709090909090909,2.93245003252029,-8.05783467779159,-2.05777645683289
0.0715151515151515,-8.06787467451096,1.0887449120521502,-0.5944195232391359
0.0721212121212121,-3.8502452799797102,5.021366982364659,1.0054535236358602
0.0727272727272727,6.38606819658279,-5.583779502010341,-0.0339849529266355
0.0733333333333333,2.20915413408279,2.82273905267715,1.11322940254211
0.0739393939393939,-7.27991324872971,2.9161448143959,-1.0542632732391402
0.0745454545454545,-4.91123893232346,-4.99939473638534,0.847382234573364
0.0751515151515151,10.4001209309578,4.858505654239649,-0.726145597457886
0.0757575757575758,5.41608528642654,-2.65706563482285,-0.132180753707886
0.0763636363636364,-9.56476188154221,-4.235383505916601,-1.60751278495789
0.076969696969697,-2.7868566081047104,5.699157509708409,0.928812898635864
0.0775757575757576,3.79465706377029,-2.9756032324791,1.3239911212921098
0.0781818181818182,4.56106331377029,-0.35066182622909503,-1.06623837089539
0.0787878787878788,-5.09565543622971,2.7197532128334,1.20184512519836
0.0793939393939394,-7.71580680341721,-3.3492262793541,-1.34406063652039
0.08,8.97747932939529,4.0226438378334,1.08688418769836
0.0806060606060606,5.64361214189529,0.334313759708405,-0.371682706832886
0.0812121212121212,-6.94700553388596,-6.7070436621665905,-2.61821102714539
0.0818181818181818,-4.19033805341721,4.360341591739649,1.44613711738586
0.0824242424242424,2.84622932939529,0.897143349552155,0.104926179885864
0.083030303030303,6.93931770830154,-2.7241261816978497,1.39823672676086
0.0836363636363636,-3.9101207682609602,4.42261209955215,-0.685430265426636
0.0842424242424242,-8.41994254560471,-3.6941090918541,-0.124995695114136
0.0848484848484849,5.84479378252029,1.06479471673965,1.46529727363586
0.0854545454545454,6.50581917314529,4.3387864159584,-1.46620663261414
0.0860606060606061,-2.9664830729484604,-7.413574423885341,-1.10934872245789
0.0866666666666667,-4.44660514326096,2.3844504784584,-0.560889249801636
0.0872727272727273,0.149437337207794,3.18199198236465,0.612670320510864
0.0878787878787879,6.57287972002029,-4.149162802791601,0.377958406448364
0.0884848484848485,-2.20247184247971,3.6490207909584003,0.231862215042114
0.0890909090909091,-8.28103141279221,-1.0643776465416,0.152826570510864
0.0896969696969697,1.40921761064529,-1.46913594732285,-0.570469327926636
0.0903030303030303,8.33561409502029,3.95318827142715,0.732421297073364
0.0909090909090909,2.00078743486404,-4.87006368169785,-1.41591122245789
0.0915151515151515,-7.69664664716721,-0.997317099666595,-1.76079403495789
0.0921212121212121,-1.4025353190422098,4.3818967675208995,1.07730410957336
0.0927272727272727,5.41608528642654,-3.7228493262291,1.73114444160461
0.0933333333333333,0.460789876270294,2.39642557611465,-0.259116788864136
0.0939393939393939,-7.92656852216721,1.8144358300209,0.203121980667114
0.0945454545454545,-1.82405875654221,-3.22229024419785,-0.5177788982391359
0.0951515151515152,10.8982849934578,2.68861795892715,0.6390155353546141
0.0957575757575758,2.54685188798904,-0.6620143652915951,-1.7392388591766401
0.0963636363636364,-8.56843375654221,-3.4761623145103497,-0.8339214763641359
0.096969696969697,-2.2910875651359603,2.6143723534584002,1.65450381660461
0.0975757575757576,4.52753304033279,-0.9805519629478451,0.054630769729614496
0.0981818181818182,3.5407849934577897,-0.7650002051353451,1.23058535957336
0.0987878787878788,-6.42010123701096,3.8070920800209,-0.9129571208953859
0.0993939393939394,-4.53761588544846,-3.7276393652916,-0.165711027145386
0.1,10.1007434895515,1.9365818261146501,0.5815350666046141
0.100606060606061,2.38399055986404,2.53533670892715,-0.220796476364136
0.101212121212121,-6.89910514326096,-5.95261250982284,-1.04228817558289
0.101818181818182,-2.1042760416984603,1.7737204979896501,-0.40521298027038605
0.102424242424242,3.15997688798904,2.2934397362709,0.9791083087921141
0.103030303030303,5.31309944658279,-1.48829610357285,0.536029695510864
0.103636363636364,-4.90165885419846,2.5425217675209,-0.0890704021453855
0.104242424242424,-6.37938590497971,-1.8259938574791,-0.194451261520386
0.104848484848485,6.575274739551539,-0.262046103572845,0.409093660354614
0.105454545454545,4.60896370439529,3.5388498925209,0.8425921955108641
0.106060606060606,-3.9077257487297103,-4.11323750982285,-2.2829082927703896
0.106666666666667,-3.27065055341721,-0.424907431697845,-0.879426847457886
0.107272727272727,1.96965218095779,3.29216288080215,1.56109805488586
0.107878787878788,5.33465462236404,-2.0415456152916,0.00433535957336448
0.108484848484848,-4.00592154951096,1.91263163080215,0.296527742385864
0.109090909090909,-7.57929069013596,0.501965126895905,-0.19684628105163599
0.10969696969697,5.2053235676765395,-3.58633321294785,0.8833075275421141
0.11030303030303,7.36323616533279,3.4717893456459,-0.819551359176636
0.110909090909091,-1.88393424482346,-1.0212672949791,-1.24107479667664
0.111515151515152,-5.2728868815422105,-3.29893086919785,-0.539334074020386
0.112121212121212,-0.0637194010734558,3.1269065331459003,0.777926668167114
0.112727272727273,4.0078138020515395,-0.8440358496665951,1.7000091876983598
0.113333333333333,-0.777435221385956,0.485199990177155,-0.620764738082886
0.113939393939394,-6.99251090497971,1.58690897455215,0.777926668167114
0.114545454545455,0.364989095020294,-1.96730000982285,-1.62667294120789
0.115151515151515,10.1989392903328,0.31036356439590496,1.42697696113586
0.115757575757576,0.039266438770294204,1.62522928705215,-1.11174374198914
0.116363636363636,-7.36613395185471,-3.4761623145103497,-1.7775591716766401
0.116969696969697,-0.873236002635956,-0.135110068416595,1.8580804767608599
0.117575757575758,4.36467171220779,1.88389139642715,0.0187054767608645
0.118181818181818,1.9888123372077902,-1.0835378027915998,1.5036175861358598
0.118787878787879,-6.96856070966721,2.77483866205215,-1.53566219902039
0.119393939393939,-2.05637565107346,-2.4822292090416,0.0234955158233645
0.12,9.98338753252029,-0.673989462947845,0.6988910236358641
0.120606060606061,0.616466145801544,4.74833475580215,-1.02312801933289
0.121212121212121,-7.88345817060471,-4.4700954199791,-0.843501554489136
0.121818181818182,0.35540901689529397,-1.63199727544785,-0.42437313652038605
0.122424242424242,3.56234016923904,3.77116678705215,1.17549991035461
0.123030303030303,3.47851448564529,-0.693149619197845,0.0881610431671145
0.123636363636364,-5.07889029951096,0.983364052677155,0.37316836738586395
0.124242424242424,-5.2657018229484605,-0.26923116216659504,-0.192056241989136
0.124848484848485,7.82786995439529,-2.30260274419785,0.844987215042114
0.125454545454545,2.15167366533279,4.18311014642715,0.33005801582336397
0.126060606060606,-5.1794811198234605,-1.6870827246665998,-1.76558407402039
0.126666666666667,-0.434947428417206,-4.0797072363853495,-0.690220304489136
0.127272727272727,2.76719368486404,4.3148362206458994,0.531239656448364
0.127878787878788,3.28930794267654,-0.235700888729095,0.6030902423858641
0.128484848484848,-4.77951285810471,-0.412932334041595,0.677335847854614
0.129090909090909,-6.2907701823234605,2.01322245111465,0.198331941604614
0.12969696969697,5.72025276689529,-3.69650411138535,0.26299746894836395
0.13030303030303,5.4520105793952895,2.1090232323646503,-1.22430965995789
0.130909090909091,-3.08144401044846,1.52463846673965,-0.9560674724578859
0.131515151515152,-2.81799186201096,-3.9863014746666,-0.40521298027038605
0.132121212121212,0.159017415332794,1.1055100487709,0.753976472854614
0.132727272727273,2.71450325517654,0.35107889642715495,0.631830476760864
0.133333333333333,-1.76897330732346,-0.008174033260345449,0.174381746292114
0.133939393939394,-6.982930826854711,3.3903586815834,0.145641511917114
0.134545454545455,3.67251106767654,-3.76356465826035,-0.692615324020386
0.135151515151515,8.73558235673904,-1.75174825201035,-0.244746671676636
0.135757575757576,-2.8994225260734603,5.0620823143959095,0.387538484573364
0.136363636363636,-6.12311881513596,-3.7228493262291,-0.9345122966766359
0.136969696969697,0.673946614551544,-2.38882344732285,0.179171785354614
0.137575757575758,3.60784554033279,2.76046854486465,1.3742865314483599
0.138181818181818,0.233263020801544,-0.47999288091659503,-0.704590421676636
0.138787878787879,-6.02971305341721,1.8431760643959,1.01263858222961
0.139393939393939,0.0943518879890442,-0.755420127010345,-1.1572491130828901
0.14,9.45648323564529,-3.29893086919785,0.239047273635864
0.140606060606061,-2.7724864909172102,5.785378212833409,0.0450506916046145
0.141212121212121,-6.2308946940422105,-1.5409865332603498,-1.32250546073914
0.141818181818182,1.89780159502029,-5.55503926763534,0.689310945510864
0.142424242424242,3.64137581377029,4.94472635736466,-0.271091886520386
0.143030303030303,2.33130013017654,0.171452431583405,1.69042910957336
0.143636363636364,-6.55182731122971,1.1749656151771501,-0.659085050582886
0.144242424242424,-2.16894156904221,0.923488564395905,-0.0315899333953855
0.144848484848485,8.02186653642654,-5.24129170904159,0.828222078323364
0.145454545454545,0.149437337207794,4.120839638614649,-0.5345440349578859
0.146060606060606,-5.55070914716721,1.7521653222084002,-0.263906827926636
0.146666666666667,1.6511145833015402,-5.950217490291591,-1.68894344902039
0.147272727272727,3.1815320637702897,3.2897678612709003,0.792296785354614
0.147878787878788,1.35413216142654,1.6946848534584,0.5839300861358641
0.148484848484848,-4.4346300456047105,-1.6583424902916,0.0474457111358645
0.149090909090909,-4.97590445966721,3.3232981347084003,0.107321199417114
0.14969696969697,6.28547737627029,-4.0102516699791,-0.663875089645386
0.15030303030303,4.39580696611404,-0.8248756934165951,0.00673037910461448
0.150909090909091,-5.01901481122971,5.811723427677159,-0.968042570114136
0.151515151515152,-1.20614371747971,-5.66760518560409,-0.632739835739136
0.152121212121212,2.25226448564529,-1.2583742285728499,0.536029695510864
0.152727272727273,1.10984016923904,4.38908182611465,0.203121980667114
0.153333333333333,-3.53649772138596,-2.74328633794785,0.904862703323364
0.153939393939394,-6.21173453779221,4.1855051659584,-0.8339214763641359
0.154545454545455,5.64361214189529,-3.3300661231040998,0.6414105548858641
0.155151515151515,7.40634651689529,-4.161137900447851,-2.15597225761414
0.155757575757576,-5.55070914716721,7.63912333002091,1.41500186347961
0.156363636363636,-3.5580528971672103,-2.6450905371666,0.26299746894836395
0.156969696969697,1.87864143877029,-5.18141622076034,-1.56200741386414
0.157575757575758,1.9552820637702901,4.22622049798965,1.9562762775421099
0.158181818181818,-0.878026041698456,-0.482387900447845,-1.24825985527039
0.158787878787879,-6.084798502635961,0.942648720645905,0.9982684650421141
0.159393939393939,2.64983772783279,1.67312967767715,-1.3153204021453901
0.16,8.92718391923904,-6.35976583013534,-0.127390714645386
0.160606060606061,-4.95434928388596,5.785378212833409,1.2641156330108598
0.161212121212121,-6.3769908854484605,1.9868772362709002,-1.60032772636414
0.161818181818182,3.6701160481452897,-9.32480000982285,1.01263858222961
0.162424242424242,3.8928528645515397,5.68478739252091,0.16240664863586401
0.163030303030303,-0.487637858104706,2.0443577050209,0.016310457229614498
0.163636363636364,-5.88361686201096,-2.4726491309166,0.715656160354614
0.164242424242424,-0.664869303417206,3.7783518456459,-0.029194913864135502
0.164848484848485,7.866190266895289,-5.969377646541591,-0.0531451091766355
0.165454545454545,-1.5438414713859598,2.7245432518959003,-0.601604581832886
0.166060606060606,-6.48476676435471,5.50516092767716,0.751581453323364
0.166666666666667,3.6174256184577898,-8.34284200201035,-1.75839901542664
0.167272727272727,4.06529427080154,1.7234250878334,0.365983308792114
0.167878787878788,-0.35112174482345604,4.45614237298965,1.06532901191711
0.168484848484848,-5.14116080732346,-3.25103047857285,-0.244746671676636
0.169090909090909,-3.62990348310471,3.69452616205215,0.8833075275421141
0.16969696969697,7.2482752278327895,-3.1863649512291,-1.0806084880828901
0.17030303030303,2.99951057939529,-2.95883809576035,-0.805181241989136
0.170909090909091,-6.44165641279221,8.16842264642716,-0.0555401287078855
0.171515151515152,0.582935872364044,-5.62688985357284,-0.982412687301636
0.172121212121212,3.61263557939529,-3.0857741309166,-0.10583553886413599
0.172727272727273,-0.43015738935470604,6.12786600580216,0.7994818439483641
0.173333333333333,-4.48253043622971,-3.0187135840416,0.0594208087921145
0.173939393939394,-4.38433463544846,2.8826145409584,1.30483096504211
0.174545454545455,7.26025032548904,-0.15427022466659499,-1.05186825370789
0.175151515151515,6.36451302080154,-7.380044150447841,-1.36561581230164
0.175757575757576,-7.33739371747971,8.34565409173965,1.0581439533233599
0.176363636363636,-2.4443688151359604,-0.49915303716659504,0.0977411212921145
0.176969696969697,3.5838953450202897,-8.3356569434166,-0.0387749919891355
0.177575757575758,1.2750965168952901,6.15421122064591,-0.0244048748016355
0.178181818181818,-2.04440055341721,-0.978156943416595,0.5408197345733641
0.178787878787879,-5.86206168622971,0.327128701114655,-0.32857235527038603
0.179393939393939,5.15502815752029,2.2790696190834,0.0139154376983645
0.18,7.68416878252029,-7.31777364263534,-1.2338897380828902
0.180606060606061,-6.46560660810471,6.24282694330216,0.833012117385864
0.181212121212121,-5.68004020185471,3.8717576073646502,0.0594208087921145
0.181818181818182,4.83649055986404,-10.3019679785728,-1.48057674980164
0.182424242424242,4.35509163408279,4.3435764550209,1.3144110431671099
0.183030303030303,-2.1881017252922104,4.120839638614649,-0.560889249801636
0.183636363636364,-5.399822916698461,-3.6462087012291,1.0749090900421099
0.184242424242424,1.73015022783279,4.472907509708399,0.107321199417114
0.184848484848485,6.81956673173904,-5.3562526465415905,-0.948882413864136
0.185454545454545,-2.99761832685471,-0.180615439510345,0.526449617385864
0.186060606060606,-6.02971305341721,8.8605832909584,0.0187054767608645
0.186666666666667,4.51795296220779,-9.24336934576035,-0.9776226482391359
0.187272727272727,5.38974007158279,-0.592558798885345,-0.0531451091766355
0.187878787878788,-2.5066393229484603,6.68590555658341,1.1443646564483598
0.188484848484848,-5.59142447919846,-4.122817587947851,0.0618158283233645
0.189090909090909,-1.05525748701096,3.1316965722084,0.888097566604614
0.18969696969697,6.76448128252029,-2.33134297857285,-0.711775480270386
0.19030303030303,1.9289368489265402,-4.51081075201035,-0.908167081832886
0.190909090909091,-6.93982047529221,8.79591776361465,1.3575213947296099
0.191515151515152,1.5145984700202901,-3.4162868262290997,-1.60511776542664
0.192121212121212,5.46398567705154,-6.09391866216659,0.5216595783233641
0.192727272727273,-2.27911246747971,7.6966037987709095,-0.0986504802703855
0.193333333333333,-4.87770865888596,-2.17327168951035,0.806666902542114
0.193939393939394,-3.55565787763596,0.585790810489655,0.7420013751983641
0.194545454545455,7.92846077470779,1.8455710839271502,-2.01227108573914
0.195151515151515,5.62684700517654,-8.730835166072849,0.200726961135864
0.195757575757576,-8.99714225263596,8.7552024315834,-1.09018856620789
0.196363636363636,-1.99889518232346,1.2611863183021501,1.58983828926086
0.196969696969697,5.03527718095779,-9.8397292090416,-0.5345440349578859
0.197575757575758,0.618861165332794,5.90991922845841,0.255812410354614
0.198181818181818,-3.39758658857346,0.501965126895905,0.418673738479614
0.198787878787879,-5.07649527997971,-1.11946309576035,-0.831526456832886
0.199393939393939,7.0686487629890395,2.8682444237709,1.07730410957336
0.2,6.6758655598640395,-7.58122579107284,-1.14527401542664
0.200606060606061,-9.24382926435471,5.1219578026771595,-0.141760831832886
0.201212121212121,-4.17836295576096,5.69676249017716,0.9815033283233641
0.201818181818182,6.07232063798904,-10.9198830176353,-0.9560674724578859
0.202424242424242,3.8233972981452897,3.1795969628334,0.236652254104614
0.203030303030303,-3.47901725263596,5.47881571283341,-0.132180753707886
0.203636363636364,-5.69441031904221,-3.5168776465416,0.7611615314483641
0.204242424242424,4.300006184864039,3.60351541986465,0.548004793167114
0.204848484848485,6.99919319658279,-4.85569356451035,-1.39435604667664
0.205454545454545,-5.18187613935471,-1.3805202246666,0.387538484573364
0.206060606060606,-6.27879508466721,9.8138010643959,0.710866121292114
0.206666666666667,5.40650520830154,-8.23746114263535,-0.759675870895386
0.207272727272727,6.12261604814529,-2.2379372168541,-0.944092374801636
0.207878787878788,-4.05142692060471,7.974426064395909,0.500104402542114
0.208484848484848,-6.297955240917211,-4.09407735357285,0.6797308673858641
0.209090909090909,1.61039925127029,2.4658811425209,0.456994050979614
0.20969696969697,7.11894417314529,-1.1074879981041,-0.40760799980163603
0.21030303030303,-0.487637858104706,-6.043623252010341,-0.924932218551636
0.210909090909091,-7.10028678388596,9.4401780175209,-0.0651202068328855
0.211515151515152,2.54445686845779,-2.4750441504478498,-0.10823055839538599
0.212121212121212,5.87832405595779,-7.04953145513534,-0.31420223808288605
0.212727272727273,-2.43957877607346,6.99965311517716,1.1443646564483598
0.213333333333333,-7.19848258466721,-0.8631960059165951,0.456994050979614
0.213939393939394,-1.62527213544846,-0.12313497076034499,0.325267976760864
0.214545454545455,9.68161507158279,0.990549111270905,-0.441138273239136
0.215151515151515,3.20308723955154,-6.714228720760341,-1.8374346599578901
0.215757575757576,-9.79947379560471,7.02120829095841,0.904862703323364
0.216363636363636,-0.734324869823456,2.6526926659584,0.8018768634796141
0.216969696969697,6.36211800127029,-9.7870387793541,-0.5153838787078859
0.217575757575758,-0.5930187174797059,4.17832010736465,0.0953461017608645
0.218181818181818,-5.39024283857346,2.33415506830215,-0.129785734176636
0.218787878787879,-3.07425895185471,-2.18285176763535,1.67126895332336
0.219393939393939,8.27334358720779,3.5580100487709,-1.49255184745789
0.22,4.6400989583015395,-7.3920192481040905,-0.6974053630828859
0.220606060606061,-9.51207145185471,2.7077781151771503,0.8833075275421141
0.221212121212121,-3.3017858073234603,7.51937235345841,0.7228412189483641
0.221818181818182,6.15854134111404,-10.3546584082603,-0.47706356620788604
0.222424242424242,4.9131311848640395,1.1701755761146502,-0.6734551677703859
0.223030303030303,-4.85854850263596,5.586591591739659,0.835407136917114
0.223636363636364,-6.01055289716721,-2.6738307715416,-0.991992765426636
0.224242424242424,5.76815315752029,2.8969846581459002,1.5587030353546099
0.224848484848485,5.9908899739265395,-3.6509987402916,-0.680640226364136
0.225454545454545,-6.1710192057609605,-1.72300801763535,-0.45550839042663605
0.226060606060606,-6.3506456706047105,9.150380654239651,0.7994818439483641
0.226666666666667,6.98961311845779,-6.149004111385341,-0.606394620895386
0.227272727272727,6.754901204395289,-3.7491945410728498,0.0450506916046145
0.227878787878788,-5.48125358076096,7.948080849552159,-0.702195402145386
0.228484848484848,-6.896710123729711,-3.1480446387291,1.27369571113586
0.229090909090909,2.52050667314529,1.51984842767715,0.5623749103546141
0.22969696969697,6.85309700517654,-0.34108174810409503,-0.46748348808288603
0.23030303030303,-0.48045279951095604,-6.14660909185409,-1.40154110527039
0.230909090909091,-7.73257194013596,7.97203104486466,0.46417910957336395
0.231515151515152,3.35157845048904,-0.527893271541595,0.7611615314483641
0.232121212121212,7.233905110645289,-7.772827353572841,-0.659085050582886
0.232727272727273,-4.2478185221672105,5.773403115177159,0.44262393379211395
0.233333333333333,-7.83555777997971,0.796552529239655,0.765951570510864
0.233939393939394,0.0943518879890442,-1.04761250982285,0.43304385566711395
0.234545454545455,10.232469563770302,0.863613076114655,-1.73205380058289
0.235151515151515,2.0534778645515397,-6.09391866216659,-1.42309628105164
0.235757575757576,-9.45459098310471,5.50276590814591,1.20903018379211
0.236363636363636,-0.5044029948234561,3.5963303612709,0.986293367385864
0.236969696969697,6.26392220048904,-8.946386923885349,-0.924932218551636
0.237575757575758,0.46797493486404396,1.9533469628334001,0.0833710041046145
0.238181818181818,-6.93982047529221,3.30174295892715,-0.333362394332886
0.238787878787879,-2.9425328776359603,-1.7325880957603499,-0.129785734176636
0.239393939393939,10.256419759082801,1.6108591698646502,0.114506258010864
0.24,3.6102405598640397,-4.985024619197841,-1.0542632732391402
0.240606060606061,-10.407808756542199,2.38205545892715,-0.0124297771453855
0.241212121212121,-3.2850206706047103,6.60926493158341,1.02700869941711
0.241818181818182,7.49256722002029,-8.17758565435409,-0.28785702323913603
0.242424242424242,4.62333382158279,-0.549448447322845,-0.45550839042663605
0.243030303030303,-6.11593375654221,5.6943674706459095,0.258207429885864
0.243636363636364,-5.5052037760734605,-1.8523390723228499,0.9815033283233641
0.244242424242424,7.54525764970779,1.6922898339271502,0.533634675979614
0.244848484848485,5.13586800127029,-3.5360378027915997,-1.09018856620789
0.245454545454545,-7.04759635419846,-1.3398048926353499,-0.302227140426636
0.246060606060606,-5.79739615888596,8.06543680658341,0.7635565509796141
0.246666666666667,6.15854134111404,-4.35752950201035,-0.592024503707886
0.247272727272727,7.55723274736404,-3.9240309668541,-0.642319913864136
0.247878787878788,-5.53633902997971,5.88357401361466,0.0905560626983645
0.248484848484848,-7.55294547529221,-0.295576377010345,-0.33815243339538603
0.249090909090909,3.4545642903327898,-0.396167197322845,1.26172061347961
0.24969696969697,7.85661018877029,-0.805715537166595,-0.469878507614136
0.25030303030303,-2.7796715495109603,-4.295258994197851,-1.3799859294891401
0.250909090909091,-8.103799967479711,6.58770975580216,-0.0172198162078855
0.251515151515152,3.71801643877029,0.0852317284584045,0.670150789260864
0.252121212121212,7.1213391926765395,-7.11659200201034,-0.460298429489136
0.252727272727273,-3.0527037760734603,4.4776975487709,-0.0866753826141355
0.253333333333333,-9.49051627607346,2.02759256830215,0.957553133010864
0.253939393939394,0.796092610645294,-1.2416090918540998,0.337243074417114
0.254545454545455,11.132996907520301,-0.887146201229095,-1.2171246013641401
0.255151515151515,0.360199055957794,-4.340764365291601,-2.0673565349578897
0.255757575757576,-9.52165152997971,4.95670145502091,1.5802582111358598
0.256363636363636,-0.595413737010956,3.7065012597084,0.5216595783233641
0.256969696969697,7.19318977861404,-8.014724326229091,-0.283066984176636
0.257575757575758,0.678736653614044,0.698356728458405,-0.512988859176636
0.258181818181818,-8.40557242841721,3.89570780267715,-0.141760831832886
0.258787878787879,-2.25516227216721,-0.233305869197845,0.43064883613586397
0.259393939393939,11.281488118457801,-0.391377158260345,-0.330967374801636
0.26,2.9587952473640398,-4.06533711919785,-0.9776226482391359
0.260606060606061,-10.604200358104698,2.20003397455215,0.34203311347961396
0.261212121212121,-3.29939078779221,5.81651346673966,0.876122468948364
0.261818181818182,7.35605110673904,-5.7155055762290905,0.0833710041046145
0.262424242424242,5.07120247392654,-2.3816383887290997,-0.843501554489136
0.263030303030303,-6.50153190107346,5.10519266595841,-0.132180753707886
0.263636363636364,-6.19257438154221,0.434904580020905,1.18987002754211
0.264242424242424,8.728397298145289,0.34149881830215495,0.0761859455108645
0.264848484848485,4.86523079423904,-3.3731764746665998,-0.522568937301636
0.265454545454545,-7.96967887372971,-0.9637868262290951,-1.03989315605164
0.266060606060606,-5.55789420576096,6.74578104486466,1.1180194416046099
0.266666666666667,6.429178548145289,-2.3984035254478497,-0.189661222457886
0.267272727272727,8.309268880176539,-4.98741963872909,-0.632739835739136
0.267878787878788,-6.17580924482346,4.26454081048965,-0.0387749919891355
0.268484848484848,-8.043924479198461,1.3258518456459,0.40430362129211395
0.269090909090909,3.7563367512702897,0.0301462792396546,0.892887605667114
0.26969696969697,7.52849251298904,-1.2176588965416,-0.410003019332886
0.27030303030303,-2.58088492841721,-3.6749489356041,-1.61230282402039
0.270909090909091,-8.15170035810471,4.97825663080216,-0.151340909957886
0.271515151515151,3.89764290361404,1.2132859276771502,1.20184512519836
0.272121212121212,7.52370247392654,-6.06038838872909,-0.8339214763641359
0.272727272727273,-4.1017223307609605,2.0635178612709,0.0642108478546145
0.273333333333333,-9.91922477216721,3.2179172753334,1.21382022285461
0.273939393939394,1.19127083330154,-0.6212990332603451,-0.163316007614136
0.274545454545455,11.916168294239,-2.3337379981041,-0.6159746990203859
0.275151515151515,0.762562337207794,-2.57563497076035,-2.04580135917664
0.275757575757576,-10.261712565136,3.7544016503334,1.00305850410461
0.276363636363636,-0.775040201854706,2.3485251854896503,1.59223330879211
0.276969696969697,7.1548694661140395,-4.774262900447851,-0.524963956832886
0.277575757575758,0.671551595020294,-1.4595558691978499,-0.0339849529266355
0.278181818181818,-8.32174674482346,3.9603733300209,-1.23628475761414
0.278787878787879,-1.52468131513596,0.46843485345840497,1.33117617988586
0.279393939393939,11.492249837207801,-1.8307838965416,-0.42437313652038605
0.28,1.8355310872077901,-2.2355421973228498,-0.991992765426636
0.280606060606061,-10.9347130534172,1.4791330956459001,1.0964642658233599
0.281212121212121,-2.49466422529221,4.3052561425209,0.6030902423858641
0.281818181818182,7.43508675127029,-3.1935500098228498,0.995873445510864
0.282424242424242,5.42566536455154,-3.2677956152916,-1.89012508964539
0.283030303030303,-6.61888785810471,3.1412766503334,0.591115144729614
0.283636363636364,-6.44165641279221,2.4850412987709003,1.2641156330108598
0.284242424242424,9.37744759111404,-1.51703633794785,0.0282855548858645
0.284848484848485,4.25210579423904,-1.95292989263535,-0.5776543865203859
0.285454545454545,-8.18044059247971,0.133132119083405,-1.13808895683289
0.286060606060606,-4.34361930341721,3.20594217767715,1.41979190254211
0.286666666666667,5.48075081377029,-0.0273341895103454,-0.115415616989136
0.287272727272727,7.94043587236404,-4.0533620215415995,-0.752490812301636
0.287878787878788,-5.34234244794846,1.7952756737709001,-0.0267998943328855
0.288484848484849,-8.53969352216721,3.8621775292396503,0.0905560626983645
0.289090909090909,5.34662972002029,-1.5721217871666,1.0054535236358602
0.28969696969697,7.37042122392654,-2.3241579199791,-0.970437589645386
0.29030303030303,-3.1987999674797103,-0.465622763729095,-1.04947323417664
0.290909090909091,-7.26075309247971,2.4131907128334,0.514474519729614
0.291515151515152,3.51922981767654,1.7473752831459002,0.219887117385864
0.292121212121212,8.05060677080154,-4.0581520606041,0.138456453323364
0.292727272727273,-3.77839469404221,-0.599743857479095,-0.438743253707886
0.293333333333333,-10.309612955761,5.047712197208409,0.811456941604614
0.293939393939394,2.01515755205154,-1.2463991309165998,0.0977411212921145
0.294545454545455,12.450257649707801,-4.00306661138535,-0.6135796794891359
0.295151515151515,-1.26362418622971,0.564235634708405,-1.06623837089539
0.295757575757576,-10.012630533886,1.8814963768959,0.30131778144836396
0.296363636363636,0.582935872364044,1.4599729393959,1.67126895332336
0.296969696969697,6.7692713215827895,-2.3049977637290997,-0.5345440349578859
0.297575757575758,0.877523274707794,-2.8558522559166,-0.7381206951141359
0.298181818181818,-8.92768668622971,3.7088962792396503,0.40430362129211395
0.298787878787879,-1.17021842451096,1.9868772362709002,-0.25672176933288604
0.299393939393939,12.1628553059578,-4.30962911138535,0.011520418167114499
0.3,0.776932454395294,-0.405747275447845,-0.9967828044891359
0.300606060606061,-10.4652892252922,2.16650370111465,-0.230376554489136
0.301212121212121,-1.26362418622971,1.6180442284584,1.59462832832336
0.301818181818182,6.90578743486404,-0.000988974666595451,-0.0627251873016355
0.302424242424242,5.54541634111404,-4.06054708013535,-0.9560674724578859
0.303030303030303,-7.38529410810471,1.32345682611465,-0.113020597457886
0.303636363636364,-5.579449381542211,5.09800760736466,0.816246980667114
0.304242424242424,9.55467903642654,-3.4067067481041,1.01982364082336
0.304848484848485,3.68927620439529,-1.48350606451035,-1.46620663261414
0.305454545454545,-8.28582145185471,1.7354001854896501,-0.239956632614136
0.306060606060606,-4.1017223307609605,1.0863498925209,-0.0794903240203855
0.306666666666667,6.29266243486404,1.6755246972084001,1.15394473457336
0.307272727272727,6.56569466142654,-3.03547872076035,-0.587234464645386
0.307878787878788,-4.920819010448461,-0.7626051856040951,-0.8578716716766359
0.308484848484848,-8.10859000654221,5.193808388614659,1.16352481269836
0.309090909090909,5.40650520830154,-1.4667409277916,0.636620515823364
0.30969696969697,6.83872688798904,-2.8462721777916,-0.560889249801636
0.31030303030303,-4.02508170576096,0.6145310448646549,-1.16922421073914
0.310909090909091,-5.94828238935471,0.616926064395905,0.37316836738586395
0.311515151515152,2.64025764970779,2.5042014550209,0.06900088691711449
0.312121212121212,7.29617561845779,-2.9564430762291,0.500104402542114
0.312727272727273,-3.57002799482346,-1.9720900488853499,-0.572864347457886
0.313333333333333,-10.7455065104485,6.1398411034584095,0.325267976760864
0.313939393939394,2.63067757158279,-1.5577516699790999,0.155221590042114
0.314545454545455,12.0646595051765,-5.24129170904159,-1.5548223552703901
0.315151515151515,-2.02763541669846,1.94616190423965,0.0019403400421144801
0.315757575757576,-8.81033072919846,1.51984842767715,0.387538484573364
0.316363636363636,-0.0996446940422058,0.509150185489655,0.9383929767608641
0.316969696969697,5.976519856739039,-1.02366231451035,0.31329287910461395
0.317575757575758,1.42598274736404,-3.9863014746666,-1.48536678886414
0.318181818181818,-9.13126334638596,3.8549924706459002,-0.115415616989136
0.318787878787879,-0.133174967479706,2.7916037987709,0.229467195510864
0.319393939393939,12.174830403614,-6.115473837947841,0.0737909259796145
0.32,-1.44325065107346,1.5222434472084,-1.34406063652039
0.320606060606061,-9.480936197948461,1.1294602440834,0.895282625198364
0.321212121212121,-0.621758951854706,-0.403352255916595,0.9407879962921141
0.321818181818182,6.09387581377029,2.7197532128334,0.334848054885864
0.322424242424242,4.81014534502029,-4.69762227544785,0.296527742385864
0.323030303030303,-7.68227652997971,0.45885477533340496,-1.76318905448914
0.323636363636364,-4.47774039716721,5.23691874017716,1.79101992988586
0.324242424242424,9.37505257158279,-3.3061159277916,-0.19684628105163599
0.324848484848485,1.69182991533279,-1.39249532232285,-1.2722100505828902
0.325454545454545,-6.42968131513596,1.8671262597084002,1.01503360176086
0.326060606060606,-3.3353160807609603,-0.33868672857284504,-0.807576261520386
0.326666666666667,4.692789387989039,2.0659128808021503,1.39105166816711
0.327272727272727,6.92734261064529,-1.52661641607285,-0.38605282402038604
0.327878787878788,-5.31360221357346,-2.62832540044785,-1.2554449138641401
0.328484848484848,-7.09070670576096,6.290727333927159,1.2641156330108598
0.329090909090909,5.39692513017654,-1.2200539160728499,0.42106875801086396
0.32969696969697,6.44594368486404,-4.11323750982285,-0.551309171676636
0.33030303030303,-4.45139518232346,2.32457499017715,-0.759675870895386
0.330909090909091,-5.37108268232346,-0.40095723638534503,-0.0315899333953855
0.331515151515152,3.4234290364265396,2.1090232323646503,0.0498407306671145
0.332121212121212,6.44354866533279,-0.954206748104095,0.128876375198364
0.332727272727273,-3.5412877604484603,-3.4330519629478498,-0.783626066207886
0.333333333333333,-9.833004069042211,5.912314247989659,1.20184512519836
0.333939393939394,3.09291634111404,-0.6452492285728451,0.203121980667114
0.334545454545455,10.7042884114265,-5.782566123104091,-1.46381161308289
0.335151515151515,-2.46831901044846,3.01913065423965,0.0618158283233645
0.335757575757576,-7.59845084638596,0.882773232364655,-0.218401456832886
0.336363636363636,-0.34154166669845604,-0.28120625982284503,1.94909121894836
0.336969696969697,5.60768684892654,0.985759072208405,0.35161319160461396
0.337575757575758,0.755377278614044,-4.7862379981041006,-1.68894344902039
0.338181818181818,-8.25229117841721,3.05266092767715,0.397118562698364
0.338787878787879,0.422469563770294,3.5196897362709,0.016310457229614498
0.339393939393939,10.843199544238999,-6.043623252010341,-0.290252042770386
0.34,-1.59413688154221,1.30429666986465,0.991083406448364
0.340606060606061,-8.762430338573461,2.08028299798965,-0.36449764823913605
0.341212121212121,-0.861260904979706,-1.8188087988853499,1.3359662189483599
0.341818181818182,6.01484016923904,4.3747117089271494,0.40430362129211395
0.342424242424242,4.04373909502029,-4.3168141699791,-1.09497860527039
0.343030303030303,-6.19017936201096,-1.9864601660728498,-0.43634823417663604
0.343636363636364,-4.25021354169846,7.45231180658341,1.04616885566711
0.344242424242424,8.27334358720779,-3.9767213965416,-0.254326749801636
0.344848484848485,2.8486243489265397,-2.4103786231041,-0.522568937301636
0.345454545454545,-7.40924430341721,3.6538108300209,-0.690220304489136
0.346060606060606,-2.1210411784172103,-2.2331471777916,0.655780672073364
0.346666666666667,4.70955452470779,2.98081034173965,1.28806582832336
0.347272727272727,5.29633430986404,-0.190195517635345,-1.07342342948914
0.347878787878788,-4.00113151044846,-4.71199239263535,0.0905560626983645
0.348484848484849,-7.11705192060471,7.255920205020909,-0.0699102458953855
0.349090909090909,5.09515266923904,-1.4092604590416,0.794691804885864
0.34969696969697,6.26392220048904,-4.51560079107285,-1.0087579021453899
0.35030303030303,-5.2393566081047105,3.4238889550209,-0.788416105270386
0.350909090909091,-3.9939464518547103,-1.80443868169785,0.246232332229614
0.351515151515152,2.7815638020515396,1.31866678705215,0.964738191604614
0.352121212121212,4.98977180986404,1.66354959955215,-0.843501554489136
0.352727272727273,-2.75572135419846,-5.497558798885341,-0.141760831832886
0.353333333333333,-8.87260123701096,5.605751747989659,0.935997957229614
0.353939393939394,3.2605677083015396,1.34261698236465,-1.21951962089539
0.354545454545455,9.56425911455154,-7.8446779395103405,-0.441138273239136
0.355151515151515,-2.45634391279221,4.75791483392715,-0.812366300582886
0.355757575757576,-6.68594840497971,0.5354954003334049,0.399513582229614
0.356363636363636,0.029686360645294202,-2.1157912207603498,0.816246980667114
0.356969696969697,5.03767220048904,2.76525858392715,0.713261140823364
0.357575757575758,0.676341634082794,-5.16944112310409,-0.603999601364136
0.358181818181818,-7.59366080732346,2.2694895409584,-1.05186825370789
0.358787878787879,1.20564095048904,4.0944944237709,0.696496004104614
0.359393939393939,9.83010628252029,-6.64956319341659,-1.42788632011414
0.36,-2.09230094404221,1.74977030267715,0.749186433792114
0.360606060606061,-7.99123404951096,1.9365818261146501,0.160011629104614
0.361212121212121,0.245238118457794,-3.2917458106041,0.516869539260864
0.361818181818182,4.38862190752029,4.8896409081459,1.27848575019836
0.362424242424242,4.05571419267654,-2.71933614263535,-1.72007870292664
0.363030303030303,-5.43574820966721,-4.2593337012291,0.0929510822296145
0.363636363636364,-3.5652379557609604,8.03430155267716,-0.362102628707886
0.364242424242424,7.72967415361404,-3.52406270513535,0.7827167072296141
0.364848484848485,1.48825325517654,-2.6498805762291,-0.42676815605163604
0.365454545454545,-6.09437858076096,4.8034202050209,-0.663875089645386
0.366060606060606,-2.4443688151359604,-3.89289571294785,-0.117810636520386
0.366666666666667,4.48442268877029,3.1269065331459003,1.04377383613586
0.367272727272727,3.85453255205154,1.35219706048965,0.0737909259796145
0.367878787878788,-3.0431236979484604,-5.55503926763534,-1.92844540214539
0.368484848484848,-5.6584850260734605,5.54348124017716,1.8580804767608599
0.369090909090909,4.15151497392654,0.8731931542396549,-0.45790340995788603
0.36969696969697,5.10712776689529,-5.490373740291591,-0.563284269332886
0.37030303030303,-4.40588981122971,3.3376682518959,0.119296297073364
0.370909090909091,-3.0790489909172103,-0.887146201229095,-0.865056730270386
0.371515151515152,2.61391243486404,-0.0153590918540955,1.70958926582336
0.372121212121212,3.7132263997077897,2.9903904198646503,-0.479458585739136
0.372727272727273,-1.75220817060471,-5.198181357479091,-0.175291105270386
0.373333333333333,-8.156490397167211,4.281305947208399,0.6222503986358641
0.373939393939394,2.3863855793952897,2.0826780175209,-1.1740142498016402
0.374545454545455,9.39421272783279,-8.3596071387291,0.36119326972961396
0.375151515151515,-2.76530143232346,5.55066629877091,-1.75360897636414
0.375757575757576,-5.72315055341721,0.178637490177155,1.6137884845733599
0.376363636363636,0.206917805957794,-2.66664571294785,0.746791414260864
0.376969696969697,3.4809095051765397,3.98671854486465,-0.187266202926636
0.377575757575758,0.7889075520515441,-5.796936240291591,0.516869539260864
0.378181818181818,-6.26921500654221,2.3796604393959,-1.67696835136414
0.378787878787879,1.1721106770515402,3.7591916893959,0.852172273635864
0.379393939393939,8.73558235673904,-7.360883994197841,-0.7979961833953859
0.38,-3.0024083659172103,2.60718729486465,-0.175291105270386
0.380606060606061,-6.22131461591721,2.0012473534584,0.9791083087921141
0.381212121212121,-0.31998649091720605,-4.18508809576035,0.42106875801086396
0.381818181818182,3.95033333330154,5.74226786127091,1.09406924629211
0.382424242424242,3.6701160481452897,-2.2044069434166,-1.1907793865203902
0.383030303030303,-5.5052037760734605,-4.2928639746666,-1.34166561698914
0.383636363636364,-2.18570670576096,7.67265360345841,1.14196963691711
0.384242424242424,6.51779427080154,-3.3228810645103497,0.334848054885864
0.384848484848485,0.760167317676544,-2.4343288184166,-0.685430265426636
0.385454545454545,-4.96392936201096,5.03094706048966,-0.39802792167663603
0.386060606060606,-1.4576207682609599,-4.4557253027916,-0.153735929489136
0.386666666666667,3.48569954423904,3.2131272362709002,0.7635565509796141
0.387272727272727,2.9611902668952896,1.9054465722084002,0.33005801582336397
0.387878787878788,-2.5401695963859603,-5.72748067388534,-1.11174374198914
0.388484848484848,-4.85136344404221,5.94344950189591,0.41148867988586396
0.389090909090909,3.9431482747077897,-0.336291709041595,0.121691316604614
0.38969696969697,4.153909993457789,-5.57180440435409,-0.527358976364136
0.39030303030303,-4.5807262370109605,5.31834940423966,-0.630344816207886
0.390909090909091,-2.6096251627922102,-2.2091969824791,0.6797308673858641
0.391515151515152,2.13490852861404,-0.056074423885345503,-0.6950103435516359
0.392121212121212,3.20548225908279,3.1652268456459,0.612670320510864
0.392727272727273,-1.85040397138596,-4.7048073340416,-0.35491757011413605
0.393333333333333,-6.70750358076096,3.2227073143959,-0.0699102458953855
0.393939393939394,3.21266731767654,1.1390403222084,0.41388369941711395
0.394545454545455,7.23630013017654,-5.77298604497909,-1.5500323162078902
0.395151515151515,-2.7461412760734603,4.1759250878333996,0.36119326972961396
0.395757575757576,-4.19752311201096,-0.130320029354095,0.255812410354614
0.396363636363636,0.27637337236404397,-2.5684499121666,0.811456941604614
0.396969696969697,2.96598030595779,3.6586008690834,1.2808807697296098
0.397575757575758,0.46557991533279397,-3.8090700293540998,-1.22430965995789
0.398181818181818,-6.1638341471672105,0.736677040958405,-0.390842863082886
0.398787878787879,2.5229016926765397,3.7783518456459,-0.204031339645386
0.399393939393939,7.28180550127029,-6.05080831060409,-0.659085050582886
0.4,-3.52931266279221,2.64550760736465,0.0474457111358645
0.400606060606061,-4.85136344404221,1.3737522362709,0.0761859455108645
0.401212121212121,-0.0206090495109558,-4.5060207129478504,0.7994818439483641
0.401818181818182,3.31565315752029,6.33623270502091,0.634225496292114
0.402424242424242,1.8570862629890401,-1.9265846777915998,-0.402817960739136
0.403030303030303,-3.6682237956047103,-3.9479811621666,-1.62667294120789
0.403636363636364,0.029686360645294202,5.605751747989659,0.9982684650421141
0.404242424242424,4.67123421220779,-2.1900368262291,-0.390842863082886
0.404848484848485,-0.36309684247970603,-1.5529616309165999,-0.441138273239136
0.405454545454545,-3.56044791669846,3.6825510643959003,0.428253816604614
0.406060606060606,-0.763065104198456,-4.11802754888535,-0.184871183395386
0.406666666666667,2.82706917314529,3.1987571190834,1.07730410957336
0.407272727272727,2.07503304033279,2.37726541986465,-0.410003019332886
0.407878787878788,-2.20007682294846,-5.72029561529159,-0.9776226482391359
0.408484848484849,-2.44915885419846,4.9088010643959095,0.500104402542114
0.409090909090909,3.51922981767654,-0.345871787166595,-0.132180753707886
0.40969696969697,2.5588269856452897,-4.1731129981041,0.138456453323364
0.41030303030303,-3.5317076823234603,4.480092568302149,0.689310945510864
0.410909090909091,-1.97734000654221,-2.5109694434166,-0.5752593669891359
0.411515151515152,2.3432752278327897,0.250488076114655,0.677335847854614
0.412121212121212,1.5960291340827901,3.18199198236465,-0.0842803630828855
0.412727272727273,-1.58695182294846,-4.95388936529159,-1.10934872245789
0.413333333333333,-4.50648063154221,2.64550760736465,1.1228094806671098
0.413939393939394,2.88933968095779,1.5749338768959,-1.2770000896453901
0.414545454545455,5.33704964189529,-6.01248799810409,-0.0196148357391355
0.415151515151515,-3.14131949872971,4.11125956048965,-0.172896085739136
0.415757575757576,-2.66471061201096,-0.42730245122909505,0.157616609573364
0.416363636363636,0.0201062825202942,-2.45588399419785,1.1611297931671098
0.416969696969697,1.6942249348640401,4.39866190423965,0.207912019729614
0.417575757575758,-0.30082633466720604,-4.0389919043541,-0.0483550701141355
0.418181818181818,-4.55198600263596,0.6336912011146549,-1.12611385917664
0.418787878787879,3.3875037434577897,2.5042014550209,-0.11062557792663599
0.419393939393939,5.5118860676765395,-5.34188252935409,-0.5968145427703859
0.42,-3.1892198893547103,3.3616184472084,-0.242351652145386
0.420606060606061,-3.59876822919846,0.830082802677155,0.6438055744171141
0.421212121212121,0.34582893877029397,-4.20424825201035,0.188751863479614
0.421818181818182,2.42710091142654,5.32553446283341,0.667755769729614
0.422424242424242,0.8871033528327941,-1.4571608496666,-0.402817960739136
0.423030303030303,-2.23600211591721,-3.3875465918541,-0.963252531051636
0.423636363636364,0.036871419239044204,4.927961220645909,0.171986726760864
0.424242424242424,3.3012830403327897,-2.65706563482285,0.339638093948364
0.424848484848485,-0.696004557323456,-0.918281455135345,0.418673738479614
0.425454545454545,-3.28981070966721,3.2730027245521502,-0.8554766521453859
0.426060606060606,0.0009461262702941991,-3.83062520513535,0.31329287910461395
0.426666666666667,2.21873421220779,3.05745096673965,0.7827167072296141
0.427272727272727,0.494320149707794,1.4887131737709,0.0809759845733645
0.427878787878788,-1.18219352216721,-4.91317403326034,-1.25783993339539
0.428484848484848,-1.6156920573234599,3.6921311425209002,0.476154207229614
0.429090909090909,2.2331043293952897,0.9330686425209049,1.1826849689483598
0.42969696969697,1.90738167314529,-3.48095235357285,-0.551309171676636
0.43030303030303,-2.63118033857346,2.15692362298965,0.231862215042114
0.430909090909091,-0.616968912792206,-1.1889186621666,-0.208821378707886
0.431515151515152,1.21282600908279,0.494780068302155,0.926417879104614
0.432121212121212,0.7649573567390441,2.4275608300209,0.945578035354614
0.432727272727273,-1.84561393232346,-3.36599141607285,-0.546519132614136
0.433333333333333,-3.47662223310471,1.7809055565834,0.375563386917114
0.433939393939394,3.0785462239265398,-0.314736533260345,-0.9943877849578859
0.434545454545455,4.4341272786140395,-3.8785255957603497,-0.999177824020386
0.435151515151515,-3.00480338544846,4.17832010736465,0.9431830158233641
0.435757575757576,-1.7785533854484599,-0.211750693416595,0.0977411212921145
0.436363636363636,-0.140360026073456,-2.98757833013535,0.885702547073364
0.436969696969697,0.137462239551544,3.5484299706459,-0.010034757614135501
0.437575757575758,-0.37028190107345604,-3.0666139746666,0.193541902542114
0.438181818181818,-2.45155387372971,0.422929482364655,-0.182476163864136
0.438787878787879,3.62461067705154,1.9437668847084,-0.43395321464538605
0.439393939393939,3.02585579423904,-4.407824912166601,-0.522568937301636
0.44,-3.29939078779221,3.1460666893959,0.631830476760864
0.440606060606061,-2.72458610029221,0.11636698236465501,0.375563386917114
0.441212121212121,0.542220540332794,-2.8941725684165998,-0.239956632614136
0.441818181818182,2.32890511064529,4.6836692284584,1.24974551582336
0.442424242424242,0.17817757158279401,-0.726679892635345,-0.8578716716766359
0.443030303030303,-2.02763541669846,-2.5013893652915997,-0.666270109176636
0.443636363636364,1.26312141923904,2.53054666986465,0.016310457229614498
0.444242424242424,3.08333626298904,-1.79485860357285,0.231862215042114
0.444848484848485,-1.83603385419846,1.31387674798965,-0.410003019332886
0.445454545454545,-2.5473546549797104,1.64438944330215,-0.199241300582886
0.446060606060606,1.33257698564529,-3.9431911231041,0.6390155353546141
0.446666666666667,1.40682259111404,2.6958030175209,-0.168106046676636
0.447272727272727,-0.32956656904220605,1.70186991205215,0.526449617385864
0.447878787878788,-1.39535026044846,-2.7145461035728498,-0.251931730270386
0.448484848484848,0.31948372392654395,2.2215891503334,-0.29743710136413604
0.449090909090909,2.50374153642654,-0.693149619197845,0.186356843948364
0.44969696969697,-0.645709147167206,-1.7685133887291,-0.706985441207886
0.45030303030303,-2.0946959635734603,2.1545286034584,0.160011629104614
0.450909090909091,0.599701009082794,-1.6870827246665998,0.406698640823364
0.451515151515152,0.8871033528327941,0.37981913080215496,0.126481355667114
0.452121212121212,-0.38944205732345605,1.88389139642715,-0.170501066207886
0.452727272727273,-1.77615836591721,-2.5780299902915997,-0.27588192558288605
0.453333333333333,-0.846890787792206,1.40488749017715,-0.225586515426636
0.453939393939394,3.11207649736404,-1.2463991309165998,-0.33815243339538603
0.454545454545455,2.17801888017654,-1.8667091895103498,-0.702195402145386
0.455151515151515,-2.65513053388596,3.5460349511146503,0.255812410354614
0.455757575757576,-0.23616080732345598,-1.7972536231040999,0.26060244941711397
0.456363636363636,0.31708870439529396,-1.41165547857285,0.6198553791046141
0.456969696969697,-1.02651725263596,2.3221799706459,0.181566804885864
0.457575757575758,-1.2181188151359599,-2.0032253027916,0.32047793769836397
0.458181818181818,-0.724744791698456,0.8348728417396549,-0.00045467948913552396
0.458787878787879,3.9191980793952896,-0.336291709041595,-1.04468319511414
0.459393939393939,1.57207893877029,-2.67622579107285,0.00433535957336448
0.46,-3.48620231122971,2.9640452050209003,1.23298037910461
0.460606060606061,-1.22051383466721,-0.520708212947845,0.37316836738586395
0.461212121212121,0.42965462236404395,-1.9074245215416,0.212702058792114
0.461818181818182,1.4164026692390401,3.0311057518959,0.131271394729614
0.462424242424242,-0.5331432291984559,-0.676384482479095,0.0282855548858645
0.463030303030303,-1.05525748701096,-0.611718955135345,-0.194451261520386
0.463636363636364,2.86778450517654,1.1318552636146502,-0.402817960739136
0.464242424242424,1.39724251298904,-1.7733034277916,0.459389070510864
0.464848484848485,-2.66231559247971,1.6946848534584,-0.6351348552703859
0.465454545454545,-1.15584830732346,0.231327919864655,0.334848054885864
0.466060606060606,1.4331678059577901,-1.82838887701035,0.531239656448364
0.466666666666667,0.9278186848640441,2.4802512597084,-0.27827694511413603
0.467272727272727,-1.32589469404221,0.207377724552155,0.564769929885864
0.467878787878788,-0.478057779979706,-0.9422316504478451,-1.0925835857391402
0.468484848484849,1.31581184892654,0.485199990177155,0.555189851760864
0.469090909090909,0.712266927051544,0.125947060489655,-0.49622372245788604
0.46969696969697,-0.43015738935470604,-0.535078330135345,-0.26630184745788604
0.47030303030303,-1.2612291666984599,0.176242470645905,0.32047793769836397
0.470909090909091,0.889498372364044,0.166662392520905,-0.632739835739136
0.471515151515151,0.817647786426544,0.00140604486465455,1.57307315254211
0.472121212121212,-0.899581217479706,1.6419944237709,-0.544124113082886
0.472727272727273,-2.3868883463859603,-0.628484091854095,0.365983308792114
0.473333333333333,-0.202630533885956,-0.147085166072845,-0.218401456832886
0.473939393939394,3.46174934892654,-1.43560567388535,-0.9967828044891359
0.474545454545455,1.00445930986404,-1.5457765723228498,-0.153735929489136
0.475151515151515,-1.9965001627922099,2.5233616112709,-0.273486906051636
0.475757575757576,-0.286456217479706,-0.695544638729095,1.30962100410461
0.476363636363636,-0.195445475292206,-1.1553883887290999,-0.163316007614136
0.476969696969697,-1.00975211591721,0.901933388614655,0.35400821113586395
0.477575757575758,-1.49115104169846,-0.33868672857284504,0.409093660354614
0.478181818181818,0.214102864551544,0.547470497989655,-1.18838436698914
0.478787878787879,4.3742517903327895,-1.3661501074790998,0.121691316604614
0.479393939393939,0.599701009082794,-1.0595876074791,-0.40521298027038605
0.48,-3.34010611982346,2.4084006737709003,0.112111238479614
0.480606060606061,-1.31152457685471,-1.6008620215415998,1.09167422676086
0.481212121212121,1.3900574543952902,-1.0595876074791,-0.0148247966766355
0.481818181818182,0.923028645801544,2.29583475580215,0.6797308673858641
0.482424242424242,-1.50791617841721,0.5929758690834049,-0.254326749801636
0.483030303030303,0.26918831377029395,-0.616508994197845,-0.37407772636413605
0.483636363636364,3.0713611653327897,-0.915886435604095,-0.237561613082886
0.484242424242424,-0.0876695963859558,0.0924167870521545,-0.36449764823913605
0.484848484848485,-2.70063590497971,1.5701438378334,0.34442813301086395
0.485454545454545,-0.308011393260956,-0.611718955135345,0.437833894729614
0.486060606060606,2.01755257158279,-0.985342002010345,0.0666058673858645
0.486666666666667,0.42725960283279396,1.1582004784584001,0.569559968948364
0.487272727272727,-2.00129020185471,0.571420693302155,0.612670320510864
0.487878787878788,-0.169100260448456,0.777392372989655,-0.671060148239136
0.488484848484848,1.95767708330154,-1.0691676856041,0.425858797073364
0.489090909090909,1.28707161455154,-0.40095723638534503,-0.769255949020386
0.48969696969697,-2.09709098310471,0.434904580020905,-0.113020597457886
0.49030303030303,-0.49242789716720603,0.0133811425209045,0.849777254104614
0.490909090909091,0.982904134082794,0.324733681583405,-0.5944195232391359
0.491515151515152,0.470369954395294,-0.31713155279159505,0.737211336135864
0.492121212121212,-1.2564391276359599,0.784577431583405,0.215097078323364
0.492727272727273,-2.06595572919846,0.475619912052155,-0.232771574020386
0.493333333333333,0.614071126270294,-1.3278297949790998,0.00433535957336448
0.493939393939394,2.6785779622077897,-1.5840968848228498,-1.16922421073914
0.494545454545455,-0.31998649091720605,0.264858193302155,0.5192645587921141
0.495151515151515,-1.84800895185471,1.9293967675209,-0.563284269332886
0.495757575757576,1.1505555012702902,-0.887146201229095,0.5216595783233641
0.496363636363636,0.0799817708015442,-1.6104420996666,0.844987215042114
0.496969696969697,-1.27559928388596,0.8731931542396549,-0.220796476364136
0.497575757575758,-2.44915885419846,1.10790506830215,0.775531648635864
0.498181818181818,1.4930432942390401,-0.240490927791595,-1.26502499198914
0.498787878787879,4.71434456377029,-2.5157594824791,-0.32857235527038603
0.499393939393939,-1.69233268232346,0.784577431583405,-0.898587003707886
0.5,-2.84194205732346,1.30429666986465,0.730026277542114
0.500606060606061,-0.0421642252922058,-1.48350606451035,1.23537539863586
0.501212121212121,0.882313313770294,0.149897255802155,-0.462693449020386
0.501818181818182,0.300323567676544,0.353473915958405,0.928812898635864
0.502424242424242,-1.7785533854484599,1.0863498925209,-1.24825985527039
0.503030303030303,1.1721106770515402,-0.0800246191978455,0.6030902423858641
0.503636363636364,2.94921516923904,-1.0739577246665999,0.0666058673858645
0.504242424242424,-1.02651725263596,0.327128701114655,-1.18119930839539
0.504848484848485,-2.25516227216721,0.980969033145905,0.40190860176086396
0.505454545454545,0.197337727832794,-0.0872096777915955,0.171986726760864
0.506060606060606,2.18759895830154,-0.422512412166595,0.5192645587921141
0.506666666666667,0.0248963215827942,-0.0943947363853455,0.35161319160461396
0.507272727272727,-2.24318717451096,1.0959299706459,0.387538484573364
0.507878787878788,-0.0397692057609558,0.243303017520905,0.169591707229614
0.508484848484849,2.3025598958015396,-0.9206764746665951,-0.6183697185516359
0.509090909090909,0.630836262989044,-0.060864462947845505,0.198331941604614
0.50969696969697,-1.54863151044846,0.147502236270905,-0.6159746990203859
0.51030303030303,-0.660079264354706,-0.0752345801353455,0.334848054885864
0.510909090909091,1.1984558918952901,0.27922831048965496,0.7036810626983641
0.511515151515151,0.43683968095779396,0.0397263573646545,-0.450718351364136
0.512121212121212,-2.6695006510734602,0.597765908145905,0.627040437698364
0.512727272727273,-1.75460319013596,0.9330686425209049,0.279762605667114
0.513333333333333,2.05587288408279,-1.6487624121666,-0.723750577926636
0.513939393939394,2.4965564778327898,-1.5146413184165999,-0.968042570114136
0.514545454545455,-1.05046744794846,0.803737587833405,0.054630769729614496
0.515151515151515,-1.18219352216721,0.949833779239655,0.35161319160461396
0.515757575757576,0.570960774707794,-0.223725791072845,0.44262393379211395
0.516363636363636,-0.17628531904220598,-0.975761923885345,0.176776765823364
0.516969696969697,-1.42169547529221,-0.034519248104095505,0.119296297073364
0.517575757575758,-2.39646842451096,1.5893039940834002,0.45220401191711396
0.518181818181818,2.6522327473640397,-0.362636923885345,-0.764465909957886
0.518787878787879,4.05092415361404,-2.4534889746666,-0.254326749801636
0.519393939393939,-1.6156920573234599,1.34261698236465,-0.884216886520386
0.52,-2.8898424479484603,0.719911904239655,0.988688386917114
0.520606060606061,0.197337727832794,-1.2320290137291,0.854567293167114
0.521212121212121,1.19606087236404,-0.008174033260345449,0.145641511917114
0.521818181818182,-0.121199869823456,0.44927469720840496,0.346823152542114
0.522424242424242,-1.75460319013596,1.4168625878334,0.131271394729614
0.523030303030303,1.38287239580154,0.137922158145905,0.174381746292114
0.523636363636364,3.2845179036140397,-2.46546407232285,-0.5560992107391359
0.524242424242424,-1.35702994794846,1.1582004784584001,-0.182476163864136
0.524848484848485,-2.8299669596672103,1.46715799798965,0.174381746292114
0.525454545454546,0.6452063801765441,-1.0404274512290999,0.46178409004211396
0.526060606060606,2.1133533528327897,0.35826395502090497,-0.273486906051636
0.526666666666667,-0.252925944042206,-0.343476767635345,-0.0890704021453855
0.527272727272727,-2.34856803388596,2.0683079003334,0.571954988479614
0.527878787878788,0.46557991533279397,1.1438303612709,0.346823152542114
0.528484848484848,3.66772102861404,-2.40319356451035,-0.762070890426636
0.529090909090909,-0.5930187174797059,0.121157021427155,0.0498407306671145
0.52969696969697,-2.5042443034172104,1.8120408104896502,-1.25783993339539
0.53030303030303,0.343433919239044,-1.71342793951035,1.29046084785461
0.530909090909091,1.63195442705154,1.4839231347084,-0.568074308395386
0.531515151515151,0.187757649707794,-0.362636923885345,-0.151340909957886
0.532121212121212,-2.37491324872971,-0.192590537166595,1.12520450019836
0.532727272727273,-1.7402330729484599,3.2801877831459,-0.47466854667663605
0.533333333333333,2.4893714192390397,-3.34683125982285,-0.0435650310516355
0.533939393939394,2.24747444658279,-1.9553249121665999,-1.5332671794891402
0.534545454545455,-1.6204820963859599,2.1449485253334,0.0881610431671145
0.535151515151515,-0.676844401073456,0.252883095645905,0.33005801582336397
0.535757575757576,0.422469563770294,-0.132715048885345,0.6390155353546141
0.536363636363636,-0.418182291698456,-1.07156270513535,0.564769929885864
0.536969696969697,-2.1473863932609603,-0.209355673885345,0.30131778144836396
0.537575757575758,-2.43957877607346,2.48743631830215,0.7396063556671141
0.538181818181818,3.33241829423904,-1.5960719824790999,-0.699800382614136
0.538787878787879,3.72520149736404,-2.93967793951035,-1.2003594646453901
0.539393939393939,-2.3533580729484602,2.20482401361465,0.346823152542114
0.54,-2.80122672529221,0.597765908145905,0.0953461017608645
0.540606060606061,0.714661946582794,-1.7828835059166,0.627040437698364
0.541212121212121,1.29904671220779,0.36784403314590497,0.32287295722961395
0.541818181818182,0.34582893877029397,-0.032124228572845505,-0.0339849529266355
0.542424242424242,-2.45873893232346,2.0251975487709,1.40542178535461
0.543030303030303,1.57686897783279,1.28513651361465,-1.41112118339539
0.543636363636364,3.8233972981452897,-5.37301778326034,0.241442293167114
0.544242424242424,-1.98692008466721,2.9640452050209003,-1.03031307792664
0.544848484848485,-3.2323302409172103,1.8671262597084002,0.727631258010864
0.545454545454545,1.21282600908279,-2.5013893652915997,0.425858797073364
0.546060606060606,2.6354676106452897,1.0336594628334002,-0.40760799980163603
0.546666666666667,-0.44931754560470605,-1.2559792090416,-0.11062557792663599
0.547272727272727,-3.03354361982346,1.7042649315834,-0.00763973808288552
0.547878787878788,0.432049641895294,1.9341868065834,1.48924746894836
0.548484848484848,3.98865364580154,-2.62353536138535,-1.18838436698914
0.549090909090909,-0.8900011393547059,-0.149480185604095,-0.247141691207886
0.54969696969697,-2.51861442060471,1.40488749017715,-0.7740459880828859
0.55030303030303,1.12900032548904,-1.6439723731040998,0.655780672073364
0.550909090909091,1.33976204423904,1.7521653222084002,0.26060244941711397
0.551515151515152,-0.387047037792206,-0.678779502010345,0.054630769729614496
0.552121212121212,-2.6096251627922102,-0.41772237310409505,0.6006952228546141
0.552727272727273,-2.3509630534172103,2.92332987298965,0.0809759845733645
0.553333333333333,3.06657112627029,-3.1384645606041,-0.242351652145386
0.553939393939394,2.4366809895515398,-2.06310079107285,-1.19317440605164
0.554545454545455,-1.7833434245109598,2.63592752923965,-0.35491757011413605
0.555151515151515,-0.693609537792206,-0.31952657232284504,0.6414105548858641
0.555757575757576,0.958953938770294,-0.142295127010345,0.876122468948364
0.556363636363636,-0.358306803417206,-0.714704794979095,0.0402606525421145
0.556969696969697,-1.94620475263596,-1.12904317388535,0.306107820510864
0.557575757575758,-2.87068229169846,3.19157206048965,0.315687898635864
0.558181818181818,3.48809456377029,-1.03324239263535,-1.02312801933289
0.558787878787879,4.25929085283279,-3.7276393652916,-0.6542950115203859
0.559393939393939,-2.81559684247971,2.8874045800209003,-0.960857511520386
0.56,-2.61202018232346,-0.30994649419784503,1.56109805488586
0.560606060606061,0.599701009082794,-0.805715537166595,0.207912019729614
0.561212121212121,1.20803597002029,0.980969033145905,0.315687898635864
0.561818181818182,0.0991419270515442,-1.0164772559166,0.0857660236358645
0.562424242424242,-2.48508414716721,2.1186033104896502,-0.378867765426636
0.563030303030303,1.4930432942390401,1.34740702142715,-0.00763973808288552
0.563636363636364,3.66532600908279,-2.9851833106041,-0.158525968551636
0.564242424242424,-1.65161735029221,1.5222434472084,-1.08300350761414
0.564848484848485,-2.6766857096672103,0.9713889550209049,0.40190860176086396
0.565454545454545,0.697896809864044,-0.951811728572845,0.44262393379211395
0.566060606060606,2.6785779622077897,1.1270652245521502,-0.532149015426636
0.566666666666667,-0.34154166669845604,-1.1817336035728498,-0.163316007614136
0.567272727272727,-2.9497179362297103,1.2923215722084,0.713261140823364
0.567878787878788,0.0536365559577942,1.87431131830215,0.727631258010864
0.568484848484848,3.49288460283279,-2.3912184668541,-1.14287899589539
0.569090909090909,0.27637337236404397,-0.34108174810409503,0.217492097854614
0.56969696969697,-2.42520865888596,1.4216526268959,-0.999177824020386
0.57030303030303,0.28834847002029396,-1.19131368169785,0.933602937698364
0.570909090909091,1.80439583330154,1.3785422753334,0.181566804885864
0.571515151515152,0.0248963215827942,-0.673989462947845,-0.0531451091766355
0.572121212121212,-2.5928600260734602,-0.197380576229095,0.830617097854614
0.572727272727273,-2.3533580729484602,3.00955057611465,0.32047793769836397
0.573333333333333,2.85101936845779,-2.14453145513535,-0.124995695114136
0.573939393939394,2.69773811845779,-2.6690407324791,-1.18598934745789
0.574545454545455,-2.1881017252922104,1.88389139642715,-0.824341398239136
0.575151515151515,-0.8277306315422059,0.27204325189590495,0.971923250198364
0.575757575757576,0.697896809864044,0.327128701114655,0.258207429885864
0.576363636363636,0.115907063770294,-0.729074912166595,-0.0244048748016355
0.576969696969697,-1.60850699872971,-1.1649684668540998,0.44980899238586397
0.577575757575758,-2.96408805341721,2.4227707909584,0.160011629104614
0.578181818181818,3.35636848955154,-1.1266481543540998,-0.419583097457886
0.578787878787879,4.2209705403327895,-2.5947951270103498,-1.18598934745789
0.579393939393939,-2.49466422529221,2.1401584862709,0.777926668167114
0.58,-3.09102408857346,0.506755165958405,0.548004793167114
0.580606060606061,0.103931966114044,-1.60804708013535,0.36358828926086395
0.581212121212121,1.94330696611404,0.236117958927155,0.38993350410461397
0.581818181818182,-0.0828795573234558,-0.056074423885345503,0.227072175979614
0.582424242424242,-2.8323619791984602,1.9749021386146501,0.516869539260864
0.583030303030303,1.46669807939529,0.628901162052155,0.0929510822296145
0.583636363636364,3.36594856767654,-2.76723653326035,-0.46508846855163605
0.584242424242424,-1.4360655924797099,1.3282468651771502,-0.759675870895386
0.584848484848485,-3.08383902997971,0.9115134667396549,0.104926179885864
0.585454545454545,1.34215706377029,-1.23921407232285,0.193541902542114
0.586060606060606,2.40075569658279,0.765417275333405,0.48333926582336395
0.586666666666667,-0.585833658885956,-0.630879111385345,-0.527358976364136
0.587272727272727,-3.0886290690422102,0.918698525333405,0.8018768634796141
0.587878787878788,-0.193050455760956,2.8299241112709,0.46417910957336395
0.588484848484848,3.67251106767654,-2.9181227637291,-0.8171563396453859
0.589090909090909,0.372174153614044,-0.865591025447845,-0.45550839042663605
0.58969696969697,-2.70542594404221,1.98448221673965,-0.139365812301636
0.59030303030303,-0.49961295576095605,-0.891936240291595,0.0761859455108645
0.590909090909091,1.70380501298904,0.8923533104896549,0.224677156448364
0.591515151515152,0.652391438770294,-0.38898213872909504,0.48333926582336395
0.592121212121212,-2.57609488935471,-0.355451865291595,-0.323782316207886
0.592727272727273,-2.1473863932609603,2.6646677636146503,0.528844636917114
0.593333333333333,2.59714729814529,-2.0822609473228497,-0.46748348808288603
0.593939393939394,2.57319710283279,-3.13127950201035,-0.8961919841766359
0.594545454545455,-2.2072618815422103,2.4371409081459,-0.390842863082886
0.595151515151515,-1.53426139326096,0.394189247989655,0.157616609573364
0.595757575757576,1.8139759114265401,-0.887146201229095,1.55630801582336
0.596363636363636,0.0512415364265442,-0.0632594824790955,-0.6135796794891359
0.596969696969697,-2.40844352216721,-1.2128688574791,0.016310457229614498
0.597575757575758,-2.86828727216721,2.3988205956459,0.897677644729614
0.598181818181818,2.76719368486404,-0.247675986385345,-1.4518365154266402
0.598787878787879,4.85086067705154,-4.09407735357285,-0.680640226364136
0.599393939393939,-2.52579947919846,2.83231913080215,-1.0806084880828901
0.6,-3.1053942057609603,0.11397196283340501,1.00784854316711
0.600606060606061,0.535035481739044,-1.5457765723228498,0.6821258869171141
0.601212121212121,1.71817513017654,0.803737587833405,0.0139154376983645
0.601818181818182,0.0033411458015441997,-0.906306357479095,0.131271394729614
0.602424242424242,-2.8658922526359603,2.24793436517715,0.00673037910461448
0.603030303030303,1.90977669267654,0.782182412052155,1.05095889472961
0.603636363636364,3.4042688801765397,-3.0402687598228497,-1.17161923027039
0.604242424242424,-1.5989269206047099,0.7342820214271549,-0.249536710739136
0.604848484848485,-3.14371451826096,1.28034647455215,0.0498407306671145
0.605454545454545,0.779327473926544,-0.956601767635345,-0.659085050582886
0.606060606060606,2.93245003252029,0.494780068302155,0.9623431720733641
0.606666666666667,-0.183470377635956,-0.8440358496665951,-0.45550839042663605
0.607272727272727,-3.29460074872971,1.1294602440834,0.179171785354614
0.607878787878788,-0.178680338573456,2.64071756830215,0.40190860176086396
0.608484848484849,3.77549690752029,-3.2055251074791,-0.280671964645386
0.609090909090909,0.563775716114044,-0.836850791072845,1.0054535236358602
0.60969696969697,-2.4371837565422103,2.5880271386146503,-1.1524590740203902
0.61030303030303,-0.123594889354706,-1.8786842871665999,0.947973054885864
0.610909090909091,1.43556282548904,1.14622538080215,1.1443646564483598
0.611515151515152,-0.147545084667206,-0.21893575201034499,-0.6135796794891359
0.612121212121212,-2.4204186198234603,-0.956601767635345,0.557584871292114
0.612727272727273,-2.10667106122971,3.9795334862709,0.030680574417114498
0.613333333333333,2.71689827470779,-2.63311543951035,0.128876375198364
0.613939393939394,3.4042688801765397,-2.9708131934165998,-1.14527401542664
0.614545454545455,-2.72458610029221,2.42995584955215,-0.36689266777038604
0.615151515151515,-1.27080924482346,-0.111159873104095,0.617460359573364
0.615757575757576,1.28228157548904,-0.228515830135345,0.691705965042114
0.616363636363636,0.27637337236404397,0.101996865177155,0.109716218948364
0.616969696969697,-1.8767491862297099,-1.55056661138535,0.0761859455108645
0.617575757575758,-3.26107047529221,2.1976389550209,0.133666414260864
0.618181818181818,3.09052132158279,-0.573398642635345,-0.6734551677703859
0.618787878787879,4.42454720048904,-3.69171407232285,-0.180081144332886
0.619393939393939,-2.43957877607346,2.9975754784584,-1.0327080974578902
0.62,-2.73177115888596,-0.056074423885345503,0.933602937698364
0.620606060606061,0.451209798145294,-1.9409547949791,0.46417910957336395
0.621212121212121,1.45711800127029,0.844452919864655,-0.175291105270386
0.621818181818182,-0.0685094401359558,-0.44646260747909505,0.6438055744171141
0.622424242424242,-2.92816276044846,3.15804178705215,-0.419583097457886
0.623030303030303,2.2498694661140397,-0.808110556697845,0.571954988479614
0.623636363636364,4.2209705403327895,-3.3731764746665998,-1.5596123943328901
0.624242424242424,-2.59765006513596,2.48743631830215,0.399513582229614
0.624848484848485,-2.69105582685471,1.0288694237709002,0.545609773635864
0.625454545454545,0.709871907520294,-2.02957051763535,-0.242351652145386
0.626060606060606,2.4989514973640397,1.4839231347084,0.169591707229614
0.626666666666667,-0.164310221385956,-1.5146413184165999,-0.438743253707886
0.627272727272727,-3.04791373701096,0.842057900333405,0.46178409004211396
0.627878787878788,0.41767952470779396,2.8706394433021503,0.732421297073364
0.628484848484849,3.6102405598640397,-3.2151051856041,-0.6135796794891359
0.629090909090909,-0.839705729198456,0.0972068261146545,0.128876375198364
0.62969696969697,-2.45155387372971,1.2300510643959002,-0.850686613082886
0.63030303030303,0.8080677083015441,-1.9984352637290999,-0.0483550701141355
0.630909090909091,1.57926399736404,1.8575461815834,0.770741609573364
0.631515151515151,0.542220540332794,0.0732566308021545,-0.778836027145386
0.632121212121212,-3.76641959638596,-1.2703493262291,0.624645418167114
0.632727272727273,-1.5222862956047098,2.97123026361465,0.349218172073364
0.633333333333333,2.67139290361404,-2.8774074316978497,-0.330967374801636
0.633939393939394,2.08940315752029,-2.1612965918541,-1.25783993339539
0.634545454545455,-1.3426598307609598,2.5113865136146503,0.0594208087921145
0.635151515151515,-1.47199088544846,-0.312341513729095,0.212702058792114
0.635757575757576,1.34934212236404,0.34149881830215495,0.751581453323364
0.636363636363636,-0.226580729198456,-0.48957295904159503,0.488129304885864
0.636969696969697,-2.43478873701096,-1.43081563482285,-0.30462215995788605
0.637575757575758,-2.11864615888596,3.1125364159584,0.47136416816711396
0.638181818181818,2.7360584309577898,-0.925466513729095,-0.9129571208953859
0.638787878787879,4.56345833330154,-3.57675313482285,-0.187266202926636
0.639393939393939,-2.5234044596672103,2.4467209862709,0.40430362129211395
0.64,-3.05030875654221,-0.0991847754478455,1.17549991035461
0.640606060606061,1.02122444658279,-1.43560567388535,1.98022647285461
0.641212121212121,0.817647786426544,1.51026834955215,-0.7979961833953859
0.641818181818182,0.0344763997077942,-1.67989766607285,0.773136629104614
0.642424242424242,-2.03242545576096,2.28625467767715,0.188751863479614
0.643030303030303,1.44514290361404,1.3330369042396502,-0.259116788864136
0.643636363636364,3.50246468095779,-3.40431172857285,0.215097078323364
0.644242424242424,-1.89351432294846,1.9198166893959001,-1.29137020683289
0.644848484848485,-1.90548942060471,0.42771952142715497,0.895282625198364
0.645454545454546,0.736217122364044,-0.640459189510345,-0.0938604412078855
0.646060606060606,1.81158089189529,1.47673807611465,-0.302227140426636
0.646666666666667,0.132672200489044,-1.7828835059166,0.672545808792114
0.647272727272727,-3.26107047529221,1.99406229486465,-0.508198820114136
0.647878787878788,0.163807454395294,1.80246073236465,1.48924746894836
0.648484848484848,3.5000696614265396,-3.1672047949791,-0.647109952926636
0.649090909090909,-0.42057731122970604,0.7749973534584049,-0.999177824020386
0.64969696969697,-1.82405875654221,0.6744065331459049,0.718051179885864
0.65030303030303,-0.0253990885734558,-0.726679892635345,-0.5177788982391359
0.650909090909091,0.937398762989044,1.11748514642715,1.14675967597961
0.651515151515151,0.578145833301544,-0.8608009863853451,-0.311807218551636
0.652121212121212,-2.3102477213859602,-0.283601279354095,0.689310945510864
0.652727272727273,-1.9414147135734598,3.2634226464271503,0.428253816604614
0.653333333333333,2.2762146809577897,-2.35050313482285,-0.939302335739136
0.653939393939394,2.62109749345779,-2.84866719732285,-0.766860929489136
0.654545454545455,-1.70670279951096,1.9270017479896502,-1.12132382011414
0.655151515151515,-1.38577018232346,-0.197380576229095,0.835407136917114
0.655757575757576,1.1769007161140401,0.557050576114655,0.825827058792114
0.656363636363636,-0.051744303417205796,-0.657224326229095,-0.489038663864136
0.656969696969697,-1.98452506513596,-1.2703493262291,0.0785809650421145
0.657575757575758,-2.9257677409172103,2.5185715722084,0.617460359573364
0.658181818181818,2.9779554036140397,-0.791345419979095,-0.932117277145386
0.658787878787879,4.1275647786140395,-3.57675313482285,-0.532149015426636
0.659393939393939,-2.25995231122971,2.1521335839271503,-0.501013761520386
0.66,-3.0119884440422102,0.123552040958405,0.9431830158233641
0.660606060606061,0.678736653614044,-1.3038795996666,0.864147371292114
0.661212121212121,1.1984558918952901,0.561840615177155,0.0618158283233645
0.661818181818182,-0.238555826854706,-0.491967978572845,-0.148945890426636
0.662424242424242,-1.98213004560471,2.48743631830215,0.42106875801086396
0.663030303030303,1.07151985673904,0.36065897455215495,-0.903377042770386
0.663636363636364,4.17786018877029,-4.0102516699791,0.258207429885864
0.664242424242424,-1.98692008466721,2.00364237298965,-0.182476163864136
0.664848484848485,-2.86828727216721,1.3210618065834001,-0.5584942302703859
0.665454545454545,0.9637439778327941,-1.72300801763535,0.928812898635864
0.666060606060606,2.34806526689529,1.30908670892715,-0.5345440349578859
0.666666666666667,-0.31280143232345603,-1.1458083106041,-0.0148247966766355
0.667272727272727,-3.18682486982346,0.839662880802155,0.7827167072296141
0.667878787878788,0.796092610645294,2.4179807518959002,0.46417910957336395
0.668484848484848,3.2845179036140397,-2.88698750982285,-0.9536724529266359
0.669090909090909,-0.686424479198456,0.27922831048965496,-0.7333306560516359
0.66969696969697,-2.06595572919846,1.5222434472084,-0.29743710136413604
0.67030303030303,0.37696419267654396,-1.4044704199790998,0.49052432441711397
0.670909090909091,1.2918616536140402,1.5222434472084,0.574350008010864
0.671515151515152,0.532640462207794,-0.7051247168540951,-0.0267998943328855
0.672121212121212,-2.58806998701096,-0.151875205135345,0.325267976760864
0.672727272727273,-2.0372154948234598,3.3089280175209,0.31329287910461395
0.673333333333333,2.37441048173904,-2.70975606451035,-0.38844784355163603
0.673939393939394,2.39357063798904,-2.3984035254478497,-1.0973736248016401
0.674545454545455,-2.1449913737297104,2.4131907128334,-0.402817960739136
0.675151515151515,-1.15584830732346,0.00380106439590455,0.5240545978546141
0.675757575757576,1.88822151689529,0.228932900333405,0.797086824417114
0.676363636363636,-0.614573893260956,-0.5254982520103451,-0.0531451091766355
0.676969696969697,-2.2072618815422103,-1.35896504888535,-0.352522550582886
0.677575757575758,-2.2407921549797103,1.92221170892715,0.8785174884796141
0.678181818181818,2.53487679033279,-0.434487509822845,-1.30095028495789
0.678787878787879,4.09642952470779,-3.0402687598228497,-0.261511808395386
0.679393939393939,-2.1737316081047102,1.75456034173965,-0.663875089645386
0.68,-2.42281363935471,0.34868387689590497,0.150431550979614
0.680606060606061,0.0943518879890442,-1.24400411138535,1.3024359455108598
0.681212121212121,1.58644905595779,0.916303505802155,-0.505803800582886
0.681818181818182,-0.169100260448456,-0.8224806738853451,0.914442781448364
0.682424242424242,-2.3605431315422103,2.9041697167396503,-0.45550839042663605
0.683030303030303,1.63674446611404,-0.036914267635345506,0.45220401191711396
0.683636363636364,3.61263557939529,-3.0953542090416,-1.28418514823914
0.684242424242424,-1.79771354169846,1.56295877923965,0.054630769729614496
0.684848484848485,-2.7102159831047103,1.54379862298965,0.409093660354614
0.685454545454545,1.08828499345779,-1.1122780371666,0.145641511917114
0.686060606060606,2.2067591145515397,0.6360862206459049,0.167196687698364
0.686666666666667,-0.137965006542206,-1.00450215826035,-1.14527401542664
0.687272727272727,-2.40604850263596,0.494780068302155,1.3024359455108598
0.687878787878788,-0.26011100263595605,3.5819602440834,0.258207429885864
0.688484848484848,2.78395882158279,-2.8750124121666,-0.462693449020386
0.689090909090909,0.40809944658279396,-0.362636923885345,-0.5153838787078859
0.68969696969697,-2.2839025065422103,1.15580545892715,-0.6159746990203859
0.69030303030303,0.18296761064529402,-1.2799294043540999,0.119296297073364
0.690909090909091,1.45711800127029,2.0156174706459002,0.655780672073364
0.691515151515152,0.113512044239044,-0.733864951229095,0.49291934394836395
0.692121212121212,-2.2910875651359603,-0.482387900447845,0.0282855548858645
0.692727272727273,-1.96775992841721,2.6287424706459,0.9216278400421141
0.693333333333333,2.04150276689529,-1.7828835059166,-0.48424862480163605
0.693939393939394,2.7456385090827897,-2.26907247076035,-1.30095028495789
0.694545454545455,-1.3809801432609599,1.1965207909584001,-0.0028496990203855203
0.695151515151515,-1.61808707685471,1.0001291893959,-0.10583553886413599
0.695757575757576,0.6859217122077941,-0.168640341854095,0.9024676837921141
0.696363636363636,0.602096028614044,-1.04761250982285,-0.0411700115203855
0.696969696969697,-1.9366246745109599,-1.1745485449791,-0.180081144332886
0.697575757575758,-3.04791373701096,3.05266092767715,0.454599031448364
0.698181818181818,2.9587952473640398,-0.556633505916595,-0.280671964645386
0.698787878787879,4.76463997392654,-4.134792685604101,-1.15964413261414
0.699393939393939,-2.0683507487297104,2.2024289940834,-0.740515714645386
0.7,-3.09820914716721,0.7558371972084049,0.646200593948364
0.700606060606061,0.518270345020294,-1.59846700201035,1.1228094806671098
0.701212121212121,1.3780823567390401,0.8755881737709049,-0.453113370895386
0.701818181818182,-0.32238151044845603,-1.2032887793540998,-0.0914654216766355
0.702424242424242,-1.65161735029221,2.65508768548965,0.5192645587921141
0.703030303030303,0.949373860645294,1.0384495018959001,0.306107820510864
0.703636363636364,4.10361458330154,-3.5096925879478498,-1.4781817302703901
0.704242424242424,-1.4025353190422098,1.2013108300209001,-0.00524471855163552
0.704848484848485,-2.9928282877922103,1.8671262597084002,0.0211004962921145
0.705454545454545,0.7649573567390441,-1.7325880957603499,0.26299746894836395
0.706060606060606,2.1899939778327897,0.648061318302155,0.0857660236358645
0.706666666666667,0.37935921220779395,-0.913491416072845,-0.685430265426636
0.707272727272727,-3.0527037760734603,0.825292763614655,0.809061922073364
0.707878787878788,-0.31040641279220604,2.9927854393959,-0.251931730270386
0.708484848484848,3.8760877278327897,-4.01264668951035,0.210307039260864
0.709090909090909,0.130277180957794,0.964203896427155,-0.611184659957886
0.70969696969697,-3.0095934245109603,1.4072825097084,-0.199241300582886
0.71030303030303,0.676341634082794,-2.2762575293541,0.219887117385864
0.710909090909091,1.3517371418952902,1.66354959955215,0.612670320510864
0.711515151515152,0.503900227832794,-0.30036641607284503,0.0187054767608645
0.712121212121212,-2.0539806315422102,-0.729074912166595,0.365983308792114
0.712727272727273,-2.26234733076096,3.2730027245521502,-0.117810636520386
0.713333333333333,2.39117561845779,-2.6403004981041,-0.218401456832886
0.713939393939394,2.02952766923904,-2.8654323340416,-0.872241788864136
0.714545454545455,-1.7019127604484598,2.45869608392715,-1.4302813396453902
0.715151515151515,-1.1366881510734599,-0.673989462947845,0.9791083087921141
0.715757575757576,1.46430305986404,0.585790810489655,-0.230376554489136
0.716363636363636,-0.30322135419845603,-0.32671163091659505,0.104926179885864
0.716969696969697,-2.5665148112297103,-1.4044704199790998,0.112111238479614
0.717575757575758,-1.96057486982346,2.2694895409584,0.41388369941711395
0.718181818181818,2.3792005208015397,-0.5446584082603451,-0.860266691207886
0.718787878787879,4.14672493486404,-3.0666139746666,-0.7740459880828859
0.719393939393939,-1.74741813154221,1.7138450097084001,0.193541902542114
0.72,-2.85870719404221,0.48999002923965496,-0.146550870895386
0.720606060606061,0.139857259082794,-1.5290114356041,1.07730410957336
0.721212121212121,1.0308045247077902,0.691171669864655,-0.160920988082886
0.721818181818182,-0.0756944987297058,-0.671594443416595,0.239047273635864
0.722424242424242,-1.64682731122971,2.8251340722084,0.236652254104614
0.723030303030303,0.752982259082794,0.44927469720840496,-0.393237882614136
0.723636363636364,3.8138172200202898,-3.44742208013535,-0.393237882614136
0.724242424242424,-1.51270621747971,1.54379862298965,0.35161319160461396
0.724848484848485,-2.7892516276359602,1.7473752831459002,-0.651899991989136
0.725454545454545,0.8463880208015441,-1.6272072363853498,0.988688386917114
0.726060606060606,1.93851692705154,1.00731424798965,-0.283066984176636
0.726666666666667,0.30750862627029396,-1.1793385840416,-0.19684628105163599
0.727272727272727,-2.93534781904221,0.906723427677155,0.713261140823364
0.727878787878788,-0.456502604198456,3.2897678612709003,-0.34533749198913605
0.728484848484849,3.7132263997077897,-3.7156642676353497,-0.0531451091766355
0.729090909090909,0.39851936845779395,0.0493064354896545,-0.963252531051636
0.72969696969697,-2.98803824872971,1.71144999017715,0.0282855548858645
0.73030303030303,0.762562337207794,-1.7373781348228499,0.289342683792114
0.730909090909091,1.42837776689529,1.5461936425209002,0.935997957229614
0.731515151515152,0.235658040332794,-0.37940206060409504,-0.472273527145386
0.732121212121212,-2.44197379560471,-0.678779502010345,0.212702058792114
0.732727272727273,-2.21684195966721,3.3376682518959,1.19226504707336
0.733333333333333,2.41512581377029,-2.21159200201035,-0.431558195114136
0.733939393939394,1.41879768877029,-2.3768483496666,-1.1356939373016401
0.734545454545455,-1.03609733076096,1.9677170800209,-0.702195402145386
0.735151515151515,-0.17628531904220598,-0.262046103572845,0.718051179885864
0.735757575757576,0.30990364580154395,0.858823037052155,0.385143465042114
0.736363636363636,0.400914387989044,-0.422512412166595,0.45220401191711396
0.736969696969697,-1.90548942060471,-1.9720900488853499,0.485734285354614
0.737575757575758,-2.88026236982346,3.57477518548965,-0.5752593669891359
0.738181818181818,2.2259192708015396,-1.0452174902915998,-0.124995695114136
0.738787878787879,4.66883919267654,-3.7563795996666,-1.27460507011414
0.739393939393939,-1.53665641279221,2.4898313378334,-0.43634823417663604
0.74,-3.32334098310471,0.5738157128334049,0.730026277542114
0.740606060606061,0.580540852832794,-1.7349831152916,0.964738191604614
0.741212121212121,1.10505013017654,0.425324501895905,-0.548914152145386
0.741818181818182,-0.17628531904220598,-0.511128134822845,0.119296297073364
0.742424242424242,-2.11864615888596,2.00364237298965,1.18987002754211
0.743030303030303,1.36850227861404,1.3809372948646501,-0.769255949020386
0.743636363636364,3.17913704423904,-3.6509987402916,-0.172896085739136
0.744242424242424,-1.3426598307609598,1.0935349511146502,-0.0699102458953855
0.744848484848485,-2.39167838544846,1.1821506737709,-0.29743710136413604
0.745454545454545,0.563775716114044,-1.2895094824791,0.16240664863586401
0.746060606060606,2.3025598958015396,1.2061008690834,0.0426556720733645
0.746666666666667,-0.0397692057609558,-1.12425313482285,-0.49622372245788604
0.747272727272727,-2.83475699872971,0.540285439395905,0.7611615314483641
0.747878787878788,-0.6528942057609559,3.4622092675209,0.164801668167114
0.748484848484849,3.21985237627029,-2.4726491309166,0.107321199417114
0.749090909090909,0.508690266895294,-1.32543477544785,-0.508198820114136
0.74969696969697,-1.82884879560471,1.4599729393959,-1.34166561698914
0.75030303030303,-0.274481119823456,-1.16736348638535,0.624645418167114
0.750909090909091,0.889498372364044,1.4982932518959,0.0905560626983645
0.751515151515151,0.484740071582794,-0.709914755916595,0.102531160354614
0.752121212121212,-2.13301627607346,-0.8033205176353451,-0.0866753826141355
0.752727272727273,-2.4707140299797103,3.5484299706459,0.109716218948364
0.753333333333333,2.24747444658279,-1.9792751074791,0.054630769729614496
0.753939393939394,3.04022591142654,-2.9181227637291,-1.58835262870789
0.754545454545455,-1.90788444013596,1.44320780267715,-0.369287687301636
0.755151515151515,-0.973826822948456,0.255278115177155,0.5408197345733641
0.755757575757576,0.7841175129890441,0.33910379877090496,0.327662996292114
0.756363636363636,0.37696419267654396,-0.49915303716659504,0.40190860176086396
0.756969696969697,-1.09118277997971,-1.46913594732285,-0.168106046676636
0.757575757575758,-3.19400992841721,2.3030198143959,0.32047793769836397
0.758181818181818,2.28100472002029,0.0229612206459046,-0.462693449020386
0.758787878787879,4.393411946582789,-3.6893190527915998,-0.6183697185516359
0.759393939393939,-1.50791617841721,1.6491794823646502,-0.0507500896453855
0.76,-2.76051139326096,0.8516379784584049,0.627040437698364
0.760606060606061,-0.336751627635956,-1.4236305762291,0.121691316604614
0.761212121212121,1.86666634111404,0.36065897455215495,0.677335847854614
0.761818181818182,0.494320149707794,-0.48957295904159503,-0.139365812301636
0.762424242424242,-2.16175651044846,1.6707346581459002,-0.31659725761413604
0.763030303030303,0.441629720020294,1.0623996972084,0.909652742385864
0.763636363636364,3.60545052080154,-2.8127419043541,-0.929722257614136
0.764242424242424,-0.925926432323456,0.624111122989655,-0.232771574020386
0.764848484848485,-2.48508414716721,1.6611545800209,-0.28785702323913603
0.765454545454545,0.556590657520294,-1.7014528418541,0.155221590042114
0.766060606060606,2.3528553059577897,1.1270652245521502,0.318082918167114
0.766666666666667,0.34582893877029397,-1.31585469732285,-0.0651202068328855
0.767272727272727,-2.31264274091721,-0.0177541113853454,0.205517000198364
0.767878787878788,-0.9714318034172059,2.83231913080215,1.30962100410461
0.768484848484848,3.15279182939529,-1.8882643652916,-0.929722257614136
0.769090909090909,0.8847083333015441,-1.29190450201035,0.0402606525421145
0.76969696969697,-2.3006676432609603,2.01322245111465,-1.11653378105164
0.77030303030303,-0.114014811229706,-1.4236305762291,0.289342683792114
0.770909090909091,0.712266927051544,0.968993935489655,0.574350008010864
0.771515151515151,0.9852991536140441,0.305573525333405,-0.10344051933288599
0.772121212121212,-2.5042443034172104,-1.0883278418540998,0.425858797073364
0.772727272727273,-2.7197960612297103,3.36880350580215,-0.216006437301636
0.773333333333333,2.04150276689529,-1.9936452246665999,0.478549226760864
0.773939393939394,2.63307259111404,-2.6259303809166,-1.56200741386414
0.774545454545455,-0.983406901073456,1.3593821190834001,0.289342683792114
0.775151515151515,-1.20374869794846,0.37023905267715496,0.0474457111358645
0.775757575757576,1.02122444658279,0.31754862298965497,0.8425921955108641
0.776363636363636,-0.377466959667206,-0.484782919979095,0.246232332229614
0.776969696969697,-1.46720084638596,-1.88586934576035,0.0187054767608645
0.777575757575758,-3.0958141276359603,2.88021952142715,0.7611615314483641
0.778181818181818,1.32778694658279,0.475619912052155,-1.07342342948914
0.778787878787879,5.4184803059577895,-3.90726583013535,-0.8554766521453859
0.779393939393939,-1.37379508466721,1.5414036034584,-0.8363164958953859
0.78,-3.1485045573234602,1.02647440423965,0.425858797073364
0.780606060606061,-0.664869303417206,-2.1325563574790998,0.957553133010864
0.781212121212121,1.57926399736404,0.683986611270905,-0.182476163864136
0.781818181818182,0.6452063801765441,-0.539868369197845,0.6390155353546141
0.782424242424242,-2.5401695963859603,2.25751444330215,-0.101045499801636
0.783030303030303,0.901473470020294,1.74977030267715,0.31089785957336397
0.783636363636364,3.8066321614265397,-4.194668173885351,-0.544124113082886
0.784242424242424,-0.822940592479706,1.20370584955215,-0.302227140426636
0.784848484848485,-3.1125792643547103,2.2287742089271503,0.706076082229614
0.785454545454545,0.494320149707794,-1.47871602544785,-0.37407772636413605
0.786060606060606,2.50853157548904,0.849242958927155,0.124086336135864
0.786666666666667,0.422469563770294,-1.1745485449791,0.0570257892608645
0.787272727272727,-2.9425328776359603,0.540285439395905,-0.563284269332886
0.787878787878788,-0.154730143260956,2.3173899315834,1.26890567207336
0.788484848484848,3.8066321614265397,-1.9457448340416,-0.845896574020386
0.789090909090909,-0.152335123729706,-0.815295615291595,-0.43634823417663604
0.78969696969697,-1.7234679362297098,1.75456034173965,-0.759675870895386
0.79030303030303,-0.243345865917206,-1.91460958013535,0.36358828926086395
0.790909090909091,1.54333870439529,1.4168625878334,0.864147371292114
0.791515151515152,0.42965462236404395,0.00140604486465455,0.286947664260864
0.792121212121212,-2.56172477216721,-1.12904317388535,0.0570257892608645
0.792727272727273,-1.86237906904221,3.6107004784584,-0.0555401287078855
0.793333333333333,1.63674446611404,-2.5636598731041,0.188751863479614
0.793939393939394,2.4726062825202897,-2.40798360357285,-1.72726376152039
0.794545454545455,-0.760670084667206,1.42404764642715,0.286947664260864
0.795151515151515,-1.19416861982346,0.415744423770905,-0.235166593551636
0.795757575757576,0.980509114551544,0.33191874017715495,0.8425921955108641
0.796363636363636,-0.0421642252922058,-0.46083272466659503,-0.261511808395386
0.796969696969697,-2.53777457685471,-1.6535524512291,-0.165711027145386
0.797575757575758,-2.29827262372971,2.46348612298965,0.569559968948364
0.798181818181818,2.07263802080154,0.0373313378334045,-0.247141691207886
0.798787878787879,4.11558968095779,-3.48574239263535,-1.1141387615203902
0.799393939393939,-0.681634440135956,1.3066916893959002,-0.10583553886413599
0.8,-3.0622838541984603,0.6528513573646549,0.912047761917114
0.800606060606061,-0.576253580760956,-0.41772237310409505,-0.323782316207886
0.801212121212121,1.18648079423904,-0.178220419979095,1.0365887775421099
0.801818181818182,0.556590657520294,-0.872776084041595,-0.48424862480163605
0.802424242424242,-1.60132194013596,2.14734354486465,-0.0603301677703855
0.803030303030303,0.482345052051544,1.20370584955215,0.576745027542114
0.803636363636364,3.4306140950202897,-2.38882344732285,-0.0699102458953855
0.804242424242424,-0.7510900065422059,0.133132119083405,-0.589629484176636
0.804848484848485,-2.46831901044846,1.39530741205215,-0.441138273239136
0.805454545454545,0.0560315754890442,-0.616508994197845,0.598300203323364
0.806060606060606,2.61391243486404,0.830082802677155,-0.491433683395386
0.806666666666667,0.7266370442390441,-1.07156270513535,0.157616609573364
0.807272727272727,-2.8323619791984602,0.549865517520905,-0.0459600505828855
0.807878787878788,-0.813360514354706,2.5473118065834,0.9383929767608641
0.808484848484848,3.0450159504890397,-1.6391823340415999,-0.362102628707886
0.809090909090909,0.832017903614044,-1.2463991309165998,-0.560889249801636
0.80969696969697,-1.55102652997971,1.4503928612709,0.0019403400421144801
0.81030303030303,-0.487637858104706,-0.654829306697845,0.160011629104614
0.810909090909091,1.12900032548904,0.856428017520905,-0.115415616989136
0.811515151515152,0.882313313770294,0.0205662011146546,0.478549226760864
0.812121212121212,-2.2336070963859602,-1.51703633794785,0.605485261917114
0.812727272727273,-2.43957877607346,3.1963620995521502,0.236652254104614
0.813333333333333,1.12181526689529,-0.867986044979095,0.36358828926086395
0.813939393939394,3.3036780598640396,-3.3683864356041,-2.00269100761414
0.814545454545455,-1.23488395185471,0.844452919864655,-0.41718807792663604
0.815151515151515,-1.93183463544846,1.1486204003334002,0.131271394729614
0.815757575757576,0.889498372364044,-0.0536794043540955,0.909652742385864
0.816363636363636,0.202127766895294,-0.321921591854095,0.200726961135864
0.816969696969697,-1.26841422529221,-1.5793068457603499,-0.117810636520386
0.817575757575758,-2.84433707685471,1.6755246972084001,0.593510164260864
0.818181818181818,1.58884407548904,1.1055100487709,-0.522568937301636
0.818787878787879,5.0927576497077895,-3.7587746191978497,-0.7572808513641359
0.819393939393939,-1.11752799482346,1.16538553705215,-0.824341398239136
0.82,-3.32094596357346,1.15580545892715,0.46178409004211396
0.820606060606061,0.204522786426544,-1.8571291113853499,1.06772403144836
0.821212121212121,0.870338216114044,0.937858681583405,-0.223191495895386
0.821818181818182,0.8056726887702941,-0.760210166072845,0.0330755939483645
0.822424242424242,-1.99889518232346,1.7425852440834,0.512079500198364
0.823030303030303,0.135067220020294,2.5089914940834,-0.0387749919891355
0.823636363636364,4.0078138020515395,-4.520390830135351,-0.340547452926636
0.824242424242424,-0.664869303417206,0.188217568302155,-0.249536710739136
0.824848484848485,-2.9592980143547103,3.00955057611465,0.6030902423858641
0.825454545454545,-0.0421642252922058,-2.0415456152916,0.0139154376983645
0.826060606060606,2.30495491533279,1.0983249901771501,-0.218401456832886
0.826666666666667,0.709871907520294,-1.2966945410728499,0.888097566604614
0.827272727272727,-2.5473546549797104,-0.032124228572845505,-1.01354794120789
0.827878787878788,-1.47199088544846,3.48855448236465,1.14675967597961
0.828484848484848,3.36834358720779,-1.9720900488853499,-0.6159746990203859
0.829090909090909,1.2966516926765401,-1.36375508794785,-0.410003019332886
0.82969696969697,-3.32094596357346,2.0587278222084002,0.239047273635864
0.83030303030303,-0.396627115917206,-1.3278297949790998,-0.812366300582886
0.830909090909091,1.9552820637702901,0.240907997989655,1.14196963691711
0.831515151515152,0.331458821582794,1.2563962792396501,-1.04228817558289
0.832121212121212,-2.07553580732346,-1.76611836919785,0.509684480667114
0.832727272727273,-2.4443688151359604,2.8107639550209003,0.47136416816711396
0.833333333333333,1.1122351887702902,-0.968576865291595,-0.393237882614136
0.833939393939394,2.53487679033279,-3.3564113379478497,-1.3536407146453902
0.834545454545455,-0.497217936229706,1.6611545800209,0.0761859455108645
0.835151515151515,-0.784620279979706,0.638481240177155,-0.28546200370788605
0.835757575757576,0.7457972004890441,-0.578188681697845,1.30483096504211
0.836363636363636,0.0608216145515442,0.691171669864655,-0.273486906051636
0.836969696969697,-0.715164713573456,-2.1181862402916,-0.0699102458953855
0.837575757575758,-2.91139762372971,1.95095194330215,0.31089785957336397
0.838181818181818,1.24635628252029,1.1534104393959002,-0.5560992107391359
0.838787878787879,5.02809212236404,-3.9288210059165998,0.339638093948364
0.839393939393939,-0.640919108104706,1.5174534081459001,-1.90689022636414
0.84,-3.10060416669846,0.724701943302155,0.409093660354614
0.840606060606061,-0.0493492838859558,-1.2583742285728499,0.909652742385864
0.841212121212121,1.0571497395515401,0.849242958927155,-0.175291105270386
0.841818181818182,0.614071126270294,-1.2176588965416,0.6414105548858641
0.842424242424242,-1.7186778971672099,1.75935038080215,0.0426556720733645
0.843030303030303,0.012921223926544202,2.37247538080215,-0.124995695114136
0.843636363636364,4.03176399736404,-4.0533620215415995,-0.429163175582886
0.844242424242424,-0.763065104198456,0.710331826114655,-1.2602349529266401
0.844848484848485,-3.0287535807609602,2.00843241205215,1.12041446113586
0.845454545454545,0.36977913408279395,-1.36375508794785,-0.0124297771453855
0.846060606060606,2.03671272783279,1.0528196190834,0.0139154376983645
0.846666666666667,0.5494055989265441,-0.736259970760345,-0.771650968551636
0.847272727272727,-1.9150694987297099,-0.391377158260345,-0.259116788864136
0.847878787878788,-1.4576207682609599,3.02871073236465,1.78622989082336
0.848484848484849,2.87017952470779,-0.913491416072845,-1.11653378105164
0.849090909090909,1.2152210286140401,-2.5444997168540997,0.7994818439483641
0.84969696969697,-2.5138243815422103,2.1401584862709,-1.69852352714539
0.85030303030303,-0.24095084638595599,-1.0787477637290999,0.6414105548858641
0.850909090909091,1.61997932939529,0.41813944330215497,1.01503360176086
0.851515151515152,1.1170252278327901,1.74498026361465,-2.04819637870789
0.852121212121212,-2.25516227216721,-2.8223219824791,1.6568988361358599
0.852727272727273,-2.69584586591721,3.05266092767715,-0.443533292770386
0.853333333333333,1.1122351887702902,-0.149480185604095,0.667755769729614
0.853939393939394,3.09291634111404,-3.4498170996665998,-1.37280087089539
0.854545454545454,-0.6912145182609559,1.5773288964271501,-1.0806084880828901
0.855151515151515,-1.26362418622971,-0.120739951229095,1.08927920722961
0.855757575757576,0.8679431965827941,-0.26683614263534505,0.246232332229614
0.856363636363636,0.0009461262702941991,0.240907997989655,0.988688386917114
0.856969696969697,-1.63245719404221,-1.28232442388535,-0.891401945114136
0.857575757575758,-2.48268912763596,1.31387674798965,0.193541902542114
0.858181818181818,1.04756966142654,1.38572733392715,-0.28546200370788605
0.858787878787879,4.59459358720779,-3.68692403326035,-0.7956011638641359
0.859393939393939,0.25721321611404396,0.00859110345840455,-0.189661222457886
0.86,-3.89335563154221,2.0683079003334,-0.565679288864136
0.860606060606061,0.0919568684577942,-1.4715309668541,1.58744326972961
0.861212121212121,1.06433479814529,0.36784403314590497,0.191146883010864
0.861818181818182,0.721847005176544,-0.9039113379478451,-0.721355558395386
0.862424242424242,-1.8384288737297099,0.5738157128334049,0.9815033283233641
0.863030303030303,-0.715164713573456,3.35922342767715,-0.7165655193328859
0.863636363636364,4.1275647786140395,-3.3899416113853498,0.176776765823364
0.864242424242424,0.120697102832794,-0.48717793951034505,-0.781231046676636
0.864848484848485,-3.21796012372971,2.8347141503334,-0.208821378707886
0.865454545454545,-0.0948546549797058,-1.64157735357285,0.6988910236358641
0.866060606060606,2.05587288408279,0.8133176659584049,-0.33575741386413605
0.866666666666667,0.8463880208015441,-0.42730245122909505,0.368378328323364
0.867272727272727,-2.1282262370109604,0.236117958927155,-0.49382870292663605
0.867878787878788,-2.16894156904221,2.7628635643959,1.35512637519836
0.868484848484849,2.99951057939529,-1.1386232520103499,-0.927327238082886
0.869090909090909,1.21761604814529,-1.99604024419785,-0.223191495895386
0.86969696969697,-2.3341979166984603,2.44432596673965,-0.565679288864136
0.87030303030303,-0.0445592448234558,-1.0595876074791,0.00673037910461448
0.870909090909091,1.56728889970779,0.28162333002090495,0.47375918769836395
0.871515151515151,0.537430501270294,0.8516379784584049,-0.158525968551636
0.872121212121212,-1.7354430338859599,-2.1373463965416,0.406698640823364
0.872727272727273,-2.7868566081047104,3.6633909081459,0.47375918769836395
0.873333333333333,0.0680066731452942,0.0253562401771546,0.28215762519836396
0.873939393939394,3.9958387043952897,-4.13239766607285,-1.57398251152039
0.874545454545455,-0.30322135419845603,0.650456337833405,-0.25672176933288604
0.875151515151515,-2.17852164716721,1.14622538080215,-0.498618741989136
0.875757575757576,0.793697591114044,-0.47999288091659503,0.952763093948364
0.876363636363636,0.44881477861404395,0.681591591739655,0.0905560626983645
0.876969696969697,-1.28517936201096,-1.9864601660728498,-0.39563290214538605
0.877575757575758,-2.68147574872971,0.6528513573646549,0.610275300979614
0.878181818181818,0.9445838215827941,1.7330051659584,-0.512988859176636
0.878787878787879,4.12995979814529,-3.34683125982285,-0.831526456832886
0.879393939393939,0.300323567676544,0.31036356439590496,-0.27588192558288605
0.88,-3.47422721357346,1.46715799798965,0.0570257892608645
0.880606060606061,-1.18219352216721,-1.2895094824791,-0.292647062301636
0.881212121212121,1.84032112627029,-0.0488893652915955,1.07251407051086
0.881818181818182,0.570960774707794,-0.28120625982284503,-0.702195402145386
0.882424242424242,-1.56300162763596,1.0767698143959001,0.155221590042114
0.883030303030303,-0.8301256510734559,2.8011838768959,0.385143465042114
0.883636363636364,3.91201302080154,-3.13606954107285,-0.5153838787078859
0.884242424242424,0.937398762989044,-1.6008620215415998,0.265392488479614
0.884848484848485,-3.78557975263596,3.5125046776771502,-1.1907793865203902
0.885454545454545,0.0751917317390442,-1.0260573340416,1.33357119941711
0.886060606060606,1.85948128252029,0.463644814395905,-0.144155851364136
0.886666666666667,1.02361946611404,-0.28839131841659504,-0.31420223808288605
0.887272727272727,-2.01805533857346,-0.513523154354095,0.36358828926086395
0.887878787878788,-1.35463492841721,2.3652903222084003,-0.378867765426636
0.888484848484848,2.98993050127029,-1.36854512701035,0.397118562698364
0.889090909090909,1.34934212236404,-0.30036641607284503,-0.43395321464538605
0.88969696969697,-2.14978141279221,1.4312327050209002,-0.400422941207886
0.89030303030303,-1.46959586591721,-1.3326198340416,-0.0507500896453855
0.890909090909091,1.36131722002029,0.42053446283340495,0.636620515823364
0.891515151515151,1.90977669267654,0.315153603458405,0.631830476760864
0.892121212121212,-1.98452506513596,0.0828367089271545,0.16240664863586401
0.892727272727273,-2.3341979166984603,2.4131907128334,0.243837312698364
0.893333333333333,1.08109993486404,-2.3960085059166,0.650990633010864
0.893939393939394,1.91456673173904,-1.28711446294785,-2.0505913982391397
0.894545454545455,-0.45171256513595603,0.719911904239655,-0.0459600505828855
0.895151515151515,-1.26841422529221,0.193007607364655,0.205517000198364
0.895757575757576,0.9852991536140441,0.868403115177155,0.385143465042114
0.896363636363636,0.5446155598640441,-0.812900595760345,0.9192328205108641
0.896969696969697,-2.0611656901359603,-1.1314381934166,-1.05665829277039
0.897575757575758,-2.2144469401359603,1.9150266503334001,0.770741609573364
0.898181818181818,0.135067220020294,0.0804416893959045,-0.505803800582886
0.898787878787879,4.30240120439529,-2.70017598638535,-0.745305753707886
0.899393939393939,0.45599983720779397,0.763022255802155,0.217492097854614
0.9,-3.2754405924797103,0.660036415958405,-0.5153838787078859
0.900606060606061,-0.293641276073456,-0.729074912166595,0.751581453323364
0.901212121212121,1.0523597004890402,0.0780466698646545,0.215097078323364
0.901818181818182,0.353013997364044,-0.650039267635345,0.0498407306671145
0.902424242424242,-2.22642203779221,1.6898948143959,0.253417390823364
0.903030303030303,0.0272913411140442,1.2300510643959002,-0.438743253707886
0.903636363636364,3.8162122395515397,-2.94925801763535,0.00912539863586448
0.904242424242424,-0.32956656904220605,0.9546238183021549,-0.599209562301636
0.904848484848485,-3.0024083659172103,1.26597635736465,-0.151340909957886
0.905454545454545,0.590120930957794,-0.846430869197845,0.435438875198364
0.906060606060606,1.44035286455154,0.137922158145905,-0.165711027145386
0.906666666666667,1.04517464189529,-0.9613918066978451,-0.469878507614136
0.907272727272727,-2.2312120768547103,0.588185830020905,0.684520906448364
0.907878787878788,-1.21093375654221,2.5904221581459,0.296527742385864
0.908484848484848,2.57319710283279,-1.28232442388535,-0.163316007614136
0.909090909090909,0.7074768879890441,-1.2320290137291,-0.323782316207886
0.90969696969697,-1.0983678385734599,0.590580849552155,-0.620764738082886
0.91030303030303,-0.406207194042206,-0.441672568416595,-0.0483550701141355
0.910909090909091,1.67506477861404,0.880378212833405,1.0629339923858598
0.911515151515152,0.681131673145294,0.422929482364655,0.308502840042114
0.912121212121212,-2.3677281901359604,-0.918281455135345,-0.283066984176636
0.912727272727273,-1.99410514326096,2.26709452142715,0.48094424629211396
0.913333333333333,0.5661707356452941,-0.190195517635345,0.0737909259796145
0.913939393939394,2.7815638020515396,-2.9540480566978498,-1.4781817302703901
0.914545454545455,0.226077962207794,-0.137505087947845,-0.479458585739136
0.915151515151515,-1.6037169596672098,1.06958475580215,0.34203311347961396
0.915757575757576,0.551800618457794,0.5546555565834049,0.844987215042114
0.916363636363636,-0.0589293620109558,-0.8033205176353451,-0.0148247966766355
0.916969696969697,-1.61329703779221,-2.2906276465416,0.016310457229614498
0.917575757575758,-2.0611656901359603,1.8192258690834,0.183961824417114
0.918181818181818,-0.0709044596672058,1.6515745018959,-0.11062557792663599
0.918787878787879,4.35269661455154,-3.6318385840416,-1.08300350761414
0.919393939393939,0.8439930012702941,-0.302761435604095,-0.36689266777038604
0.92,-3.6179283854484603,2.20003397455215,0.612670320510864
0.920606060606061,-0.40141715497970604,-0.8033205176353451,0.0713959064483645
0.921212121212121,1.4547229817390401,-0.36982198247909503,0.37316836738586395
0.921818181818182,0.48953011064529395,-0.42730245122909505,-0.508198820114136
0.922424242424242,-1.51989127607346,0.8348728417396549,0.528844636917114
0.923030303030303,-0.130779947948456,2.81794901361465,0.502499422073364
0.923636363636364,3.4809095051765397,-2.54689473638535,-0.786021085739136
0.924242424242424,0.159017415332794,-1.31106465826035,-0.29504208183288605
0.924848484848485,-2.69824088544846,2.3748704003334002,0.0809759845733645
0.925454545454545,-0.5283531901359559,-0.7626051856040951,0.0977411212921145
0.926060606060606,1.6894348958015402,0.353473915958405,0.030680574417114498
0.926666666666667,1.3780823567390401,-0.0225441504478454,-0.421978116989136
0.927272727272727,-1.86237906904221,-0.5039430762290951,0.935997957229614
0.927878787878788,-1.46001578779221,3.1412766503334,-0.460298429489136
0.928484848484848,3.08573128252029,-1.99604024419785,-0.134575773239136
0.929090909090909,1.3182068684577901,-0.870381064510345,0.0378656330108645
0.92969696969697,-2.52819449872971,2.29104471673965,-0.991992765426636
0.93030303030303,-0.267296061229706,-1.9385597754478499,0.5216595783233641
0.930909090909091,1.49064827470779,0.743862099552155,-0.0675152263641355
0.931515151515152,0.923028645801544,0.604950966739655,0.0618158283233645
0.932121212121212,-2.2934825846672102,-0.851220908260345,-0.227981534957886
0.932727272727273,-1.95338981122971,2.14255350580215,0.7036810626983641
0.933333333333333,1.1769007161140401,-0.197380576229095,0.26060244941711397
0.933939393939394,1.36371223955154,-2.3528981543541,-1.4135162029266402
0.934545454545455,0.120697102832794,-0.606928916072845,0.0282855548858645
0.935151515151515,-0.755880045604706,0.842057900333405,-0.342942472457886
0.935757575757576,0.113512044239044,0.650456337833405,1.2641156330108598
0.936363636363636,-0.0230040690422058,-0.25965108404159504,0.241442293167114
0.936969696969697,-1.10555289716721,-2.0726808691978498,0.181566804885864
0.937575757575758,-2.1809166666984603,1.3330369042396502,0.684520906448364
0.938181818181818,-0.205025553417206,1.3929123925209002,-0.944092374801636
0.938787878787879,4.60417366533279,-2.9708131934165998,-0.27827694511413603
0.939393939393939,1.10744514970779,0.303178505802155,-0.730935636520386
0.94,-3.79515983076096,1.3354319237709,-0.029194913864135502
0.940606060606061,-0.123594889354706,-1.4954811621666,1.49164248847961
0.941212121212121,1.43556282548904,-0.032124228572845505,0.730026277542114
0.941818181818182,-0.228975748729706,0.0493064354896545,-0.117810636520386
0.942424242424242,-1.0001720377922099,0.930673622989655,0.670150789260864
0.943030303030303,0.290743489551544,2.1521335839271503,0.236652254104614
0.943636363636364,3.0378308918952897,-2.47983418951035,-1.2937652263641402
0.944242424242424,0.6092810872077941,-0.767395224666595,0.107321199417114
0.944848484848485,-3.0622838541984603,2.45869608392715,-0.350127531051636
0.945454545454545,0.118302083301544,-0.798530478572845,0.356403230667114
0.946060606060606,1.84271614580154,0.40855936517715497,0.44022891426086397
0.946666666666667,0.978114095020294,-0.48957295904159503,-0.441138273239136
0.947272727272727,-2.02284537763596,0.14510721673965501,0.349218172073364
0.947878787878788,-1.1797985026359599,2.0443577050209,0.0019403400421144801
0.948484848484848,2.98753548173904,-1.6008620215415998,-0.0866753826141355
0.949090909090909,0.360199055957794,0.106786904239655,-0.218401456832886
0.94969696969697,-1.27320426435471,0.473224892520905,-0.0627251873016355
0.95030303030303,-0.777435221385956,-1.4619508887291,-0.764465909957886
0.950909090909091,0.891893391895294,1.16538553705215,0.334848054885864
0.951515151515152,1.12421028642654,0.387004189395905,0.286947664260864
0.952121212121212,-2.00847526044846,-0.678779502010345,-0.0435650310516355
0.952727272727273,-2.61441520185471,2.7963938378334,-0.0220098552703855
0.953333333333333,1.36371223955154,-1.17215352544785,-0.0818853435516355
0.953939393939394,1.91935677080154,-2.28823262701035,-1.05665829277039
0.954545454545455,-0.28166617841720604,0.923488564395905,-1.64583309745789
0.955151515151515,-1.32828971357346,-0.592558798885345,1.1347845783233599
0.955757575757576,0.7050818684577941,1.3450120018959,0.5432147541046141
0.956363636363636,0.223682942676544,-0.9805519629478451,-0.148945890426636
0.956969696969697,-1.8983043620109599,-1.6176271582603499,-0.402817960739136
0.957575757575758,-1.97015494794846,1.79288065423965,0.751581453323364
0.958181818181818,0.6092810872077941,0.166662392520905,-0.235166593551636
0.958787878787879,3.86890266923904,-2.0319655371666,-1.48057674980164
0.959393939393939,0.683526692676544,-0.28839131841659504,0.0642108478546145
0.96,-2.2336070963859602,0.880378212833405,-0.299832120895386
0.960606060606061,-0.739114908885956,-0.36742696294784505,1.11083438301086
0.961212121212121,0.752982259082794,-0.312341513729095,0.41388369941711395
0.961818181818182,1.0140393879890401,-0.611718955135345,0.0737909259796145
0.962424242424242,-1.78573844404221,1.9246067284584,0.112111238479614
0.963030303030303,0.103931966114044,0.583395790958405,0.536029695510864
0.963636363636364,2.8989197590827898,-2.1038161231041,-0.869846769332886
0.964242424242424,0.0201062825202942,0.133132119083405,-0.0124297771453855
0.964848484848485,-2.12343619794846,1.31866678705215,0.545609773635864
0.965454545454545,-0.5067980143547061,-0.032124228572845505,-0.139365812301636
0.966060606060606,1.7325452473640401,-0.101579794979095,0.22228213691711401
0.966666666666667,0.997274251270294,-0.925466513729095,-0.249536710739136
0.967272727272727,-1.57976676435471,0.157082314395905,0.624645418167114
0.967878787878788,-1.51510123701096,2.96165018548965,0.31329287910461395
0.968484848484849,2.1995740559577897,-0.551843466854095,0.174381746292114
0.969090909090909,1.10026009111404,-1.75174825201035,-0.148945890426636
0.96969696969697,-1.0816027018547099,0.717516884708405,-0.944092374801636
0.97030303030303,-0.566673502635956,-0.245280966854095,0.26299746894836395
0.970909090909091,0.9086585286140441,0.466039833927155,0.854567293167114
0.971515151515152,0.975719075489044,0.46843485345840497,0.114506258010864
0.972121212121212,-1.73783805341721,-0.700334677791595,0.131271394729614
0.972727272727273,-2.04679557294846,1.55337870111465,0.34442813301086395
0.973333333333333,0.47755501298904396,0.214562783145905,0.38035342597961397
0.973939393939394,2.2594495442390397,-2.1133962012291,-1.4733916912078902
0.974545454545454,0.7865125325202941,-0.745840048885345,-0.201636320114136
0.975151515151515,-1.42648551435471,0.918698525333405,0.0642108478546145
0.975757575757576,-0.0038439127922058,0.7941575097084049,-0.0603301677703855
0.976363636363636,0.101536946582794,-0.820085654354095,1.17549991035461
0.976969696969697,-0.798990397167206,-1.1050929785728498,-0.251931730270386
0.977575757575758,-1.97734000654221,0.990549111270905,0.176776765823364
0.978181818181818,-0.346331705760956,1.2779514550209001,-0.192056241989136
0.978787878787879,3.2414075520515397,-2.5157594824791,-1.0710284099578902
0.979393939393939,1.64632454423904,-1.51224629888535,-0.249536710739136
0.98,-2.7629064127922103,2.04675272455215,0.0833710041046145
0.980606060606061,-1.73783805341721,-0.226120810604095,0.375563386917114
0.981212121212121,1.06433479814529,-0.8847511816978451,0.514474519729614
0.981818181818182,1.0523597004890402,-0.242885947322845,-0.120205656051636
0.982424242424242,-0.978616862010956,0.463644814395905,-0.0818853435516355
0.983030303030303,-0.806175455760956,2.5185715722084,0.502499422073364
0.983636363636364,2.04868782548904,-1.3134596777915999,-0.029194913864135502
0.984242424242424,1.38526741533279,-1.5385915137291,-0.706985441207886
0.984848484848485,-2.02524039716721,1.6372043847084001,0.26060244941711397
0.985454545454545,-1.43846061201096,0.056491494083404495,-0.47706356620788604
0.986060606060606,1.96725716142654,-0.34108174810409503,0.768346590042114
0.986666666666667,1.0523597004890402,0.133132119083405,-0.0315899333953855
0.987272727272727,-1.55102652997971,-0.709914755916595,-0.400422941207886
0.987878787878788,-2.00129020185471,1.92221170892715,0.797086824417114
0.988484848484849,1.37089729814529,0.37023905267715496,-0.199241300582886
0.989090909090909,2.0630579426765396,-2.13974141607285,-0.120205656051636
0.98969696969697,-1.00735709638596,1.1294602440834,-0.9967828044891359
0.99030303030303,-1.05046744794846,-0.130320029354095,-0.230376554489136
0.990909090909091,0.930213704395294,0.171452431583405,0.636620515823364
0.991515151515151,0.994879231739044,0.7917624901771549,-0.0315899333953855
0.992121212121212,-0.9881969401359559,-1.3733351660728499,0.229467195510864
0.992727272727273,-2.88505240888596,1.8982615136146501,0.514474519729614
0.993333333333333,-0.205025553417206,1.0767698143959001,-0.0842803630828855
0.993939393939394,3.30607307939529,-3.46658223638535,-0.321387296676636
0.994545454545455,0.6667615559577941,-0.29797139654159505,-1.23149471855164
0.995151515151515,-1.65401236982346,1.2252610253334,0.186356843948364
