Time (s),Accel X (m/s^2),Accel Y (m/s^2),Accel Z (m/s^2)
0.0,-0.197128724956512,0.137988021183014,-0.016433576202393097
0.000605693519079346,0.0759035016059875,-0.127859146785736,-0.105049298858643
0.00121138703815869,-0.0198972796440125,0.0876926110267639,-0.0882841621398931
0.00181708055723804,0.0926686383247375,-0.0919338538169861,0.103317400360107
0.00242277407631738,0.0040529156684875394,-0.17336451787948598,0.0506269706726069
0.00302846759539673,-0.0510325335502625,0.0972726891517639,-0.126604474639893
0.00363416111447607,0.0782985211372375,-0.0536135413169861,0.0170966972351069
0.00423985463355542,-0.132463197612762,-0.0536135413169861,0.153612810516357
0.00484554815263477,-0.0127122210502625,-0.0871438147544861,0.129662615203857
0.00545124167171411,-0.027082338237762498,0.0254221032142639,0.213488298797607
0.00605693519079346,-0.0390574358940125,0.14038304071426402,0.213488298797607
0.0066626287098728,0.162124204730988,-0.142229263973236,0.282943865203857
0.00726832222895215,0.116618833637238,-0.15420436162948598,0.165587908172607
0.0078740157480315,-0.161203431987762,-0.101513931941986,0.0194917167663569
0.00847970926711084,-0.0414524554252625,-0.170969498348236,-0.0379887519836431
0.00908540278619019,0.0615333844184875,-0.0871438147544861,0.32844923629760703
0.00969109630526953,-0.0534275530815125,-0.0416384436607361,0.282943865203857
0.0102967898243489,-0.101327943706512,-0.108698990535736,-0.160134748077393
0.0109024833434282,-0.0127122210502625,-0.300300553035736,-0.107444318389893
0.0115081768625076,-0.015107240581512499,-0.19252467412948598,-0.143369611358643
0.0121138703815869,0.00884295473098754,0.0158420250892639,0.129662615203857
0.0127195639006663,-0.0749827288627625,-0.0799587561607361,0.203908220672607
0.0133252574197456,-0.0390574358940125,-0.11588404912948601,0.220673357391357
0.013930950938825,-0.0175022601127625,-0.000923111629486085,0.266178728485107
0.0145366444579043,-0.11330304136276201,-0.19252467412948598,0.0865522636413569
0.0151423379769836,-0.106117982769012,-0.027268326473236102,0.0051215995788569
0.015748031496063,0.0495582867622375,0.133197982120514,0.0721821464538569
0.0163537250151423,0.00165789613723754,-0.0416384436607361,-0.0643339668273931
0.0169594185342217,-0.0797727679252625,-0.139834244441986,0.189538103485107
0.017565112053301,0.0663234234809875,-0.345805924129486,-0.0858891426086431
0.0181708055723804,-0.125278139019012,0.133197982120514,-0.184084943389893
0.0187764990914597,-0.0630076312065125,0.0326071618080139,0.223068376922607
0.0193821926105391,-0.0821677874565125,-0.180549576473236,0.309289080047607
0.0199878861296184,0.102248716449738,-0.103908951473236,0.103317400360107
0.0205935796486978,-0.0366624163627625,-0.156599381160736,-0.0068534980773931
0.0211992731677771,-0.14683331480026202,0.152358138370514,0.103317400360107
0.0218049666868564,0.00884295473098754,-0.012898209285736099,-0.07151902542114309
0.0224106602059358,0.231579771137238,0.111642806339264,0.033861833953856904
0.0230163537250151,0.0351881695747375,-0.0392434241294861,0.0961323417663569
0.0236220472440945,0.0208180523872375,-0.0847487952232361,0.134452654266357
0.0242277407631738,-0.0821677874565125,0.27450413446426397,0.144032732391357
0.0248334342822532,-0.0582175921440125,-0.0943288733482361,0.203908220672607
0.0254391278013325,-0.00552716245651246,-0.139834244441986,0.208698259735107
0.0260448213204119,-0.144438295269012,0.0709274743080139,0.115292498016357
0.0266505148394912,0.018423032855987502,-0.00331813116073608,0.21109327926635701
0.0272562083585706,-0.125278139019012,0.0134470055580139,0.270968767547607
0.0278619018776499,0.130988950824738,-0.0775637366294861,0.199118181610107
0.0284675953967293,-0.0318723773002625,0.0972726891517639,0.0889472831726069
0.0290732889158086,-0.149228334331512,0.0230270836830139,0.0937373222351069
0.0296789824348879,0.111828794574738,-0.0943288733482361,0.249413591766357
0.0302846759539673,-0.156413392925262,0.0206320641517639,0.153612810516357
0.0308903694730466,0.0591383648872375,0.0110519860267639,0.196723162078857
0.031496062992126,0.0040529156684875394,-0.0607985999107361,0.249413591766357
0.0321017565112053,-0.20670880308151202,0.0206320641517639,0.179958025360107
0.0327074500302847,-0.11090802183151201,0.0661374352455139,0.158402849578857
0.033313143549364,-0.223473939800262,-0.147019303035736,0.215883318328857
0.0339188370684434,0.07111346254348751,0.19067845087051402,-0.0954692207336431
0.0345245305875227,0.12380389223098799,0.00626194696426391,-0.030803693389893097
0.0351302241066021,-0.28813946714401195,-0.0368484045982361,0.0961323417663569
0.0357359176256814,-0.0198972796440125,0.00386692743301392,0.158402849578857
0.0363416111447607,-0.134858217144012,-0.0799587561607361,0.385929705047607
0.0369473046638401,-0.331249818706512,0.0326071618080139,0.366769548797607
0.0375529981829194,0.0423732281684875,-0.21407984991073598,0.232648455047607
0.0381586917019988,0.0399782086372375,-0.012898209285736099,0.335634294891357
0.0387643852210781,0.154939146137238,0.169123275089264,-0.0499638496398931
0.0393700787401575,0.178889341449738,-0.101513931941986,-0.0044584785461431
0.0399757722592368,-0.0989329241752625,0.126012923526764,0.167982927703857
0.0405814657783162,-0.0127122210502625,0.128407943058014,0.029071794891356903
0.0411871592973955,0.00884295473098754,0.0278171227455139,0.213488298797607
0.0417928528164749,-0.10851300230026201,0.0948776696205139,0.167982927703857
0.0423985463355542,-0.0534275530815125,-0.0416384436607361,0.278153826141357
0.0430042398546336,-0.28574444761276196,-0.0727736975669861,0.158402849578857
0.0436099333737129,-0.0246873187065125,-0.190129654598236,0.139242693328857
0.0442156268927922,-0.0989329241752625,0.128407943058014,0.0051215995788569
0.0448213204118716,0.00884295473098754,-0.0176882483482361,0.187143083953857
0.0454270139309509,0.221999693012238,-0.190129654598236,0.0745771659851069
0.0460327074500303,-0.0486375140190125,0.0613473961830139,-0.0092485176086431
0.0466384009691096,-0.11569806089401201,0.0924826500892639,0.239833513641357
0.047244094488189,0.0208180523872375,-0.0536135413169861,0.139242693328857
0.0478497880072683,0.21241961488723798,-0.123069107723236,0.242228533172607
0.0484554815263477,0.0830885601997375,-0.051218521785736104,0.194328142547607
0.049061175045427,0.0471632672309875,-0.06558863897323611,0.0458369316101069
0.0496668685645064,-0.0318723773002625,-0.000923111629486085,0.215883318328857
0.0502725620835857,-0.182758607769012,-0.0895388342857361,0.0554170097351069
0.050878255602665,-0.0582175921440125,-0.266770279598236,0.163192888641357
0.0514839491217444,0.207629575824738,-0.0560085608482361,0.32844923629760703
0.0520896426408237,0.186074400043488,0.116432845401764,0.215883318328857
0.0526953361599031,-0.11569806089401201,-0.0560085608482361,0.0554170097351069
0.0533010296789824,0.0543483258247375,-0.051218521785736104,0.208698259735107
0.0539067231980618,-0.0175022601127625,-0.0560085608482361,0.316474138641357
0.0545124167171411,-0.0246873187065125,0.116432845401764,0.266178728485107
0.0551181102362205,-0.122883119487762,0.0565573571205139,0.165587908172607
0.0557238037552998,-0.237844056987762,-0.0847487952232361,-0.0020634590148931
0.0563294972743792,-0.0677976702690125,0.0110519860267639,0.146427751922607
0.0569351907934585,0.0806935406684875,-0.0416384436607361,0.350004412078857
0.0575408843125379,-0.0654026507377625,0.00626194696426391,0.323659197235107
0.0581465778316172,-0.0941428851127625,0.0972726891517639,-0.018828595733643098
0.0587522713506965,-0.0294773577690125,0.00147190790176392,0.201513201141357
0.0593579648697759,-0.106117982769012,0.0781125329017639,0.165587908172607
0.0599636583888552,-0.11090802183151201,0.0924826500892639,0.0123066581726069
0.0605693519079346,-0.0749827288627625,-0.0751687170982361,0.0123066581726069
0.0611750454270139,0.0615333844184875,0.00626194696426391,0.237438494110107
0.0617807389460933,-0.00552716245651246,-0.0727736975669861,0.187143083953857
0.0623864324651726,0.142964048480988,-0.029663346004486103,0.0841572441101069
0.062992125984252,-0.00552716245651246,0.0326071618080139,0.323659197235107
0.0635978195033313,-0.144438295269012,-0.18294459600448598,0.026676775360106902
0.0642035130224107,-0.00313214292526246,0.0661374352455139,-0.0092485176086431
0.06480920654149,-0.122883119487762,-0.147019303035736,0.184748064422607
0.0654149000605694,0.0830885601997375,-0.240425064754486,0.0961323417663569
0.0660205935796487,0.0782985211372375,0.018237044620513898,-0.0475688301086431
0.066626287098728,-0.225868959331512,-0.0320583655357361,0.0745771659851069
0.0672319806178074,-0.14204327573776201,-0.0320583655357361,0.038651873016356905
0.0678376741368867,-0.187548646831512,0.126012923526764,0.038651873016356905
0.0684433676559661,0.00165789613723754,0.13080296258926402,-0.0284086738586431
0.0690490611750454,-0.0486375140190125,-0.0200832678794861,0.132057634735107
0.0696547546941248,0.0878785992622375,0.0350021813392639,0.5631611503601069
0.0702604482132041,0.0280031109809875,0.0876926110267639,0.201513201141357
0.0708661417322835,-0.0893528460502625,-0.012898209285736099,0.0410468925476069
0.0714718352513628,-0.189943666362762,0.102062728214264,-0.0092485176086431
0.0720775287704422,-0.156413392925262,0.0326071618080139,0.170377947235107
0.0726832222895215,0.07111346254348751,-0.0224782874107361,0.0841572441101069
0.0732889158086008,-0.130068178081512,0.14038304071426402,0.031466814422606904
0.0738946093276802,-0.015107240581512499,-0.21886988897323598,0.235043474578857
0.0745003028467595,-0.0246873187065125,-0.0320583655357361,0.0410468925476069
0.0751059963658389,-0.165993471050262,0.114037825870514,0.038651873016356905
0.0757116898849182,-0.0127122210502625,-0.0631936194419861,0.254203630828857
0.0763173834039976,0.0423732281684875,-0.012898209285736099,0.309289080047607
0.0769230769230769,0.00644793519973754,0.0661374352455139,0.0913423027038569
0.0775287704421563,-0.0366624163627625,-0.0895388342857361,-0.030803693389893097
0.0781344639612356,-0.122883119487762,-0.120674088191986,0.108107439422607
0.078740157480315,-0.0773777483940125,-0.0991189124107361,0.227858415985107
0.0793458509993943,-0.154018373394012,-0.0224782874107361,0.215883318328857
0.0799515445184737,-0.0222922991752625,0.0948776696205139,0.0769721855163569
0.080557238037553,-0.120488099956512,-0.0416384436607361,0.0913423027038569
0.0811629315566323,-0.156413392925262,0.0517673180580139,0.206303240203857
0.0817686250757117,0.0615333844184875,-0.000923111629486085,0.038651873016356905
0.082374318594791,-0.144438295269012,0.114037825870514,0.254203630828857
0.0829800121138704,-0.14204327573776201,0.104457747745514,0.117687517547607
0.0835857056329497,0.164519224262238,-0.0823537756919861,0.0530219902038569
0.0841913991520291,0.229184751605988,0.0326071618080139,0.335634294891357
0.0847970926711084,0.128593931293488,0.00147190790176392,0.5248408378601069
0.0854027861901878,-0.32885479917526195,0.0565573571205139,0.158402849578857
0.0860084797092671,-0.0989329241752625,0.00626194696426391,0.026676775360106902
0.0866141732283465,0.00884295473098754,-0.19731471319198599,0.285338884735107
0.0872198667474258,-0.27855938901901195,-0.0464284827232361,0.0841572441101069
0.0878255602665051,0.178889341449738,-0.11348902959823601,0.029071794891356903
0.0884312537855845,-0.0414524554252625,-0.11348902959823601,0.191933123016357
0.0890369473046638,-0.221078920269012,0.178703353214264,0.263783708953857
0.0896426408237432,0.0040529156684875394,-0.211684830379486,0.170377947235107
0.0902483343428225,0.0423732281684875,0.0876926110267639,0.029071794891356903
0.0908540278619019,0.0950636578559875,0.0996677086830139,-0.0331987129211431
0.0914597213809812,0.0256080914497375,-0.0200832678794861,0.381139665985107
0.0920654149000606,-0.165993471050262,-0.0416384436607361,0.0554170097351069
0.0926711084191399,-0.000737123394012459,-0.16378443975448598,0.038651873016356905
0.0932768019382193,0.0806935406684875,0.0996677086830139,0.15121779098510701
0.0938824954572986,-0.0773777483940125,-0.123069107723236,0.0865522636413569
0.094488188976378,0.0303981305122375,-0.0176882483482361,0.232648455047607
0.0950938824954573,0.162124204730988,0.00147190790176392,0.156007830047607
0.0956995760145366,-0.0534275530815125,-0.135044205379486,0.0147016777038569
0.096305269533616,-0.225868959331512,-0.123069107723236,-0.193665021514893
0.0969109630526953,-0.235449037456512,0.0613473961830139,0.0841572441101069
0.0975166565717747,-0.034267396831512496,0.037397200870513896,0.177563005828857
0.098122350090854,0.102248716449738,0.109247786808014,0.249413591766357
0.0987280436099334,-0.0941428851127625,0.0493722985267639,0.426645037078857
0.0993337371290127,-0.106117982769012,-0.125464127254486,0.419459978485107
0.0999394306480921,-0.0198972796440125,0.0493722985267639,0.38832472457885703
0.100545124167171,-0.0438474749565125,0.18109837274551402,0.036256853485106905
0.101150817686251,0.0423732281684875,0.0805075524330139,0.0745771659851069
0.10175651120533,-0.00792218198776246,0.114037825870514,0.036256853485106905
0.102362204724409,-0.0773777483940125,0.0350021813392639,0.0745771659851069
0.102967898243489,-0.0630076312065125,-0.0224782874107361,0.105712419891357
0.103573591762568,-0.0390574358940125,-0.051218521785736104,0.0147016777038569
0.104179285281647,0.0471632672309875,-0.0440334631919861,0.235043474578857
0.104784978800727,0.0351881695747375,0.030212142276763897,0.0985273612976069
0.105390672319806,0.00884295473098754,0.0254221032142639,-0.057148908233643096
0.105996365838886,0.116618833637238,-0.027268326473236102,0.0027265800476069
0.106602059357965,-0.000737123394012459,0.00865696649551391,0.278153826141357
0.107207752877044,-0.170783510112762,0.142778060245514,0.215883318328857
0.107813446396124,0.0351881695747375,-0.130254166316986,0.12247755661010701
0.108419139915203,-0.252214174175262,-0.14941432256698597,0.038651873016356905
0.109024833434282,-0.0677976702690125,-0.0799587561607361,-0.052358869171143095
0.109630526953362,0.056743345355987504,-0.22844996709823598,0.156007830047607
0.110236220472441,-0.165993471050262,-0.0248733069419861,0.0147016777038569
0.11084191399152,-0.106117982769012,0.109247786808014,-0.0236186347961431
0.1114476075106,-0.134858217144012,-0.16378443975448598,0.273363787078857
0.112053301029679,-0.0917478655815125,0.00865696649551391,-0.109839337921143
0.112658994548758,0.0615333844184875,-0.16378443975448598,-0.267910626983643
0.113264688067838,0.0495582867622375,-0.11348902959823601,0.0865522636413569
0.113870381586917,-0.249819154644012,0.13559300165176402,0.208698259735107
0.114476075105996,-0.137253236675262,-0.0799587561607361,0.194328142547607
0.115081768625076,0.150149107074738,-0.15899440069198598,0.225463396453857
0.115687462144155,0.0232130719184875,0.00626194696426391,-0.0882841621398931
0.116293155663234,0.00644793519973754,-0.118279068660736,0.237438494110107
0.116898849182314,-0.0294773577690125,0.00147190790176392,0.366769548797607
0.117504542701393,-0.0725877093315125,0.12361790399551399,0.12247755661010701
0.118110236220472,-0.0414524554252625,-0.151809342098236,0.175167986297607
0.118715929739552,0.0160280133247375,0.116432845401764,-0.131394513702393
0.119321623258631,-0.0462424944877625,0.102062728214264,-0.0260136543273931
0.11992731677771,-0.139648256206512,-0.00331813116073608,0.273363787078857
0.12053301029679,0.0160280133247375,0.0565573571205139,0.0147016777038569
0.121138703815869,-0.149228334331512,0.039792220401763896,-0.160134748077393
0.121744397334949,-0.0941428851127625,-0.139834244441986,0.285338884735107
0.122350090854028,0.166914243793488,-0.0967238928794861,0.0626020683288569
0.122955784373107,0.0591383648872375,-0.13743922491073599,0.170377947235107
0.123561477892187,0.140569028949738,-0.190129654598236,0.0745771659851069
0.124167171411266,0.15254412660598798,0.0278171227455139,-0.0212236152648931
0.124772864930345,-0.0701926898002625,-0.0416384436607361,0.146427751922607
0.125378558449425,-0.0773777483940125,-0.175759537410736,0.000331560516356899
0.125984251968504,-0.00313214292526246,-0.0727736975669861,0.0099116386413569
0.126589945487583,0.013632993793487501,0.0158420250892639,0.0697871269226069
0.127195639006663,-0.182758607769012,-0.156599381160736,0.108107439422607
0.127801332525742,-0.0486375140190125,-0.0176882483482361,0.0051215995788569
0.128407026044821,0.0208180523872375,0.147568099308014,-0.11702439651489299
0.129012719563901,-0.027082338237762498,0.104457747745514,-0.136184552764893
0.12961841308298,0.0735084820747375,-0.0703786780357361,0.464965349578857
0.130224106602059,0.0519533062934875,0.037397200870513896,0.0889472831726069
0.130829800121139,0.00884295473098754,0.00865696649551391,-0.0739140449523931
0.131435493640218,-0.0534275530815125,-0.142229263973236,0.172772966766357
0.132041187159297,-0.158808412456512,-0.00571315069198609,0.0482319511413569
0.132646880678377,0.107038755512238,-0.0751687170982361,0.201513201141357
0.133252574197456,-0.00552716245651246,-0.0727736975669861,0.153612810516357
0.133858267716535,-0.237844056987762,0.037397200870513896,0.220673357391357
0.134463961235615,-0.0438474749565125,-0.21886988897323598,0.199118181610107
0.135069654754694,-0.175573549175262,0.00147190790176392,0.0889472831726069
0.135675348273773,-0.14204327573776201,-0.0703786780357361,0.184748064422607
0.136281041792853,-0.0414524554252625,-0.0775637366294861,0.287733904266357
0.136886735311932,-0.122883119487762,0.0757175133705139,0.230253435516357
0.137492428831012,-0.00792218198776246,-0.151809342098236,0.338029314422607
0.138098122350091,0.00644793519973754,0.0134470055580139,0.0841572441101069
0.13870381586917,-0.015107240581512499,-0.0775637366294861,0.132057634735107
0.13930950938825,0.0782985211372375,-0.0152932288169861,0.280548845672607
0.139915202907329,-0.0749827288627625,0.111642806339264,0.179958025360107
0.140520896426408,-0.0749827288627625,-0.029663346004486103,0.179958025360107
0.141126589945488,-0.0318723773002625,-0.0248733069419861,0.0793672050476069
0.141732283464567,0.15733416566848799,-0.0536135413169861,0.273363787078857
0.142337976983646,0.0399782086372375,-0.0440334631919861,0.0841572441101069
0.142943670502726,-0.0725877093315125,0.178703353214264,0.0985273612976069
0.143549364021805,-0.213893861675262,0.0709274743080139,0.132057634735107
0.144155057540884,-0.118093080425262,0.164333236026764,0.0075166191101069
0.144760751059964,-0.0103172015190125,-0.0679836585044861,0.196723162078857
0.145366444579043,-0.151623353862762,0.0230270836830139,0.0458369316101069
0.145972138098122,-0.0677976702690125,0.018237044620513898,-0.0787040840148931
0.146577831617202,-0.103722963237762,0.0206320641517639,0.163192888641357
0.147183525136281,-0.36478009214401197,-0.185339615535736,0.191933123016357
0.14778921865536,-0.130068178081512,-0.19252467412948598,0.036256853485106905
0.14839491217444,0.00644793519973754,0.039792220401763896,0.0051215995788569
0.149000605693519,-0.199523744487762,-0.0943288733482361,0.0721821464538569
0.149606299212598,-0.034267396831512496,0.0541623375892639,0.242228533172607
0.150211992731678,-0.000737123394012459,-0.11588404912948601,0.182353044891357
0.150817686250757,-0.0701926898002625,-0.19252467412948598,0.031466814422606904
0.151423379769836,-0.0797727679252625,-0.027268326473236102,0.0673921073913569
0.152029073288916,-0.00313214292526246,0.0517673180580139,0.369164568328857
0.152634766807995,-0.0893528460502625,0.0445822594642639,0.345214373016357
0.153240460327075,0.0375831891059875,-0.120674088191986,0.191933123016357
0.153846153846154,0.0759035016059875,0.0230270836830139,0.182353044891357
0.154451847365233,-0.0534275530815125,-0.0176882483482361,0.0410468925476069
0.155057540884313,-0.273769349956512,0.0350021813392639,0.160797869110107
0.155663234403392,-0.0318723773002625,0.0565573571205139,0.0913423027038569
0.156268927922471,-0.0246873187065125,-0.221264908504486,0.103317400360107
0.156874621441551,-0.0989329241752625,-0.13264918584823598,0.220673357391357
0.15748031496063,-0.0917478655815125,0.0685324547767639,0.0649970878601069
0.158086008479709,-0.0965379046440125,0.269714095401764,0.575136248016357
0.158691701998789,0.0759035016059875,0.00865696649551391,0.462570330047607
0.159297395517868,-0.0630076312065125,-0.0392434241294861,-0.0930742012023931
0.159903089036947,-0.11569806089401201,-0.029663346004486103,0.8266132987976069
0.160508782556027,0.0447682476997375,-0.252400162410736,0.371559587860107
0.161114476075106,-0.0534275530815125,0.0230270836830139,-0.0978642402648931
0.161720169594185,-0.0222922991752625,-0.027268326473236102,0.132057634735107
0.162325863113265,0.229184751605988,-0.127859146785736,0.110502458953857
0.162931556632344,0.0160280133247375,0.22181370477676401,0.136847673797607
0.163537250151423,-0.034267396831512496,0.0637424157142639,0.366769548797607
0.164142943670503,0.0782985211372375,0.102062728214264,0.424250017547607
0.164748637189582,0.0351881695747375,-0.14941432256698597,0.160797869110107
0.165354330708661,-0.106117982769012,-0.216474869441986,-0.0331987129211431
0.165960024227741,-0.00792218198776246,-0.13743922491073599,-0.14815965042114299
0.16656571774682,0.119013853168488,-0.06558863897323611,0.12247755661010701
0.167171411265899,-0.11569806089401201,0.0326071618080139,0.038651873016356905
0.167777104784979,-0.0582175921440125,-0.0679836585044861,0.129662615203857
0.168382798304058,0.0160280133247375,-0.101513931941986,0.304499040985107
0.168988491823137,-0.0677976702690125,-0.235635025691986,0.15121779098510701
0.169594185342217,0.0351881695747375,-0.21407984991073598,0.0170966972351069
0.170199878861296,-0.0941428851127625,-0.106303971004486,0.199118181610107
0.170805572380376,-0.0175022601127625,0.037397200870513896,-0.0236186347961431
0.171411265899455,-0.14683331480026202,-0.151809342098236,0.206303240203857
0.172016959418534,-0.0821677874565125,-0.101513931941986,0.196723162078857
0.172622652937614,0.0327931500434875,0.16193821649551401,0.146427751922607
0.173228346456693,0.056743345355987504,0.0613473961830139,0.156007830047607
0.173834039975772,-0.0630076312065125,0.128407943058014,0.024281755828856902
0.174439733494852,0.0303981305122375,-0.0416384436607361,0.0578120292663569
0.175045427013931,-0.0893528460502625,-0.0152932288169861,0.172772966766357
0.17565112053301,-0.168388490581512,0.0900876305580139,0.206303240203857
0.17625681405209,-0.127673158550262,0.039792220401763896,0.136847673797607
0.176862507571169,0.142964048480988,0.0637424157142639,0.175167986297607
0.177468201090248,-0.0390574358940125,-0.0895388342857361,0.026676775360106902
0.178073894609328,-0.247424135112762,-0.0871438147544861,-0.0068534980773931
0.178679588128407,0.166914243793488,-0.00810817022323609,0.115292498016357
0.179285281647486,-0.158808412456512,0.00626194696426391,0.0769721855163569
0.179890975166566,-0.10851300230026201,-0.0248733069419861,-0.0427787910461431
0.180496668685645,0.0615333844184875,-0.0607985999107361,0.242228533172607
0.181102362204724,-0.0414524554252625,0.0637424157142639,0.182353044891357
0.181708055723804,0.0639284039497375,-0.135044205379486,0.132057634735107
0.182313749242883,0.0830885601997375,-0.281140396785736,0.134452654266357
0.182919442761962,-0.182758607769012,-0.0584035803794861,0.12008253707885701
0.183525136281042,0.111828794574738,-0.0631936194419861,0.15121779098510701
0.184130829800121,0.0495582867622375,-0.103908951473236,0.0434419120788569
0.1847365233192,-0.0103172015190125,-0.0416384436607361,0.117687517547607
0.18534221683828,0.111828794574738,-0.027268326473236102,0.0985273612976069
0.185947910357359,0.0280031109809875,0.0421872399330139,0.0985273612976069
0.186553603876439,0.128593931293488,0.0637424157142639,0.144032732391357
0.187159297395518,-0.0893528460502625,-0.0536135413169861,0.371559587860107
0.187764990914597,-0.11090802183151201,-0.245215103816986,0.318869158172607
0.188370684433677,0.018423032855987502,-0.0919338538169861,0.117687517547607
0.188976377952756,-0.0246873187065125,0.16672825555801402,0.12008253707885701
0.189582071471835,0.116618833637238,0.0565573571205139,0.5248408378601069
0.190187764990915,0.0782985211372375,-0.106303971004486,0.0458369316101069
0.190793458509994,-0.144438295269012,0.0158420250892639,0.112897478485107
0.191399152029073,0.018423032855987502,0.0469772789955139,0.486520525360107
0.192004845548153,-0.139648256206512,-0.142229263973236,0.0530219902038569
0.192610539067232,-0.134858217144012,-0.33383082647323603,0.153612810516357
0.193216232586311,-0.125278139019012,-0.0224782874107361,0.0170966972351069
0.193821926105391,-0.25700421323776196,0.0278171227455139,0.12247755661010701
0.19442761962447,0.0040529156684875394,-0.06558863897323611,-0.0068534980773931
0.195033313143549,-0.26658429136276196,0.0900876305580139,0.148822771453857
0.195639006662629,-0.163598451519012,0.0661374352455139,0.112897478485107
0.196244700181708,-0.0725877093315125,-0.0344533850669861,0.160797869110107
0.196850393700787,-0.11090802183151201,0.0565573571205139,0.184748064422607
0.197456087219867,0.018423032855987502,0.17630833368301402,-0.057148908233643096
0.198061780738946,-0.0462424944877625,-0.0871438147544861,0.184748064422607
0.198667474258025,-0.139648256206512,-0.0895388342857361,0.165587908172607
0.199273167777105,-0.0414524554252625,-0.120674088191986,0.165587908172607
0.199878861296184,-0.0294773577690125,0.14996311883926403,0.0434419120788569
0.200484554815263,0.0399782086372375,0.193073470401764,0.026676775360106902
0.201090248334343,-0.144438295269012,-0.151809342098236,0.036256853485106905
0.201695941853422,-0.233054017925262,0.0350021813392639,-0.0379887519836431
0.202301635372502,0.0112379742622375,0.18109837274551402,0.134452654266357
0.202907328891581,0.0256080914497375,0.128407943058014,0.21109327926635701
0.20351302241066,0.0160280133247375,-0.00810817022323609,0.136847673797607
0.20411871592974,-0.0127122210502625,-0.0967238928794861,0.127267595672607
0.204724409448819,-0.151623353862762,0.248158919620514,0.225463396453857
0.205330102967898,-0.0438474749565125,0.0134470055580139,0.249413591766357
0.205935796486978,0.0759035016059875,0.00386692743301392,0.141637712860107
0.206541490006057,-0.0175022601127625,-0.0224782874107361,0.215883318328857
0.207147183525136,0.0112379742622375,-0.120674088191986,0.187143083953857
0.207752877044216,-0.0773777483940125,-0.0105031897544861,0.175167986297607
0.208358570563295,-0.132463197612762,-0.0152932288169861,0.117687517547607
0.208964264082374,0.0423732281684875,0.0445822594642639,0.0649970878601069
0.209569957601454,-0.0534275530815125,0.0493722985267639,0.144032732391357
0.210175651120533,-0.0893528460502625,-0.0536135413169861,0.0913423027038569
0.210781344639612,-0.0749827288627625,-0.0631936194419861,0.208698259735107
0.211387038158692,-0.0965379046440125,-0.11348902959823601,0.0721821464538569
0.211992731677771,0.109433775043488,-0.125464127254486,0.153612810516357
0.21259842519685,-0.0630076312065125,0.039792220401763896,0.0745771659851069
0.21320411871593,-0.137253236675262,-0.0152932288169861,0.182353044891357
0.213809812235009,-0.0103172015190125,-0.0344533850669861,0.156007830047607
0.214415505754088,0.0735084820747375,-0.0440334631919861,0.0147016777038569
0.215021199273168,0.119013853168488,-0.00331813116073608,0.223068376922607
0.215626892792247,-0.015107240581512499,-0.147019303035736,-0.0978642402648931
0.216232586311326,-0.0127122210502625,-0.00331813116073608,-0.0044584785461431
0.216838279830406,0.0543483258247375,-0.0200832678794861,0.0889472831726069
0.217443973349485,0.327380552387238,-0.21407984991073598,-0.186479962921143
0.218049666868565,0.198049497699738,0.19067845087051402,0.486520525360107
0.218655360387644,0.00165789613723754,0.00626194696426391,0.230253435516357
0.219261053906723,0.0998536969184875,-0.151809342098236,-0.0355937324523931
0.219866747425803,-0.0366624163627625,0.14996311883926403,0.575136248016357
0.220472440944882,0.0687184430122375,0.0134470055580139,0.127267595672607
0.221078134463961,-0.000737123394012459,-0.0536135413169861,0.0123066581726069
0.221683827983041,0.0471632672309875,-0.202104752254486,0.134452654266357
0.22228952150212,-0.00792218198776246,-0.0536135413169861,0.0075166191101069
0.222895215021199,-0.163598451519012,0.16193821649551401,0.0506269706726069
0.223500908540279,-0.0582175921440125,0.037397200870513896,0.201513201141357
0.224106602059358,0.0759035016059875,0.0326071618080139,0.21109327926635701
0.224712295578437,0.0399782086372375,-0.0200832678794861,0.227858415985107
0.225317989097517,0.107038755512238,-0.0536135413169861,0.036256853485106905
0.225923682616596,0.142964048480988,-0.135044205379486,0.266178728485107
0.226529376135675,0.0639284039497375,-0.11348902959823601,0.0434419120788569
0.227135069654755,0.219604673480988,-0.21886988897323598,-0.0882841621398931
0.227740763173834,0.135778989887238,-0.0560085608482361,0.261388689422607
0.228346456692913,0.00884295473098754,0.18588841180801402,0.124872576141357
0.228952150211993,-0.0294773577690125,-0.0584035803794861,0.0578120292663569
0.229557843731072,-0.0246873187065125,0.0972726891517639,0.163192888641357
0.230163537250151,-0.0630076312065125,-0.0320583655357361,0.215883318328857
0.230769230769231,-0.015107240581512499,-0.0919338538169861,0.0985273612976069
0.23137492428831,-0.0462424944877625,-0.0176882483482361,0.132057634735107
0.231980617807389,0.0639284039497375,-0.0248733069419861,0.256598650360107
0.232586311326469,0.181284360980988,-0.0200832678794861,0.0482319511413569
0.233192004845548,0.0232130719184875,-0.0991189124107361,0.0649970878601069
0.233797698364627,0.018423032855987502,-0.0464284827232361,-0.0355937324523931
0.234403391883707,0.159729185199738,-0.139834244441986,0.146427751922607
0.235009085402786,-0.0989329241752625,0.152358138370514,0.0673921073913569
0.235614778921866,0.00884295473098754,0.0781125329017639,-0.016433576202393097
0.236220472440945,0.0735084820747375,-0.142229263973236,0.278153826141357
0.236826165960024,-0.199523744487762,0.133197982120514,-0.0787040840148931
0.237431859479104,0.214814634418488,-0.147019303035736,-0.0954692207336431
0.238037552998183,-0.0438474749565125,-0.012898209285736099,-0.016433576202393097
0.238643246517262,-0.106117982769012,-0.0248733069419861,0.21109327926635701
0.239248940036342,-0.0414524554252625,-0.0416384436607361,0.167982927703857
0.239854633555421,-0.165993471050262,0.128407943058014,0.141637712860107
0.2404603270745,-0.0127122210502625,0.0948776696205139,0.330844255828857
0.24106602059358,-0.106117982769012,0.0709274743080139,0.158402849578857
0.241671714112659,-0.0294773577690125,-0.118279068660736,0.0721821464538569
0.242277407631738,0.26032000551223805,0.00147190790176392,0.0626020683288569
0.242883101150818,-0.0175022601127625,-0.012898209285736099,0.033861833953856904
0.243488794669897,-0.101327943706512,-0.0847487952232361,0.256598650360107
0.244094488188976,-0.0222922991752625,-0.11348902959823601,0.239833513641357
0.244700181708056,0.198049497699738,-0.012898209285736099,0.218278337860107
0.245305875227135,0.107038755512238,-0.0464284827232361,0.029071794891356903
0.245911568746214,0.0759035016059875,-0.0464284827232361,0.0099116386413569
0.246517262265294,0.164519224262238,-0.0703786780357361,0.170377947235107
0.247122955784373,0.00165789613723754,-0.0871438147544861,0.0841572441101069
0.247728649303452,0.0998536969184875,-0.00810817022323609,0.254203630828857
0.248334342822532,-0.0797727679252625,-0.118279068660736,-0.0068534980773931
0.248940036341611,0.0998536969184875,-0.06558863897323611,-0.356526349639893
0.24954572986069,0.056743345355987504,0.0445822594642639,0.500890642547607
0.25015142337977,0.279480161762238,0.164333236026764,0.773922869110107
0.250757116898849,0.116618833637238,0.0158420250892639,0.170377947235107
0.251362810417929,-0.204313783550262,0.0254221032142639,0.105712419891357
0.251968503937008,0.183679380512238,0.0733224938392639,0.263783708953857
0.252574197456087,0.056743345355987504,-0.266770279598236,0.26857374801635703
0.253179890975167,0.0519533062934875,-0.0775637366294861,0.141637712860107
0.253785584494246,0.0327931500434875,0.102062728214264,0.136847673797607
0.254391278013325,0.138174009418488,0.0350021813392639,0.309289080047607
0.254996971532405,0.0303981305122375,-0.000923111629486085,0.160797869110107
0.255602665051484,-0.14683331480026202,-0.101513931941986,-0.0212236152648931
0.256208358570563,-0.0486375140190125,-0.101513931941986,0.0554170097351069
0.256814052089643,0.0208180523872375,-0.0224782874107361,0.15121779098510701
0.257419745608722,0.0878785992622375,-0.0871438147544861,0.156007830047607
0.258025439127801,-0.0390574358940125,-0.0775637366294861,0.0721821464538569
0.258631132646881,-0.0558225726127625,0.018237044620513898,-0.0739140449523931
0.25923682616596,0.0591383648872375,-0.125464127254486,-0.052358869171143095
0.259842519685039,0.0495582867622375,0.0733224938392639,0.0793672050476069
0.260448213204119,-0.000737123394012459,0.0158420250892639,0.0578120292663569
0.261053906723198,0.0782985211372375,0.0230270836830139,0.196723162078857
0.261659600242277,-0.0773777483940125,-0.00331813116073608,0.179958025360107
0.262265293761357,-0.00552716245651246,-0.0871438147544861,0.167982927703857
0.262870987280436,0.198049497699738,0.128407943058014,0.378744646453857
0.263476680799515,0.0471632672309875,-0.051218521785736104,0.213488298797607
0.264082374318595,0.150149107074738,-0.0416384436607361,0.0793672050476069
0.264688067837674,0.126198911762238,-0.0727736975669861,0.158402849578857
0.265293761356753,-0.132463197612762,-0.142229263973236,0.0793672050476069
0.265899454875833,-0.0917478655815125,-0.0703786780357361,-0.385266584014893
0.266505148394912,0.176494321918488,0.00386692743301392,0.0099116386413569
0.267110841913992,-0.0294773577690125,-0.0368484045982361,0.182353044891357
0.267716535433071,-0.0821677874565125,-0.0536135413169861,0.0530219902038569
0.26832222895215,0.193259458637238,0.037397200870513896,0.218278337860107
0.26892792247123,-0.165993471050262,-0.0943288733482361,0.0721821464538569
0.269533615990309,-0.0366624163627625,0.0733224938392639,0.0506269706726069
0.270139309509388,-0.0797727679252625,0.142778060245514,-0.0140385566711431
0.270745003028468,-0.199523744487762,-0.0727736975669861,0.12008253707885701
0.271350696547547,-0.0582175921440125,-0.108698990535736,0.108107439422607
0.271956390066626,-0.0725877093315125,0.0613473961830139,0.160797869110107
0.272562083585706,-0.0294773577690125,0.0924826500892639,0.304499040985107
0.273167777104785,-0.0127122210502625,-0.0871438147544861,0.0817622245788569
0.273773470623864,-0.20670880308151202,-0.0536135413169861,0.256598650360107
0.274379164142944,-0.0414524554252625,-0.0200832678794861,0.263783708953857
0.274984857662023,0.107038755512238,0.00147190790176392,-0.191270001983643
0.275590551181102,0.0615333844184875,0.00865696649551391,0.0817622245788569
0.276196244700182,0.0591383648872375,-0.0847487952232361,0.110502458953857
0.276801938219261,-0.00792218198776246,-0.0416384436607361,0.0578120292663569
0.27740763173834,0.07111346254348751,0.00626194696426391,0.218278337860107
0.27801332525742,0.018423032855987502,0.018237044620513898,0.132057634735107
0.278619018776499,-0.125278139019012,-0.0584035803794861,-0.203245099639893
0.279224712295578,0.0280031109809875,-0.25479518194198597,0.215883318328857
0.279830405814658,0.0806935406684875,0.0278171227455139,0.7882929862976069
0.280436099333737,0.0687184430122375,0.18588841180801402,0.476940447235107
0.281041792852816,0.0447682476997375,-0.0248733069419861,0.383534685516357
0.281647486371896,-0.0198972796440125,0.13080296258926402,0.311684099578857
0.282253179890975,-0.125278139019012,-0.06558863897323611,0.0554170097351069
0.282858873410055,-0.0749827288627625,-0.0560085608482361,0.0051215995788569
0.283464566929134,0.164519224262238,0.039792220401763896,0.129662615203857
0.284070260448213,0.0926686383247375,-0.151809342098236,0.100922380828857
0.284675953967293,0.15254412660598798,-0.135044205379486,-0.0595439277648931
0.285281647486372,0.12380389223098799,-0.21407984991073598,0.0841572441101069
0.285887341005451,-0.0606126116752625,-0.0919338538169861,-0.0020634590148931
0.286493034524531,0.0399782086372375,-0.0176882483482361,0.100922380828857
0.28709872804361,0.0040529156684875394,-0.0224782874107361,0.359584490203857
0.287704421562689,-0.0845628069877625,-0.0631936194419861,0.419459978485107
0.288310115081769,0.056743345355987504,-0.012898209285736099,-0.0068534980773931
0.288915808600848,-0.0510325335502625,0.0541623375892639,-0.0331987129211431
0.289521502119927,-0.0701926898002625,0.133197982120514,-0.0595439277648931
0.290127195639007,-0.034267396831512496,0.00147190790176392,-0.052358869171143095
0.290732889158086,0.111828794574738,0.0661374352455139,0.144032732391357
0.291338582677165,0.00165789613723754,-0.0560085608482361,0.12247755661010701
0.291944276196245,-0.230658998394012,-0.23324000616073598,0.036256853485106905
0.292549969715324,-0.0510325335502625,0.0230270836830139,-0.0619389472961431
0.293155663234403,0.147754087543488,-0.0248733069419861,-0.0068534980773931
0.293761356753483,0.150149107074738,-0.0152932288169861,-0.155344709014893
0.294367050272562,0.0687184430122375,-0.0679836585044861,0.115292498016357
0.294972743791641,0.0423732281684875,0.0685324547767639,0.177563005828857
0.295578437310721,-0.0869578265190125,0.00865696649551391,0.124872576141357
0.2961841308298,-0.0414524554252625,-0.142229263973236,0.230253435516357
0.296789824348879,0.26990008363723805,0.0972726891517639,0.112897478485107
0.297395517867959,0.147754087543488,-0.06558863897323611,0.158402849578857
0.298001211387038,0.0591383648872375,-0.000923111629486085,0.105712419891357
0.298606904906118,0.221999693012238,0.12361790399551399,-0.0403837715148931
0.299212598425197,-0.242634096050262,-0.151809342098236,-0.179294904327393
0.299818291944276,-0.0630076312065125,0.00147190790176392,-0.0739140449523931
0.300423985463356,0.121408872699738,0.248158919620514,0.124872576141357
0.301029678982435,-0.015107240581512499,-0.156599381160736,0.0482319511413569
0.301635372501514,0.12380389223098799,-0.0631936194419861,-0.0236186347961431
0.302241066020594,0.018423032855987502,-0.170969498348236,0.0697871269226069
0.302846759539673,0.147754087543488,-0.0847487952232361,-0.0954692207336431
0.303452453058752,0.0830885601997375,0.104457747745514,-0.0739140449523931
0.304058146577832,-0.194733705425262,0.00865696649551391,0.115292498016357
0.304663840096911,-0.0534275530815125,0.0852975914955139,-0.0451738105773931
0.30526953361599,0.171704282855988,-0.161389420223236,0.21109327926635701
0.30587522713507,-0.0582175921440125,0.0637424157142639,0.249413591766357
0.306480920654149,0.0519533062934875,-0.0440334631919861,0.201513201141357
0.307086614173228,-0.218683900737762,-0.00571315069198609,0.12008253707885701
0.307692307692308,-0.194733705425262,0.037397200870513896,0.208698259735107
0.308298001211387,0.245949888324738,0.0326071618080139,0.7475776542663569
0.308903694730466,-0.0198972796440125,-0.0895388342857361,0.156007830047607
0.309509388249546,0.159729185199738,0.0158420250892639,-0.140974591827393
0.310115081768625,0.107038755512238,0.137988021183014,0.038651873016356905
0.310720775287704,-0.0749827288627625,0.14517307977676402,-0.107444318389893
0.311326468806784,0.174099302387238,-0.144624283504486,0.0913423027038569
0.311932162325863,-0.132463197612762,-0.127859146785736,-0.109839337921143
0.312537855844942,0.00644793519973754,0.0876926110267639,0.026676775360106902
0.313143549364022,-0.0534275530815125,0.121222884464264,0.258993669891357
0.313749242883101,-0.0893528460502625,0.142778060245514,0.158402849578857
0.31435493640218,0.130988950824738,-0.0416384436607361,0.136847673797607
0.31496062992126,0.013632993793487501,0.0852975914955139,0.220673357391357
0.315566323440339,0.102248716449738,0.0110519860267639,0.0626020683288569
0.316172016959419,-0.0701926898002625,-0.051218521785736104,0.000331560516356899
0.316777710478498,0.013632993793487501,0.0254221032142639,0.0769721855163569
0.317383403997577,0.114223814105988,-0.0847487952232361,0.158402849578857
0.317989097516657,-0.170783510112762,0.0805075524330139,0.103317400360107
0.318594791035736,0.0471632672309875,-0.06558863897323611,0.0626020683288569
0.319200484554815,0.07111346254348751,0.0781125329017639,0.225463396453857
0.319806178073895,-0.00313214292526246,0.0493722985267639,0.127267595672607
0.320411871592974,0.056743345355987504,-0.259585221004486,0.0458369316101069
0.321017565112053,-0.189943666362762,0.14038304071426402,-0.227195294952393
0.321623258631133,-0.0893528460502625,0.118827864933014,-0.0858891426086431
0.322228952150212,0.107038755512238,-0.0344533850669861,0.326054216766357
0.322834645669291,0.018423032855987502,0.0565573571205139,-0.112234357452393
0.323440339188371,-0.127673158550262,-0.221264908504486,-0.0068534980773931
0.32404603270745,0.0399782086372375,-0.199709732723236,-0.06672898635864309
0.324651726226529,0.0735084820747375,-0.123069107723236,-0.0475688301086431
0.325257419745609,-0.0989329241752625,-0.00810817022323609,0.199118181610107
0.325863113264688,-0.185153627300262,0.14996311883926403,0.144032732391357
0.326468806783767,-0.125278139019012,-0.216474869441986,0.282943865203857
0.327074500302847,-0.0414524554252625,-0.101513931941986,0.153612810516357
0.327680193821926,0.119013853168488,0.0230270836830139,0.15121779098510701
0.328285887341005,-0.0127122210502625,-0.108698990535736,0.199118181610107
0.328891580860085,-0.0725877093315125,-0.166179459285736,0.177563005828857
0.329497274379164,0.00165789613723754,0.0781125329017639,0.124872576141357
0.330102967898244,0.145359068012238,0.14996311883926403,0.0841572441101069
0.330708661417323,-0.0773777483940125,-0.0799587561607361,-0.0236186347961431
0.331314354936402,-0.0869578265190125,-0.0584035803794861,0.148822771453857
0.331920048455482,0.171704282855988,0.0972726891517639,0.0889472831726069
0.332525741974561,-0.139648256206512,0.0469772789955139,0.129662615203857
0.33313143549364,-0.122883119487762,0.0589523766517639,0.158402849578857
0.33373712901272,-0.0198972796440125,-0.051218521785736104,-0.018828595733643098
0.334342822531799,-0.0318723773002625,0.0685324547767639,0.235043474578857
0.334948516050878,0.135778989887238,-0.204499771785736,0.0626020683288569
0.335554209569958,0.056743345355987504,-0.235635025691986,0.0673921073913569
0.336159903089037,-0.00313214292526246,0.00147190790176392,0.0530219902038569
0.336765596608116,-0.0438474749565125,-0.180549576473236,-0.07151902542114309
0.337371290127196,-0.00552716245651246,-0.125464127254486,0.036256853485106905
0.337976983646275,0.126198911762238,-0.142229263973236,-0.126604474639893
0.338582677165354,-0.144438295269012,-0.211684830379486,-0.277490705108643
0.339188370684434,-0.0725877093315125,-0.0727736975669861,-0.11941941604614299
0.339794064203513,0.186074400043488,0.00386692743301392,-0.0236186347961431
0.340399757722592,0.375280943012238,-0.0703786780357361,0.6326167167663569
0.341005451241672,-0.0510325335502625,0.0254221032142639,0.21109327926635701
0.341611144760751,-0.0582175921440125,-0.051218521785736104,-0.224800275421143
0.34221683827983,0.0830885601997375,-0.11109401006698601,0.330844255828857
0.34282253179891,-0.0462424944877625,0.018237044620513898,0.0458369316101069
0.343428225317989,-0.103722963237762,-0.0368484045982361,0.0937373222351069
0.344033918837068,-0.20191876401901201,-0.144624283504486,0.194328142547607
0.344639612356148,-0.0917478655815125,-0.0584035803794861,0.100922380828857
0.345245305875227,-0.0414524554252625,0.118827864933014,0.0865522636413569
0.345850999394306,-0.223473939800262,0.0421872399330139,0.0194917167663569
0.346456692913386,-0.0438474749565125,0.0852975914955139,0.220673357391357
0.347062386432465,0.0615333844184875,0.0685324547767639,0.309289080047607
0.347668079951545,-0.14683331480026202,0.102062728214264,0.0123066581726069
0.348273773470624,-0.118093080425262,-0.0799587561607361,0.407484880828857
0.348879466989703,0.0926686383247375,-0.103908951473236,0.443410173797607
0.349485160508783,-0.027082338237762498,0.0158420250892639,0.203908220672607
0.350090854027862,-0.0390574358940125,-0.0440334631919861,0.175167986297607
0.350696547546941,0.150149107074738,-0.106303971004486,0.148822771453857
0.351302241066021,-0.0821677874565125,-0.0991189124107361,0.144032732391357
0.3519079345851,-0.106117982769012,-0.103908951473236,-0.0212236152648931
0.352513628104179,0.107038755512238,-0.269165299129486,0.249413591766357
0.353119321623259,0.0303981305122375,-0.0440334631919861,0.156007830047607
0.353725015142338,-0.237844056987762,0.142778060245514,0.0721821464538569
0.354330708661417,0.0687184430122375,-0.0751687170982361,0.15121779098510701
0.354936402180497,0.0998536969184875,0.0493722985267639,0.189538103485107
0.355542095699576,-0.261794252300262,0.0110519860267639,0.117687517547607
0.356147789218655,-0.221078920269012,-0.0176882483482361,0.144032732391357
0.356753482737735,-0.0893528460502625,0.0924826500892639,0.318869158172607
0.357359176256814,-0.00792218198776246,-0.0392434241294861,0.153612810516357
0.357964869775893,-0.0989329241752625,0.197863509464264,0.15121779098510701
0.358570563294973,-0.0366624163627625,0.0589523766517639,0.0745771659851069
0.359176256814052,0.0232130719184875,0.0972726891517639,0.263783708953857
0.359781950333131,-0.175573549175262,0.0709274743080139,0.0578120292663569
0.360387643852211,-0.015107240581512499,-0.139834244441986,0.242228533172607
0.36099333737129,-0.0127122210502625,0.0829025719642639,0.0913423027038569
0.361599030890369,0.130988950824738,-0.0224782874107361,-0.0092485176086431
0.362204724409449,0.0327931500434875,0.0158420250892639,0.273363787078857
0.362810417928528,0.0663234234809875,0.0134470055580139,-0.109839337921143
0.363416111447607,-0.0246873187065125,-0.166179459285736,0.105712419891357
0.364021804966687,-0.280954408550262,-0.0560085608482361,-0.052358869171143095
0.364627498485766,-0.0486375140190125,0.0733224938392639,0.0434419120788569
0.365233192004846,-0.000737123394012459,0.030212142276763897,0.182353044891357
0.365838885523925,0.0112379742622375,0.217023665714264,0.165587908172607
0.366444579043004,-0.0103172015190125,-0.11348902959823601,0.244623552703857
0.367050272562084,0.0160280133247375,-0.147019303035736,0.261388689422607
0.367655966081163,0.0806935406684875,-0.0919338538169861,0.32844923629760703
0.368261659600242,0.195654478168488,-0.16378443975448598,0.472150408172607
0.368867353119322,0.229184751605988,0.0565573571205139,-0.131394513702393
0.369473046638401,0.0351881695747375,-0.0703786780357361,0.153612810516357
0.37007874015748,-0.0725877093315125,0.0948776696205139,0.0602070487976069
0.37068443367656,0.128593931293488,-0.0320583655357361,-0.112234357452393
0.371290127195639,0.107038755512238,-0.185339615535736,0.467360369110107
0.371895820714718,-0.0390574358940125,0.102062728214264,0.0841572441101069
0.372501514233798,0.140569028949738,0.102062728214264,0.141637712860107
0.373107207752877,0.121408872699738,-0.0895388342857361,0.0602070487976069
0.373712901271956,0.0423732281684875,-0.0152932288169861,0.522445818328857
0.374318594791036,-0.0294773577690125,0.0110519860267639,0.263783708953857
0.374924288310115,-0.0941428851127625,0.128407943058014,0.0099116386413569
0.375529981829194,-0.027082338237762498,-0.0991189124107361,0.170377947235107
0.376135675348274,-0.0630076312065125,-0.0464284827232361,0.230253435516357
0.376741368867353,-0.0965379046440125,0.0206320641517639,0.302104021453857
0.377347062386432,0.0639284039497375,-0.103908951473236,0.187143083953857
0.377952755905512,-0.0103172015190125,0.308034407901764,0.232648455047607
0.378558449424591,-0.130068178081512,-0.00571315069198609,0.0769721855163569
0.379164142943671,0.0878785992622375,-0.120674088191986,0.036256853485106905
0.37976983646275,0.190864439105988,-0.0991189124107361,0.165587908172607
0.380375529981829,-0.0725877093315125,-0.22844996709823598,-0.0595439277648931
0.380981223500909,0.0256080914497375,-0.106303971004486,-0.054753888702393096
0.381586917019988,0.119013853168488,-0.0871438147544861,0.371559587860107
0.382192610539067,0.0663234234809875,-0.00810817022323609,0.297313982391357
0.382798304058147,0.15733416566848799,0.0733224938392639,0.177563005828857
0.383403997577226,-0.0175022601127625,-0.175759537410736,0.383534685516357
0.384009691096305,-0.0582175921440125,0.0278171227455139,0.0530219902038569
0.384615384615385,-0.0654026507377625,0.037397200870513896,0.141637712860107
0.385221078134464,-0.0366624163627625,-0.00331813116073608,0.194328142547607
0.385826771653543,0.07111346254348751,0.20504856805801402,0.148822771453857
0.386432465172623,0.0902736187934875,-0.26437526006698603,0.235043474578857
0.387038158691702,-0.175573549175262,0.13559300165176402,-0.016433576202393097
0.387643852210781,0.128593931293488,0.111642806339264,0.0554170097351069
0.388249545729861,0.162124204730988,-0.21407984991073598,0.299709001922607
0.38885523924894,-0.223473939800262,-0.048823502254486104,0.199118181610107
0.389460932768019,-0.189943666362762,0.0445822594642639,-0.0020634590148931
0.390066626287099,-0.20191876401901201,0.00386692743301392,0.100922380828857
0.390672319806178,-0.158808412456512,-0.151809342098236,0.108107439422607
0.391278013325257,-0.0390574358940125,-0.0464284827232361,-0.0882841621398931
0.391883706844337,-0.0989329241752625,0.0757175133705139,-0.06672898635864309
0.392489400363416,0.0208180523872375,0.0852975914955139,0.0218867362976069
0.393095093882495,0.00884295473098754,-0.125464127254486,-0.0499638496398931
0.393700787401575,-0.290534486675262,-0.0823537756919861,0.26857374801635703
0.394306480920654,-0.0534275530815125,-0.123069107723236,0.199118181610107
0.394912174439733,0.0926686383247375,-0.142229263973236,0.0649970878601069
0.395517867958813,0.0950636578559875,-0.0727736975669861,-0.0020634590148931
0.396123561477892,0.0471632672309875,0.0733224938392639,0.146427751922607
0.396729254996972,-0.137253236675262,-0.17336451787948598,0.179958025360107
0.397334948516051,-0.0677976702690125,-0.16378443975448598,-0.06912400588989309
0.39794064203513,-0.0797727679252625,-0.0464284827232361,0.158402849578857
0.39854633555421,0.0519533062934875,-0.18294459600448598,-0.030803693389893097
0.399152029073289,0.00884295473098754,0.0685324547767639,-0.0260136543273931
0.399757722592368,-0.0989329241752625,-0.101513931941986,0.558371111297607
0.400363416111448,0.111828794574738,0.0254221032142639,0.5320258964538569
0.400969109630527,-0.0534275530815125,0.0637424157142639,0.187143083953857
0.401574803149606,-0.180363588237762,-0.245215103816986,0.0841572441101069
0.402180496668686,0.0423732281684875,-0.125464127254486,0.0985273612976069
0.402786190187765,0.186074400043488,0.0757175133705139,0.0769721855163569
0.403391883706844,0.0208180523872375,-0.0967238928794861,0.033861833953856904
0.403997577225924,-0.264189271831512,0.12361790399551399,0.0410468925476069
0.404603270745003,-0.0701926898002625,0.00865696649551391,-0.0068534980773931
0.405208964264082,0.0591383648872375,-0.20928981084823597,0.115292498016357
0.405814657783162,0.0950636578559875,-0.0727736975669861,0.031466814422606904
0.406420351302241,0.116618833637238,-0.0847487952232361,0.100922380828857
0.40702604482132,-0.0462424944877625,-0.0320583655357361,-0.0475688301086431
0.4076317383404,-0.00313214292526246,-0.0344533850669861,0.0889472831726069
0.408237431859479,0.0591383648872375,-0.0560085608482361,0.302104021453857
0.408843125378558,0.0040529156684875394,-0.0751687170982361,0.0745771659851069
0.409448818897638,-0.0510325335502625,-0.00571315069198609,0.136847673797607
0.410054512416717,0.0112379742622375,-0.0200832678794861,0.263783708953857
0.410660205935796,-0.120488099956512,-0.0536135413169861,0.314079119110107
0.411265899454876,-0.0558225726127625,-0.0176882483482361,0.0769721855163569
0.411871592973955,-0.0893528460502625,-0.180549576473236,0.237438494110107
0.412477286493035,-0.134858217144012,-0.13743922491073599,0.038651873016356905
0.413082980012114,-0.034267396831512496,-0.0176882483482361,0.196723162078857
0.413688673531193,-0.000737123394012459,-0.16857447881698598,0.496100603485107
0.414294367050273,0.114223814105988,0.0924826500892639,0.361979509735107
0.414900060569352,-0.11090802183151201,0.0278171227455139,0.203908220672607
0.415505754088431,-0.0390574358940125,-0.190129654598236,0.275758806610107
0.416111447607511,0.116618833637238,0.0158420250892639,0.203908220672607
0.41671714112659,0.0327931500434875,-0.0200832678794861,0.038651873016356905
0.417322834645669,-0.11330304136276201,-0.0631936194419861,0.433830095672607
0.417928528164749,0.0447682476997375,-0.0584035803794861,0.12008253707885701
0.418534221683828,0.116618833637238,0.0278171227455139,0.12008253707885701
0.419139915202907,-0.0127122210502625,-0.0751687170982361,0.175167986297607
0.419745608721987,0.018423032855987502,0.030212142276763897,-0.0906791816711431
0.420351302241066,0.145359068012238,0.16193821649551401,0.182353044891357
0.420956995760145,-0.0558225726127625,0.104457747745514,0.100922380828857
0.421562689279225,-0.101327943706512,-0.0368484045982361,0.167982927703857
0.422168382798304,0.102248716449738,-0.108698990535736,0.326054216766357
0.422774076317383,-0.0486375140190125,-0.139834244441986,0.0482319511413569
0.423379769836463,-0.29771954526901195,-0.15420436162948598,-0.193665021514893
0.423985463355542,-0.0486375140190125,-0.0536135413169861,0.0051215995788569
0.424591156874621,-0.0127122210502625,0.0493722985267639,0.163192888641357
0.425196850393701,-0.0486375140190125,-0.101513931941986,0.134452654266357
0.42580254391278,0.0543483258247375,-0.135044205379486,0.220673357391357
0.426408237431859,0.018423032855987502,-0.16857447881698598,0.0961323417663569
0.427013930950939,0.0878785992622375,-0.11109401006698601,0.0123066581726069
0.427619624470018,-0.00313214292526246,-0.0248733069419861,0.225463396453857
0.428225317989098,0.128593931293488,-0.130254166316986,0.656566912078857
0.428831011508177,0.0735084820747375,0.0206320641517639,0.0123066581726069
0.429436705027256,0.0974586773872375,-0.048823502254486104,-0.14815965042114299
0.430042398546336,-0.149228334331512,0.0326071618080139,0.302104021453857
0.430648092065415,-0.118093080425262,0.0230270836830139,0.108107439422607
0.431253785584494,-0.127673158550262,0.0852975914955139,0.218278337860107
0.431859479103574,-0.0510325335502625,0.0326071618080139,0.0649970878601069
0.432465172622653,0.0112379742622375,-0.144624283504486,0.0793672050476069
0.433070866141732,0.0160280133247375,-0.0464284827232361,0.136847673797607
0.433676559660812,0.0351881695747375,0.0541623375892639,0.12008253707885701
0.434282253179891,-0.0127122210502625,-0.0823537756919861,0.254203630828857
0.43488794669897,-0.0701926898002625,0.0445822594642639,0.0841572441101069
0.43549364021805,-0.0654026507377625,0.116432845401764,0.12247755661010701
0.436099333737129,0.135778989887238,0.193073470401764,0.208698259735107
0.436705027256208,-0.125278139019012,0.0948776696205139,0.306894060516357
0.437310720775288,-0.14204327573776201,-0.06558863897323611,0.0147016777038569
0.437916414294367,0.0615333844184875,-0.125464127254486,0.0554170097351069
0.438522107813446,0.0375831891059875,-0.15420436162948598,0.309289080047607
0.439127801332526,0.0759035016059875,-0.135044205379486,0.000331560516356899
0.439733494851605,0.0160280133247375,-0.0560085608482361,0.132057634735107
0.440339188370684,-0.125278139019012,0.0278171227455139,0.156007830047607
0.440944881889764,-0.247424135112762,0.14038304071426402,0.184748064422607
0.441550575408843,-0.0845628069877625,-0.0176882483482361,0.165587908172607
0.442156268927922,-0.0917478655815125,-0.13743922491073599,0.450595232391357
0.442761962447002,-0.0965379046440125,0.193073470401764,-0.0044584785461431
0.443367655966081,0.111828794574738,-0.0320583655357361,-0.203245099639893
0.44397334948516,-0.0989329241752625,0.0996677086830139,0.134452654266357
0.44457904300424,-0.149228334331512,0.126012923526764,0.0865522636413569
0.445184736523319,0.0327931500434875,0.0517673180580139,0.187143083953857
0.445790430042399,0.0112379742622375,0.224208724308014,0.163192888641357
0.446396123561478,0.0256080914497375,0.197863509464264,0.146427751922607
0.447001817080557,0.116618833637238,0.17151829462051402,0.0793672050476069
0.447607510599637,0.0208180523872375,-0.0823537756919861,0.213488298797607
0.448213204118716,-0.00313214292526246,-0.147019303035736,-0.0020634590148931
0.448818897637795,0.0040529156684875394,0.0206320641517639,0.031466814422606904
0.449424591156875,0.0878785992622375,-0.11588404912948601,0.335634294891357
0.450030284675954,0.0639284039497375,-0.0560085608482361,0.0961323417663569
0.450635978195033,-0.00792218198776246,-0.0727736975669861,0.112897478485107
0.451241671714113,-0.0606126116752625,0.0733224938392639,0.225463396453857
0.451847365233192,-0.242634096050262,0.22181370477676401,0.148822771453857
0.452453058752271,0.0519533062934875,-0.0248733069419861,0.031466814422606904
0.453058752271351,0.12380389223098799,-0.0631936194419861,0.179958025360107
0.45366444579043,-0.0749827288627625,-0.00331813116073608,0.191933123016357
0.454270139309509,-0.0294773577690125,-0.0320583655357361,0.0027265800476069
0.454875832828589,0.226789732074738,-0.0584035803794861,-0.150554669952393
0.455481526347668,0.188469419574738,-0.166179459285736,0.0434419120788569
0.456087219866747,-0.015107240581512499,-0.204499771785736,-0.0427787910461431
0.456692913385827,0.0543483258247375,-0.0991189124107361,-0.220010236358643
0.457298606904906,-0.0486375140190125,0.0326071618080139,0.103317400360107
0.457904300423985,-0.218683900737762,-0.101513931941986,0.0841572441101069
0.458509993943065,0.0687184430122375,-0.16857447881698598,0.412274919891357
0.459115687462144,0.0447682476997375,-0.0440334631919861,0.8122431816101069
0.459721380981224,-0.20191876401901201,0.0972726891517639,0.778712908172607
0.460327074500303,0.114223814105988,-0.135044205379486,0.7667378105163569
0.460932768019382,0.174099302387238,-0.0560085608482361,0.108107439422607
0.461538461538462,0.0759035016059875,0.152358138370514,-0.030803693389893097
0.462144155057541,0.0830885601997375,-0.103908951473236,0.153612810516357
0.46274984857662,0.0112379742622375,0.0134470055580139,0.029071794891356903
0.4633555420957,-0.0294773577690125,0.0924826500892639,0.0673921073913569
0.463961235614779,-0.0366624163627625,0.00386692743301392,-0.016433576202393097
0.464566929133858,-0.14683331480026202,-0.0703786780357361,0.244623552703857
0.465172622652938,-0.015107240581512499,-0.144624283504486,0.201513201141357
0.465778316172017,-0.0366624163627625,-0.0847487952232361,0.165587908172607
0.466384009691096,-0.0103172015190125,-0.000923111629486085,0.100922380828857
0.466989703210176,0.21241961488723798,-0.0679836585044861,0.223068376922607
0.467595396729255,0.0735084820747375,-0.11348902959823601,0.254203630828857
0.468201090248334,-0.015107240581512499,-0.0464284827232361,0.175167986297607
0.468806783767414,-0.0246873187065125,-0.11348902959823601,0.306894060516357
0.469412477286493,0.140569028949738,0.0781125329017639,-0.0763090644836431
0.470018170805572,0.119013853168488,0.0829025719642639,-0.109839337921143
0.470623864324652,0.0998536969184875,-0.147019303035736,0.184748064422607
0.471229557843731,0.0782985211372375,-0.0823537756919861,0.0410468925476069
0.47183525136281,0.0256080914497375,0.111642806339264,0.0937373222351069
0.47244094488189,-0.0869578265190125,0.0613473961830139,0.203908220672607
0.473046638400969,0.0926686383247375,-0.142229263973236,0.029071794891356903
0.473652331920048,-0.14204327573776201,0.018237044620513898,0.160797869110107
0.474258025439128,-0.0845628069877625,0.0326071618080139,0.0913423027038569
0.474863718958207,0.138174009418488,-0.15899440069198598,-0.0643339668273931
0.475469412477286,-0.173178529644012,-0.118279068660736,0.156007830047607
0.476075105996366,-0.213893861675262,0.0709274743080139,0.163192888641357
0.476680799515445,-0.015107240581512499,-0.14941432256698597,-0.0236186347961431
0.477286493034525,0.226789732074738,-0.13743922491073599,-0.155344709014893
0.477892186553604,-0.0534275530815125,0.0589523766517639,-0.212825177764893
0.478497880072683,-0.0558225726127625,-0.175759537410736,-0.0068534980773931
0.479103573591763,0.00165789613723754,-0.0823537756919861,0.0817622245788569
0.479709267110842,-0.0582175921440125,0.0134470055580139,0.203908220672607
0.480314960629921,0.00644793519973754,-0.17815455694198598,0.254203630828857
0.480920654149001,-0.175573549175262,0.030212142276763897,-0.018828595733643098
0.48152634766808,-0.132463197612762,0.0254221032142639,0.280548845672607
0.482132041187159,0.0208180523872375,-0.0967238928794861,0.112897478485107
0.482737734706239,-0.0366624163627625,-0.0919338538169861,0.112897478485107
0.483343428225318,0.0591383648872375,-0.0727736975669861,0.270968767547607
0.483949121744397,0.0280031109809875,-0.051218521785736104,0.0506269706726069
0.484554815263477,0.0256080914497375,-0.123069107723236,0.132057634735107
0.485160508782556,-0.0414524554252625,-0.0991189124107361,0.402694841766357
0.485766202301635,0.0375831891059875,-0.00331813116073608,0.309289080047607
0.486371895820715,0.109433775043488,-0.101513931941986,0.0123066581726069
0.486977589339794,0.0519533062934875,0.0805075524330139,0.158402849578857
0.487583282858873,0.0687184430122375,0.0493722985267639,0.0937373222351069
0.488188976377953,0.0782985211372375,-0.0440334631919861,-0.145764630889893
0.488794669897032,-0.0654026507377625,0.17630833368301402,-0.152949689483643
0.489400363416111,0.135778989887238,-0.00571315069198609,0.0554170097351069
0.490006056935191,-0.0246873187065125,-0.0847487952232361,0.127267595672607
0.49061175045427,0.0950636578559875,0.00147190790176392,0.203908220672607
0.491217443973349,-0.00792218198776246,0.0110519860267639,0.108107439422607
0.491823137492429,-0.10851300230026201,0.0158420250892639,0.0482319511413569
0.492428831011508,0.0854835797309875,-0.101513931941986,0.201513201141357
0.493034524530587,-0.161203431987762,0.0469772789955139,0.153612810516357
0.493640218049667,-0.0630076312065125,0.0589523766517639,0.117687517547607
0.494245911568746,-0.0725877093315125,-0.0871438147544861,0.12008253707885701
0.494851605087826,0.116618833637238,-0.190129654598236,0.026676775360106902
0.495457298606905,0.0471632672309875,-0.0727736975669861,0.0673921073913569
0.496062992125984,-0.213893861675262,0.20983860712051403,0.256598650360107
0.496668685645064,-0.118093080425262,-0.120674088191986,0.0841572441101069
0.497274379164143,-0.0462424944877625,0.0350021813392639,0.235043474578857
0.497880072683222,0.018423032855987502,0.102062728214264,0.311684099578857
0.498485766202302,0.145359068012238,-0.0560085608482361,0.100922380828857
0.499091459721381,0.0256080914497375,0.0158420250892639,0.278153826141357
0.49969715324046,0.0950636578559875,0.0445822594642639,0.100922380828857
0.50030284675954,0.116618833637238,-0.00810817022323609,0.0865522636413569
0.500908540278619,-0.103722963237762,0.0421872399330139,0.0626020683288569
0.501514233797698,0.0687184430122375,-0.206894791316986,0.191933123016357
0.502119927316778,-0.0701926898002625,-0.0631936194419861,0.024281755828856902
0.502725620835857,-0.11330304136276201,-0.0368484045982361,0.172772966766357
0.503331314354936,0.176494321918488,-0.120674088191986,0.0170966972351069
0.503937007874016,0.0280031109809875,-0.0200832678794861,-0.126604474639893
0.504542701393095,0.0950636578559875,-0.123069107723236,0.218278337860107
0.505148394912174,-0.0438474749565125,-0.130254166316986,-0.0260136543273931
0.505754088431254,-0.25700421323776196,-0.13743922491073599,0.026676775360106902
0.506359781950333,0.0926686383247375,-0.00810817022323609,-0.133789533233643
0.506965475469413,-0.0534275530815125,-0.139834244441986,0.146427751922607
0.507571168988492,-0.261794252300262,-0.0631936194419861,0.124872576141357
0.508176862507571,0.0854835797309875,0.030212142276763897,-0.0763090644836431
0.50878255602665,0.147754087543488,-0.13264918584823598,0.026676775360106902
0.50938824954573,0.0256080914497375,-0.15899440069198598,0.237438494110107
0.509993943064809,-0.0749827288627625,-0.300300553035736,-0.0068534980773931
0.510599636583889,-0.0198972796440125,-0.21407984991073598,0.0458369316101069
0.511205330102968,-0.0222922991752625,0.159543196964264,0.146427751922607
0.511811023622047,-0.189943666362762,0.0757175133705139,0.0554170097351069
0.512416717141127,-0.156413392925262,0.0637424157142639,0.0506269706726069
0.513022410660206,0.0591383648872375,-0.0200832678794861,0.0554170097351069
0.513628104179285,-0.0198972796440125,0.114037825870514,0.026676775360106902
0.514233797698365,0.0351881695747375,-0.101513931941986,-0.0787040840148931
0.514839491217444,0.202839536762238,-0.17815455694198598,0.0626020683288569
0.515445184736523,-0.00313214292526246,-0.0919338538169861,-0.133789533233643
0.516050878255603,-0.137253236675262,-0.0727736975669861,0.134452654266357
0.516656571774682,-0.034267396831512496,-0.0991189124107361,0.0985273612976069
0.517262265293761,0.193259458637238,-0.0919338538169861,0.12247755661010701
0.517867958812841,-0.0198972796440125,-0.0152932288169861,0.15121779098510701
0.51847365233192,-0.0917478655815125,-0.11348902959823601,0.5727412284851069
0.519079345850999,0.188469419574738,-0.161389420223236,0.510470720672607
0.519685039370079,0.0663234234809875,0.00865696649551391,0.371559587860107
0.520290732889158,-0.0677976702690125,0.0421872399330139,0.479335466766357
0.520896426408237,0.00165789613723754,-0.130254166316986,0.124872576141357
0.521502119927317,0.0687184430122375,0.121222884464264,0.105712419891357
0.522107813446396,0.0112379742622375,0.0876926110267639,0.105712419891357
0.522713506965475,-0.154018373394012,-0.0584035803794861,-0.0403837715148931
0.523319200484555,-0.213893861675262,-0.127859146785736,-0.030803693389893097
0.523924894003634,-0.0725877093315125,0.13559300165176402,0.153612810516357
0.524530587522714,0.0040529156684875394,-0.0344533850669861,0.15121779098510701
0.525136281041793,-0.0486375140190125,-0.180549576473236,0.266178728485107
0.525741974560872,-0.252214174175262,0.111642806339264,0.0745771659851069
0.526347668079951,-0.0103172015190125,-0.0536135413169861,0.0147016777038569
0.526953361599031,0.21241961488723798,0.27450413446426397,0.215883318328857
0.52755905511811,-0.0318723773002625,0.255343978214264,0.134452654266357
0.52816474863719,-0.000737123394012459,-0.0847487952232361,-0.174504865264893
0.528770442156269,-0.158808412456512,-0.0919338538169861,0.0793672050476069
0.529376135675348,-0.0773777483940125,-0.0871438147544861,0.359584490203857
0.529981829194428,0.200444517230988,0.00147190790176392,0.103317400360107
0.530587522713507,0.07111346254348751,-0.0919338538169861,0.0961323417663569
0.531193216232586,0.0208180523872375,-0.0967238928794861,-0.0116435371398931
0.531798909751666,0.0303981305122375,-0.11588404912948601,0.0721821464538569
0.532404603270745,-0.213893861675262,-0.103908951473236,0.409879900360107
0.533010296789824,-0.015107240581512499,0.126012923526764,0.179958025360107
0.533615990308904,0.0208180523872375,-0.0871438147544861,0.0434419120788569
0.534221683827983,-0.127673158550262,-0.13264918584823598,0.103317400360107
0.534827377347062,-0.0175022601127625,-0.0200832678794861,-0.0499638496398931
0.535433070866142,0.181284360980988,-0.18773463506698598,-0.0834941230773931
0.536038764385221,0.0471632672309875,0.116432845401764,-0.172109845733643
0.5366444579043,0.126198911762238,0.0350021813392639,0.0027265800476069
0.53725015142338,0.130988950824738,-0.000923111629486085,0.323659197235107
0.537855844942459,-0.0869578265190125,-0.0344533850669861,0.333239275360107
0.538461538461538,0.07111346254348751,0.0134470055580139,0.0434419120788569
0.539067231980618,0.21241961488723798,0.039792220401763896,-0.054753888702393096
0.539672925499697,0.013632993793487501,-0.103908951473236,0.182353044891357
0.540278619018776,0.0351881695747375,0.037397200870513896,0.0649970878601069
0.540884312537856,0.0112379742622375,0.00865696649551391,0.0194917167663569
0.541490006056935,-0.0654026507377625,0.00626194696426391,0.0841572441101069
0.542095699576015,0.0639284039497375,-0.0943288733482361,0.141637712860107
0.542701393095094,0.0351881695747375,0.0421872399330139,-0.0092485176086431
0.543307086614173,0.0327931500434875,-0.0607985999107361,-0.0763090644836431
0.543912780133253,-0.0462424944877625,-0.11588404912948601,-0.109839337921143
0.544518473652332,-0.015107240581512499,-0.0224782874107361,-0.11941941604614299
0.545124167171411,0.0208180523872375,0.0493722985267639,0.0673921073913569
0.545729860690491,-0.0366624163627625,0.0565573571205139,-0.0834941230773931
0.54633555420957,-0.0534275530815125,0.0421872399330139,0.110502458953857
0.546941247728649,0.0687184430122375,0.20025852899551402,0.194328142547607
0.547546941247729,-0.218683900737762,-0.0105031897544861,0.148822771453857
0.548152634766808,-0.0438474749565125,-0.048823502254486104,-0.057148908233643096
0.548758328285887,-0.027082338237762498,0.0685324547767639,-0.030803693389893097
0.549364021804967,0.00644793519973754,-0.0799587561607361,0.132057634735107
0.549969715324046,-0.0965379046440125,-0.0344533850669861,0.7667378105163569
0.550575408843125,-0.0510325335502625,0.0685324547767639,0.335634294891357
0.551181102362205,0.0447682476997375,-0.012898209285736099,-0.128999494171143
0.551786795881284,-0.292929506206512,0.0206320641517639,0.287733904266357
0.552392489400363,-0.10851300230026201,0.121222884464264,0.0602070487976069
0.552998182919443,0.119013853168488,0.018237044620513898,0.0218867362976069
0.553603876438522,0.181284360980988,-0.14941432256698597,-0.052358869171143095
0.554209569957601,-0.0534275530815125,-0.000923111629486085,-0.0355937324523931
0.554815263476681,-0.134858217144012,0.29605931024551396,-0.0236186347961431
0.55542095699576,-0.14683331480026202,-0.0871438147544861,0.206303240203857
0.556026650514839,-0.0701926898002625,-0.190129654598236,0.218278337860107
0.556632344033919,0.07111346254348751,0.018237044620513898,-0.0379887519836431
0.557238037552998,-0.00313214292526246,-0.123069107723236,0.115292498016357
0.557843731072078,-0.249819154644012,-0.051218521785736104,0.247018572235107
0.558449424591157,-0.0462424944877625,-0.180549576473236,0.110502458953857
0.559055118110236,0.00884295473098754,0.0781125329017639,0.0458369316101069
0.559660811629316,-0.0989329241752625,-0.051218521785736104,0.203908220672607
0.560266505148395,0.00884295473098754,-0.17815455694198598,0.333239275360107
0.560872198667474,-0.0630076312065125,0.0110519860267639,0.0530219902038569
0.561477892186554,-0.027082338237762498,-0.20928981084823597,0.0841572441101069
0.562083585705633,-0.0845628069877625,-0.00331813116073608,-0.0499638496398931
0.562689279224712,0.0687184430122375,0.14996311883926403,0.223068376922607
0.563294972743792,0.224394712543488,-0.135044205379486,0.297313982391357
0.563900666262871,-0.199523744487762,-0.0871438147544861,-0.136184552764893
0.56450635978195,0.0327931500434875,0.173913314151764,0.0889472831726069
0.56511205330103,0.159729185199738,-0.0727736975669861,0.263783708953857
0.565717746820109,0.0735084820747375,-0.142229263973236,0.000331560516356899
0.566323440339188,-0.0390574358940125,-0.0727736975669861,0.0673921073913569
0.566929133858268,0.00165789613723754,-0.0967238928794861,0.134452654266357
0.567534827377347,0.0208180523872375,-0.194919693660736,0.0410468925476069
0.568140520896426,-0.0941428851127625,-0.0943288733482361,0.0147016777038569
0.568746214415506,-0.0414524554252625,0.157148177433014,0.258993669891357
0.569351907934585,-0.168388490581512,0.178703353214264,0.103317400360107
0.569957601453664,0.0806935406684875,-0.0631936194419861,0.0626020683288569
0.570563294972744,-0.0773777483940125,-0.139834244441986,0.134452654266357
0.571168988491823,-0.233054017925262,0.00147190790176392,-0.184084943389893
0.571774682010902,-0.034267396831512496,-0.0679836585044861,0.134452654266357
0.572380375529982,-0.170783510112762,-0.00810817022323609,0.0649970878601069
0.572986069049061,-0.125278139019012,0.154753157901764,-0.102654279327393
0.57359176256814,0.210024595355988,0.0996677086830139,0.124872576141357
0.57419745608722,0.0040529156684875394,-0.135044205379486,0.400299822235107
0.574803149606299,0.145359068012238,-0.0224782874107361,0.0769721855163569
0.575408843125379,0.0040529156684875394,-0.0631936194419861,0.0027265800476069
0.576014536644458,-0.027082338237762498,0.0110519860267639,0.153612810516357
0.576620230163537,-0.0630076312065125,0.0589523766517639,0.0626020683288569
0.577225923682617,-0.015107240581512499,-0.029663346004486103,0.0673921073913569
0.577831617201696,0.190864439105988,0.0781125329017639,0.144032732391357
0.578437310720775,-0.0965379046440125,0.0493722985267639,-0.167319806671143
0.579043004239855,-0.127673158550262,-0.0560085608482361,-0.0810991035461431
0.579648697758934,0.0974586773872375,-0.175759537410736,0.7068623222351069
0.580254391278013,0.0591383648872375,-0.0152932288169861,-0.0978642402648931
0.580860084797093,0.0280031109809875,0.111642806339264,-0.0379887519836431
0.581465778316172,-0.0318723773002625,0.037397200870513896,0.359584490203857
0.582071471835251,0.0447682476997375,-0.000923111629486085,0.203908220672607
0.582677165354331,-0.132463197612762,0.0589523766517639,0.254203630828857
0.58328285887341,-0.173178529644012,-0.029663346004486103,0.0841572441101069
0.583888552392489,-0.0677976702690125,0.133197982120514,0.311684099578857
0.584494245911569,-0.0941428851127625,-0.0679836585044861,0.213488298797607
0.585099939430648,0.121408872699738,-0.0105031897544861,0.144032732391357
0.585705632949727,-0.0462424944877625,0.0541623375892639,0.338029314422607
0.586311326468807,-0.0941428851127625,-0.410471451473236,0.275758806610107
0.586917019987886,-0.0749827288627625,0.030212142276763897,0.0937373222351069
0.587522713506965,0.186074400043488,0.0493722985267639,0.261388689422607
0.588128407026045,0.056743345355987504,-0.0105031897544861,0.258993669891357
0.588734100545124,-0.173178529644012,0.13080296258926402,0.237438494110107
0.589339794064203,-0.0294773577690125,-0.0991189124107361,0.208698259735107
0.589945487583283,-0.0582175921440125,-0.0344533850669861,0.397904802703857
0.590551181102362,-0.0965379046440125,0.0469772789955139,0.199118181610107
0.591156874621442,-0.0701926898002625,-0.0631936194419861,0.0985273612976069
0.591762568140521,-0.14683331480026202,-0.012898209285736099,0.167982927703857
0.5923682616596,-0.120488099956512,-0.127859146785736,0.0961323417663569
0.59297395517868,-0.0701926898002625,-0.14941432256698597,0.134452654266357
0.593579648697759,-0.0462424944877625,0.0685324547767639,-0.0379887519836431
0.594185342216838,-0.0845628069877625,-0.0584035803794861,0.134452654266357
0.594791035735918,-0.137253236675262,-0.16378443975448598,0.266178728485107
0.595396729254997,0.138174009418488,-0.11348902959823601,-0.0834941230773931
0.596002422774076,0.109433775043488,-0.204499771785736,0.141637712860107
0.596608116293156,-0.0198972796440125,-0.108698990535736,0.103317400360107
0.597213809812235,0.0687184430122375,-0.139834244441986,0.0051215995788569
0.597819503331314,-0.0246873187065125,0.00626194696426391,0.0482319511413569
0.598425196850394,-0.20191876401901201,0.19067845087051402,0.0745771659851069
0.599030890369473,-0.161203431987762,-0.0152932288169861,0.261388689422607
0.599636583888552,0.221999693012238,-0.0560085608482361,-0.06912400588989309
0.600242277407632,-0.0630076312065125,-0.106303971004486,0.201513201141357
0.600847970926711,-0.187548646831512,-0.106303971004486,0.12247755661010701
0.60145366444579,-0.0103172015190125,-0.0967238928794861,0.0506269706726069
0.60205935796487,0.0160280133247375,0.0781125329017639,0.199118181610107
0.602665051483949,-0.252214174175262,0.0493722985267639,0.335634294891357
0.603270745003028,-0.103722963237762,0.0230270836830139,0.0745771659851069
0.603876438522108,0.0902736187934875,-0.048823502254486104,0.251808611297607
0.604482132041187,0.0160280133247375,-0.170969498348236,0.144032732391357
0.605087825560267,-0.0701926898002625,-0.0991189124107361,0.0482319511413569
0.605693519079346,-0.30729962339401196,-0.125464127254486,0.100922380828857
0.606299212598425,-0.0318723773002625,-0.0727736975669861,0.144032732391357
0.606904906117504,0.15733416566848799,0.152358138370514,0.352399431610107
0.607510599636584,0.00644793519973754,0.0326071618080139,-0.0834941230773931
0.608116293155663,0.0303981305122375,0.0254221032142639,0.484125505828857
0.608721986674743,0.00165789613723754,0.121222884464264,0.0985273612976069
0.609327680193822,-0.0246873187065125,-0.11588404912948601,-0.114629376983643
0.609933373712901,0.0830885601997375,0.102062728214264,0.515260759735107
0.610539067231981,-0.00313214292526246,-0.170969498348236,0.110502458953857
0.61114476075106,-0.0222922991752625,-0.281140396785736,-0.133789533233643
0.611750454270139,-0.132463197612762,0.0326071618080139,0.156007830047607
0.612356147789219,-0.137253236675262,-0.0895388342857361,0.242228533172607
0.612961841308298,-0.0438474749565125,0.0517673180580139,0.261388689422607
0.613567534827377,-0.10851300230026201,0.0685324547767639,0.179958025360107
0.614173228346457,0.0280031109809875,0.224208724308014,0.201513201141357
0.614778921865536,-0.0534275530815125,-0.108698990535736,0.129662615203857
0.615384615384615,-0.0318723773002625,-0.221264908504486,-0.0451738105773931
0.615990308903695,-0.0127122210502625,-0.166179459285736,-0.0595439277648931
0.616596002422774,0.0519533062934875,-0.0919338538169861,-0.016433576202393097
0.617201695941853,-0.0941428851127625,0.0733224938392639,0.110502458953857
0.617807389460933,-0.209103822612762,-0.0703786780357361,0.170377947235107
0.618413082980012,0.0615333844184875,-0.120674088191986,0.232648455047607
0.619018776499091,-0.11330304136276201,-0.029663346004486103,0.167982927703857
0.619624470018171,-0.0630076312065125,0.0350021813392639,0.0530219902038569
0.62023016353725,0.018423032855987502,-0.16857447881698598,0.266178728485107
0.620835857056329,0.111828794574738,0.00147190790176392,0.144032732391357
0.621441550575409,0.104643735980988,0.0996677086830139,-0.0451738105773931
0.622047244094488,-0.175573549175262,-0.13743922491073599,0.026676775360106902
0.622652937613568,-0.0534275530815125,-0.11109401006698601,-0.143369611358643
0.623258631132647,0.0232130719184875,-0.0823537756919861,0.117687517547607
0.623864324651726,-0.0390574358940125,-0.0344533850669861,0.165587908172607
0.624470018170806,-0.0989329241752625,-0.06558863897323611,-0.0787040840148931
0.625075711689885,0.0447682476997375,0.00147190790176392,0.12008253707885701
0.625681405208964,0.0495582867622375,0.0781125329017639,0.163192888641357
0.626287098728044,-0.149228334331512,-0.17815455694198598,0.0649970878601069
0.626892792247123,0.0447682476997375,0.00865696649551391,0.0194917167663569
0.627498485766202,-0.0869578265190125,-0.0392434241294861,-0.11702439651489299
0.628104179285282,-0.30490460386276197,-0.142229263973236,0.247018572235107
0.628709872804361,-0.0773777483940125,0.018237044620513898,0.0793672050476069
0.62931556632344,0.0519533062934875,-0.0584035803794861,0.194328142547607
0.62992125984252,-0.228263978862762,0.0852975914955139,0.170377947235107
0.630526953361599,-0.14204327573776201,-0.000923111629486085,-0.0284086738586431
0.631132646880678,0.0256080914497375,-0.135044205379486,0.196723162078857
0.631738340399758,-0.0294773577690125,0.17151829462051402,-0.169714826202393
0.632344033918837,0.0639284039497375,0.0421872399330139,0.000331560516356899
0.632949727437916,0.0902736187934875,-0.15420436162948598,0.177563005828857
0.633555420956996,-0.25700421323776196,0.14996311883926403,0.124872576141357
0.634161114476075,-0.189943666362762,0.126012923526764,0.227858415985107
0.634766807995154,0.0854835797309875,-0.029663346004486103,0.258993669891357
0.635372501514234,-0.103722963237762,-0.185339615535736,0.261388689422607
0.635978195033313,-0.000737123394012459,-0.180549576473236,0.100922380828857
0.636583888552392,0.0782985211372375,-0.0584035803794861,0.0745771659851069
0.637189582071472,0.0950636578559875,-0.278745377254486,0.251808611297607
0.637795275590551,0.0375831891059875,-0.027268326473236102,0.153612810516357
0.638400969109631,-0.118093080425262,0.030212142276763897,0.491310564422607
0.63900666262871,0.0112379742622375,-0.22365992803573598,0.455385271453857
0.639612356147789,0.116618833637238,-0.130254166316986,0.536815935516357
0.640218049666869,0.205234556293488,-0.0248733069419861,0.594296404266357
0.640823743185948,0.0327931500434875,-0.051218521785736104,0.103317400360107
0.641429436705027,-0.216288881206512,-0.0320583655357361,0.199118181610107
0.642035130224107,0.0303981305122375,-0.0344533850669861,0.0985273612976069
0.642640823743186,-0.125278139019012,0.0805075524330139,0.144032732391357
0.643246517262265,-0.144438295269012,-0.147019303035736,0.158402849578857
0.643852210781345,0.130988950824738,0.0972726891517639,-0.0092485176086431
0.644457904300424,-0.101327943706512,0.104457747745514,0.184748064422607
0.645063597819503,-0.0558225726127625,-0.250005142879486,0.187143083953857
0.645669291338583,-0.132463197612762,-0.0224782874107361,-0.0739140449523931
0.646274984857662,-0.218683900737762,0.173913314151764,0.024281755828856902
0.646880678376741,-0.194733705425262,-0.106303971004486,0.318869158172607
0.647486371895821,-0.165993471050262,-0.166179459285736,-0.0044584785461431
0.6480920654149,-0.218683900737762,0.0110519860267639,-0.100259259796143
0.648697758933979,-0.0893528460502625,0.18588841180801402,0.247018572235107
0.649303452453059,0.0950636578559875,-0.11348902959823601,0.134452654266357
0.649909145972138,-0.0414524554252625,-0.204499771785736,0.129662615203857
0.650514839491217,0.0854835797309875,0.173913314151764,0.033861833953856904
0.651120533010297,0.169309263324738,-0.106303971004486,0.0434419120788569
0.651726226529376,-0.0917478655815125,-0.0176882483482361,0.170377947235107
0.652331920048455,0.0303981305122375,-0.0320583655357361,0.366769548797607
0.652937613567535,0.104643735980988,-0.23803004522323598,0.0649970878601069
0.653543307086614,0.178889341449738,-0.21407984991073598,-0.102654279327393
0.654149000605693,-0.0294773577690125,-0.19731471319198599,0.024281755828856902
0.654754694124773,-0.194733705425262,-0.00331813116073608,0.0170966972351069
0.655360387643852,-0.027082338237762498,-0.0536135413169861,0.134452654266357
0.655966081162932,-0.175573549175262,-0.029663346004486103,0.235043474578857
0.656571774682011,0.0615333844184875,-0.0584035803794861,0.110502458953857
0.65717746820109,0.0830885601997375,-0.391311295223236,0.0147016777038569
0.65778316172017,0.0232130719184875,-0.051218521785736104,0.0673921073913569
0.658388855239249,0.188469419574738,-0.135044205379486,-0.0379887519836431
0.658994548758328,0.257924985980988,-0.11109401006698601,-0.0116435371398931
0.659600242277408,0.233974790668488,-0.0823537756919861,0.129662615203857
0.660205935796487,-0.103722963237762,-0.0799587561607361,0.247018572235107
0.660811629315566,-0.0677976702690125,0.19067845087051402,0.0099116386413569
0.661417322834646,0.159729185199738,-0.027268326473236102,-0.0092485176086431
0.662023016353725,-0.00792218198776246,-0.127859146785736,0.0721821464538569
0.662628709872804,-0.180363588237762,0.0445822594642639,0.0626020683288569
0.663234403391884,-0.130068178081512,0.00626194696426391,0.158402849578857
0.663840096910963,-0.0606126116752625,0.0972726891517639,0.194328142547607
0.664445790430042,0.018423032855987502,0.18109837274551402,0.112897478485107
0.665051483949122,0.0782985211372375,-0.000923111629486085,0.0218867362976069
0.665657177468201,-0.0654026507377625,-0.0344533850669861,-0.0284086738586431
0.66626287098728,0.0782985211372375,-0.19252467412948598,0.333239275360107
0.66686856450636,0.07111346254348751,-0.00571315069198609,0.21109327926635701
0.667474258025439,-0.0390574358940125,-0.00810817022323609,0.146427751922607
0.668079951544518,0.0591383648872375,-0.0967238928794861,0.0554170097351069
0.668685645063598,0.0399782086372375,0.0781125329017639,-0.107444318389893
0.669291338582677,0.248344907855988,-0.120674088191986,-0.0643339668273931
0.669897032101756,0.07111346254348751,-0.135044205379486,-0.0810991035461431
0.670502725620836,-0.197128724956512,-0.0224782874107361,0.144032732391357
0.671108419139915,-0.00313214292526246,-0.108698990535736,0.112897478485107
0.671714112658994,0.0232130719184875,0.0757175133705139,0.347609392547607
0.672319806178074,0.130988950824738,0.0517673180580139,0.302104021453857
0.672925499697153,-0.11330304136276201,0.0326071618080139,0.21109327926635701
0.673531193216233,-0.14204327573776201,0.104457747745514,0.194328142547607
0.674136886735312,-0.0414524554252625,-0.216474869441986,0.0913423027038569
0.674742580254391,-0.120488099956512,-0.0679836585044861,0.105712419891357
0.675348273773471,0.0232130719184875,0.147568099308014,-0.0499638496398931
0.67595396729255,0.0519533062934875,-0.271560318660736,0.134452654266357
0.676559660811629,0.0232130719184875,-0.00810817022323609,0.187143083953857
0.677165354330709,-0.015107240581512499,-0.0871438147544861,-0.0403837715148931
0.677771047849788,0.0782985211372375,-0.0775637366294861,0.0697871269226069
0.678376741368867,-0.0773777483940125,-0.0703786780357361,0.378744646453857
0.678982434887947,-0.175573549175262,-0.190129654598236,0.191933123016357
0.679588128407026,-0.0845628069877625,0.0852975914955139,0.0913423027038569
0.680193821926105,-0.0438474749565125,-0.0224782874107361,0.194328142547607
0.680799515445185,0.0543483258247375,0.116432845401764,0.170377947235107
0.681405208964264,0.0782985211372375,-0.103908951473236,0.15121779098510701
0.682010902483343,-0.0294773577690125,0.0469772789955139,0.299709001922607
0.682616596002423,-0.161203431987762,0.183493392276764,0.244623552703857
0.683222289521502,-0.027082338237762498,-0.0105031897544861,-0.27030564651489297
0.683827983040581,0.0303981305122375,-0.11588404912948601,0.115292498016357
0.684433676559661,0.07111346254348751,-0.0895388342857361,0.191933123016357
0.68503937007874,0.0759035016059875,0.039792220401763896,0.218278337860107
0.68564506359782,0.0854835797309875,-0.206894791316986,0.201513201141357
0.686250757116899,0.135778989887238,0.0733224938392639,-0.0810991035461431
0.686856450635978,-0.197128724956512,0.0637424157142639,-0.126604474639893
0.687462144155058,-0.0175022601127625,-0.211684830379486,0.522445818328857
0.688067837674137,0.169309263324738,-0.0248733069419861,0.227858415985107
0.688673531193216,-0.0486375140190125,0.0637424157142639,-0.0092485176086431
0.689279224712296,-0.161203431987762,0.126012923526764,0.321264177703857
0.689884918231375,0.0519533062934875,0.0709274743080139,0.0170966972351069
0.690490611750454,0.0663234234809875,-0.11588404912948601,0.0889472831726069
0.691096305269534,0.0447682476997375,-0.101513931941986,0.0865522636413569
0.691701998788613,0.116618833637238,0.114037825870514,0.21109327926635701
0.692307692307692,0.114223814105988,-0.0560085608482361,-0.0427787910461431
0.692913385826772,0.150149107074738,-0.108698990535736,0.0937373222351069
0.693519079345851,0.0447682476997375,-0.0823537756919861,0.146427751922607
0.69412477286493,0.0351881695747375,-0.144624283504486,0.0673921073913569
0.69473046638401,0.12380389223098799,0.0326071618080139,-0.114629376983643
0.695336159903089,0.0423732281684875,0.0350021813392639,0.0985273612976069
0.695941853422168,0.00644793519973754,-0.19252467412948598,0.177563005828857
0.696547546941248,-0.027082338237762498,-0.24282008428573598,-0.06672898635864309
0.697153240460327,0.121408872699738,-0.288325455379486,-0.0116435371398931
0.697758933979406,0.166914243793488,0.0134470055580139,-0.0954692207336431
0.698364627498486,-0.0917478655815125,0.00147190790176392,0.254203630828857
0.698970321017565,0.0639284039497375,-0.271560318660736,0.0075166191101069
0.699576014536644,0.198049497699738,-0.00810817022323609,0.153612810516357
0.700181708055724,0.107038755512238,0.17630833368301402,0.8649336112976069
0.700787401574803,-0.0486375140190125,0.0972726891517639,0.220673357391357
0.701393095093882,-0.11569806089401201,-0.0775637366294861,0.038651873016356905
0.701998788612962,0.0327931500434875,-0.0607985999107361,-0.0619389472961431
0.702604482132041,0.26271502504348804,0.154753157901764,0.0170966972351069
0.703210175651121,-0.0534275530815125,-0.0919338538169861,0.21109327926635701
0.7038158691702,-0.30490460386276197,-0.027268326473236102,-0.0212236152648931
0.704421562689279,0.0471632672309875,-0.0368484045982361,0.0793672050476069
0.705027256208359,-0.0797727679252625,-0.175759537410736,0.146427751922607
0.705632949727438,-0.130068178081512,-0.14941432256698597,0.0099116386413569
0.706238643246517,0.224394712543488,-0.37215113897323604,0.0673921073913569
0.706844336765597,0.130988950824738,-0.029663346004486103,0.153612810516357
0.707450030284676,-0.204313783550262,0.0421872399330139,-0.016433576202393097
0.708055723803755,-0.192338685894012,-0.0727736975669861,0.244623552703857
0.708661417322835,-0.0749827288627625,-0.0607985999107361,0.100922380828857
0.709267110841914,-0.0534275530815125,0.0421872399330139,0.031466814422606904
0.709872804360993,-0.0893528460502625,0.0278171227455139,0.167982927703857
0.710478497880073,-0.0989329241752625,0.0733224938392639,0.232648455047607
0.711084191399152,0.236369810199738,0.0517673180580139,0.292523943328857
0.711689884918231,-0.0486375140190125,-0.012898209285736099,0.275758806610107
0.712295578437311,-0.0821677874565125,0.00865696649551391,0.251808611297607
0.71290127195639,0.111828794574738,0.18588841180801402,-0.016433576202393097
0.713506965475469,-0.0534275530815125,-0.00331813116073608,0.0985273612976069
0.714112658994549,-0.0654026507377625,-0.16857447881698598,0.179958025360107
0.714718352513628,-0.0486375140190125,-0.0871438147544861,-0.0331987129211431
0.715324046032707,-0.0486375140190125,-0.190129654598236,0.134452654266357
0.715929739551787,-0.185153627300262,-0.166179459285736,-0.0044584785461431
0.716535433070866,-0.0462424944877625,0.0230270836830139,0.000331560516356899
0.717141126589945,-0.0606126116752625,-0.00331813116073608,0.0530219902038569
0.717746820109025,-0.221078920269012,-0.0871438147544861,-0.0068534980773931
0.718352513628104,-0.20191876401901201,-0.0200832678794861,-0.169714826202393
0.718958207147184,-0.14683331480026202,0.0469772789955139,0.110502458953857
0.719563900666263,-0.127673158550262,0.104457747745514,0.0673921073913569
0.720169594185342,-0.0725877093315125,-0.0607985999107361,0.0075166191101069
0.720775287704422,-0.11090802183151201,0.039792220401763896,0.285338884735107
0.721380981223501,-0.175573549175262,0.0517673180580139,0.129662615203857
0.72198667474258,-0.120488099956512,-0.0679836585044861,0.235043474578857
0.72259236826166,-0.0558225726127625,0.104457747745514,0.266178728485107
0.723198061780739,0.0256080914497375,-0.11588404912948601,0.201513201141357
0.723803755299818,0.0280031109809875,-0.11348902959823601,0.144032732391357
0.724409448818898,-0.177968568706512,-0.0799587561607361,0.227858415985107
0.725015142337977,-0.300114564800262,-0.364966080379486,0.191933123016357
0.725620835857056,-0.28574444761276196,-0.341015885066986,-0.100259259796143
0.726226529376136,0.0687184430122375,0.00626194696426391,0.0889472831726069
0.726832222895215,-0.0127122210502625,0.49484593133926397,0.421854998016357
0.727437916414294,0.28187518129348804,0.25294895868301404,0.5320258964538569
0.728043609933374,0.162124204730988,-0.048823502254486104,0.302104021453857
0.728649303452453,-0.0869578265190125,-0.307485611629486,-0.7469145332336431
0.729254996971532,-0.362385072612762,-0.640393326473236,-1.03910691604614
0.729860690490612,-0.482136049175262,-0.18773463506698598,0.287733904266357
0.730466384009691,-0.139648256206512,-0.17815455694198598,0.266178728485107
0.73107207752877,0.41120623598098804,0.303244368839264,0.0865522636413569
0.73167777104785,0.30103533754348805,0.676867415714264,0.5128657402038569
0.732283464566929,0.0112379742622375,0.44455052118301397,0.369164568328857
0.732889158086008,0.00165789613723754,-0.123069107723236,0.330844255828857
0.733494851605088,-0.230658998394012,-0.776909439754486,-0.555312970733643
0.734100545124167,-0.0630076312065125,-0.42244654912948604,-0.7301493965148931
0.734706238643246,-0.35759503355026195,-0.22365992803573598,-0.0140385566711431
0.735311932162326,-0.156413392925262,-0.0751687170982361,0.0745771659851069
0.735917625681405,0.356120786762238,-0.0967238928794861,0.0051215995788569
0.736523319200485,0.5884376812934881,0.473290755558014,0.187143083953857
0.737129012719564,-0.0821677874565125,0.981034896183014,0.5919013847351069
0.737734706238643,-0.161203431987762,0.13559300165176402,0.575136248016357
0.738340399757723,0.018423032855987502,-0.0703786780357361,-0.394846662139893
0.738946093276802,-0.173178529644012,-0.144624283504486,-0.229590314483643
0.739551786795881,-0.283349428081512,-0.489507096004486,0.369164568328857
0.740157480314961,-0.36717511167526196,0.13080296258926402,0.0075166191101069
0.74076317383404,0.0878785992622375,-0.235635025691986,-0.536152814483643
0.741368867353119,0.188469419574738,0.308034407901764,-0.100259259796143
0.741974560872199,0.36091082582473805,0.9906149743080139,1.12599074020386
0.742580254391278,0.48305682191848803,0.18588841180801402,0.6326167167663569
0.743185947910357,0.0806935406684875,0.169123275089264,-0.509807599639893
0.743791641429437,-0.259399232769012,-0.374546158504486,-0.5481279121398931
0.744397334948516,-0.462975892925262,-0.7074538733482361,-0.0810991035461431
0.745003028467595,-0.666552553081513,-0.300300553035736,0.290128923797607
0.745608721986675,-0.00313214292526246,-0.475136978816986,-0.7085942207336431
0.746214415505754,0.502216978168488,-0.0152932288169861,-0.423586896514893
0.746820109024833,0.44234148988723804,0.940319564151764,1.47087355270386
0.747425802543913,0.43994647035598805,0.640942122745514,1.28885206832886
0.748031496062992,-0.20670880308151202,0.0852975914955139,-0.425981916046143
0.748637189582071,-0.601887025737762,-0.410471451473236,-1.34806443557739
0.749242883101151,-0.27616436948776196,-0.831994888973236,-0.722964337921143
0.74984857662023,-0.165993471050262,-0.9062404944419861,0.0817622245788569
0.75045427013931,0.27229510316848804,-0.142229263973236,0.0769721855163569
0.751059963658389,0.645918150043487,0.288874251651764,-0.0882841621398931
0.751665657177468,0.47108172426223804,1.22772190790176,0.8242182792663569
0.752271350696547,0.327380552387238,1.14629124383926,1.43494825973511
0.752877044215627,0.0615333844184875,-0.336225846004486,-0.275095685577393
0.753482737734706,-0.520456361675262,-0.448791763973236,-1.36961961135864
0.754088431253786,-0.319274721050262,-0.779304459285736,-0.6056083808898931
0.754694124772865,0.205234556293488,-0.736194107723236,0.0027265800476069
0.755299818291944,-0.0366624163627625,-0.22365992803573598,-0.342156232452393
0.755905511811024,0.48066180238723805,-0.245215103816986,-0.469092267608643
0.756511205330103,0.447131528949738,0.698422591495514,0.203908220672607
0.757116898849182,0.0591383648872375,1.36902806024551,1.35830763473511
0.757722592368262,0.253134946918488,0.14517307977676402,0.754762712860107
0.758328285887341,-0.664157533550263,0.0733224938392639,-1.07982224807739
0.75893397940642,-0.34801495542526195,-0.388916275691986,-0.859480451202393
0.7595396729255,0.166914243793488,-0.788884537410736,0.7643427909851069
0.760145366444579,-0.580331849956512,0.0948776696205139,0.280548845672607
0.760751059963658,-0.00313214292526246,-0.494297135066986,-0.8139750801086431
0.761356753482738,0.377675962543488,-0.0368484045982361,-0.126604474639893
0.761962447001817,0.48305682191848803,1.16784641962051,1.41339308395386
0.762568140520896,0.38965106019973805,0.281689193058014,1.0900654472351101
0.763173834039976,-0.254609193706512,0.183493392276764,-0.9121708808898931
0.763779527559055,-0.534826478862762,-0.350595963191986,-0.6463237129211431
0.764385221078134,-0.230658998394012,-1.01641139287949,0.0194917167663569
0.764990914597214,-0.321669740581512,-0.6667385413169861,-0.342156232452393
0.765596608116293,-0.0773777483940125,-0.386521256160736,-1.04389695510864
0.766202301635373,0.415996275043488,-0.0200832678794861,-0.0954692207336431
0.766807995154452,0.729743833637237,1.12234104852676,1.51637892379761
0.767413688673531,0.631548032855987,0.978639876651764,1.43734327926636
0.768019382192611,-0.33843487730026195,-0.120674088191986,-0.461907209014893
0.76862507571169,-1.10244610776901,-0.460766861629486,-1.32650925979614
0.769230769230769,-0.491716127300262,-1.12418727178574,-0.399636701202393
0.769836462749849,-0.0438474749565125,-1.18406276006699,-0.0475688301086431
0.770442156268928,0.198049497699738,-0.532617447566986,-0.7708647285461431
0.771047849788007,0.466291685199738,0.0445822594642639,-0.121814435577393
0.771653543307087,0.717768735980987,1.13431614618301,1.44452833786011
0.772259236826166,0.435156431293488,1.36663304071426,1.6888203300476101
0.772864930345245,-0.0917478655815125,0.0230270836830139,-0.282280744171143
0.773470623864325,-0.977905092144013,-0.42244654912948604,-1.40314988479614
0.774076317383404,-0.247424135112762,-0.810439713191986,-0.258330548858643
0.774682010902483,0.396836118793488,-1.22477809209824,-0.030803693389893097
0.775287704421563,-0.0773777483940125,-0.537407486629486,-0.478672345733643
0.775893397940642,0.324985532855988,0.19546848993301402,-0.366106427764893
0.776499091459721,0.5884376812934881,0.648127181339264,0.9224140800476069
0.777104784978801,0.36330584535598803,1.32591770868301,1.62654982223511
0.77771047849788,-0.156413392925262,0.514006087589264,0.539210955047607
0.778316172016959,-0.508481264019012,-0.24761012334823598,-0.8091850410461431
0.778921865536039,-0.280954408550262,-0.319460709285736,-0.490647443389893
0.779527559055118,0.154939146137238,-0.791279556941986,0.026676775360106902
0.780133252574197,0.0519533062934875,-0.731404068660736,-0.437957013702393
0.780738946093277,-0.28813946714401195,0.133197982120514,-1.02234177932739
0.781344639612356,0.468686704730988,0.0110519860267639,0.208698259735107
0.781950333131435,0.890210142230987,0.8085934899330139,1.65050001754761
0.782556026650515,0.159729185199738,1.42171848993301,0.840983415985107
0.783161720169594,-0.290534486675262,-0.0823537756919861,-0.44993211135864297
0.783767413688674,-1.03299054136276,-0.123069107723236,-0.8930107246398931
0.784373107207753,-0.27855938901901195,-0.776909439754486,-0.0619389472961431
0.784978800726832,0.0375831891059875,-1.43314479131699,-0.253540509796143
0.785584494245912,-0.302509584331512,0.157148177433014,-1.34087937698364
0.786190187764991,0.693818540668487,0.0493722985267639,0.333239275360107
0.78679588128407,1.10097186098099,0.664892318058014,1.97143263473511
0.78740157480315,0.265110044574738,1.50314915399551,1.29843214645386
0.788007268322229,-0.580331849956512,-0.027268326473236102,0.0410468925476069
0.788612961841308,-1.21261700620651,-0.285930435848236,-1.02234177932739
0.789218655360388,-0.47495099058151197,-1.07149684209824,-0.234380353546143
0.789824348879467,0.44952654848098805,-1.69180690069199,0.223068376922607
0.790430042398546,0.0830885601997375,-0.42244654912948604,-0.313415998077393
0.791035735917626,0.138174009418488,0.581066634464264,0.12008253707885701
0.791641429436705,0.806384458637237,0.602621810245514,1.76785597457886
0.792247122955784,0.36091082582473805,1.20856175165176,1.66487013473511
0.792852816474864,-0.383940248394012,0.547536361026764,-0.342156232452393
0.793458509993943,-1.10723614683151,-0.417656510066986,-0.8858256660461431
0.794064203513022,-0.525246400737762,-0.654763443660736,-0.380476544952393
0.794669897032102,0.174099302387238,-1.48823024053574,-0.172109845733643
0.795275590551181,0.36091082582473805,-0.752959244441986,-0.936121076202393
0.79588128407026,0.188469419574738,0.411020247745514,-0.677458966827393
0.79648697758934,0.818359556293487,0.387070052433014,1.33675245895386
0.797092671108419,0.502216978168488,1.23969700555801,1.75348585739136
0.797698364627498,-0.252214174175262,1.48877903680801,0.321264177703857
0.798304058146578,-0.182758607769012,-0.230844986629486,-0.490647443389893
0.798909751665657,-0.719242982769013,-0.26198024053573604,-0.358921369171143
0.799515445184736,-0.29771954526901195,-0.635603287410736,-0.030803693389893097
0.800121138703816,0.37288592348098804,-1.15292750616074,-0.883430646514893
0.800726832222895,-0.0390574358940125,0.308034407901764,-1.03671189651489
0.801332525741975,0.868654966449737,0.13080296258926402,0.6110615409851069
0.801938219261054,0.993195982074737,0.37509495477676397,1.27448195114136
0.802543912780133,-0.391125306987762,1.81450169305801,0.486520525360107
0.803149606299213,-0.280954408550262,0.0326071618080139,-0.0284086738586431
0.803755299818292,-0.949164857769013,-0.216474869441986,-0.5122026191711431
0.804360993337371,-0.6090720843315119,-0.635603287410736,-0.5337577949523931
0.804966686856451,0.298640318012238,-1.98878932256699,-0.734939435577393
0.80557238037553,-0.216288881206512,0.300849349308014,-1.01515672073364
0.806178073894609,0.578857603168488,0.18109837274551402,0.505680681610107
0.806783767413689,1.3596339703559899,0.0565573571205139,1.70558546676636
0.807389460932768,0.0998536969184875,1.82647679071426,1.02779493942261
0.807995154451847,-0.580331849956512,0.399045150089264,-0.193665021514893
0.808600847970927,-0.937189760112763,-0.405681412410736,-0.39005662307739297
0.809206541490006,-1.04975567808151,-0.822414810848236,-0.581658185577393
0.809812235009085,0.0399782086372375,-1.86424830694199,-1.04868699417114
0.810417928528165,0.415996275043488,-0.681108658504486,-0.9241459785461431
0.811023622047244,0.854284849262237,0.473290755558014,0.139242693328857
0.811629315566323,1.17282244691849,0.595436751651764,1.57146437301636
0.812235009085403,0.056743345355987504,1.16784641962051,1.34393751754761
0.812840702604482,-0.815043764019013,0.825358626651764,0.033861833953856904
0.813446396123562,-0.997065248394013,-0.175759537410736,-0.6319535957336431
0.814052089642641,-0.599492006206512,-0.649973404598236,-0.5648930488586431
0.81465778316172,0.121408872699738,-1.35650416631699,-0.476277326202393
0.815263476680799,0.600412778949738,-0.980486099910736,-0.9097758613586431
0.815869170199879,0.468686704730988,0.542746321964264,-0.387661603546143
0.816474863718958,0.796804380512237,0.8085934899330139,1.42536818161011
0.817080557238038,0.346540708637238,0.839728743839264,1.24095167770386
0.817686250757117,-0.508481264019012,1.56541966180801,-0.169714826202393
0.818291944276196,-0.565961732769012,0.0757175133705139,0.0793672050476069
0.818897637795276,-0.5731467913627619,-0.31227565069198604,-0.248750470733643
0.819503331314355,-0.47734601011276195,-0.760144303035736,-0.9720463691711431
0.820109024833434,0.31301043519973804,-1.45230494756699,-0.998391584014893
0.820714718352514,0.0375831891059875,0.399045150089264,-0.699014142608643
0.821320411871593,0.839914732074737,0.542746321964264,0.821823259735107
0.821926105390672,1.01235613832474,0.14038304071426402,1.33196241989136
0.822531798909752,-0.451000795269012,1.77139134149551,0.0721821464538569
0.823137492428831,-0.400705385112762,0.288874251651764,-0.018828595733643098
0.82374318594791,-0.695292787456513,-0.501482193660736,0.26857374801635703
0.82434887946699,-0.836598939800263,-0.408076431941986,-0.861875470733643
0.824954572986069,0.056743345355987504,-1.85227320928574,-1.61630662307739
0.825560266505148,0.0303981305122375,-0.15420436162948598,-0.6870390449523931
0.826165960024228,0.741718931293487,0.399045150089264,0.702072283172607
0.826771653543307,1.27341326723099,-0.0560085608482361,1.43973829879761
0.827377347062386,-0.273769349956512,1.51991429071426,0.678122087860107
0.827983040581466,-0.680922670269013,0.7103976891517639,0.0458369316101069
0.828588734100545,-0.927609681987763,-0.582912857723236,-0.179294904327393
0.829194427619624,-1.10244610776901,-0.645183365535736,-0.6702739082336431
0.829800121138704,-0.0701926898002625,-1.85945826787949,-1.14927781448364
0.830405814657783,0.41360125551223803,-0.817624771785736,-0.936121076202393
0.831011508176863,0.983615903949737,0.46610569696426396,0.757157732391357
0.831617201695942,1.07462664613724,0.327194564151764,1.9881977714538601
0.832222895215021,-0.0222922991752625,1.21335179071426,0.577531267547607
0.8328285887341,-0.896474428081513,1.28041233758926,-0.6319535957336431
0.83343428225318,-0.9084495257377629,-0.16857447881698598,-0.0140385566711431
0.834039975772259,-0.786303529644013,-0.6667385413169861,-0.445142072296143
0.834645669291339,0.135778989887238,-1.23435817022324,-1.25705369338989
0.835251362810418,0.614782896137237,-1.35650416631699,-0.9864164863586431
0.835857056329497,0.468686704730988,0.446945540714264,-0.234380353546143
0.836462749848577,0.830334653949737,0.839728743839264,1.26250685348511
0.837068443367656,0.346540708637238,0.844518782901764,1.19305128707886
0.837674136886735,-0.771933412456513,1.73546604852676,-0.406821759796143
0.838279830405815,-0.309694642925262,0.121222884464264,0.601481462860107
0.838885523924894,-0.40789044370651195,-0.649973404598236,0.445805193328857
0.839491217443973,-0.40789044370651195,-0.554172623348236,-1.24268357620239
0.840096910963053,0.459106626605988,-1.24154322881699,-1.34806443557739
0.840702604482132,0.36091082582473805,-0.048823502254486104,-0.406821759796143
0.841308298001211,1.06504656801224,0.5906467125892639,1.11880568161011
0.841913991520291,0.974035825824737,0.22181370477676401,1.17628615036011
0.84251968503937,-0.43423565855026197,1.76181126337051,-0.0212236152648931
0.843125378558449,-0.752773256206513,0.648127181339264,0.364374529266357
0.843731072077529,-0.45579083433151196,-0.6882937170982361,0.371559587860107
0.844336765596608,-0.898869447612763,-0.427236588191986,-0.6726689277648931
0.844942459115687,0.245949888324738,-1.46428004522324,-1.46302537307739
0.845548152634767,0.538142271137238,-0.350595963191986,-0.5744731269836431
0.846153846153846,0.760879087543487,0.633757064151764,0.9080439628601069
0.846759539672925,1.22551287660599,-0.0943288733482361,1.28645704879761
0.847365233192005,-0.197128724956512,0.957084700870514,0.160797869110107
0.847970926711084,-0.961139955425263,0.911579329776764,-0.100259259796143
0.848576620230164,-0.623442201519013,-0.475136978816986,0.460175310516357
0.849182313749243,-0.819833803081513,-0.369756119441986,-0.957676251983643
0.849788007268322,-0.0246873187065125,-1.68222682256699,-1.39356980667114
0.850393700787402,0.825544614887237,-0.958930924129486,-0.138579572296143
0.850999394306481,0.952480650043487,0.403835189151764,1.02779493942261
0.85160508782556,1.12971209535599,0.300849349308014,1.49961378707886
0.85221078134464,0.018423032855987502,1.09599583368301,0.5679511894226069
0.852816474863719,-1.1766917132377601,1.37142307977676,-0.176899884796143
0.853422168382798,-0.489321107769012,-0.0392434241294861,0.421854998016357
0.854027861901878,-0.771933412456513,-0.810439713191986,0.038651873016356905
0.854633555420957,-0.0103172015190125,-1.19124781866074,-1.44865525588989
0.855239248940036,0.552512388324738,-1.29423365850449,-1.24028855667114
0.855844942459116,0.26032000551223805,0.382280013370514,0.455385271453857
0.856450635978195,1.06265154848099,0.746322982120514,1.61696974411011
0.857056329497274,0.47347674379348803,0.487660872745514,0.8625385917663569
0.857662023016354,-0.925214662456513,1.76181126337051,-0.227195294952393
0.858267716535433,-0.39831036558151195,0.7487180016517639,0.795478044891357
0.858873410054512,-0.0845628069877625,-0.882290299129486,0.338029314422607
0.859479103573592,-0.352804994487762,-0.38412623662948603,-1.67618211135864
0.860084797092671,0.286665220355988,-1.33255397100449,-1.50374070510864
0.86069049061175,0.851889829730987,-0.360176041316986,-0.0882841621398931
0.86129618413083,0.681843443012237,0.935529525089264,0.800268083953857
0.861901877649909,0.9476906109809871,0.0206320641517639,1.07809034957886
0.862507571168988,-0.40549542417526196,1.39058323602676,-0.124209455108643
0.863113264688068,-1.08089093198776,1.05767552118301,0.184748064422607
0.863718958207147,-0.0869578265190125,-0.831994888973236,0.797873064422607
0.864324651726227,-1.00185528745651,-0.216474869441986,-1.0055766426086399
0.864930345245306,0.133383970355988,-1.47146510381699,-1.81269822463989
0.865536038764385,0.581252622699738,-1.09305201787949,-0.160134748077393
0.866141732283465,0.653103208637237,0.787038314151764,0.9080439628601069
0.866747425802544,1.11773699769974,-0.44400172491073603,0.860143572235107
0.867353119321623,-0.292929506206512,1.03851536493301,0.024281755828856902
0.867958812840703,-1.4545139788627601,1.43369358758926,0.263783708953857
0.868564506359782,-0.733613099956513,-0.930190689754486,0.7667378105163569
0.869170199878861,-1.09765606870651,-0.410471451473236,-0.916960919952393
0.869775893397941,0.119013853168488,-1.61277125616074,-1.73605759963989
0.87038158691702,0.990800962543487,-1.10023707647324,-0.344551251983643
0.870987280436099,0.408811216449738,0.9283444664955139,0.9319941581726069
0.871592973955179,1.2015626812934899,-0.21407984991073598,1.04695509567261
0.872198667474258,-0.213893861675262,0.473290755558014,-0.0236186347961431
0.872804360993337,-1.1551365374565101,1.57020970087051,-0.222405255889893
0.873410054512417,-0.606677064800262,-0.17336451787948598,1.19784132614136
0.874015748031496,-0.922819642925263,-0.561357681941986,-0.0044584785461431
0.874621441550575,0.056743345355987504,-0.9661159827232361,-1.86059861526489
0.875227135069655,0.815964536762237,-1.58642604131699,-0.914565900421143
0.875832828588734,0.629153013324737,0.490055892276764,0.575136248016357
0.876438522107813,0.631548032855987,0.616991927433014,0.972709490203857
0.877044215626893,0.732138853168487,0.360724837589264,0.714047380828857
0.877649909145972,-0.850969056987763,1.73546604852676,-0.294255841827393
0.878255602665051,-0.719242982769013,0.813383528995514,0.740392595672607
0.878861296184131,-0.11569806089401201,-0.757749283504486,1.08527540817261
0.87946698970321,-0.846179017925263,-0.166179459285736,-1.67618211135864
0.880072683222289,0.48305682191848803,-1.06431178350449,-1.27860886917114
0.880678376741369,1.20874773988724,-0.44160670537948604,0.414669939422607
0.881284070260448,0.35133074769973804,1.19419163446426,0.596691423797607
0.881889763779528,1.0387013531684899,-0.156599381160736,1.02539991989136
0.882495457298607,-0.38633526792526196,1.06725559930801,-0.0451738105773931
0.883101150817686,-1.37787335386276,2.10429905633926,0.354794451141357
0.883706844336766,-0.0654026507377625,-1.21519801397324,0.939179216766357
0.884312537855845,-1.03778058042526,-0.23803004522323598,-1.74563767776489
0.884918231374924,0.111828794574738,-0.776909439754486,-2.07375535354614
0.885523924894004,1.17761248598099,-1.57684596319199,0.280548845672607
0.886129618413083,0.339355650043488,1.54625950555801,0.596691423797607
0.886735311932162,0.964455747699737,-0.6882937170982361,0.304499040985107
0.887341005451242,-0.189943666362762,0.25294895868301404,-0.296650861358643
0.887946698970321,-1.8305320452690101,2.14740940790176,0.302104021453857
0.8885523924894,0.119013853168488,-1.27746852178574,1.0900654472351101
0.88915808600848,-1.2317771624565101,-0.26198024053573604,-0.560103009796143
0.889763779527559,0.0160280133247375,-0.829599869441986,-1.91089402542114
0.890369473046638,1.39076922426224,-2.11812037725449,-0.363711408233643
0.890975166565718,0.238764829730988,1.33789280633926,0.9439692558288569
0.891580860084797,1.48896502504349,-0.127859146785736,0.8122431816101069
0.892186553603876,-0.137253236675262,-0.204499771785736,0.405089861297607
0.892792247122956,-1.08328595151901,2.14501438837051,0.0721821464538569
0.893397940642035,-0.587516908550262,-0.336225846004486,0.975104509735107
0.894003634161115,-0.343224916362762,-0.494297135066986,-0.0331987129211431
0.894609327680194,-0.599492006206512,-0.7266140295982361,-1.99950974807739
0.895215021199273,1.12492205629349,-1.47625514287949,-0.720569318389893
0.895820714718352,0.523772153949738,0.504426009464264,0.881698748016357
0.896426408237432,0.669868345355987,0.49484593133926397,0.5487910331726069
0.897032101756511,0.729743833637237,-0.245215103816986,0.12008253707885701
0.897637795275591,-1.12160626401901,1.59176487665176,-0.107444318389893
0.89824348879467,-0.958744935894013,1.41692845087051,0.9846845878601069
0.898849182313749,-0.568356752300262,-0.681108658504486,0.412274919891357
0.899454875832829,-0.45818585386276195,-0.135044205379486,-1.77198289260864
0.900060569351908,0.33217059144973804,-1.25351832647324,-1.33608933792114
0.900666262870987,1.23269793519974,-0.609258072566986,0.352399431610107
0.901271956390067,-0.0606126116752625,1.15826634149551,0.378744646453857
0.901877649909146,1.47698992738724,0.037397200870513896,0.7116523612976069
0.902483343428225,-0.321669740581512,0.348749739933014,0.496100603485107
0.903089036947305,-1.44732892026901,2.45636692743301,0.450595232391357
0.903694730466384,0.0351881695747375,-0.879895279598236,1.07809034957886
0.904300423985463,-0.994670228862763,-0.762539322566986,-1.41272996292114
0.904906117504543,-0.180363588237762,-0.22844996709823598,-2.22224656448364
0.905511811023622,1.47698992738724,-2.20913111944199,0.539210955047607
0.906117504542701,0.600412778949738,1.67080052118301,0.893673845672607
0.906723198061781,0.638733091449737,0.0517673180580139,0.0673921073913569
0.90732889158086,0.0782985211372375,-0.396101334285736,0.189538103485107
0.907934585099939,-2.08200909605026,2.77011448602676,0.318869158172607
0.908540278619019,-0.419865541362762,-1.25112330694199,0.637406755828857
0.909145972138098,-0.762353334331513,-0.678713638973236,-0.210430158233643
0.909751665657177,-0.41507550230026197,-0.012898209285736099,-1.12293259963989
0.910357359176257,1.57039568910599,-2.43426295537949,0.5128657402038569
0.910963052695336,0.447131528949738,1.34986790399551,1.14754591598511
0.911568746214416,0.801594419574737,-0.226054947566986,0.175167986297607
0.912174439733495,0.231579771137238,-0.999646256160736,-0.291860822296143
0.912780133252574,-1.58145001401901,2.00370823602676,0.263783708953857
0.913385826771653,-0.656972474956513,-0.0847487952232361,1.15233595504761
0.913991520290733,-0.46776593198776195,-0.487112076473236,0.12008253707885701
0.914597213809812,-0.26658429136276196,-0.439211685848236,-1.88933884963989
0.915202907328892,1.01235613832474,-1.30860377569199,-0.8642704902648931
0.915808600847971,0.734533872699737,0.370304915714264,1.05893019332886
0.91641429436705,0.535747251605988,0.293664290714264,0.32844923629760703
0.91701998788613,0.705793638324737,-0.0631936194419861,-0.0331987129211431
0.917625681405209,-0.582726869487762,1.00259007196426,0.484125505828857
0.918231374924288,-1.20064190855026,1.57020970087051,0.7858979667663569
0.918837068443368,-0.0965379046440125,-0.194919693660736,0.467360369110107
0.919442761962447,-0.479741029644012,-0.580517838191986,-1.53727097854614
0.920048455481526,0.542932310199738,-0.477531998348236,-1.72168748245239
0.920654149000606,1.19198260316849,-1.24872828741074,0.996659685516357
0.921259842519685,0.375280943012238,0.916369368839264,0.21109327926635701
0.921865536038764,0.336960630512238,0.30563938837051396,-0.349341291046143
0.922471229557844,0.466291685199738,-0.22844996709823598,0.673332048797607
0.923076923076923,-1.6940159319877601,2.43241673212051,0.395509783172607
0.923682616596002,-1.10484112730026,0.13559300165176402,0.6086665214538569
0.924288310115082,-0.0462424944877625,-1.00922633428574,-0.9457011543273931
0.924894003634161,-0.834203920269013,-0.20928981084823597,-2.22703660354614
0.92549969715324,1.79792254457474,-2.05345484991074,0.335634294891357
0.92610539067232,0.669868345355987,0.25294895868301404,0.898463884735107
0.926711084191399,-0.11330304136276201,1.62769016962051,-0.476277326202393
0.927316777710478,0.624362974262237,-0.879895279598236,0.7835029472351069
0.927922471229558,-1.62216534605026,1.74265110712051,0.6493818534851069
0.928528164748637,-1.48564923276901,0.614596907901764,0.029071794891356903
0.929133858267717,0.107038755512238,-1.87861842412949,-0.349341291046143
0.929739551786796,-0.233054017925262,0.33677464227676396,-1.99711472854614
0.930345245305875,1.0818117047309899,-1.45230494756699,-0.212825177764893
0.930950938824954,1.42908953676224,-0.731404068660736,1.60978468551636
0.931556632344034,-0.539616517925262,1.47201390008926,-0.440352033233643
0.932162325863113,0.717768735980987,-0.8080446936607361,-0.289465802764893
0.932768019382193,-1.36589825620651,0.717582747745514,0.7691328300476069
0.933373712901272,-1.70359601011276,1.78576145868301,0.433830095672607
0.933979406420351,0.485451841449738,-1.70138697881699,0.144032732391357
0.934585099939431,-0.340829896831512,-0.226054947566986,-1.58756638870239
0.93519079345851,1.16563738832474,-0.649973404598236,-0.9864164863586431
0.935796486977589,1.01954119691849,-1.29902369756699,1.39183790817261
0.936402180496669,0.104643735980988,1.82408177118301,-0.0236186347961431
0.937007874015748,0.145359068012238,-0.32425074834823603,-0.8115800605773931
0.937613567534827,0.447131528949738,0.27450413446426397,0.9679194511413569
0.938219261053907,-1.69641095151901,2.33661595087051,0.8625385917663569
0.938824954572986,-0.37436017026901197,-0.817624771785736,-0.0595439277648931
0.939430648092065,0.241159849262238,-0.0200832678794861,-0.8067900215148931
0.940036341611145,0.119013853168488,-0.561357681941986,-0.7061992012023931
0.940642035130224,1.2398829937934899,-1.04275660772324,0.476940447235107
0.941247728649303,-0.034267396831512496,0.449340560245514,0.541605974578857
0.941853422168383,0.43276141176223804,-0.420051529598236,-1.26184373245239
0.942459115687462,0.35372576723098803,0.791828353214264,0.314079119110107
0.943064809206541,-0.937189760112763,1.39537327508926,1.90437208786011
0.943670502725621,-1.06173077573776,0.557116439151764,-0.057148908233643096
0.9442761962447,-0.759958314800263,0.367909896183014,-0.9457011543273931
0.94488188976378,0.653103208637237,-1.42835475225449,-0.962466291046143
0.945487583282859,0.624362974262237,-0.863130142879486,-0.6247685371398931
0.946093276801938,0.873445005512237,0.19067845087051402,0.522445818328857
0.946698970321018,1.13929217348099,-0.695478775691986,-0.39005662307739297
0.947304663840097,-0.628232240581513,1.41213841180801,-0.5481279121398931
0.947910357359176,-0.565961732769012,0.478080794620514,1.97143263473511
0.948516050878256,-1.98620831480026,0.660102278995514,0.7092573417663569
0.949121744397335,-0.896474428081513,0.389465071964264,-0.8451103340148931
0.949727437916414,0.720163755512237,-2.48216334600449,-1.0055766426086399
0.950333131435494,1.70691180238724,0.250553939151764,-0.5145976387023931
0.950938824954573,0.150149107074738,-0.769724381160736,1.05893019332886
0.951544518473652,1.5392604351997399,-0.38173121709823604,-0.0331987129211431
0.952150211992732,-1.11442120542526,1.46003880243301,-1.04150193557739
0.952755905511811,0.530957212543488,-0.436816666316986,1.00863478317261
0.95336159903089,-1.79460675230026,1.44087864618301,0.9703144706726069
0.95396729254997,-1.42337872495651,0.26492405633926397,-0.8091850410461431
0.954572986069049,1.54884051332474,-2.28577174444199,-1.11095750198364
0.955178679588128,-0.44860577573776195,0.875654036808014,-0.418796857452393
0.955784373107208,1.79552752504349,-0.980486099910736,1.09485548629761
0.956390066626287,-0.482136049175262,-0.499087174129486,0.223068376922607
0.956995760145366,0.45192156801223804,1.77618138055801,-1.01276170120239
0.957601453664446,0.729743833637237,-1.87382838506699,0.8098481620788569
0.958207147183525,-1.4545139788627601,2.79166966180801,0.9822895683288569
0.958812840702604,-1.66767071714401,0.672077376651764,-0.342156232452393
0.959418534221684,0.974035825824737,-1.56487086553574,-0.797209943389893
0.960024227740763,0.0998536969184875,0.995405013370514,-1.30016404495239
0.960629921259842,1.2183278180122399,-1.73012721319199,0.814638201141357
0.961235614778922,0.562092466449738,0.588251693058014,0.5847163261413569
