Time (s),Accel X (m/s^2),Accel Y (m/s^2),Accel Z (m/s^2)
0.0,-0.115763175487518,-0.00745281429290772,-0.0966282792091365
0.000605693519079346,-0.168453605175018,-0.0936735174179077,-0.230749372959137
0.00121138703815869,0.0590732502937317,-0.03619304866790771,0.276994767665863
0.00181708055723804,-0.31215477705001804,0.07158283023834229,0.0782081465721135
0.00242277407631738,-0.161268546581268,0.112298162269592,0.06623304891586351
0.00302846759539673,0.044703133106231696,0.0643977716445923,0.20993422079086302
0.00363416111447607,0.0303330159187317,0.07397784976959229,0.111738420009613
0.00423985463355542,-0.257069327831268,-0.148758966636658,0.257834611415863
0.00484554815263477,-0.051097648143768305,-0.134388849449158,-0.30259995889663704
0.00545124167171411,0.0135678791999817,-0.0194279119491577,-0.00322251749038653
0.00605693519079346,-0.0989980387687683,-0.00745281429290772,0.15484877157211302
0.0066626287098728,0.0566782307624817,-0.230189630699158,0.308130021572113
0.00726832222895215,-0.0606777262687683,-0.179894220542908,0.114133439540863
0.0078740157480315,-0.0031972575187683102,0.126668279457092,-0.07028306436538649
0.00847970926711084,-0.120553214550018,-0.0146378728866577,0.15484877157211302
0.00908540278619019,-0.0630727458000183,0.0476326349258423,0.0135426192283635
0.00969109630526953,-0.113368155956268,0.0979280450820923,-0.137343611240387
0.0102967898243489,-0.0223574137687683,-0.153549005699158,-0.281044783115387
0.0109024833434282,-0.0391225504875183,-0.029007990074157698,-0.12776353311538702
0.0115081768625076,-0.10857811689376799,-0.0673283025741577,0.29615492391586296
0.0121138703815869,0.042308113574981696,-0.0864884588241577,0.504521623134613
0.0127195639006663,-0.230724112987518,0.0859529474258423,0.272204728603363
0.0133252574197456,0.126133797168732,-0.189474298667908,0.0806031661033635
0.013930950938825,0.0183579182624817,-0.230189630699158,0.0422828536033635
0.0145366444579043,0.03272803544998169,0.14822345523834202,-0.192429060459137
0.0151423379769836,-0.0654677653312683,0.0284724786758423,0.12610853719711299
0.015748031496063,0.0830234456062317,0.0188924005508423,0.0925782637596135
0.0163537250151423,0.0494931721687317,-0.0649332830429077,0.0925782637596135
0.0169594185342217,0.00398780107498169,-0.0170328924179077,0.372795548915863
0.017565112053301,0.183614265918732,0.15301349430084202,0.250649552822113
0.0181708055723804,-0.0199623942375183,0.038052556800842297,0.20993422079086302
0.0187764990914597,0.0710483479499817,0.0476326349258423,0.14526869344711302
0.0193821926105391,0.0231479573249817,0.0164973810195923,0.14526869344711302
0.0199878861296184,0.193194344043732,0.0835579278945923,0.169218888759613
0.0205935796486978,-0.0271474528312683,-0.00745281429290772,0.0973683028221135
0.0211992731677771,0.0758383870124817,-0.0697233221054077,0.157243791103363
0.0218049666868564,-0.0055922770500183095,0.0164973810195923,0.0806031661033635
0.0224106602059358,0.09739356279373171,0.10511310367584199,0.133293595790863
0.0230163537250151,0.176429207324982,-0.170314142417908,0.279389787197113
0.0236220472440945,-0.08223290205001829,-0.129598810386658,-0.0463328690528865
0.0242277407631738,-0.0319374918937683,-0.00745281429290772,0.207539201259613
0.0248334342822532,-0.225934073925018,-0.057748224449157705,0.250649552822113
0.0254391278013325,0.133318855762482,-0.057748224449157705,0.13089857625961301
0.0260448213204119,-0.07744286298751829,-0.124808771324158,0.312920060634613
0.0266505148394912,0.0207529377937317,0.179358709144592,0.257834611415863
0.0272562083585706,-0.0223574137687683,-0.108043634605408,0.114133439540863
0.0278619018776499,-0.0151723551750183,0.009312322425842281,-0.07028306436538649
0.0284675953967293,0.138108894824982,0.169778631019592,0.13568861532211302
0.0290732889158086,-0.0343325114250183,-0.09846355648040771,0.185984025478363
0.0296789824348879,0.312945320606232,0.0236824396133423,-0.0990232987403865
0.0302846759539673,0.0878134846687317,0.07637286930084229,0.401535783290863
0.0308903694730466,-0.125343253612518,0.0404475763320923,0.13089857625961301
0.031496062992126,-0.32173485517501804,-0.18228924007415798,0.188379045009613
0.0321017565112053,-0.154083487987518,-0.052958185386657704,0.15963881063461302
0.0327074500302847,-0.122948234081268,-0.00505779476165772,-0.0583079667091365
0.033313143549364,0.09499854326248171,-0.230189630699158,-0.0223826737403865
0.0339188370684434,-0.178033683300018,-0.0769083806991577,-0.10381333780288701
0.0345245305875227,-0.163663566112518,0.14822345523834202,0.176403947353363
0.0351302241066021,-0.0582827067375183,-0.105648615074158,0.22430433797836302
0.0357359176256814,-0.115763175487518,-0.139178888511658,0.13568861532211302
0.0363416111447607,0.44706641435623196,0.0404475763320923,0.0374928145408635
0.0369473046638401,-0.0175673747062683,-0.0816984197616577,-0.142133650302887
0.0375529981829194,0.0231479573249817,0.06918781070709229,-0.07746812295913649
0.0381586917019988,0.0207529377937317,-0.055353204917907704,0.29615492391586296
0.0387643852210781,-0.046307609081268304,-0.0385880681991577,0.15484877157211302
0.0393700787401575,0.102183601856232,0.00691730289459228,0.19556410360336302
0.0399757722592368,-0.055887687206268306,-0.115228693199158,-0.0104075760841365
0.0405814657783162,-0.130133292675018,0.205703923988342,-0.0990232987403865
0.0411871592973955,0.035123054981231694,0.0907429864883423,0.5141017012596131
0.0417928528164749,0.0470981526374817,0.033262517738342295,0.35603041219711296
0.0423985463355542,-0.199588859081268,0.038052556800842297,-0.122973494052887
0.0430042398546336,0.241094734668732,-0.000267755699157722,0.250649552822113
0.0436099333737129,-0.0367275309562683,-0.143968927574158,0.176403947353363
0.0442156268927922,-0.13252831220626798,-0.0888834783554077,-0.0463328690528865
0.0448213204118716,-0.146898429393768,-0.0481681463241577,0.0590479903221135
0.0454270139309509,-0.000802237987518311,-0.0194279119491577,-0.0463328690528865
0.0460327074500303,0.0470981526374817,0.0188924005508423,0.0374928145408635
0.0466384009691096,-0.11097313642501799,-0.00745281429290772,0.0710230879783635
0.047244094488189,0.0207529377937317,-0.0457731267929077,0.19556410360336302
0.0478497880072683,0.0111728596687317,0.0476326349258423,0.123713517665863
0.0484554815263477,0.142898933887482,0.141038396644592,-0.0439378495216365
0.049061175045427,-0.0702578043937683,-0.0146378728866577,0.20514418172836302
0.0496668685645064,0.118948738574982,0.251209295082092,0.27459974813461296
0.0502725620835857,-0.10378807783126799,-0.0864884588241577,0.20514418172836302
0.050878255602665,-0.07744286298751829,-0.105648615074158,0.0494679121971135
0.0514839491217444,-0.0606777262687683,-0.0816984197616577,0.22430433797836302
0.0520896426408237,-0.161268546581268,-0.0649332830429077,0.0829981856346135
0.0526953361599031,-0.0247524333000183,0.0955330255508423,-0.00322251749038653
0.0533010296789824,-0.118158195018768,-0.17270916194915797,0.19077406454086301
0.0539067231980618,0.00398780107498169,0.109903142738342,0.138083634853363
0.0545124167171411,-0.10378807783126799,-0.0266129705429077,0.207539201259613
0.0551181102362205,0.09499854326248171,-0.158339044761658,0.339265275478363
0.0557238037552998,-0.151688468456268,-0.14636394710540798,0.0255177168846135
0.0563294972743792,-0.08702294111251829,-0.0194279119491577,-0.122973494052887
0.0569351907934585,0.0159628987312317,-0.13199382991790798,0.123713517665863
0.0575408843125379,-0.29299462080001804,-0.258929865074158,0.20514418172836302
0.0581465778316172,-0.0031972575187683102,0.0212874200820923,0.138083634853363
0.0587522713506965,0.0494931721687317,0.18175372867584202,0.0159376387596135
0.0593579648697759,0.0015927815437316898,0.0164973810195923,0.133293595790863
0.0599636583888552,-0.134923331737518,-0.199054376792908,0.188379045009613
0.0605693519079346,0.09499854326248171,-0.110438654136658,0.00396254110336347
0.0611750454270139,0.0159628987312317,-0.0912784978866577,0.128503556728363
0.0617807389460933,-0.28341454267501803,0.054817693519592293,0.212329240322113
0.0623864324651726,-0.055887687206268306,-0.167919122886658,-0.125368513584137
0.062992125984252,-0.0031972575187683102,-0.0960685369491577,-0.16847886514663699
0.0635978195033313,-0.0175673747062683,0.10511310367584199,0.0638380293846135
0.0642035130224107,-0.00798729658126831,-0.223004572105408,0.166823869228363
0.06480920654149,0.157269051074982,-0.103253595542908,-0.0966282792091365
0.0654149000605694,-0.0582827067375183,0.0404475763320923,0.00396254110336347
0.0660205935796487,-0.048702628612518305,-0.0697233221054077,0.0734181075096135
0.066626287098728,-0.0103823161125183,0.038052556800842297,0.250649552822113
0.0672319806178074,-0.0151723551750183,0.0212874200820923,0.106948380947113
0.0678376741368867,-0.055887687206268306,-0.0457731267929077,0.0350977950096135
0.0684433676559661,-0.0630727458000183,-0.100858576011658,0.0829981856346135
0.0690490611750454,0.044703133106231696,-0.0745133611679077,0.13089857625961301
0.0696547546941248,-0.163663566112518,-0.103253595542908,0.15484877157211302
0.0702604482132041,0.0231479573249817,-0.0721183416366577,0.0590479903221135
0.0708661417322835,0.00877784013748169,0.0643977716445923,0.238674455165863
0.0714718352513628,-0.07265282392501829,-0.0960685369491577,0.511706681728363
0.0720775287704422,-0.07265282392501829,-0.292460138511658,0.291364884853363
0.0726832222895215,-0.10618309736251799,-0.0457731267929077,0.114133439540863
0.0732889158086008,0.109368660449982,0.0141023614883423,0.109343400478363
0.0738946093276802,0.0758383870124817,-0.105648615074158,0.0997633223533635
0.0745003028467595,0.00877784013748169,-0.0936735174179077,0.322500138759613
0.0751059963658389,0.042308113574981696,-0.19186931819915798,0.229094377040863
0.0757116898849182,0.0638632893562317,0.124273259925842,0.0997633223533635
0.0763173834039976,0.0159628987312317,-0.0697233221054077,-0.13973863077163698
0.0769230769230769,-0.122948234081268,-0.0266129705429077,0.114133439540863
0.0775287704421563,-0.187613761425018,-0.167919122886658,0.176403947353363
0.0781344639612356,-0.00798729658126831,0.00452228336334228,-0.07028306436538649
0.078740157480315,-0.0391225504875183,0.272764470863342,-0.0583079667091365
0.0793458509993943,0.0183579182624817,0.0117073419570923,-0.0535179276466365
0.0799515445184737,-0.043912589550018304,-0.060143243980407705,0.0327027754783635
0.080557238037553,-0.173243644237518,-0.00984783382415772,0.0973683028221135
0.0811629315566323,0.0518881916999817,0.0452376153945923,0.109343400478363
0.0817686250757117,-0.122948234081268,-0.108043634605408,0.29375990438461297
0.082374318594791,-0.0031972575187683102,0.0524226739883423,0.133293595790863
0.0829800121138704,-0.051097648143768305,0.0452376153945923,0.308130021572113
0.0835857056329497,-0.144503409862518,0.0859529474258423,0.157243791103363
0.0841913991520291,-0.0247524333000183,-0.0194279119491577,0.0135426192283635
0.0847970926711084,-0.0031972575187683102,0.188938787269592,0.212329240322113
0.0854027861901878,-0.0055922770500183095,-0.0673283025741577,-0.0798631424903865
0.0860084797092671,-0.08462792158126829,-0.029007990074157698,0.21951429891586302
0.0866141732283465,0.0830234456062317,0.13864337711334201,0.262624650478363
0.0872198667474258,-0.0199623942375183,-0.213424493980408,0.0758131270408635
0.0878255602665051,0.174034187793732,-0.0218229314804077,0.13568861532211302
0.0884312537855845,-0.0942079997062683,-0.153549005699158,0.174008927822113
0.0890369473046638,-0.0127773356437683,0.0164973810195923,-0.110998396396637
0.0896426408237432,-0.0103823161125183,-0.052958185386657704,0.217119279384613
0.0902483343428225,-0.000802237987518311,-0.208634454917908,0.33447523641586296
0.0908540278619019,0.0279379963874817,-0.16073406429290799,-0.13973863077163698
0.0914597213809812,-0.221144034862518,-0.127203790855408,0.0015675215721134702
0.0920654149000606,0.128528816699982,-0.0242179510116577,0.221909318447113
0.0926711084191399,-0.142108390331268,0.224864080238342,0.217119279384613
0.0932768019382193,0.293785164356232,-0.057748224449157705,0.14047865438461302
0.0938824954572986,0.133318855762482,-0.16073406429290799,0.202749162197113
0.094488188976378,-0.0319374918937683,0.112298162269592,0.00396254110336347
0.0950938824954573,-0.0319374918937683,-0.105648615074158,0.0279127364158635
0.0956995760145366,0.0255429768562317,-0.00266277523040772,0.0782081465721135
0.096305269533616,0.0758383870124817,-0.09846355648040771,0.14526869344711302
0.0969109630526953,-0.139713370800018,0.06918781070709229,-0.00322251749038653
0.0975166565717747,0.0638632893562317,0.06918781070709229,0.0973683028221135
0.098122350090854,0.130923836231232,-0.052958185386657704,0.42548597860336296
0.0987280436099334,0.16684912919998202,-0.0266129705429077,0.169218888759613
0.0993337371290127,-0.247489249706268,-0.033798029136657706,0.231489396572113
0.0999394306480921,0.0902085041999817,-0.0409830877304077,0.32489515829086296
0.100545124167171,-0.0151723551750183,-0.0457731267929077,0.114133439540863
0.101150817686251,-0.182823722362518,-0.110438654136658,0.0758131270408635
0.10175651120533,-0.113368155956268,0.07876788883209229,0.518891740322113
0.102362204724409,-0.0343325114250183,0.0524226739883423,0.26501967000961296
0.102967898243489,-0.053492667675018306,0.263184392738342,0.0207276778221135
0.103573591762568,0.130923836231232,0.0164973810195923,0.229094377040863
0.104179285281647,0.28899512529373195,-0.31401531429290797,0.0758131270408635
0.104784978800727,-0.240304191112518,-0.0194279119491577,-0.192429060459137
0.105390672319806,0.0303330159187317,0.121878240394592,-0.122973494052887
0.105996365838886,-0.0630727458000183,0.08116290836334229,0.157243791103363
0.106602059357965,-0.0127773356437683,0.0164973810195923,-0.0535179276466365
0.107207752877044,-0.115763175487518,0.0164973810195923,0.0782081465721135
0.107813446396124,0.126133797168732,0.0164973810195923,0.22430433797836302
0.108419139915203,0.212354500293732,-0.120018732261658,0.21472425985336302
0.109024833434282,-0.187613761425018,0.00452228336334228,0.006357560634613469
0.109630526953362,-0.0654677653312683,-0.000267755699157722,0.0015675215721134702
0.110236220472441,-0.149293448925018,-0.325990411949158,0.0949732832908635
0.11084191399152,0.044703133106231696,0.21288898258209202,-0.10381333780288701
0.1114476075106,-0.199588859081268,-0.029007990074157698,0.0973683028221135
0.112053301029679,-0.11097313642501799,-0.158339044761658,0.118923478603363
0.112658994548758,-0.0678627848625183,0.191333806800842,0.0159376387596135
0.113264688067838,-0.166058585643768,-0.194264337730408,0.245859513759613
0.113870381586917,0.0710483479499817,-0.112833673667908,0.133293595790863
0.114476075105996,-0.101393058300018,-0.0314030096054077,0.0279127364158635
0.115081768625076,0.140503914356232,0.035657537269592296,0.0782081465721135
0.115687462144155,-0.127738273143768,0.10271808414459199,0.212329240322113
0.116293155663234,-0.115763175487518,-0.110438654136658,-0.07267808389663649
0.116898849182314,-0.07744286298751829,0.114693181800842,0.0422828536033635
0.117504542701393,-0.125343253612518,0.0284724786758423,0.22430433797836302
0.118110236220472,0.0878134846687317,-0.105648615074158,-0.122973494052887
0.118715929739552,-0.0702578043937683,-0.0697233221054077,0.0470728926658635
0.119321623258631,-0.0295424723625183,-0.199054376792908,0.32489515829086296
0.11992731677771,-0.055887687206268306,0.10511310367584199,0.0806031661033635
0.12053301029679,0.0638632893562317,0.21767902164459202,0.245859513759613
0.121138703815869,-0.10857811689376799,0.0260774591445923,0.300944962978363
0.121744397334949,-0.163663566112518,0.0524226739883423,0.0949732832908635
0.122350090854028,-0.0918129801750183,-0.0793034002304077,0.291364884853363
0.122955784373107,-0.149293448925018,0.0236824396133423,0.0566529707908635
0.123561477892187,-0.134923331737518,-0.0673283025741577,0.0470728926658635
0.124167171411266,0.0135678791999817,-0.029007990074157698,0.32489515829086296
0.124772864930345,0.006382820606231691,0.00212726383209228,0.29375990438461297
0.125378558449425,-0.0103823161125183,-0.21102947444915798,0.054257951259613496
0.125984251968504,0.171639168262482,-0.14636394710540798,0.00396254110336347
0.126589945487583,0.0566782307624817,-0.112833673667908,0.241069474697113
0.127195639006663,0.135713875293732,-0.033798029136657706,0.114133439540863
0.127801332525742,-0.213958976268768,0.0835579278945923,0.0997633223533635
0.128407026044821,-0.125343253612518,-0.0864884588241577,0.0279127364158635
0.129012719563901,-0.118158195018768,-0.108043634605408,0.0877882246971135
0.12961841308298,-0.0654677653312683,0.07637286930084229,0.0710230879783635
0.130224106602059,0.0566782307624817,-0.0481681463241577,-0.15410874795913698
0.130829800121139,-0.163663566112518,-0.0888834783554077,-0.0463328690528865
0.131435493640218,0.0902085041999817,0.119483220863342,0.432671037197113
0.132041187159297,-0.206773917675018,0.215284002113342,0.051862931728363496
0.132646880678377,-0.266649405956268,-0.108043634605408,-0.027172712802886502
0.133252574197456,-0.07744286298751829,-0.0912784978866577,0.229094377040863
0.133858267716535,0.044703133106231696,0.07876788883209229,0.291364884853363
0.134463961235615,0.0303330159187317,-0.15115398616790798,0.30573500204086296
0.135069654754694,-0.08702294111251829,-0.13199382991790798,-0.0415428299903865
0.135675348273773,-0.0319374918937683,0.0141023614883423,0.20514418172836302
0.136281041792853,-0.0678627848625183,-0.0170328924179077,0.00396254110336347
0.136886735311932,-0.201983878612518,0.0164973810195923,0.25304457235336303
0.137492428831012,0.037518074512481694,0.00452228336334228,0.308130021572113
0.138098122350091,-0.125343253612518,-0.055353204917907704,0.31531508016586296
0.13870381586917,-0.206773917675018,0.210493963050842,0.16442884969711302
0.13930950938825,0.0662583088874817,0.0524226739883423,0.279389787197113
0.139915202907329,-0.247489249706268,-0.110438654136658,0.42548597860336296
0.140520896426408,-0.0678627848625183,-0.057748224449157705,0.0446778731346135
0.141126589945488,0.09499854326248171,-0.16073406429290799,0.114133439540863
0.141732283464567,-0.233119132518768,-0.14636394710540798,-0.00322251749038653
0.142337976983646,-0.168453605175018,-0.0888834783554077,-0.0822581620216365
0.142943670502726,-0.247489249706268,0.0404475763320923,0.0279127364158635
0.143549364021805,-0.055887687206268306,0.109903142738342,0.169218888759613
0.144155057540884,-0.0367275309562683,-0.175104181480408,0.0734181075096135
0.144760751059964,-0.233119132518768,0.054817693519592293,0.15963881063461302
0.145366444579043,-0.295389640331268,0.160198552894592,0.248254533290863
0.145972138098122,-0.08223290205001829,-0.27329998226165797,0.0877882246971135
0.146577831617202,0.0806284260749817,-0.184684259605408,-0.00561753702163653
0.147183525136281,-0.13252831220626798,-0.0769083806991577,-0.281044783115387
0.14778921865536,0.0806284260749817,0.121878240394592,-0.07267808389663649
0.14839491217444,0.00398780107498169,0.0117073419570923,0.169218888759613
0.149000605693519,-0.0678627848625183,-0.17270916194915797,0.138083634853363
0.149606299212598,0.0159628987312317,0.009312322425842281,0.0901832442283635
0.150211992731678,0.0830234456062317,-0.0793034002304077,0.123713517665863
0.150817686250757,-0.225934073925018,0.035657537269592296,0.12610853719711299
0.151423379769836,-0.08462792158126829,0.035657537269592296,0.0470728926658635
0.152029073288916,0.171639168262482,-0.179894220542908,0.06623304891586351
0.152634766807995,-0.0367275309562683,0.0236824396133423,-0.10381333780288701
0.153240460327075,-0.257069327831268,0.0212874200820923,0.111738420009613
0.153846153846154,-0.175638663768768,-0.103253595542908,0.32489515829086296
0.154451847365233,0.09739356279373171,0.062002752113342295,0.327290177822113
0.155057540884313,0.0614682698249817,-0.0505631658554077,0.269809709072113
0.155663234403392,0.109368660449982,-0.00745281429290772,0.0494679121971135
0.156268927922471,-0.127738273143768,0.07876788883209229,0.0853932051658635
0.156874621441551,-0.0343325114250183,-0.03619304866790771,0.197959123134613
0.15748031496063,-0.13252831220626798,-0.208634454917908,0.0782081465721135
0.158086008479709,-0.134923331737518,-0.29485515804290796,0.0686280684471135
0.158691701998789,0.0255429768562317,0.0236824396133423,0.20993422079086302
0.159297395517868,-0.0966030192375183,-0.18228924007415798,0.06623304891586351
0.159903089036947,-0.0127773356437683,-0.108043634605408,0.243464494228363
0.160508782556027,-0.149293448925018,-0.0122428533554077,-0.146923689365387
0.161114476075106,0.0015927815437316898,-0.103253595542908,0.243464494228363
0.161720169594185,-0.00798729658126831,0.141038396644592,0.765578752040863
0.162325863113265,-0.0606777262687683,0.009312322425842281,0.104553361415863
0.162931556632344,0.00877784013748169,-0.057748224449157705,0.147663712978363
0.163537250151423,0.0878134846687317,0.009312322425842281,0.26501967000961296
0.164142943670503,0.126133797168732,-0.0266129705429077,0.051862931728363496
0.164748637189582,-0.08223290205001829,0.009312322425842281,-0.106208357334137
0.165354330708661,0.195589363574982,-0.0481681463241577,-0.06788804483413649
0.165960024227741,-0.0630727458000183,-0.0864884588241577,0.142873673915863
0.16656571774682,0.0662583088874817,0.00691730289459228,0.226699357509613
0.167171411265899,0.0806284260749817,-0.203844415855408,0.178798966884613
0.167777104784979,-0.13252831220626798,-0.17270916194915797,0.188379045009613
0.168382798304058,-0.101393058300018,-0.057748224449157705,-0.029567732334136503
0.168988491823137,-0.0319374918937683,-0.0936735174179077,-0.106208357334137
0.169594185342217,0.0135678791999817,-0.148758966636658,0.226699357509613
0.170199878861296,-0.13252831220626798,-0.09846355648040771,-0.0104075760841365
0.170805572380376,-0.146898429393768,-0.0409830877304077,0.0255177168846135
0.171411265899455,0.035123054981231694,0.0212874200820923,0.169218888759613
0.172016959418534,0.150083992481232,0.126668279457092,0.0949732832908635
0.172622652937614,-0.223539054393768,-0.00266277523040772,0.0327027754783635
0.173228346456693,0.0854184651374817,0.107508123207092,-0.0822581620216365
0.173834039975772,0.205169441699982,0.057212713050842294,0.0853932051658635
0.174439733494852,0.102183601856232,-0.112833673667908,0.006357560634613469
0.175045427013931,-0.146898429393768,-0.100858576011658,0.14047865438461302
0.17565112053301,-0.0582827067375183,-0.0864884588241577,0.0494679121971135
0.17625681405209,0.0183579182624817,0.119483220863342,-0.036752790927886504
0.176862507571169,-0.07744286298751829,-0.15594402523040798,0.0877882246971135
0.177468201090248,-0.055887687206268306,-0.13678386898040798,0.12610853719711299
0.178073894609328,-0.221144034862518,-0.105648615074158,0.0901832442283635
0.178679588128407,-0.07504784345626829,0.07637286930084229,0.183589005947113
0.179285281647486,-0.32173485517501804,0.0212874200820923,0.255439591884613
0.179890975166566,-0.051097648143768305,-0.14636394710540798,0.217119279384613
0.180496668685645,0.0279379963874817,0.17217365055084202,-0.151713728427887
0.181102362204724,-0.130133292675018,-0.14636394710540798,-0.036752790927886504
0.181708055723804,-0.0127773356437683,-0.110438654136658,0.123713517665863
0.182313749242883,-0.240304191112518,0.08116290836334229,0.0829981856346135
0.182919442761962,0.006382820606231691,0.0188924005508423,0.142873673915863
0.183525136281042,-0.0247524333000183,-0.167919122886658,0.181193986415863
0.184130829800121,-0.0702578043937683,-0.110438654136658,0.121318498134613
0.1847365233192,-0.233119132518768,-0.100858576011658,0.162033830165863
0.18534221683828,-0.101393058300018,0.0404475763320923,0.054257951259613496
0.185947910357359,0.0015927815437316898,-0.000267755699157722,0.0710230879783635
0.186553603876439,-0.07983788251876829,0.00452228336334228,0.29615492391586296
0.187159297395518,-0.000802237987518311,-0.23737468929290798,0.176403947353363
0.187764990914597,-0.156478507518768,-0.42418621273040796,-0.192429060459137
0.188370684433677,-0.0391225504875183,-0.057748224449157705,-0.269069685459137
0.188976377952756,-0.08462792158126829,-0.0122428533554077,0.188379045009613
0.189582071471835,0.128528816699982,-0.0218229314804077,0.171613908290863
0.190187764990915,-0.245094230175018,-0.0840934392929077,0.193169084072113
0.190793458509994,-0.127738273143768,0.062002752113342295,-0.0559129471778865
0.191399152029073,-0.0127773356437683,0.07637286930084229,0.31531508016586296
0.192004845548153,-0.046307609081268304,0.054817693519592293,0.806294084072113
0.192610539067232,-0.115763175487518,0.18175372867584202,0.0446778731346135
0.193216232586311,-0.316944816112518,-0.120018732261658,-0.10381333780288701
0.193821926105391,0.231514656543732,0.0164973810195923,0.233884416103363
0.19442761962447,-0.211563956737518,0.062002752113342295,0.106948380947113
0.195033313143549,-0.08223290205001829,-0.139178888511658,0.138083634853363
0.195639006662629,0.171639168262482,-0.19665935726165798,0.162033830165863
0.196244700181708,0.159664070606232,-0.213424493980408,-0.000827497959136527
0.196850393700787,-0.048702628612518305,0.0476326349258423,-0.106208357334137
0.197456087219867,0.035123054981231694,0.210493963050842,0.169218888759613
0.198061780738946,0.250674812793732,0.030867498207092302,0.231489396572113
0.198667474258025,-0.201983878612518,0.00452228336334228,0.0638380293846135
0.199273167777105,0.106973640918732,0.06918781070709229,-0.0151976151466365
0.199878861296184,-0.115763175487518,-0.143968927574158,0.0949732832908635
0.200484554815263,0.104578621387482,0.10271808414459199,0.14526869344711302
0.201090248334343,0.0015927815437316898,-0.00745281429290772,0.166823869228363
0.201695941853422,-0.0103823161125183,-0.057748224449157705,0.0734181075096135
0.202301635372502,0.0183579182624817,-0.0816984197616577,0.128503556728363
0.202907328891581,-0.216353995800018,-0.09846355648040771,0.0901832442283635
0.20351302241066,0.0806284260749817,0.0476326349258423,0.0686280684471135
0.20411871592974,-0.11097313642501799,-0.0840934392929077,0.0710230879783635
0.204724409448819,0.0782334065437317,-0.0840934392929077,0.15005873250961302
0.205330102967898,-0.221144034862518,-0.110438654136658,0.0853932051658635
0.205935796486978,-0.00798729658126831,-0.00266277523040772,0.104553361415863
0.206541490006057,-0.07265282392501829,-0.0170328924179077,0.272204728603363
0.207147183525136,0.006382820606231691,-0.0625382635116577,-0.13494859170913698
0.207752877044216,0.111763679981232,-0.055353204917907704,0.0734181075096135
0.208358570563295,-0.120553214550018,-0.0960685369491577,0.0566529707908635
0.208964264082374,0.037518074512481694,-0.033798029136657706,0.28417982625961297
0.209569957601454,0.03272803544998169,0.0260774591445923,0.298549943447113
0.210175651120533,0.09499854326248171,0.14343341617584202,0.0853932051658635
0.210781344639612,-0.0606777262687683,-0.060143243980407705,0.185984025478363
0.211387038158692,0.03272803544998169,-0.057748224449157705,-0.0511229081153865
0.211992731677771,0.104578621387482,-0.0936735174179077,0.13089857625961301
0.21259842519685,-0.0582827067375183,-0.00984783382415772,-0.00561753702163653
0.21320411871593,-0.151688468456268,-0.0218229314804077,0.0207276778221135
0.213809812235009,-0.0415175700187683,-0.0960685369491577,0.241069474697113
0.214415505754088,-0.0942079997062683,0.0117073419570923,0.21472425985336302
0.215021199273168,-0.0702578043937683,-0.22060955257415799,0.106948380947113
0.215626892792247,-0.0415175700187683,0.062002752113342295,0.226699357509613
0.216232586311326,-0.288204581737518,-0.0266129705429077,0.0806031661033635
0.216838279830406,0.109368660449982,0.033262517738342295,0.15484877157211302
0.217443973349485,0.0902085041999817,0.0835579278945923,0.0566529707908635
0.218049666868565,0.0782334065437317,-0.120018732261658,-0.0463328690528865
0.218655360387644,-0.199588859081268,-0.0721183416366577,0.27459974813461296
0.219261053906723,-0.29299462080001804,0.0188924005508423,0.272204728603363
0.219866747425803,-0.115763175487518,-0.0433781072616577,0.0806031661033635
0.220472440944882,-0.0989980387687683,-0.23737468929290798,-0.19482407999038698
0.221078134463961,-0.0654677653312683,-0.105648615074158,0.6146925215721131
0.221683827983041,-0.0678627848625183,-0.0697233221054077,0.41351088094711297
0.22228952150212,0.27462500810623197,-0.0170328924179077,0.16442884969711302
0.222895215021199,0.0902085041999817,-0.110438654136658,0.118923478603363
0.223500908540279,0.0566782307624817,0.0236824396133423,0.0159376387596135
0.224106602059358,-0.000802237987518311,0.0117073419570923,0.106948380947113
0.224712295578437,-0.0654677653312683,-0.0505631658554077,0.21472425985336302
0.225317989097517,-0.101393058300018,-0.0194279119491577,0.121318498134613
0.225923682616596,-0.144503409862518,-0.163129083824158,-0.14452866983413698
0.226529376135675,0.0542832112312317,-0.100858576011658,0.114133439540863
0.227135069654755,-0.206773917675018,-0.0864884588241577,-0.0607029862403865
0.227740763173834,-0.0175673747062683,0.0404475763320923,0.0015675215721134702
0.228346456692913,0.0590732502937317,-0.00266277523040772,0.0494679121971135
0.228952150211993,-0.0391225504875183,-0.0194279119491577,0.0973683028221135
0.229557843731072,0.118948738574982,0.129063298988342,0.133293595790863
0.230163537250151,0.138108894824982,-0.0505631658554077,0.051862931728363496
0.230769230769231,0.181219246387482,-0.00745281429290772,0.0853932051658635
0.23137492428831,0.0494931721687317,-0.0242179510116577,0.197959123134613
0.231980617807389,0.0710483479499817,-0.0697233221054077,0.243464494228363
0.232586311326469,0.0902085041999817,-0.23258465023040797,0.0782081465721135
0.233192004845548,0.00877784013748169,-0.165524103355408,-0.0439378495216365
0.233797698364627,-0.0966030192375183,-0.0745133611679077,-0.0990232987403865
0.234403391883707,0.044703133106231696,0.10032306461334199,0.310525041103363
0.235009085402786,-0.10857811689376799,0.059607732582092295,0.360820451259613
0.235614778921866,-0.08223290205001829,-0.16073406429290799,0.06623304891586351
0.236220472440945,0.0710483479499817,-0.0673283025741577,0.267414689540863
0.236826165960024,0.0111728596687317,-0.052958185386657704,0.197959123134613
0.237431859479104,0.0638632893562317,0.00691730289459228,0.15484877157211302
0.238037552998183,-0.0175673747062683,-0.124808771324158,0.116528459072113
0.238643246517262,0.0135678791999817,0.0883479669570923,-0.19482407999038698
0.239248940036342,-0.0415175700187683,-0.225399591636658,-0.0535179276466365
0.239854633555421,0.0758383870124817,-0.203844415855408,-0.00322251749038653
0.2404603270745,-0.139713370800018,-0.0146378728866577,-0.113393415927887
0.24106602059358,0.0638632893562317,-0.0314030096054077,0.152453752040863
0.241671714112659,0.140503914356232,-0.14636394710540798,0.118923478603363
0.242277407631738,-0.0367275309562683,-0.292460138511658,-0.106208357334137
0.242883101150818,0.09499854326248171,-0.0433781072616577,0.0566529707908635
0.243488794669897,-0.233119132518768,0.124273259925842,0.193169084072113
0.244094488188976,-0.043912589550018304,0.033262517738342295,0.111738420009613
0.244700181708056,-0.125343253612518,-0.00505779476165772,0.279389787197113
0.245305875227135,-0.10378807783126799,0.188938787269592,0.14526869344711302
0.245911568746214,-0.118158195018768,-0.0673283025741577,0.157243791103363
0.246517262265294,-0.0966030192375183,-0.0745133611679077,0.248254533290863
0.247122955784373,0.0686533284187317,-0.060143243980407705,0.20035414266586302
0.247728649303452,-0.213958976268768,0.0667927911758423,-0.027172712802886502
0.248334342822532,-0.0918129801750183,-0.0505631658554077,-0.0439378495216365
0.248940036341611,0.133318855762482,-0.163129083824158,0.226699357509613
0.24954572986069,-0.120553214550018,0.059607732582092295,-0.192429060459137
0.25015142337977,-0.0295424723625183,-0.0816984197616577,-0.15410874795913698
0.250757116898849,0.123738777637482,-0.0649332830429077,-0.13494859170913698
0.251362810417929,-0.163663566112518,-0.100858576011658,0.41351088094711297
0.251968503937008,0.03272803544998169,-0.0194279119491577,0.8517994551658631
0.252574197456087,-0.168453605175018,0.119483220863342,0.0255177168846135
0.253179890975167,-0.134923331737518,0.126668279457092,0.0686280684471135
0.253785584494246,0.0806284260749817,-0.0481681463241577,0.0494679121971135
0.254391278013325,-0.120553214550018,-0.143968927574158,0.118923478603363
0.254996971532405,0.0159628987312317,-0.0122428533554077,0.25304457235336303
0.255602665051484,-0.237909171581268,0.035657537269592296,0.0710230879783635
0.256208358570563,-0.0415175700187683,-0.223004572105408,0.207539201259613
0.256814052089643,-0.0606777262687683,-0.115228693199158,0.0015675215721134702
0.257419745608722,0.044703133106231696,0.126668279457092,0.0279127364158635
0.258025439127801,-0.08462792158126829,0.0188924005508423,0.327290177822113
0.258631132646881,-0.201983878612518,0.126668279457092,0.111738420009613
0.25923682616596,-0.053492667675018306,0.0404475763320923,0.123713517665863
0.259842519685039,-0.07265282392501829,0.054817693519592293,0.0470728926658635
0.260448213204119,0.224329597949982,-0.14636394710540798,-0.115788435459137
0.261053906723198,0.111763679981232,-0.0769083806991577,0.006357560634613469
0.261659600242277,-0.051097648143768305,0.126668279457092,0.0686280684471135
0.262265293761357,-0.13252831220626798,-0.124808771324158,0.0374928145408635
0.262870987280436,0.140503914356232,-0.127203790855408,0.241069474697113
0.263476680799515,-0.0367275309562683,-0.103253595542908,0.20514418172836302
0.264082374318595,0.0614682698249817,0.00691730289459228,0.0829981856346135
0.264688067837674,-0.163663566112518,-0.0816984197616577,0.15484877157211302
0.265293761356753,-0.194798820018768,-0.033798029136657706,0.183589005947113
0.265899454875833,0.0782334065437317,0.0141023614883423,0.0734181075096135
0.266505148394912,0.0758383870124817,-0.165524103355408,0.138083634853363
0.267110841913992,0.0878134846687317,-0.0649332830429077,0.104553361415863
0.267716535433071,-0.26185936689376804,-0.0769083806991577,0.0255177168846135
0.26832222895215,0.159664070606232,0.133853338050842,0.0925782637596135
0.26892792247123,-0.127738273143768,0.07158283023834229,0.114133439540863
0.269533615990309,-0.13731835126876799,0.0117073419570923,0.0758131270408635
0.270139309509388,0.039913094043731695,-0.0385880681991577,0.30573500204086296
0.270745003028468,-0.115763175487518,0.00691730289459228,0.420695939540863
0.271350696547547,-0.249884269237518,-0.057748224449157705,0.308130021572113
0.271956390066626,-0.07744286298751829,-0.20623943538665798,0.250649552822113
0.272562083585706,-0.0582827067375183,0.0643977716445923,-0.19482407999038698
0.273167777104785,-0.25467430830001797,0.0260774591445923,0.0159376387596135
0.273773470623864,0.0255429768562317,-0.00505779476165772,0.16442884969711302
0.274379164142944,0.0878134846687317,-0.35473064632415796,0.118923478603363
0.274984857662023,-0.043912589550018304,-0.251744806480408,0.162033830165863
0.275590551181102,-0.185218741893768,0.141038396644592,0.178798966884613
0.276196244700182,0.0470981526374817,0.155408513832092,0.269809709072113
0.276801938219261,-0.144503409862518,0.033262517738342295,0.106948380947113
0.27740763173834,0.0542832112312317,-0.0864884588241577,-0.07507310342788649
0.27801332525742,0.30815528154373195,-0.22060955257415799,0.0255177168846135
0.278619018776499,-0.228329093456268,-0.299645197105408,0.250649552822113
0.279224712295578,0.0111728596687317,-0.0649332830429077,0.142873673915863
0.279830405814658,-0.199588859081268,0.0835579278945923,0.351240373134613
0.280436099333737,-0.0894179606437683,0.15301349430084202,0.25304457235336303
0.281041792852816,0.190799324512482,-0.30443523616790796,0.45422621297836296
0.281647486371896,0.102183601856232,-0.199054376792908,0.5548170332908631
0.282253179890975,0.0590732502937317,0.114693181800842,0.147663712978363
0.282858873410055,-0.0942079997062683,-0.0170328924179077,0.176403947353363
0.283464566929134,-0.0127773356437683,0.141038396644592,0.14526869344711302
0.284070260448213,-0.07983788251876829,-0.03619304866790771,0.188379045009613
0.284675953967293,0.126133797168732,-0.0409830877304077,0.0590479903221135
0.285281647486372,-0.127738273143768,-0.34275554866790797,0.0470728926658635
0.285887341005451,0.0662583088874817,-0.0697233221054077,-0.0583079667091365
0.286493034524531,0.00398780107498169,0.18654376773834203,-0.110998396396637
0.28709872804361,-0.0343325114250183,0.0476326349258423,0.250649552822113
0.287704421562689,-0.134923331737518,0.141038396644592,0.308130021572113
0.288310115081769,-0.122948234081268,-0.03619304866790771,-0.034357771396636504
0.288915808600848,0.22193457841873201,-0.0721183416366577,-0.036752790927886504
0.289521502119927,-0.0582827067375183,-0.20623943538665798,-0.20440415811538698
0.290127195639007,-0.10618309736251799,-0.19665935726165798,0.291364884853363
0.290732889158086,-0.07265282392501829,0.0212874200820923,0.327290177822113
0.291338582677165,-0.187613761425018,0.23683917789459202,0.0901832442283635
0.291944276196245,-0.269044425487518,0.193728826332092,0.104553361415863
0.292549969715324,0.150083992481232,-0.184684259605408,-0.108603376865387
0.293155663234403,0.126133797168732,-0.40263103694915797,-0.15410874795913698
0.293761356753483,-0.0391225504875183,-0.0505631658554077,0.0446778731346135
0.294367050272562,-0.10618309736251799,0.299109685707092,0.31531508016586296
0.294972743791641,-0.206773917675018,0.311084783363342,0.054257951259613496
0.295578437310721,-0.10618309736251799,-0.230189630699158,-0.254699568271637
0.2961841308298,0.142898933887482,-0.5774674627304079,-0.350500349521637
0.296789824348879,0.178824226856232,-0.28288006038665797,-0.0151976151466365
0.297395517867959,-0.32412987470626803,0.038052556800842297,0.006357560634613469
0.298001211387038,-0.221144034862518,0.193728826332092,0.12610853719711299
0.298606904906118,-0.187613761425018,0.179358709144592,0.22430433797836302
0.299212598425197,0.09739356279373171,-0.163129083824158,0.0231226973533635
0.299818291944276,0.09739356279373171,-0.24695476741790798,-0.0439378495216365
0.300423985463356,-0.166058585643768,-0.302040216636658,-0.30259995889663704
0.301029678982435,0.138108894824982,-0.175104181480408,-0.240329451084137
0.301635372501514,0.102183601856232,0.145828435707092,0.0566529707908635
0.302241066020594,-0.113368155956268,0.174568670082092,0.36561049032211296
0.302846759539673,-0.206773917675018,0.16738361148834202,0.437461076259613
0.303452453058752,0.006382820606231691,0.129063298988342,0.19556410360336302
0.304058146577832,-0.0127773356437683,-0.491246759605408,-0.0822581620216365
0.304663840096911,0.181219246387482,-0.634947931480408,-0.197219099521637
0.30526953361599,0.22193457841873201,0.155408513832092,0.25304457235336303
0.30587522713507,-0.122948234081268,0.318269841957092,0.420695939540863
0.306480920654149,-0.0942079997062683,0.521846502113342,0.250649552822113
0.307086614173228,-0.046307609081268304,-0.148758966636658,-0.0175926346778865
0.307692307692308,0.45664649248123196,-0.723563654136658,-0.27385972452163704
0.308298001211387,0.262649910449982,-0.366705743980408,-0.369660505771637
0.308903694730466,-0.242699210643768,0.196123845863342,0.0327027754783635
0.309509388249546,-0.515731437206268,0.593697088050842,0.288969865322113
0.310115081768625,-0.285809562206268,0.390120427894592,0.183589005947113
0.310720775287704,0.16205909013748201,-0.03619304866790771,0.0758131270408635
0.311326468806784,-0.07504784345626829,-0.481666681480408,0.418300920009613
0.311932162325863,-0.151688468456268,-0.199054376792908,-0.367265486240387
0.312537855844942,-0.348080070018768,0.141038396644592,-0.43193101358413705
0.313143549364022,-0.0678627848625183,0.39491046695709203,0.26501967000961296
0.313749242883101,-0.053492667675018306,0.267974431800842,0.233884416103363
0.31435493640218,0.26743994951248196,-0.347545587730408,0.231489396572113
0.31496062992126,0.28899512529373195,-0.30443523616790796,-0.221169294834137
0.315566323440339,-0.228329093456268,-0.381075861167908,-0.340920271396637
0.316172016959419,-0.0271474528312683,-0.340360529136658,-0.41516587686538703
0.316777710478498,0.135713875293732,0.17696368961334202,0.288969865322113
0.317383403997577,-0.0654677653312683,0.380540349769592,0.497336564540863
0.317989097516657,-0.07744286298751829,0.150618474769592,0.13089857625961301
0.318594791035736,0.102183601856232,0.18175372867584202,0.121318498134613
0.319200484554815,0.195589363574982,-0.766674005699158,-0.446301130771637
0.319806178073895,0.279415047168732,-0.551122247886658,-0.455881208896637
0.320411871592974,0.212354500293732,0.24162921695709202,0.226699357509613
0.321017565112053,-0.288204581737518,0.653572576332092,0.530866837978363
0.321623258631133,-0.29059960126876805,0.782903631019592,0.276994767665863
0.322228952150212,-0.130133292675018,-0.256534845542908,-0.20440415811538698
0.322834645669291,0.432696297168732,-0.8768449041366579,-0.30499497842788703
0.323440339188371,0.36803076982498195,-0.567887384605408,-0.170873884677887
0.32404603270745,-0.0678627848625183,0.399700506019592,0.0446778731346135
0.324651726226529,-0.522916495800018,0.670337713050842,0.102158341884613
0.325257419745609,-0.223539054393768,0.531426580238342,0.162033830165863
0.325863113264688,0.233909676074982,-0.290065118980408,0.267414689540863
0.326468806783767,0.35605567216873196,-0.692428400230408,-0.187639021396637
0.327074500302847,-0.19240380048751798,-0.352335626792908,-0.43193101358413705
0.327680193821926,-0.561236808300018,0.184148748207092,0.0279127364158635
0.328285887341005,-0.139713370800018,0.512266423988342,0.281784806728363
0.328891580860085,0.0542832112312317,0.24641925601959203,0.33447523641586296
0.329497274379164,0.629087898731232,-0.175104181480408,0.26501967000961296
0.330102967898244,0.0758383870124817,-0.26371990413665797,-0.319365095615387
0.330708661417323,-0.142108390331268,-0.179894220542908,-0.419955915927887
0.331314354936402,-0.30017967939376805,-0.122413751792908,-0.125368513584137
0.331920048455482,0.138108894824982,0.32545490055084203,0.387165666103363
0.332525741974561,-0.0582827067375183,0.552981756019592,0.456621232509613
0.33313143549364,0.042308113574981696,0.28473956851959203,0.226699357509613
0.33373712901272,-0.10378807783126799,0.17217365055084202,0.0327027754783635
0.334342822531799,0.154874031543732,-0.781044122886658,-0.556472029209137
0.334948516050878,0.0806284260749817,-0.563097345542908,-0.0990232987403865
0.335554209569958,-0.0630727458000183,0.205703923988342,0.35603041219711296
0.336159903089037,-0.34089501142501805,0.667942693519592,0.46380629110336297
0.336765596608116,-0.448670890331268,0.569746892738342,0.20993422079086302
0.337371290127196,0.171639168262482,-0.460111505699158,-0.182848982334137
0.337976983646275,0.44467139482498197,-1.09718670101166,-0.5804222245216369
0.338582677165354,-0.0271474528312683,-0.508011896324158,-0.34331529092788704
0.339188370684434,-0.0151723551750183,0.358985173988342,0.241069474697113
0.339794064203513,-0.43190575361251804,0.881099431800842,0.30573500204086296
0.340399757722592,-0.319339835643768,0.572141912269592,0.0686280684471135
0.341005451241672,0.5835825276374821,-0.735538751792908,-0.321760115146637
0.341611144760751,0.300970222949982,-0.967855646324158,-0.575632185459137
0.34221683827983,-0.156478507518768,-0.175104181480408,0.250649552822113
0.34282253179891,-0.36005516767501805,0.282344548988342,0.298549943447113
0.343428225317989,-0.19719383955001799,0.694287908363342,0.231489396572113
0.344033918837068,0.27462500810623197,0.289529607582092,0.583557267665863
0.344639612356148,0.535682137012482,-0.385865900230408,0.0734181075096135
0.345245305875227,-0.10857811689376799,-0.426581232261658,-0.369660505771637
0.345850999394306,-0.0247524333000183,-0.352335626792908,-0.554077009677887
0.346456692913386,-0.642667472362518,0.062002752113342295,-0.0463328690528865
0.347062386432465,0.140503914356232,0.277554509925842,0.21951429891586302
0.347668079951545,0.133318855762482,0.368565252113342,0.545236955165863
0.348273773470624,-0.316944816112518,0.193728826332092,0.358425431728363
0.348879466989703,-0.146898429393768,-0.0505631658554077,-0.180453962802887
0.349485160508783,0.341685554981232,-0.9367203924179079,-0.6043724198341369
0.350090854027862,-0.0127773356437683,-0.515196954917908,-0.259489607334137
0.350696547546941,0.0111728596687317,0.342220037269592,0.511706681728363
0.351302241066021,-0.348080070018768,0.948159978675842,0.382375627040863
0.3519079345851,-0.434300773143768,0.682312810707092,0.492546525478363
0.352513628104179,0.250674812793732,-0.280485040855408,-0.190034040927887
0.353119321623259,0.5476572346687321,-1.45883465023041,-0.798369001865387
0.353725015142338,0.200379402637482,-0.565492365074158,-0.182848982334137
0.354330708661417,-0.269044425487518,0.763743474769592,0.255439591884613
0.354936402180497,-0.659432609081268,0.933789861488342,0.317710099697113
0.355542095699576,-0.166058585643768,0.45478595523834203,0.25304457235336303
0.356147789218655,0.6841733479499821,-1.04210125179291,-0.130158552646637
0.356753482737735,0.322525398731232,-1.03252117366791,-0.659457869052887
0.357359176256814,-0.216353995800018,0.387725408363342,-0.515756697177887
0.357964869775893,-0.36245018720626804,0.655967595863342,0.16442884969711302
0.358570563294973,-0.0702578043937683,0.756558416175842,0.300944962978363
0.359176256814052,0.255464851856232,0.21288898258209202,0.377585587978363
0.359781950333131,0.30815528154373195,-0.706798517417908,-0.0463328690528865
0.360387643852211,0.193194344043732,-0.546332208824158,-0.48222642374038704
0.36099333737129,0.0303330159187317,-0.20144939632415798,-0.345710310459137
0.361599030890369,-0.5324965739250179,0.107508123207092,0.29615492391586296
0.362204724409449,0.214749519824982,0.358985173988342,0.504521623134613
0.362810417928528,0.116553719043732,0.517056463050842,0.442251115322113
0.363416111447607,0.037518074512481694,0.251209295082092,0.236279435634613
0.364021804966687,-0.113368155956268,-0.450531427574158,-0.446301130771637
0.364627498485766,0.39677100419998196,-1.04928631038666,-0.6019774003028869
0.365233192004846,0.233909676074982,-0.31401531429290797,-0.15889878702163698
0.365838885523925,0.0830234456062317,0.622437322425842,0.487756486415863
0.366444579043004,-0.407955558300018,1.40081867008209,0.7344434981346131
0.367050272562084,-0.45106590986251804,0.715843084144592,0.171613908290863
0.367655966081163,0.217144539356232,-0.663688165855408,-0.594792341709137
0.368261659600242,0.631482918262482,-1.70791668148041,-1.01152574014664
0.368867353119322,0.0542832112312317,-0.385865900230408,-0.367265486240387
0.369473046638401,-0.41035057783126805,1.0942561700820899,0.300944962978363
0.37007874015748,-0.5516567301750179,1.38884357242584,0.739233537197113
0.37068443367656,-0.134923331737518,0.270369451332092,0.329685197353363
0.371290127195639,0.629087898731232,-1.03012615413666,-0.161293806552887
0.371895820714718,0.303365242481232,-1.10676677913666,0.35363539266586297
0.372501514233798,-0.27143944501876804,0.23683917789459202,-0.07507310342788649
0.373107207752877,-0.542076652050018,1.21161212711334,0.193169084072113
0.373712901271956,-0.209168937206268,0.854754216957092,0.451831193447113
0.374318594791036,0.47580664873123196,-0.148758966636658,0.377585587978363
0.374924288310115,0.7033335041999821,-0.666083185386658,-0.429535994052887
0.375529981829194,-0.38400536298751803,-0.527172052574158,-0.41277085733413704
0.376135675348274,-0.38400536298751803,-0.361915704917908,-0.288229841709137
0.376741368867353,-0.07744286298751829,0.29431964664459204,0.272204728603363
0.377347062386432,0.178824226856232,0.529031560707092,0.621877580165863
0.377952755905512,0.322525398731232,0.505081365394592,0.530866837978363
0.378558449424591,-0.151688468456268,0.145828435707092,0.188379045009613
0.379164142943671,-0.237909171581268,-0.5391471502304079,-0.853454451084137
0.37976983646275,0.449461433887482,-1.38458904476166,-0.7217283768653869
0.380375529981829,0.039913094043731695,-0.469691583824158,0.13568861532211302
0.380981223500909,0.123738777637482,0.797273748207092,0.6362476973533631
0.381586917019988,-0.276229484081268,1.31699298648834,0.387165666103363
0.382192610539067,-0.32412987470626803,0.567351873207092,0.0159376387596135
0.382798304058147,0.382400887012482,-1.17382732601166,-0.611557478427887
0.383403997577226,0.6650131916999821,-1.62888103694916,-0.9205149979591369
0.384009691096305,0.118948738574982,-0.09846355648040771,0.0566529707908635
0.384615384615385,-0.635482413768768,1.23556232242584,0.6554078536033631
0.385221078134464,-0.647457511425018,1.2906477716445899,0.530866837978363
0.385826771653543,-0.139713370800018,-0.03619304866790771,0.255439591884613
0.386432465172623,1.03145117998123,-1.2839982244491601,-0.470251326084137
0.387038158691702,0.39437598466873197,-1.19298748226166,-0.767233747959137
0.387643852210781,-0.585187003612518,0.193728826332092,-0.22835435342788699
0.388249545729861,-0.6929628825187679,1.10623126773834,0.624272599697113
0.38885523924894,-0.32412987470626803,0.7781135919570921,0.518891740322113
0.389460932768019,0.370425789356232,-0.266114923667908,0.171613908290863
0.390066626287099,0.559632332324982,-0.642132990074158,-0.6858030838966369
0.390672319806178,-0.139713370800018,-0.567887384605408,-0.678618025302887
0.391278013325257,-0.7121230387687679,-0.029007990074157698,-0.379240583896637
0.391883706844337,-0.0271474528312683,0.557771795082092,0.320105119228363
0.392489400363416,-0.048702628612518305,0.507476384925842,0.724863420009613
0.393095093882495,0.0470981526374817,0.49550128726959203,0.47338636922836297
0.393700787401575,-0.247489249706268,0.164988591957092,0.0350977950096135
0.394306480920654,0.0207529377937317,-0.6972184392929079,-0.795973982334137
0.394912174439733,0.399166023731232,-1.18580242366791,-0.659457869052887
0.395517867958813,0.26743994951248196,-0.0385880681991577,0.21951429891586302
0.396123561477892,-0.00798729658126831,0.991270330238342,0.760788712978363
0.396729254996972,-0.515731437206268,1.36728839664459,0.605112443447113
0.397334948516051,-0.319339835643768,0.545796697425842,0.102158341884613
0.39794064203513,0.27702002763748196,-1.62409099788666,-0.829504255771637
0.39854633555421,0.554842293262482,-1.59774578304291,-0.556472029209137
0.399152029073289,0.0590732502937317,0.10511310367584199,0.171613908290863
0.399757722592368,-0.539681632518768,1.30262286930084,0.645827775478363
0.400363416111448,-0.702542960643768,1.41518878726959,0.605112443447113
0.400969109630527,0.0135678791999817,-0.316410333824158,-0.06549302530288649
0.401574803149606,1.0554013752937301,-1.54745037288666,-0.22835435342788699
0.402180496668686,0.34647559404373196,-0.788229181480408,-0.252304548740387
0.402786190187765,-0.563631827831268,0.596092107582092,-0.271464704990387
0.403391883706844,-0.606742179393768,1.12539142398834,0.31531508016586296
0.403997577225924,-0.0295424723625183,0.7996687677383421,0.583557267665863
0.404603270745003,0.614717781543732,-0.46250652523040797,0.33447523641586296
0.405208964264082,0.233909676074982,-0.781044122886658,-0.728913435459137
0.405814657783162,-0.29299462080001804,-0.800204279136658,-0.738493513584137
0.406420351302241,-0.6522475504875179,-0.199054376792908,-0.202009138584137
0.40702604482132,0.253069832324982,0.399700506019592,0.391955705165863
0.4076317383404,0.0590732502937317,0.5601668146133421,0.947600236415863
0.408237431859479,-0.127738273143768,0.32545490055084203,0.5141017012596131
0.408843125378558,-0.34329003095626803,-0.0481681463241577,-0.137343611240387
0.409448818897638,0.111763679981232,-0.802599298667908,-0.733703474521637
0.410054512416717,0.145293953418732,-1.18340740413666,-0.419955915927887
0.410660205935796,0.35845069169998195,0.129063298988342,0.641037736415863
0.411265899454876,-0.151688468456268,1.20682208805084,0.902094865322113
0.411871592973955,-0.647457511425018,1.40321368961334,0.499731584072113
0.412477286493035,-0.34329003095626803,0.296714666175842,-0.151713728427887
0.413082980012114,0.39677100419998196,-1.66720134944916,-0.9037498612403869
0.413688673531193,0.41593116044998196,-1.38458904476166,-0.618742537021637
0.414294367050273,-0.120553214550018,0.42365070133209204,0.372795548915863
0.414900060569352,-0.6330873942375179,1.80797199039459,0.542841935634613
0.415505754088431,-0.640272452831268,1.45590411930084,0.142873673915863
0.416111447607511,0.241094734668732,-0.500826837730408,0.06623304891586351
0.41671714112659,0.8063193440437321,-1.6815714666366601,-0.669037947177887
0.417322834645669,0.0806284260749817,-0.766674005699158,-0.767233747959137
0.417928528164749,-1.00910546064377,0.861939275550842,0.00875258016586347
0.418534221683828,-0.448670890331268,1.14694659976959,0.6769630293846131
0.419139915202907,0.0806284260749817,0.490711248207092,0.789528947353363
0.419745608721987,0.552447273731232,-0.522382013511658,0.250649552822113
0.420351302241066,0.16205909013748201,-0.840919611167908,-0.467856306552887
0.420956995760145,-0.233119132518768,-0.872054865074158,-0.532521833896637
0.421562689279225,-0.6139272379875179,-0.00266277523040772,0.00875258016586347
0.422168382798304,0.281810066699982,0.593697088050842,0.509311662197113
0.422774076317383,0.09499854326248171,0.730213201332092,0.880539689540863
0.423379769836463,-0.187613761425018,0.378145330238342,0.447041154384613
0.423985463355542,-0.120553214550018,-0.139178888511658,-0.21877427530288698
0.424591156874621,0.231514656543732,-1.24807293148041,-0.872614607334137
0.425196850393701,0.310550301074982,-1.19777752132416,-0.190034040927887
0.42580254391278,0.47580664873123196,0.5793269708633421,0.7559986739158631
0.426408237431859,-0.204378898143768,1.48703937320709,0.664987931728363
0.427013930950939,-0.836664054393768,1.30022784976959,0.468596330165863
0.427619624470018,-0.26185936689376804,-0.122413751792908,-0.6259275956153869
0.428225317989098,0.909305183887482,-2.03124431819916,-1.04266099405289
0.428831011508177,0.741653816699982,-1.35584881038666,-0.513361677646637
0.429436705027256,-0.07983788251876829,0.754163396644592,0.310525041103363
0.430042398546336,-0.922884757518768,1.85587238101959,0.5164967207908631
0.430648092065415,-0.7935537028312679,1.25472247867584,0.207539201259613
0.431253785584494,0.6674082112312321,-0.8169694158554079,-0.369660505771637
0.431859479103574,0.756023933887482,-2.09111980648041,-0.30499497842788703
0.432465172622653,-0.156478507518768,-0.500826837730408,-0.427140974521637
0.433070866141732,-0.700147941112518,0.931394841957092,0.243464494228363
0.433676559660812,-0.42232567548751804,1.25951251773834,0.643432755947113
0.434282253179891,0.09499854326248171,0.5386116388320921,0.619482560634613
0.43488794669897,0.576397469043732,-0.884029962730408,0.19556410360336302
0.43549364021805,0.044703133106231696,-0.912770197105408,-1.02829087686539
0.436099333737129,-0.175638663768768,-0.541542169761658,-0.8055540604591369
0.436705027256208,-0.48220116376876804,0.270369451332092,0.0806031661033635
0.437310720775288,0.102183601856232,0.691892888832092,0.550026994228363
0.437916414294367,0.126133797168732,0.632017400550842,0.626667619228363
0.438522107813446,-0.130133292675018,0.19851886539459201,0.418300920009613
0.439127801332526,-0.0918129801750183,-0.445741388511658,-0.659457869052887
0.439733494851605,0.245884773731232,-1.33429363460541,-0.9420701737403869
0.440339188370684,0.49496680498123197,-0.800204279136658,-0.151713728427887
0.440944881889764,0.518917000293732,0.591302068519592,0.641037736415863
0.441550575408843,-0.558841788768768,1.60439533023834,0.698518205165863
0.442156268927922,-0.678592765331268,1.23316730289459,0.0494679121971135
0.442761962447002,0.145293953418732,-0.6972184392929079,-0.815134138584137
0.443367655966081,0.928465340137482,-2.26116619319916,-1.0402659745216398
0.44397334948516,0.590767586231232,-1.1426920721054101,-0.178058943271637
0.44457904300424,-0.26185936689376804,1.08467609195709,0.229094377040863
0.445184736523319,-0.9707851481437679,1.96843829898834,0.5164967207908631
0.445790430042399,-0.510941398143768,0.950554998207092,0.332080216884613
0.446396123561478,0.715308601856232,-1.20735759944916,-0.513361677646637
0.447001817080557,0.597952644824982,-2.25398113460541,-0.872614607334137
0.447607510599637,-0.0391225504875183,-0.570282404136658,-0.460671247959137
0.448213204118716,-0.824688956737518,1.17329181461334,0.566792130947113
0.448818897637795,-0.36005516767501805,1.24514240055084,0.727258439540863
0.449424591156875,0.451856453418732,0.277554509925842,0.470991349697113
0.450030284675954,0.641062996387482,-0.888820001792908,-0.515756697177887
0.450635978195033,0.09260352373123171,-1.2025675603866601,-1.08577134561539
0.451241671714113,-0.33370995283126803,-0.297250177574158,-0.427140974521637
0.451847365233192,-0.0678627848625183,0.466761052894592,0.243464494228363
0.452453058752271,0.229119637012482,0.842779119300842,0.643432755947113
0.453058752271351,0.106973640918732,0.643992498207092,0.765578752040863
0.45366444579043,-0.194798820018768,0.054817693519592293,0.34405531454086297
0.454270139309509,-0.48938622236251805,-0.711588556480408,-0.8821946854591369
0.454875832828589,0.142898933887482,-1.65043621273041,-1.1552269120216399
0.455481526347668,0.736863777637482,-0.5583073064804079,-0.0319627518653865
0.456087219866747,0.0806284260749817,0.814038884925842,0.6146925215721131
0.456692913385827,-0.7719985270500179,1.82713214664459,0.8517994551658631
0.457298606904906,-0.795948722362518,1.17329181461334,0.138083634853363
0.457904300423985,0.0758383870124817,-1.30315838069916,-0.6834080643653869
0.458509993943065,1.05779639482498,-2.31385662288666,-0.870219587802887
0.459115687462144,0.550052254199982,-0.630157892417908,0.157243791103363
0.459721380981224,-0.30257469892501804,1.68822101383209,0.688938127040863
0.460327074500303,-1.09053612470627,2.26302570133209,0.621877580165863
0.460932768019382,-0.37203026533126804,0.526636541175842,-0.0319627518653865
0.461538461538462,0.6434580159187321,-1.60972088069916,-0.206799177646637
0.462144155057541,0.7632089924812321,-1.70791668148041,-0.8223191971778869
0.46274984857662,-0.26425438642501803,0.112298162269592,-0.518151716709137
0.4633555420957,-1.01629051923752,1.30741290836334,0.698518205165863
0.463961235614779,0.0303330159187317,1.10623126773834,0.5141017012596131
0.464566929133858,0.482991707324982,-0.115228693199158,0.456621232509613
0.465172622652938,0.255464851856232,-0.948695490074158,-0.451091169834137
0.465778316172017,-0.07983788251876829,-1.13071697444916,-0.793578962802887
0.466384009691096,-0.465436027050018,-0.213424493980408,-0.30259995889663704
0.466989703210176,-0.201983878612518,0.442810857582092,0.662592912197113
0.467595396729255,-0.0055922770500183095,0.617647283363342,0.729653459072113
0.468201090248334,-0.048702628612518305,0.749373357582092,0.358425431728363
0.468806783767414,-0.304969718456268,-0.0649332830429077,-0.0990232987403865
0.469412477286493,-0.336104972362518,-0.891215021324158,-0.906144880771637
0.470018170805572,0.36803076982498195,-1.4037492010116601,-0.968415388584137
0.470623864324652,0.9045151448249821,-0.503221857261658,0.123713517665863
0.471229557843731,-0.247489249706268,1.0128255060195899,0.847009416103363
0.47183525136281,-0.901329581737518,1.88461261539459,0.818269181728363
0.47244094488189,-0.8103188395500179,0.612857244300842,-0.0870482010841365
0.473046638400969,0.255464851856232,-1.73665691585541,-1.1887571854591399
0.473652331920048,1.1056967854499802,-1.93783855648041,-0.7648387284278869
0.474258025439128,0.0614682698249817,-0.18228924007415798,0.33447523641586296
0.474863718958207,-0.563631827831268,1.80318195133209,0.803899064540863
0.475469412477286,-1.07377098798752,1.91335284976959,0.667382951259613
0.476075105996366,-0.235514152050018,0.0524226739883423,0.0949732832908635
0.476680799515445,1.0410312581062302,-1.91867840023041,-0.848664412021637
0.477286493034525,0.7632089924812321,-1.49715496273041,-0.9612303299903869
0.477892186553604,-0.40316551923751803,0.548191716957092,-0.12776353311538702
0.478497880072683,-0.623507316112518,1.4319539239883399,0.569187150478363
0.479103573591763,-0.144503409862518,1.20203204898834,0.657802873134613
0.479709267110842,0.329710457324982,-0.29485515804290796,0.233884416103363
0.480314960629921,0.178824226856232,-1.06365642757416,-0.7839988846778869
0.480920654149001,0.142898933887482,-0.982225763511658,-0.8247142167091369
0.48152634766808,-0.30017967939376805,-0.0314030096054077,0.0590479903221135
0.482132041187159,-0.113368155956268,0.6583626153945921,0.710493302822113
0.482737734706239,0.272229988574982,0.564956853675842,0.741628556728363
0.483343428225318,0.0782334065437317,0.694287908363342,0.597927384853363
0.483949121744397,-0.405560538768768,-0.0625382635116577,-0.22835435342788699
0.484554815263477,-0.154083487987518,-1.22172771663666,-0.997155622959137
0.485160508782556,0.5859775471687321,-1.28160320491791,-0.6450877518653869
0.485766202301635,0.6865683674812321,-0.369100763511658,0.42309095907211297
0.486371895820715,-0.168453605175018,1.3505232599258399,1.20865736532211
0.486977589339794,-0.886959464550018,1.64271564273834,0.5739771895408631
0.487583282858873,-0.6714077067375179,0.109903142738342,-0.39361070108413704
0.488188976377953,0.44706641435623196,-2.02884929866791,-1.15762193155289
0.488794669897032,0.9069101643562321,-2.2491910955429097,-1.02350083780289
0.489400363416111,0.423116219043732,0.311084783363342,0.657802873134613
0.490006056935191,-0.455855948925018,2.19117511539459,1.5343800215721102
0.49061175045427,-1.04263573408127,1.77444171695709,0.667382951259613
0.491217443973349,-0.211563956737518,-0.261324884605408,-0.549286970615387
0.491823137492429,1.0338461995124801,-2.04800945491791,-0.467856306552887
0.492428831011508,0.6434580159187321,-1.28639324398041,-0.6019774003028869
0.493034524530587,-0.824688956737518,1.0128255060195899,-0.29541490030288703
0.493640218049667,-0.599557120800018,1.62355548648834,0.897304826259613
0.494245911568746,-0.0894179606437683,1.0727009943008399,0.897304826259613
0.494851605087826,0.32492041826248197,-0.579862482261658,0.322500138759613
0.495457298606905,0.269834969043732,-1.51631511898041,-0.989970564365387
0.496062992125984,-0.19240380048751798,-0.991805841636658,-0.7648387284278869
0.496668685645064,-0.503756339550018,0.057212713050842294,0.0422828536033635
0.497274379164143,0.0710483479499817,0.555376775550842,0.621877580165863
0.497880072683222,0.111763679981232,0.701472966957092,0.9715504317283631
0.498485766202302,-0.0606777262687683,0.612857244300842,0.348845353603363
0.499091459721381,-0.44388085126876803,-0.436161310386658,-0.331340193271637
0.49969715324046,-0.0247524333000183,-1.53547527523041,-1.26779282999039
0.50030284675954,0.760813972949982,-1.17143230648041,-0.554077009677887
0.500908540278619,0.681778328418732,0.258394353675842,0.957180314540863
0.501514233797698,-0.336104972362518,1.76486163883209,0.844614396572113
0.502119927316778,-1.03545067548752,1.67864093570709,0.42548597860336296
0.502725620835857,-0.628297355175018,-0.129598810386658,-0.5421019120216369
0.503331314354936,0.818294441699982,-2.22763591976166,-1.14804185342789
0.503937007874016,0.952415535449982,-1.95699871273041,-0.19482407999038698
0.504542701393095,0.09499854326248171,0.8595442560195921,0.8158741621971131
0.505148394912174,-0.6091371989250179,2.22710040836334,0.964365373134613
0.505754088431254,-1.2342372965812698,1.42237384586334,0.13089857625961301
0.506359781950333,-0.0343325114250183,-0.781044122886658,-0.510966658115387
0.506965475469413,0.995525887012482,-2.5318034002304097,-0.954045271396637
0.507571168988492,0.47820166826248195,-0.967855646324158,-0.597187361240387
0.508176862507571,-0.446275870800018,1.22837726383209,0.332080216884613
0.50878255602665,-0.41274559736251804,1.61397540836334,0.717678361415863
0.50938824954573,-0.139713370800018,0.763743474769592,0.6721729903221131
0.509993943064809,0.600347664356232,-0.615787775230408,-0.0990232987403865
0.510599636583889,0.300970222949982,-1.45404461116791,-0.918119978427887
0.511205330102968,-0.158873527050018,-0.591837579917908,-0.630717634677887
0.511811023622047,-0.266649405956268,0.416465642738342,0.221909318447113
0.512416717141127,0.332105476856232,0.591302068519592,0.803899064540863
0.513022410660206,0.243489754199982,0.8787044122695921,0.746418595790863
0.513628104179285,-0.32412987470626803,0.378145330238342,-0.00561753702163653
0.514233797698365,-0.357660148143768,-0.673268243980408,-0.7001732010841369
0.514839491217444,0.0542832112312317,-1.60972088069916,-1.16480699014664
0.515445184736523,0.820689461231232,-0.893610040855408,-0.027172712802886502
0.516050878255603,0.471016609668732,0.39491046695709203,1.06256117391586
0.516656571774682,-0.522916495800018,2.02112872867584,0.9308350996971131
0.517262265293761,-1.1695717692375198,1.58523517398834,0.377585587978363
0.517867958812841,-0.33131493330001804,-0.654108087730408,-0.7241233963966369
0.51847365233192,1.05779639482498,-2.3114616033554096,-1.1600169510841398
0.519079345850999,0.9236753010749821,-1.68396648616791,-0.175663923740387
0.519685039370079,-0.0894179606437683,1.1708967950820899,0.9715504317283631
0.520290732889158,-0.985155265331268,2.38996173648834,0.722468400478363
0.520896426408237,-0.8893544840812679,1.27627765445709,-0.06549302530288649
0.521502119927317,0.243489754199982,-1.30794841976166,0.109343400478363
0.522107813446396,1.07935157060623,-2.32343670101166,-0.889379744052887
0.522713506965475,0.181219246387482,-0.646923029136658,-0.6402977128028869
0.523319200484555,-0.827083976268768,1.42955890445709,0.590742326259613
0.523924894003634,-0.345685050487518,1.66906085758209,0.679358048915863
0.524530587522714,0.0566782307624817,0.318269841957092,0.447041154384613
0.525136281041793,0.37521582841873197,-0.970250665855408,-0.43432603311538703
0.525741974560872,-0.10378807783126799,-1.6815714666366601,-1.22228745889664
0.526347668079951,-0.30257469892501804,-0.325990411949158,-0.527731794834137
0.526953361599031,-0.0055922770500183095,0.5984871271133421,0.6146925215721131
0.52755905511811,0.33689551591873196,0.761348455238342,0.8326392989158631
0.52816474863719,-0.237909171581268,0.8787044122695921,0.468596330165863
0.528770442156269,-0.28101952314376805,-0.117623712730408,-0.00561753702163653
0.529376135675348,-0.285809562206268,-0.867264826011658,-0.676223005771637
0.529981829194428,0.0854184651374817,-1.32950359554291,-1.12409165811539
0.530587522713507,1.01708106279373,-1.00378093929291,0.217119279384613
0.531193216232586,0.200379402637482,0.775718572425842,1.2134474043846102
0.531798909751666,-0.714518058300018,2.06663409976959,1.1463868575096101
0.532404603270745,-1.1743618083000198,1.22358722476959,0.0734181075096135
0.533010296789824,-0.314549796581268,-0.987015802574158,-1.21749741983414
0.533615990308904,0.8661948323249821,-2.45995281429291,-1.2414476151466398
0.534221683827983,1.20149756669998,-0.893610040855408,0.152453752040863
0.534827377347062,-0.235514152050018,1.60679034976959,1.29008802938461
0.535433070866142,-1.3539882731437698,2.25105060367584,0.878144670009613
0.536038764385221,-1.00431542158127,0.770928533363342,-0.285834822177887
0.5366444579043,0.502151863574982,-1.67438640804291,-0.736098494052887
0.53725015142338,1.01708106279373,-2.11746502132416,-1.1288816971778899
0.537855844942459,0.0279379963874817,-0.208634454917908,-0.398400740146637
0.538461538461538,-0.599557120800018,1.69780109195709,0.629062638759613
0.539067231980618,-0.388795402050018,1.58763019351959,0.6745680098533631
0.539672925499697,0.142898933887482,-0.0122428533554077,0.49494154500961296
0.540278619018776,0.202774422168732,-1.27920818538666,-0.578027204990387
0.540884312537856,0.341685554981232,-1.5402653142929101,-0.795973982334137
0.541490006056935,-0.357660148143768,-0.33317547054290797,-0.44390611124038704
0.542095699576015,0.118948738574982,0.5002913263320921,0.5572120528221131
0.542701393095094,0.514126961231232,0.694287908363342,1.2397926192283601
0.543307086614173,-0.29059960126876805,0.8787044122695921,0.528471818447113
0.543912780133253,-0.32412987470626803,-0.0960685369491577,-0.20440415811538698
0.544518473652332,-0.0966030192375183,-1.24567791194916,-0.810344099521637
0.545124167171411,0.27462500810623197,-1.45883465023041,-0.930095076084137
0.545729860690491,0.911700203418732,-0.905585138511658,0.255439591884613
0.54633555420957,0.31773535966873195,1.16131671695709,1.36912367391586
0.546941247728649,-0.898934562206268,2.0857942560195903,0.882934709072113
0.547546941247729,-1.22226219892502,0.814038884925842,-0.628322615146637
0.548152634766808,0.16205909013748201,-1.35345379085541,-1.2151024003028899
0.548758328285887,1.21586768388748,-2.52940838069916,-0.769628767490387
0.549364021804967,0.954810554981232,-0.5175919744491579,0.46380629110336297
0.549969715324046,-0.37203026533126804,1.95167316226959,1.49845472860336
0.550575408843125,-1.35159325361252,2.08339923648834,0.44464613485336296
0.551181102362205,-0.858219230175018,0.557771795082092,-0.0583079667091365
0.551786795881284,0.5284970784187321,-1.92586345882416,-0.247514509677887
0.552392489400363,0.909305183887482,-1.90191326351166,-0.728913435459137
0.552998182919443,-0.158873527050018,0.244024236488342,0.0159376387596135
0.553603876438522,-0.585187003612518,1.77204669742584,0.909279923915863
0.554209569957601,-0.477411124706268,1.54930988101959,0.899699845790863
0.554815263476681,0.121343758106232,0.00452228336334228,0.207539201259613
0.55542095699576,0.181219246387482,-1.28878826351166,-0.9013548417091369
0.556026650514839,0.243489754199982,-1.3606388494491601,-1.04984605264664
0.556632344033919,-0.345685050487518,0.07876788883209229,0.178798966884613
0.557238037552998,0.0542832112312317,0.842779119300842,0.890119767665863
0.557843731072078,0.238699715137482,0.720633123207092,0.9140699629783631
0.558449424591157,-0.398375480175018,0.792483709144592,0.456621232509613
0.559055118110236,-0.35287010908126804,-0.321200372886658,-0.417560896396637
0.559660811629316,0.00398780107498169,-1.32950359554291,-1.3013231034278898
0.560266505148395,0.411141121387482,-1.33429363460541,-0.791183943271637
0.560872198667474,0.839849617481232,-0.606207697105408,0.396745744228363
0.561477892186554,0.36563575029373196,1.71696124820709,1.06974623250961
0.562083585705633,-0.884564445018768,2.0522639825820903,0.509311662197113
0.562689279224712,-1.0617958903312699,0.251209295082092,-0.7025682206153869
0.563294972743792,0.28899512529373195,-1.78455730648041,-1.3899388260841399
0.563900666262871,1.32124854326248,-2.42642254085541,-0.707358259677887
0.56450635978195,0.894935066699982,-0.134388849449158,0.779948869228363
0.56511205330103,-0.33131493330001804,2.3252962091445903,1.1463868575096101
0.565717746820109,-1.27734764814377,1.89658771305084,0.538051896572113
0.566323440339188,-0.702542960643768,-0.00745281429290772,-0.515756697177887
0.566929133858268,0.6051377034187321,-2.1988956853866597,-0.949255232334137
0.567534827377347,0.7871591877937321,-1.84203777523041,-0.676223005771637
0.568140520896426,-0.144503409862518,0.713448064613342,0.0279127364158635
0.568746214415506,-0.640272452831268,1.94209308414459,1.0386109786033602
0.569351907934585,-0.201983878612518,1.11581134586334,0.758393693447113
0.569957601453664,0.138108894824982,-0.349940607261658,0.12610853719711299
0.570563294972744,0.111763679981232,-1.82048259944916,-0.9803904862403869
0.571168988491823,0.0494931721687317,-1.38458904476166,-1.07619126749039
0.571774682010902,-0.146898429393768,0.164988591957092,0.118923478603363
0.572380375529982,0.248279793262482,0.763743474769592,0.705703263759613
0.572986069049061,0.140503914356232,0.967320134925842,0.9715504317283631
0.57359176256814,-0.319339835643768,0.591302068519592,0.272204728603363
0.57419745608722,-0.578001945018768,-0.704403497886658,-0.8654295487403869
0.574803149606299,-0.0151723551750183,-1.47559978694916,-1.24384263467789
0.575408843125379,0.753628914356232,-1.10916179866791,-0.276254744052887
0.576014536644458,0.8230844807624821,0.009312322425842281,0.767973771572113
0.576620230163537,-0.27383446455001803,1.95406818180084,1.4577393965721102
0.577225923682617,-1.13604149580002,1.71935626773834,0.686543107509613
0.577831617201696,-0.925279777050018,-0.0673283025741577,-0.671432966709137
0.578437310720775,0.403956062793732,-2.0432194158554102,-1.43065415811539
0.579043004239855,1.35956885576248,-2.37373211116791,-0.647482771396637
0.579648697758934,0.674593269824982,0.564956853675842,1.08890638875961
0.580254391278013,-0.637877433300018,2.87854572086334,1.0386109786033602
0.580860084797093,-1.39709862470627,1.65708575992584,-0.110998396396637
0.581465778316172,-0.36963524580001805,-0.546332208824158,-0.570842146396637
0.582071471835251,0.890145027637482,-2.4886930486679097,-0.496596540927887
0.582677165354331,0.6266928791999821,-1.59774578304291,-0.34331529092788704
0.58328285887341,-0.34329003095626803,1.08946613101959,0.308130021572113
0.583888552392489,-0.664222648143768,1.94448810367584,0.779948869228363
0.584494245911569,-0.41274559736251804,0.845174138832092,0.538051896572113
0.585099939430648,-0.0127773356437683,-0.536752130699158,-0.47264634561538704
0.585705632949727,0.102183601856232,-1.81569256038666,-1.36359361124039
0.586311326468807,-0.122948234081268,-0.979830743980408,-0.590002302646637
0.586917019987886,-0.0031972575187683102,0.5002913263320921,0.39435072469711296
0.587522713506965,0.35845069169998195,0.627227361488342,0.9907105879783631
0.588128407026045,0.0111728596687317,1.09665118961334,0.7320484786033631
0.588734100545124,-0.39119042158126804,0.493106267738342,-0.0175926346778865
0.589339794064203,-0.38161034345626804,-0.907980158042908,-0.872614607334137
0.589945487583283,0.09978858232498171,-1.4037492010116601,-1.36359361124039
0.590551181102362,0.981155769824982,-1.14748211116791,-0.182848982334137
0.591156874621442,0.736863777637482,0.35419513492584204,0.909279923915863
0.591762568140521,-0.38400536298751803,2.1289046075820903,0.823059220790863
0.5923682616596,-1.21747215986252,1.38405353336334,0.147663712978363
0.59297395517868,-0.661827628612518,-0.610997736167908,-1.0737962479591399
0.593579648697759,0.7033335041999821,-2.57012371273041,-1.38275376749039
0.594185342216838,1.4266294026374802,-1.8611979314804101,-0.225959333896637
0.594791035735918,0.535682137012482,1.12060138492584,1.0984864668846102
0.595396729254997,-0.7504433512687679,2.6917341974258404,1.14399183797836
0.596002422774076,-1.4593691325187699,1.26190753726959,-0.00322251749038653
0.596608116293156,-0.247489249706268,-0.8768449041366579,-0.757653669834137
0.597213809812235,1.04821631669998,-2.3881022283554096,-0.853454451084137
0.597819503331314,0.521312019824982,-1.33908367366791,-0.16847886514663699
0.598425196850394,-0.477411124706268,1.53493976383209,0.6170875411033631
0.599030890369473,-0.7336782145500179,2.0594490411758404,0.839824357509613
0.599636583888552,-0.364845206737518,0.672732732582092,0.339265275478363
0.600242277407632,0.114158699512482,-0.8385245916366579,-0.503781599521637
0.600847970926711,0.300970222949982,-1.85880291194916,-1.1815721268653898
0.60145366444579,-0.417535636425018,-0.781044122886658,-0.609162458896637
0.60205935796487,0.0806284260749817,0.603277166175842,0.7152833418846131
0.602665051483949,0.36803076982498195,0.6583626153945921,1.3260133223533601
0.603270745003028,-0.237909171581268,1.24274738101959,0.538051896572113
0.603876438522108,-0.407955558300018,0.301504705238342,-0.290624861240387
0.604482132041187,-0.199588859081268,-1.35584881038666,-0.989970564365387
0.605087825560267,0.195589363574982,-1.2241227361679101,-1.2486326737403899
0.605693519079346,1.14641211748123,-0.939115411949158,0.267414689540863
0.606299212598425,0.569212410449982,0.823618963050842,1.2350025801658602
0.606904906117504,-0.8725893473625179,2.0786091974258403,1.10806654500961
0.607510599636584,-1.26058251142502,0.976900213050842,0.00875258016586347
0.608116293155663,-0.599557120800018,-0.922350275230408,-1.25102769327164
0.608721986674743,0.990735847949982,-2.38091716976166,-1.40909898233414
0.609327680193822,1.34759375810623,-1.48996990413666,0.142873673915863
0.609933373712901,-0.206773917675018,1.54930988101959,1.6253907637596101
0.610539067231981,-0.963600089550018,2.70849933414459,1.4745045332908602
0.61114476075106,-1.4042836833000198,0.787693670082092,-0.14931870889663698
0.611750454270139,-0.0223574137687683,-1.42769939632416,-0.5253367753028869
0.612356147789219,1.00750098466873,-2.3186466619491597,-0.549286970615387
0.612961841308298,0.5261020588874821,-0.524777033042908,-0.225959333896637
0.613567534827377,-0.319339835643768,1.78641681461334,0.669777970790863
0.614173228346457,-0.738468253612518,1.93490802555084,0.770368791103363
0.614778921865536,-0.304969718456268,0.39491046695709203,0.420695939540863
0.615384615384615,0.09739356279373171,-1.18340740413666,-0.7408885331153869
0.615990308903695,0.42790625810623195,-1.89712322444916,-1.23905259561539
0.616596002422774,-0.218749015331268,-0.48406170101165796,-0.48222642374038704
0.617201695941853,0.207564461231232,0.773323552894592,0.729653459072113
0.617807389460933,0.372820808887482,0.893074529457092,0.945205216884613
0.618413082980012,-0.376820304393768,1.02719562320709,0.40393080282211297
0.619018776499091,-0.700147941112518,-0.184684259605408,-0.40319077920913704
0.619624470018171,-0.434300773143768,-1.38698406429291,-1.3564085526466398
0.62023016353725,0.150083992481232,-1.4205143377304101,-0.788788923740387
0.620835857056329,1.2901132893562302,-0.651713068199158,0.506916642665863
0.621441550575409,0.183614265918732,1.22598224430084,1.25176771688461
0.622047244094488,-1.0450307536125198,2.26063068180084,1.22063246297836
0.622652937613568,-1.1432265543937699,0.842779119300842,-0.460671247959137
0.623258631132647,-0.47262108564376804,-1.39656414241791,-1.5528001542091399
0.623864324651726,1.23742285966873,-2.44318767757416,-0.934885115146637
0.624470018170806,1.66852637529373,-1.06365642757416,0.47338636922836297
0.625075711689885,-0.163663566112518,2.1959651544570904,1.18710218954086
0.625681405208964,-1.3108779215812698,2.4354671075820904,0.961970353603363
0.626287098728044,-1.3060878825187698,0.452390935707092,-0.487016462802887
0.626892792247123,0.250674812793732,-1.70552166194916,-0.937280134677887
0.627498485766202,1.12964698076248,-2.02645427913666,-0.6426927323341369
0.628104179285282,0.590767586231232,-0.225399591636658,-0.0175926346778865
0.628709872804361,-0.26185936689376804,1.89898273258209,0.899699845790863
0.62931556632344,-0.47022606611251805,1.67864093570709,0.839824357509613
0.62992125984252,-0.44388085126876803,-0.029007990074157698,-0.0104075760841365
0.630526953361599,-0.051097648143768305,-1.37021892757416,-1.12409165811539
0.631132646880678,0.413536140918732,-1.58816570491791,-1.12409165811539
0.631738340399758,-0.163663566112518,-0.19665935726165798,-0.266674665927887
0.632344033918837,0.38719092607498196,0.689497869300842,0.978735490322113
0.632949727437916,0.480596687793732,1.0727009943008399,1.00029066610336
0.633555420956996,-0.31215477705001804,0.993665349769592,0.183589005947113
0.634161114476075,-0.6498525309562679,-0.412211115074158,-0.570842146396637
0.634766807995154,-0.237909171581268,-1.51631511898041,-1.3779637284278898
0.635372501514234,0.42790625810623195,-1.29597332210541,-0.647482771396637
0.635978195033313,1.3883090901374802,-0.496036798667908,0.629062638759613
0.636583888552392,0.32492041826248197,1.42716388492584,1.2613477950096101
0.637189582071472,-1.26537255048752,1.99957355289459,0.605112443447113
0.637795275590551,-1.3827285075187699,0.5793269708633421,-0.652272810459137
0.638400969109631,-0.163663566112518,-1.61451091976166,-1.6605760331153898
0.63900666262871,1.0937216877937301,-2.47671795101166,-0.7839988846778869
0.639612356147789,1.40267920732498,-0.541542169761658,1.07932631063461
0.640218049666869,-0.187613761425018,2.40912189273834,1.6541309981346102
0.640823743185948,-1.4090737223625198,2.27979083805084,0.48536146688461296
0.641429436705027,-1.0330556559562698,0.263184392738342,-0.30259995889663704
0.642035130224107,0.411141121387482,-2.0527994939804097,-0.726518415927887
0.642640823743186,1.21826270341873,-2.35696697444916,-0.8414793534278869
0.643246517262265,0.554842293262482,0.428440740394592,0.34405531454086297
0.643852210781345,-0.659432609081268,2.1456697443008403,0.983525529384613
0.644457904300424,-0.47262108564376804,1.18047687320709,0.6146925215721131
0.645063597819503,0.0734433674812317,0.0476326349258423,-0.388820662021637
0.645669291338583,0.260254890918732,-1.6815714666366601,-1.3085081620216399
0.646274984857662,0.33689551591873196,-1.59295574398041,-1.2701878495216399
0.646880678376741,0.0231479573249817,0.133853338050842,0.260229630947113
0.647486371895821,0.339290535449982,0.6583626153945921,0.9356251387596131
0.6480920654149,0.351265633106232,1.10623126773834,0.590742326259613
0.648697758933979,-0.6714077067375179,0.768533513832092,-0.000827497959136527
0.649303452453059,-0.647457511425018,-0.836129572105408,-0.8055540604591369
0.649909145972138,-0.0271474528312683,-1.25046795101166,-1.3731736893653899
0.650514839491217,0.770394051074982,-1.14987713069916,-0.35529038858413703
0.651120533010297,1.43860450029373,0.0141023614883423,0.926045060634613
0.651726226529376,-0.07504784345626829,1.90377277164459,1.45534437704086
0.652331920048455,-1.2126821208000198,1.84389728336334,0.439856095790863
0.652937613567535,-1.2246572184562698,0.07397784976959229,-0.9803904862403869
0.653543307086614,-0.0295424723625183,-1.91628338069916,-1.50489976358414
0.654149000605693,1.60865088701248,-2.16776043148041,-0.336130232334137
0.654754694124773,1.24460791826248,-0.0266129705429077,1.37391371297836
0.655360387643852,-0.49178124189376804,2.74921466617584,1.30685316610336
0.655966081162932,-1.40667870283127,1.74570148258209,0.31531508016586296
0.656571774682011,-1.1144863200187698,-0.175104181480408,-1.02110581827164
0.65717746820109,0.430301277637482,-2.35696697444916,-1.44502427530289
0.65778316172017,0.9859458088874821,-2.1294401189804097,-0.6019774003028869
0.658388855239249,0.197984383106232,0.952950017738342,0.518891740322113
0.658994548758328,-0.542076652050018,2.36601154117584,1.11046156454086
0.659600242277408,-0.40316551923751803,1.00803546695709,0.729653459072113
0.660205935796487,-0.168453605175018,-0.457716486167908,-0.5804222245216369
0.660811629315566,0.116553719043732,-1.78934734554291,-1.42586411905289
0.661417322834646,0.332105476856232,-1.32471355648041,-0.736098494052887
0.662023016353725,0.33450049638748197,0.452390935707092,0.36321547079086297
0.662628709872804,0.231514656543732,0.840384099769592,0.887724748134613
0.663234403391884,-0.120553214550018,1.18766193180084,0.7344434981346131
0.663840096910963,-0.736073234081268,0.430835759925842,-0.07267808389663649
0.664445790430042,-0.556446769237518,-1.12592693538666,-1.00194566202164
0.665051483949122,-0.08462792158126829,-1.20975261898041,-1.1288816971778899
0.665657177468201,1.05300635576248,-0.905585138511658,0.16442884969711302
0.66626287098728,1.15599219560623,0.188938787269592,0.8541944746971131
0.66686856450636,-0.07744286298751829,2.1384846857070903,1.12962172079086
0.667474258025439,-1.34680321455002,1.58284015445709,0.310525041103363
0.668079951544518,-1.2126821208000198,-0.472086603355408,-1.45699937295914
0.668685645063598,0.576397469043732,-2.21087078304291,-1.45220933389664
0.669291338582677,1.71882178544998,-2.03603435726166,-0.10141831827163701
0.669897032101756,1.00989600419998,0.821223943519592,1.1368067793846102
0.670502725620836,-0.774393546581268,2.7947200372695904,1.4792945723533601
0.671108419139915,-1.5455898356437698,1.52056964664459,-0.278649763584137
0.671714112658994,-0.635482413768768,-0.601417658042908,-0.707358259677887
0.672319806178074,0.7057285237312321,-2.49587810726166,-0.32415513467788704
0.672925499697153,1.0937216877937301,-1.51392009944916,-0.506176619052887
0.673531193216233,0.260254890918732,1.3936336114883399,0.609902482509613
0.674136886735312,-0.427115714550018,2.15764484195709,1.06974623250961
0.674742580254391,-0.494176261425018,0.902654607582092,0.40632582235336295
0.675348273773471,-0.230724112987518,-0.498431818199158,-0.609162458896637
0.67595396729255,0.27462500810623197,-1.8995182439804101,-1.34922349405289
0.676559660811629,0.111763679981232,-1.09239666194916,-0.496596540927887
0.677165354330709,0.382400887012482,0.746978338050842,0.8517994551658631
0.677771047849788,0.35845069169998195,1.13736652164459,1.05298109579086
0.678376741368867,-0.139713370800018,1.1325764825820899,0.487756486415863
0.678982434887947,-0.678592765331268,0.184148748207092,-0.573237165927887
0.679588128407026,-0.25467430830001797,-1.43488445491791,-1.40909898233414
0.680193821926105,0.037518074512481694,-1.29597332210541,-1.0785862870216398
0.680799515445185,1.34280371904373,-0.836129572105408,0.276994767665863
0.681405208964264,0.935650398731232,0.584117009925842,1.1631519942283601
0.682010902483343,-0.587582023143768,2.17680499820709,1.3595435957908601
0.682616596002423,-1.37554344892502,1.0727009943008399,-0.07267808389663649
0.683222289521502,-1.1144863200187698,-0.802599298667908,-1.67973618936539
0.683827983040581,0.530892097949982,-2.20129070491791,-1.46897447061539
0.684433676559661,1.8194126057624802,-1.82766765804291,0.202749162197113
0.68503937007874,0.736863777637482,1.30262286930084,1.5391700606346101
0.68564506359782,-0.795948722362518,2.77316486148834,1.16075697469711
0.686250757116899,-1.49529442548752,1.20921710758209,-0.43193101358413705
0.686856450635978,-0.654642570018768,-0.998990900230408,-0.997155622959137
0.687462144155058,0.835059578418732,-2.34020183773041,-0.8055540604591369
0.688067837674137,0.8254795002937321,-0.884029962730408,-0.0319627518653865
0.688673531193216,-0.0343325114250183,1.6115803888320899,0.827849259853363
0.689279224712296,-0.498966300487518,1.91814288883209,1.11285658407211
0.689884918231375,-0.628297355175018,0.725423162269592,0.43506605672836296
0.690490611750454,-0.415140616893768,-0.828944513511658,-1.03308091592789
0.691096305269534,0.272229988574982,-1.97855388851166,-1.38754380655289
0.691701998788613,0.111763679981232,-0.675663263511658,-0.178058943271637
0.692307692307692,0.5644223713874821,0.881099431800842,1.01945082235336
0.692913385826772,0.463831551074982,0.986480291175842,1.0649561934471101
0.693519079345851,-0.266649405956268,0.8595442560195921,0.34405531454086297
0.69412477286493,-0.762418448925018,-0.105648615074158,-0.6426927323341369
0.69473046638401,-0.221144034862518,-1.60972088069916,-1.2797679276466398
0.695336159903089,0.33450049638748197,-1.24328289241791,-0.613952497959137
0.695941853422168,1.58709571123123,-0.5990226385116579,0.45422621297836296
0.696547546941248,0.940440437793732,1.04396075992584,1.1966822676658602
0.697153240460327,-0.7288881754875179,2.20315021305084,1.01226576375961
0.697758933979406,-1.66773583173752,0.713448064613342,-0.633112654209137
0.698364627498486,-0.664222648143768,-1.12592693538666,-1.82822740030289
0.698970321017565,1.1368320393562301,-2.04800945491791,-1.2198924393653898
0.699576014536644,1.77151221513748,-1.22891277523041,0.597927384853363
0.700181708055724,0.40635108232498196,1.8127620294570899,1.52958998250961
0.700787401574803,-0.9923403239250179,2.58635333805084,0.8517994551658631
0.701393095093882,-1.50008446455002,0.737398259925842,-0.798369001865387
0.701998788612962,-0.6522475504875179,-1.40135418148041,-0.817529158115387
0.702604482132041,1.09611670732498,-2.1893156072616597,-0.678618025302887
0.703210175651121,1.0338461995124801,-0.431371271324158,0.221909318447113
0.7038158691702,0.279415047168732,1.82473712711334,0.882934709072113
0.704421562689279,-0.230724112987518,1.6930110528945899,0.9523902754783631
0.705027256208359,-0.5133364176750179,0.469156072425842,-0.0990232987403865
0.705632949727438,-0.6522475504875179,-1.31034343929291,-1.20073228311539
0.706238643246517,0.229119637012482,-1.97855388851166,-1.3300633378028899
0.706844336765597,0.609927742481232,-0.258929865074158,0.0207276778221135
0.707450030284676,0.260254890918732,0.744583318519592,1.19907728719711
0.708055723803755,0.281810066699982,1.15892169742584,0.9955006270408631
0.708661417322835,-0.475016105175018,1.12778644351959,0.21951429891586302
0.709267110841914,-1.1001162028312699,-0.524777033042908,-1.1815721268653898
0.709872804360993,-0.503756339550018,-1.76539715023041,-1.3779637284278898
0.710478497880073,0.5835825276374821,-1.17143230648041,-0.5444969315528869
0.711084191399152,1.34759375810623,-0.479271661949158,0.657802873134613
0.711689884918231,0.5452622151374821,1.39123859195709,1.3763087325096102
0.712295578437311,-1.17675682783127,1.94209308414459,0.7751588301658631
0.71290127195639,-1.5887001872062698,0.40449054508209203,-1.16480699014664
0.713506965475469,-0.44388085126876803,-1.73186687679291,-1.90965806436539
0.714112658994549,0.930860359668732,-2.2946964666366596,-0.836689314365387
0.714718352513628,1.8888681721687302,-0.553517267417908,1.05058607625961
0.715324046032707,-0.0295424723625183,2.23428546695709,1.4146290450096102
0.715929739551787,-1.5503798747062698,2.1959651544570904,0.492546525478363
0.716535433070866,-1.46176415205002,0.174568670082092,-0.8223191971778869
0.717141126589945,-0.314549796581268,-1.59774578304291,-1.43065415811539
0.717746820109025,1.0003159260749799,-2.46234783382416,-0.47504136514663703
0.718352513628104,0.9835507893562321,-0.175104181480408,0.6362476973533631
0.718958207147184,-0.199588859081268,2.1959651544570904,1.00747572469711
0.719563900666263,-0.477411124706268,1.23795734195709,0.868564591884613
0.720169594185342,-0.561236808300018,0.179358709144592,-0.479831404209137
0.720775287704422,-0.41274559736251804,-1.4205143377304101,-1.4378392167091398
0.721380981223501,0.420721199512482,-1.77018718929291,-1.11451157999039
0.72198667474258,0.44706641435623196,0.279949529457092,0.133293595790863
0.72259236826166,0.48538672685623196,0.9792952325820921,0.945205216884613
0.723198061780739,0.44706641435623196,1.0343806818008399,0.820664201259613
0.723803755299818,-0.688172843456268,0.816433904457092,0.0925782637596135
0.724409448818898,-0.7935537028312679,-0.891215021324158,-1.08098130655289
0.725015142337977,0.0854184651374817,-1.57379558773041,-1.3779637284278898
0.725620835857056,0.878169929981232,-0.941510431480408,-0.376845564365387
0.726226529376136,1.1607822346687302,-0.227794611167908,0.949995255947113
0.726832222895215,0.150083992481232,1.74330646305084,1.36912367391586
0.727437916414294,-1.5791201090812699,1.60200031070709,0.621877580165863
0.728043609933374,-1.4306288981437698,-0.23737468929290798,-1.04745103311539
0.728649303452453,-0.209168937206268,-1.75821209163666,-2.0797044510841403
0.729254996971532,1.4218393635749802,-1.83245769710541,-0.5444969315528869
0.729860690490612,1.6230210041999802,0.038052556800842297,1.42660414266586
0.730466384009691,-0.314549796581268,2.4785774591445904,1.86968275594711
0.73107207752877,-1.40188866376877,1.97562335758209,0.0111475996971135
0.73167777104785,-1.47134423017502,-0.218214533042908,-0.9612303299903869
0.732283464566929,0.0590732502937317,-1.82766765804291,-0.692988142490387
0.732889158086008,1.00271094560623,-1.78695232601166,-0.35529038858413703
0.733494851605088,0.791949226856232,0.550586736488342,0.789528947353363
0.734100545124167,-0.07983788251876829,2.1528548028945904,1.1751270918846102
0.734706238643246,-0.376820304393768,0.940974920082092,0.641037736415863
0.735311932162326,-0.6306923747062679,-0.21581951351165798,-0.5421019120216369
0.735917625681405,-0.0343325114250183,-1.61690593929291,-1.4977147049903898
0.736523319200485,0.128528816699982,-1.41093425960541,-0.827109236240387
0.737129012719564,0.42551123857498196,0.397305486488342,0.523681779384613
0.737734706238643,0.669803230762482,0.775718572425842,1.22063246297836
0.738340399757723,0.138108894824982,1.10623126773834,0.6338526778221131
0.738946093276802,-1.01629051923752,0.711053045082092,-0.43432603311538703
0.739551786795881,-0.7097280192375179,-1.17143230648041,-1.13127671670914
0.740157480314961,0.0854184651374817,-1.40614422054291,-1.3564085526466398
0.74076317383404,1.23263282060623,-0.828944513511658,0.183589005947113
0.741368867353119,1.4098642659187302,0.145828435707092,1.0769312911033602
0.741974560872199,-0.19240380048751798,1.74809650211334,1.1583619551658602
0.742580254391278,-1.65576073408127,1.41758380680084,0.382375627040863
0.743185947910357,-1.38033348798752,-0.666083185386658,-1.25581773233414
0.743791641429437,0.154874031543732,-1.98813396663666,-1.56477525186539
0.744397334948516,1.84815284013748,-1.58816570491791,-0.000827497959136527
0.745003028467595,1.3116684651374801,0.517056463050842,1.35235853719711
0.745608721986675,-0.616322257518768,2.3779866388320903,1.28769300985336
0.746214415505754,-1.3779384684562699,1.47506427555084,-0.125368513584137
0.746820109024833,-1.37314842939377,-0.649318048667908,-1.37556870889664
0.747425802543913,0.332105476856232,-2.20368572444916,-1.0570311112403898
0.748031496062992,1.0889316487312302,-1.45164959163666,0.0710230879783635
0.748637189582071,0.813504402637482,1.05833087711334,0.748813615322113
0.749242883101151,-0.25467430830001797,2.16961993961334,0.906884904384613
0.74984857662023,-0.6330873942375179,0.917024724769592,0.38477064657211296
0.75045427013931,-0.798343741893768,-0.417001154136658,-0.930095076084137
0.751059963658389,0.111763679981232,-1.75102703304291,-1.34682847452164
0.751665657177468,0.40635108232498196,-1.19298748226166,-0.27385972452163704
0.752271350696547,0.729678719043732,0.555376775550842,0.8709596114158631
0.752877044215627,0.636272957324982,1.06551593570709,1.1631519942283601
0.753482737734706,-0.235514152050018,1.12539142398834,0.5572120528221131
0.754088431253786,-1.08095604658127,0.258394353675842,-0.47504136514663703
0.754694124772865,-0.618717277050018,-1.54984539241791,-1.3085081620216399
0.755299818291944,0.253069832324982,-1.23849285335541,-0.829504255771637
0.755905511811024,1.29969336748123,-0.7379337713241579,0.8326392989158631
0.756511205330103,1.35238379716873,0.632017400550842,1.45055433797836
0.757116898849182,-0.47262108564376804,2.05465900211334,1.18710218954086
0.757722592368262,-1.7371913981437699,1.00564044742584,-0.5852122635841369
0.758328285887341,-0.9923403239250179,-0.884029962730408,-1.86175767374039
0.75893397940642,0.255464851856232,-1.89712322444916,-1.26539781045914
0.7595396729255,1.69726660966873,-1.54745037288666,0.597927384853363
0.760145366444579,1.1967075276374801,0.976900213050842,1.58707045125961
0.760751059963658,-0.764813468456268,2.74681964664459,0.8350343184471131
0.761356753482738,-1.83538719892502,1.07988605289459,-0.707358259677887
0.761962447001817,-1.33722313642502,-0.831339533042908,-1.0354759354591399
0.762568140520896,0.40874610185623195,-2.02166424007416,-0.767233747959137
0.763173834039976,1.18473242998123,-1.32471355648041,0.0446778731346135
0.763779527559055,0.861404793262482,1.4702742364883399,1.00508070516586
0.764385221078134,-0.240304191112518,1.9109578302383399,0.983525529384613
0.764990914597214,-0.800738761425018,0.809248845863342,-0.0870482010841365
0.765596608116293,-0.865404288768768,-0.704403497886658,-1.15283189249039
0.766202301635373,0.363240730762482,-1.92586345882416,-1.02589585733414
0.766807995154452,0.40635108232498196,-0.824154474449158,-0.42474595499038703
0.767413688673531,0.696148445606232,0.756558416175842,0.825454240322113
0.768019382192611,0.636272957324982,1.02719562320709,1.30685316610336
0.76862507571169,-0.5540517497062679,0.866729314613342,0.461411271572113
0.769230769230769,-1.1695717692375198,-0.0314030096054077,-0.927700056552887
0.769836462749849,-0.364845206737518,-1.78695232601166,-1.3611985917091398
0.770442156268928,0.341685554981232,-1.23849285335541,-0.750468611240387
0.771047849788007,1.45776465654373,-0.512801935386658,0.641037736415863
0.771653543307087,1.0625864338874802,1.03198566226959,1.47689955282211
0.772259236826166,-0.676197745800018,1.9492781427383399,0.887724748134613
0.772864930345245,-1.65815575361252,0.691892888832092,-0.652272810459137
0.773470623864325,-1.08095604658127,-1.24807293148041,-1.97432359170914
0.774076317383404,0.7033335041999821,-2.0001090642929102,-1.28934800577164
0.774682010902483,1.7355869221687301,-1.03491619319916,0.770368791103363
0.775287704421563,0.5093369221687319,1.53254474430084,1.57988539266586
0.775893397940642,-1.07377098798752,2.2989509943008404,0.669777970790863
0.776499091459721,-1.56954003095627,0.612857244300842,-0.9205149979591369
0.777104784978801,-0.946834952831268,-1.14987713069916,-1.6893162674903899
0.77771047849788,0.839849617481232,-2.01208416194916,-0.9205149979591369
0.778316172016959,1.2422128987312302,-0.519986993980408,0.372795548915863
0.778921865536039,0.535682137012482,1.8726375177383399,0.837429337978363
0.779527559055118,-0.28341454267501803,1.62595050601959,1.1966822676658602
0.780133252574197,-0.877379386425018,0.469156072425842,-0.0966282792091365
0.780738946093277,-0.700147941112518,-1.22172771663666,-1.28216294717789
0.781344639612356,0.399166023731232,-1.8827531072616601,-1.16480699014664
0.781950333131435,0.756023933887482,-0.09846355648040771,0.0758131270408635
0.782556026650515,0.7057285237312321,0.917024724769592,1.48887465047836
0.783161720169594,0.229119637012482,1.19963702945709,1.12722670125961
0.783767413688674,-0.654642570018768,0.749373357582092,0.267414689540863
0.784373107207753,-1.17196678876877,-0.572677423667908,-1.1001414628028898
0.784978800726832,-0.42232567548751804,-1.57619060726166,-1.5575901932716398
0.785584494245912,0.710518562793732,-0.984620783042908,-0.276254744052887
0.786190187764991,1.57033057451248,-0.19665935726165798,0.940415177822113
0.78679588128407,0.870984871387482,1.38405353336334,1.2182374434471102
0.78740157480315,-1.00192040205002,1.73372638492584,0.5763722090721131
0.788007268322229,-1.81383202314377,0.13864337711334201,-0.791183943271637
0.788612961841308,-0.805528800487518,-1.41332927913666,-1.8473875565528899
0.789218655360388,1.0721665120124801,-1.80850750179291,-0.812739119052887
0.789824348879467,1.73319190263748,-0.723563654136658,1.06974623250961
0.790430042398546,0.5452622151374821,2.02352374820709,1.60623060750961
0.791035735917626,-1.4042836833000198,2.03549884586334,0.9356251387596131
0.791641429436705,-1.76593163251877,0.184148748207092,-0.187639021396637
0.792247122955784,-0.688172843456268,-1.28639324398041,-1.1169065995216398
0.792852816474864,0.662618172168732,-1.76060711116791,-0.575632185459137
0.793458509993943,1.17994239091873,-0.19186931819915798,0.7152833418846131
0.794064203513022,0.260254890918732,1.7528865411758399,1.17033705282211
0.794669897032102,-0.594767081737518,1.50619952945709,0.7919239668846131
0.795275590551181,-0.9133046793937679,0.145828435707092,-0.688198103427887
0.79588128407026,-0.32173485517501804,-1.39656414241791,-1.4977147049903898
0.79648697758934,0.401561043262482,-1.69354656429291,-0.9253050370216369
0.797092671108419,0.7871591877937321,0.0476326349258423,0.15005873250961302
0.797698364627498,0.880564949512482,1.07030597476959,1.0434010176658601
0.798304058146578,0.260254890918732,1.28106769351959,0.945205216884613
0.798909751665657,-1.21028710126877,0.660757634925842,-0.0942332596778865
0.799515445184736,-0.9300698161125179,-1.0229410955429101,-1.11451157999039
0.800121138703816,-0.25467430830001797,-1.78934734554291,-1.1983372635841398
0.800726832222895,0.835059578418732,-0.646923029136658,0.0207276778221135
0.801332525741975,1.45057959794998,0.37575031070709203,1.1415968184471101
0.801938219261054,0.32731543779373196,1.6499007013320899,1.5990455489158601
0.802543912780133,-1.2677675700187698,1.74570148258209,0.36321547079086297
0.803149606299213,-1.48331932783127,-0.278090021324158,-1.4593943924903898
0.803755299818292,-0.40316551923751803,-1.66241131038666,-1.8090672440528899
0.804360993337371,1.4146543049812301,-1.6600162908554101,-0.36487046670913703
0.804966686856451,1.7858823323249802,-0.112833673667908,1.3260133223533601
0.80557238037553,0.178824226856232,2.2055452325820903,1.52958998250961
0.806178073894609,-1.2462123942375198,1.83192218570709,0.36321547079086297
0.806783767413689,-1.8282021403312698,-0.31401531429290797,-1.4929246659278899
0.807389460932768,-0.37203026533126804,-1.51631511898041,-1.67494615030289
0.807995154451847,1.00989600419998,-1.5235001775741601,-0.31218003702163705
0.808600847970927,1.0841416096687302,0.191333806800842,0.624272599697113
0.809206541490006,0.291390144824982,2.02352374820709,1.0601661543846101
0.809812235009085,-0.776788566112518,1.24274738101959,0.708098283290863
0.810417928528165,-1.17915184736252,-0.103253595542908,-0.9013548417091369
0.811023622047244,-0.19719383955001799,-1.30555340023041,-1.47855454874039
0.811629315566323,0.26504492998123197,-1.47559978694916,-0.7600486893653869
0.812235009085403,1.01947608232498,0.16738361148834202,0.590742326259613
0.812840702604482,0.8470346760749821,1.1110213068008399,1.62299574422836
0.813446396123562,-0.242699210643768,1.20682208805084,0.878144670009613
0.814052089642641,-1.35877831220627,0.552981756019592,-0.319365095615387
0.81465778316172,-0.647457511425018,-1.24328289241791,-1.1983372635841398
0.815263476680799,-0.30975975751876805,-1.48278484554291,-1.2103123612403899
0.815869170199879,1.24939795732498,-0.563097345542908,0.25304457235336303
0.816474863718958,1.59188575029373,0.306294744300842,1.19907728719711
0.817080557238038,-0.0989980387687683,1.68582599430084,1.50324476766586
0.817686250757117,-1.2510024333000198,1.43913898258209,0.21472425985336302
0.818291944276196,-1.43541893720627,-0.656503107261658,-1.5144798417091399
0.818897637795276,-0.558841788768768,-1.66720134944916,-1.6941063065528899
0.819503331314355,1.61344092607498,-1.73905193538666,0.185984025478363
0.820109024833434,1.3547788166999801,0.279949529457092,1.76430189657211
0.820714718352514,-0.235514152050018,2.3923567560195904,2.00140883016586
0.821320411871593,-1.2845327067375198,1.4103987482070899,0.236279435634613
0.821926105390672,-1.60786034345627,-0.35473064632415796,-1.08098130655289
0.822531798909752,-0.0319374918937683,-1.7031266424179101,-1.07619126749039
0.823137492428831,0.868589851856232,-1.26004802913666,-0.470251326084137
0.82374318594791,0.973970711231232,0.826013982582092,0.923650041103363
0.82434887946699,-0.125343253612518,1.75049152164459,1.11764662313461
0.824954572986069,-0.642667472362518,1.06551593570709,0.387165666103363
0.825560266505148,-1.38512352705002,-0.472086603355408,-1.10253648233414
0.826165960024228,-0.33370995283126803,-1.65522625179291,-1.4546043534278899
0.826771653543307,0.423116219043732,-1.23609783382416,-0.348105329990387
0.827377347062386,1.1751523518562301,0.5601668146133421,0.964365373134613
0.827983040581466,0.753628914356232,1.31938800601959,1.3595435957908601
0.828588734100545,-0.29299462080001804,1.08707111148834,0.48296644735336297
0.829194427619624,-1.20070702314377,0.06918781070709229,-0.750468611240387
0.829800121138704,-0.8917495036125179,-1.56900554866791,-1.53843003702164
0.830405814657783,0.35845069169998195,-1.38458904476166,-1.21749741983414
0.831011508176863,1.29729834794998,-0.481666681480408,0.5739771895408631
0.831617201695942,1.47931983232498,0.830804021644592,1.43378920125961
0.832222895215021,-0.113368155956268,1.79360187320709,1.06256117391586
0.8328285887341,-1.4593691325187699,0.924209783363342,-0.321760115146637
0.83343428225318,-1.2294472575187698,-0.939115411949158,-1.99587876749039
0.834039975772259,0.039913094043731695,-1.71270672054291,-1.38754380655289
0.834645669291339,1.8888681721687302,-1.27681316585541,0.499731584072113
0.835251362810418,1.4649497151374802,0.883494451332092,1.63018080282211
0.835857056329497,-0.446275870800018,2.3684065607070903,1.4361842207908602
0.836462749848577,-1.6102553629875198,1.04156574039459,-0.597187361240387
0.837068443367656,-1.3539882731437698,-0.840919611167908,-1.68452622842789
0.837674136886735,0.0806284260749817,-1.67678142757416,-1.10493150186539
0.838279830405815,1.04342627763748,-1.15466716976166,0.269809709072113
0.838885523924894,1.14162207841873,0.967320134925842,0.7344434981346131
0.839491217443973,-0.0319374918937683,1.83431720523834,0.9164649825096131
0.840096910963053,-0.807923820018768,0.701472966957092,0.262624650478363
0.840702604482132,-1.1911269450187698,-0.790624201011658,-1.08816636514664
0.841308298001211,-0.166058585643768,-1.72228679866791,-1.32048325967789
0.841913991520291,0.641062996387482,-0.864869806480408,-0.146923689365387
0.84251968503937,0.957205574512482,0.622437322425842,0.997895646572113
0.843125378558449,0.581187508106232,1.20921710758209,1.11046156454086
0.843731072077529,-0.621112296581268,0.8787044122695921,0.243464494228363
0.844336765596608,-1.5240346598625198,-0.175104181480408,-1.1169065995216398
0.844942459115687,-0.625902335643768,-1.52829021663666,-1.5575901932716398
0.845548152634767,0.49736182451248195,-1.25525799007416,-0.479831404209137
0.846153846153846,1.31885352373123,-0.139178888511658,0.8517994551658631
0.846759539672925,1.1009067463874802,1.17568683414459,1.36912367391586
0.847365233192005,-0.642667472362518,1.58044513492584,0.849404435634613
0.847970926711084,-1.5887001872062698,0.433230779457092,-0.738493513584137
0.848576620230164,-0.9707851481437679,-1.31034343929291,-1.83780747842789
0.849182313749243,0.46862159013748195,-1.93544353694916,-0.989970564365387
0.849788007268322,1.5631455159187302,-0.888820001792908,0.667382951259613
0.850393700787402,1.1607822346687302,1.24993243961334,1.39067884969711
0.850999394306481,-0.7504433512687679,2.0594490411758404,0.878144670009613
0.85160508782556,-1.75395653486252,0.605672185707092,-0.599582380771637
0.85221078134464,-1.34680321455002,-1.07563152523041,-1.5144798417091399
0.852816474863719,0.42790625810623195,-1.66480632991791,-1.0953514237403899
0.853422168382798,1.2853232502937302,-0.596627618980408,0.526076798915863
0.854027861901878,0.930860359668732,1.26909259586334,1.2182374434471102
0.854633555420957,-0.0367275309562683,1.50619952945709,1.11046156454086
0.855239248940036,-0.7696035075187679,0.622437322425842,-0.22835435342788699
0.855844942459116,-1.06898094892502,-1.02773113460541,-1.36359361124039
0.856450635978195,-0.249884269237518,-1.61690593929291,-1.34682847452164
0.857056329497274,0.9476254963874821,-0.40263103694915797,0.176403947353363
0.857662023016354,0.8278745198249821,0.672732732582092,1.14878187704086
0.858267716535433,0.5452622151374821,1.20921710758209,1.18949720907211
0.858873410054512,-0.721703116893768,0.902654607582092,0.19077406454086301
0.859479103573592,-1.08095604658127,-0.6780582830429079,-1.43065415811539
0.860084797092671,-0.32412987470626803,-1.7414469549179101,-1.62465074014664
0.86069049061175,0.9069101643562321,-1.10916179866791,-0.36487046670913703
0.86129618413083,1.4960849690437301,-0.134388849449158,1.14878187704086
0.861901877649909,0.796739265918732,1.4103987482070899,1.3260133223533601
0.862507571168988,-0.8486391520500179,1.72654132633209,0.7751588301658631
0.863113264688068,-1.8713124918937698,0.107508123207092,-1.16241197061539
0.863718958207147,-0.740863273143768,-1.68875652523041,-1.89768296670914
0.864324651726227,0.894935066699982,-1.68875652523041,-0.530126814365387
0.864930345245306,1.7307968831062301,-0.057748224449157705,0.9763404707908631
0.865536038764385,1.00271094560623,1.71696124820709,1.74753675985336
0.866141732283465,-0.817503898143768,1.94688312320709,0.830244279384613
0.866747425802544,-1.73240135908127,0.26557941226959203,-1.13127671670914
0.867353119321623,-0.9492299723625179,-1.39656414241791,-1.5480101151466399
0.867958812840703,0.557237312793732,-1.51152507991791,-0.5444969315528869
0.868564506359782,1.34280371904373,-0.20144939632415798,0.566792130947113
0.869170199878861,0.8446396565437321,1.64511066226959,1.18949720907211
0.869775893397941,-0.34329003095626803,1.39602863101959,0.878144670009613
0.87038158691702,-1.2581874918937699,0.174568670082092,-0.659457869052887
0.870987280436099,-1.12406639814377,-1.07802654476166,-1.6893162674903899
0.871592973955179,0.0159628987312317,-1.8228776189804101,-1.11451157999039
0.872198667474258,0.938045418262482,-0.330780451011658,0.6961231856346131
0.872804360993337,1.0410312581062302,0.952950017738342,1.37151869344711
0.873410054512417,0.205169441699982,1.31459796695709,0.9907105879783631
0.874015748031496,-1.08574608564377,0.8978645685195921,-0.419955915927887
0.874621441550575,-0.755233390331268,-1.07084148616791,-1.52405991983414
0.875227135069655,0.0255429768562317,-1.74623699398041,-1.2917430253028899
0.875832828588734,1.01229102373123,-0.845709650230408,0.0590479903221135
0.876438522107813,1.45776465654373,0.07158283023834229,1.3643336348533601
0.877044215626893,0.504546883106232,1.51817462711334,1.15596693563461
0.877649909145972,-1.18394188642502,1.49422443180084,0.22430433797836302
0.878255602665051,-1.4593691325187699,-0.481666681480408,-1.35401353311539
0.878861296184131,-0.5085463786125181,-1.67199138851166,-1.74679673624039
0.87946698970321,1.0889316487312302,-1.48517986507416,-0.340920271396637
0.880072683222289,1.60865088701248,0.18654376773834203,1.85052259969711
0.880678376741369,0.777579109668732,2.0953743341445903,1.8385475020408601
0.881284070260448,-1.14083153486252,1.62355548648834,0.00875258016586347
0.881889763779528,-1.6270204997062698,-0.00266277523040772,-1.1600169510841398
0.882495457298607,-0.498966300487518,-1.37500896663666,-1.4378392167091398
0.883101150817686,0.47820166826248195,-1.5618204900741601,-0.29301988077163704
0.883706844336766,1.07935157060623,0.28473956851959203,0.983525529384613
0.884312537855845,0.897330086231232,1.70019611148834,1.2014723067283601
0.884918231374924,-0.233119132518768,1.28106769351959,0.6338526778221131
0.885523924894004,-1.40188866376877,-0.0745133611679077,-0.731308454990387
0.886129618413083,-0.743258292675018,-1.48517986507416,-1.4809495682716398
0.886735311932162,-0.0031972575187683102,-1.35345379085541,-0.7001732010841369
0.887341005451242,1.2038925862312302,0.25599933414459203,0.48296644735336297
0.887946698970321,0.9859458088874821,1.23316730289459,1.38349379110336
0.8885523924894,0.118948738574982,1.22358722476959,0.9739454512596131
0.88915808600848,-1.21747215986252,0.32545490055084203,-0.47264634561538704
0.889763779527559,-0.7528383708000179,-1.11155681819916,-1.57675034952164
0.890369473046638,0.219539558887482,-1.5833756658554101,-1.1887571854591399
0.890975166565718,1.4050742268562302,-0.764278986167908,0.600322404384613
0.891580860084797,1.41704932451248,0.612857244300842,1.2230274825096101
0.892186553603876,-0.10857811689376799,1.66906085758209,1.12722670125961
0.892792247122956,-1.13364647626877,0.986480291175842,-0.10381333780288701
0.893397940642035,-1.46176415205002,-0.960670587730408,-1.62465074014664
0.894003634161115,-0.36245018720626804,-1.54984539241791,-1.74440171670914
0.894609327680194,1.45536963701248,-1.14029705257416,0.0422828536033635
0.895215021199273,1.89605323076248,0.529031560707092,1.34517347860336
0.895820714718352,0.241094734668732,2.02112872867584,1.3044581465721101
0.896426408237432,-1.14083153486252,1.19963702945709,0.0901832442283635
0.897032101756511,-1.70605614423752,-0.42418621273040796,-1.56717027139664
0.897637795275591,-0.295389640331268,-1.47080974788666,-1.5575901932716398
0.89824348879467,1.03624121904373,-1.11155681819916,0.0494679121971135
0.898849182313749,1.06498145341873,0.46436603336334203,1.27092787313461
0.899454875832829,0.600347664356232,1.58763019351959,1.07453627157211
0.900060569351908,-0.7696035075187679,1.12060138492584,0.291364884853363
0.900666262870987,-1.3539882731437698,-0.361915704917908,-1.1288816971778899
0.901271956390067,-0.546866691112518,-1.46122966976166,-1.6725511307716399
0.901877649909146,0.339290535449982,-1.23370281429291,-0.546891951084137
0.902483343428225,1.1967075276374801,0.26557941226959203,0.8757496504783631
0.903089036947305,0.9452304768562321,1.29304279117584,1.3978639082908602
0.903694730466384,-0.30975975751876805,1.12539142398834,0.657802873134613
0.904300423985463,-1.29171776533127,-0.00266277523040772,-0.894169783115387
0.904906117504543,-0.45346092939376803,-1.32950359554291,-1.6988963456153898
0.905511811023622,0.300970222949982,-1.59535076351166,-0.913329939365387
0.906117504542701,1.5080600666999802,-0.644528009605408,0.6961231856346131
0.906723198061781,1.36914893388748,1.08707111148834,1.37391371297836
0.90732889158086,-0.336104972362518,1.74330646305084,1.01466078329086
0.907934585099939,-1.5336147379875198,0.742188298988342,-0.26427964639663704
0.908540278619019,-1.22226219892502,-1.03252117366791,-1.7539817948341399
0.909145972138098,-0.125343253612518,-1.64804119319916,-1.32766831827164
0.909751665657177,1.47931983232498,-0.924745294761658,0.33447523641586296
0.910357359176257,1.6326010823249801,0.823618963050842,1.38349379110336
0.910963052695336,0.00877784013748169,1.99957355289459,1.4960597090721102
0.911568746214416,-1.32524803876877,1.02001056461334,-0.173268904209137
0.912174439733495,-1.83059715986252,-0.814574396324158,-1.07140122842789
0.912780133252574,-0.144503409862518,-1.53787029476166,-0.8438743729591369
0.913385826771653,1.1703623127937302,-0.694823419761658,0.174008927822113
0.913991520290733,0.928465340137482,0.974505193519592,1.12962172079086
0.914597213809812,0.135713875293732,1.52535968570709,1.01226576375961
0.915202907328892,-0.762418448925018,0.787693670082092,0.166823869228363
0.915808600847971,-1.47134423017502,-0.613392755699158,-1.2797679276466398
0.91641429436705,-0.386400382518768,-1.51631511898041,-1.6174656815528898
0.91701998788613,0.571607429981232,-0.922350275230408,-0.180453962802887
0.917625681405209,1.2086826252937302,0.449995916175842,1.16794203329086
0.918231374924288,0.957205574512482,1.33854816226959,1.49366468954086
0.918837068443368,-0.5923720622062679,1.08467609195709,0.310525041103363
0.919442761962447,-1.37314842939377,-0.100858576011658,-1.28934800577164
0.920048455481526,-0.841454093456268,-1.55703045101166,-1.52166490030289
0.920654149000606,0.779974129199982,-1.52829021663666,-0.5852122635841369
0.921259842519685,1.6613413166999802,-0.15594402523040798,0.8326392989158631
0.921865536038764,1.0841416096687302,1.38884357242584,1.3595435957908601
0.922471229557844,-0.314549796581268,1.62834552555084,0.799109025478363
0.923076923076923,-1.6174404215812699,0.502686345863342,-0.716938337802887
0.923682616596002,-0.958810050487518,-1.43488445491791,-1.7276365799903899
0.924288310115082,0.382400887012482,-1.71270672054291,-1.2103123612403899
0.924894003634161,1.41944434404373,-0.519986993980408,0.569187150478363
0.92549969715324,1.3164585041999801,0.943369939613342,1.51521986532211
0.92610539067232,-0.25467430830001797,1.78402179508209,0.9164649825096131
0.926711084191399,-1.70605614423752,0.545796697425842,-0.637902693271637
0.927316777710478,-1.55277489423752,-1.04689129085541,-2.01743394327164
0.927922471229558,-0.0606777262687683,-1.41332927913666,-1.00194566202164
0.928528164748637,1.19431250810623,-0.654108087730408,0.722468400478363
0.929133858267717,1.1272519612312302,1.29543781070709,1.1200416426658601
0.929739551786796,-0.0367275309562683,1.26190753726959,1.01705580282211
0.930345245305875,-0.805528800487518,0.505081365394592,-0.110998396396637
0.930950938824954,-1.2629775309562699,-1.00857097835541,-1.41867906045914
0.931556632344034,-0.32412987470626803,-1.6432511541366601,-1.37556870889664
0.932162325863113,0.8278745198249821,-0.45292644710540797,0.0949732832908635
0.932768019382193,1.08174659013748,0.605672185707092,1.2733228926658602
0.933373712901272,0.770394051074982,1.35770831851959,1.28529799032211
0.933979406420351,-0.9899453043937679,0.960135076332092,0.114133439540863
0.934585099939431,-1.30848290205002,-0.512801935386658,-1.3899388260841399
0.93519079345851,-0.601952140331268,-1.7630021306991601,-1.66536607217789
0.935796486977589,1.04821631669998,-1.05886638851166,-0.216379255771637
0.936402180496669,1.73798194169998,-0.0649332830429077,1.23739759969711
0.937007874015748,0.516521980762482,1.63553058414459,1.70682142782211
0.937613567534827,-0.7719985270500179,1.63074054508209,0.562002091884613
0.938219261053907,-1.7970668864250199,-0.108043634605408,-1.09774644327164
0.938824954572986,-0.7696035075187679,-1.39416912288666,-1.58154038858414
0.939430648092065,0.720098640918732,-1.66480632991791,-0.690593122959137
0.940036341611145,1.70205664873123,-0.0314030096054077,0.8925147871971131
0.940642035130224,1.3068784260749802,1.3720784357070899,1.7786720137596101
0.941247728649303,-0.556446769237518,1.69780109195709,1.2781129317283602
0.941853422168383,-1.46655419111252,0.13864337711334201,-1.3013231034278898
0.942459115687462,-1.05221581220627,-1.50673504085541,-1.2965330643653898
0.943064809206541,0.0902085041999817,-1.17861736507416,-0.37445054483413703
0.943670502725621,1.1488071370124802,-0.122413751792908,0.578767228603363
0.9442761962447,1.0673764729499802,1.29783283023834,1.3978639082908602
0.94488188976378,-0.0175673747062683,1.00085040836334,0.5141017012596131
0.945487583282859,-0.999525382518768,0.0260774591445923,-0.736098494052887
0.946093276801938,-1.23184227705002,-1.08760662288666,-1.5911204667091399
0.946698970321018,-0.30975975751876805,-1.63367107601166,-0.908539900302887
0.947304663840097,0.930860359668732,-0.290065118980408,0.387165666103363
0.947910357359176,1.23742285966873,1.03917072086334,1.2661378340721101
0.948516050878256,0.34647559404373196,1.24514240055084,1.02903090047836
0.949121744397335,-1.27016258955002,0.605672185707092,-0.242724470615387
0.949727437916414,-1.12885643720627,-0.9965958806991579,-1.43065415811539
0.950333131435494,-0.357660148143768,-1.67199138851166,-1.3779637284278898
0.950938824954573,1.11288184404373,-0.8385245916366579,0.288969865322113
0.951544518473652,1.54877539873123,0.32545490055084203,1.6373658614158602
0.952150211992732,0.5093369221687319,1.4918294122695899,1.5008497481346101
0.952755905511811,-0.961205070018768,1.34333820133209,0.0374928145408635
0.95336159903089,-1.24860741376877,-0.548727228355408,-1.41867906045914
0.95396729254997,-0.515731437206268,-1.3438737127304101,-1.78272202920914
0.954572986069049,1.00510596513748,-1.23370281429291,-0.508571638584137
0.955178679588128,1.72361182451248,0.10511310367584199,1.1751270918846102
0.955784373107208,0.734468758106232,1.82234210758209,1.6325758223533602
0.956390066626287,-0.906119620800018,1.22119220523834,0.588347306728363
0.956995760145366,-1.7635366129875198,-0.112833673667908,-1.36359361124039
0.957601453664446,-0.963600089550018,-1.23370281429291,-1.50250474405289
0.958207147183525,0.31534034013748197,-1.0828165838241601,-0.597187361240387
0.958812840702604,1.35956885576248,0.23204913883209202,0.885329728603363
0.959418534221684,1.08174659013748,1.6115803888320899,1.49366468954086
0.960024227740763,-0.36005516767501805,1.29543781070709,0.437461076259613
0.960629921259842,-1.40667870283127,-0.0960685369491577,-0.966020369052887
0.961235614778922,-0.7288881754875179,-1.31034343929291,-1.49052964639664
0.961841308298001,0.200379402637482,-1.40135418148041,-0.546891951084137
0.962447001817081,1.34759375810623,0.0835579278945923,0.581162248134613
0.96305269533616,1.1607822346687302,0.974505193519592,1.18949720907211
0.963658388855239,-0.158873527050018,1.36489337711334,0.923650041103363
0.964264082374319,-1.21028710126877,0.253604314613342,-0.46306626749038704
0.964869775893398,-0.760023429393768,-1.21933269710541,-1.5192698807716398
0.965475469412477,0.0614682698249817,-1.52110515804291,-1.09295640420914
0.966081162931557,1.28292823076248,-0.761883966636658,0.583557267665863
0.966686856450636,1.4098642659187302,0.804458806800842,1.4625294356346101
0.967292549969715,-0.0199623942375183,1.64032062320709,1.29248304891586
0.967898243488795,-1.39470360517502,1.21879718570709,0.111738420009613
0.968503937007874,-1.47613426923752,-0.7786491033554079,-1.5791453690528898
0.969109630526953,-0.304969718456268,-1.71749675960541,-1.71805650186539
