Time (s),Accel X (m/s^2),Accel Y (m/s^2),Accel Z (m/s^2)
0.0,-0.15718382205963102,-0.0563833439826965,-0.0109800418853761
0.000605693519079346,-0.169158919715881,-0.142604047107697,-0.13552105751037602
0.00121138703815869,-0.0134826501846313,0.0202572810173035,0.185411559677124
0.00181708055723804,0.0990832677841187,0.0897128474235535,-0.0109800418853761
0.00242277407631738,-0.0565930017471313,-0.173739301013947,-0.0109800418853761
0.00302846759539673,-0.317650130653381,-0.166554242420197,0.0704506221771239
0.00363416111447607,-0.0709631189346313,-0.0108779728889465,0.09200579795837391
0.00423985463355542,0.000887467002868658,-0.0252480900764465,0.22373187217712398
0.00484554815263477,0.0990832677841187,-0.0276431096076965,0.23810198936462398
0.00545124167171411,-0.0805431970596313,-0.0372231877326965,0.20457171592712398
0.00605693519079346,0.053577896690368707,-0.0539883244514465,0.08961077842712391
0.0066626287098728,0.0176526037216187,-0.123443890857697,0.0776356807708739
0.00726832222895215,-0.0949133142471313,0.0154672419548035,0.0512904659271239
0.0078740157480315,0.06315797481536871,-0.00848295335769653,-0.0756455692291261
0.00847970926711084,0.046392838096618705,0.029837359142303503,0.11356097373962401
0.00908540278619019,0.12542848262786901,0.0489975153923035,0.503949157333374
0.00969109630526953,-0.06377806034088129,-0.144999066638947,0.700340758895874
0.0102967898243489,-0.0829382165908813,-0.185714398670197,0.39617327842712396
0.0109024833434282,-0.16197386112213102,-0.144999066638947,0.185411559677124
0.0115081768625076,-0.18831907596588102,0.0992929255485535,0.0129701534271239
0.0121138703815869,0.0344177404403687,0.183118609142303,0.20936175498962398
0.0127195639006663,-0.16197386112213102,0.0130722224235535,0.33629779014587396
0.0133252574197456,-0.154788802528381,0.0945028864860535,0.11356097373962401
0.013930950938825,0.0224426427841187,0.07294771070480349,0.24289202842712398
0.0145366444579043,-0.06377806034088129,-0.0276431096076965,0.09919085655212391
0.0151423379769836,-0.0733581384658813,-0.0156680119514465,0.274027282333374
0.015748031496063,-0.0206677087783813,0.0921078669548035,0.211756774520874
0.0163537250151423,-0.169158919715881,-0.0731484807014465,0.00578509483337389
0.0169594185342217,-0.205084212684631,-0.030038129138946497,0.147091247177124
0.017565112053301,-0.135628646278381,-0.00129789476394653,0.151881286239624
0.0181708055723804,-0.0589880212783813,-0.144999066638947,0.171041442489624
0.0187764990914597,-0.0541979822158813,-0.0132729924201965,0.09200579795837391
0.0193821926105391,-0.0661730798721313,-0.0563833439826965,0.0441054073333739
0.0199878861296184,-0.229034407997131,-0.142604047107697,0.26684222373962396
0.0205935796486978,-0.0853332361221313,-0.0970986760139465,0.127931090927124
0.0211992731677771,0.0559729162216187,-0.0468032658576965,0.302767516708374
0.0218049666868564,-0.00629759159088134,-0.0372231877326965,0.20457171592712398
0.0224106602059358,-0.0565930017471313,0.00109712476730347,0.147091247177124
0.0230163537250151,-0.205084212684631,-0.101888715076447,0.151881286239624
0.0236220472440945,-0.114073470497131,0.00109712476730347,-0.0756455692291261
0.0242277407631738,-0.0733581384658813,-0.0923086369514465,0.058475524520873894
0.0248334342822532,-0.0661730798721313,-0.0156680119514465,0.269237243270874
0.0254391278013325,-0.0589880212783813,0.0801327692985535,0.250077087020874
0.0260448213204119,-0.06377806034088129,-0.133023968982697,0.060870544052123894
0.0266505148394912,0.120638443565369,-0.0779385197639465,-0.013375061416626099
0.0272562083585706,-0.0302477869033813,-0.128233929920197,-0.0421152957916261
0.0278619018776499,-0.0853332361221313,-0.116258832263947,-0.0349302371978761
0.0284675953967293,-0.0901232751846313,0.147193316173553,0.0848207393646239
0.0290732889158086,-0.269749740028381,0.0921078669548035,0.137511169052124
0.0296789824348879,-0.0230627283096313,0.07294771070480349,0.0225502315521239
0.0302846759539673,-0.15718382205963102,-0.0156680119514465,0.10158587608337401
0.0308903694730466,-0.14760374393463102,-0.0108779728889465,0.297977477645874
0.031496062992126,-0.0278527673721313,-0.061173383045196504,0.15427630577087398
0.0321017565112053,-0.176343978309631,-0.0276431096076965,0.0704506221771239
0.0327074500302847,-0.13323362674713102,0.108873003673553,0.262052184677124
0.033313143549364,0.0990832677841187,0.027442339611053503,0.199781676864624
0.0339188370684434,-0.047012923622131296,-0.0515933049201965,0.319532653427124
0.0345245305875227,-0.0494079431533813,-0.144999066638947,0.283607360458374
0.0351302241066021,0.0320227209091187,-0.0707534611701965,0.039315368270873896
0.0357359176256814,-0.21705931034088102,0.149588335704803,-0.0995957645416261
0.0363416111447607,0.06555299434661871,0.0106772028923035,-0.00619000282287611
0.0369473046638401,-0.171553939247131,-0.0420132267951965,0.132721129989624
0.0375529981829194,-0.114073470497131,-0.018063031482696498,0.10398089561462401
0.0381586917019988,-0.039827865028381294,-0.0899136174201965,-0.0445103153228761
0.0387643852210781,-0.24819456424713102,-0.142604047107697,-0.360652893447876
0.0393700787401575,0.041602799034118704,-0.197689496326447,-0.406158264541626
0.0399757722592368,0.106268326377869,-0.0803335392951965,0.482393981552124
0.0405814657783162,-0.0973083337783813,0.0992929255485535,0.6260951534271241
0.0411871592973955,-0.231429427528381,0.192698687267303,0.16864642295837398
0.0417928528164749,0.041602799034118704,0.128033159923553,0.240497008895874
0.0423985463355542,0.0847131505966187,-0.0779385197639465,-0.00139996376037611
0.0430042398546336,-0.0925182947158813,-0.0707534611701965,0.09440081748962391
0.0436099333737129,-0.00629759159088134,0.00588716382980347,0.0752406612396239
0.0442156268927922,0.115848404502869,0.0202572810173035,0.10158587608337401
0.0448213204118716,-0.104493392372131,-0.0491982853889465,0.115955993270874
0.0454270139309509,-0.0661730798721313,-0.147394086170197,0.161461364364624
0.0460327074500303,-0.104493392372131,-0.238404828357697,0.18780657920837399
0.0466384009691096,0.0128625646591187,-0.0970986760139465,0.171041442489624
0.047244094488189,0.0823181310653687,0.123243120861053,0.362643004989624
0.0478497880072683,-0.047012923622131296,0.00588716382980347,0.26684222373962396
0.0484554815263477,0.120638443565369,0.029837359142303503,0.039315368270873896
0.049061175045427,-0.037432845497131294,0.240599077892303,0.0225502315521239
0.0496668685645064,-0.135628646278381,-0.061173383045196504,0.0680556026458739
0.0502725620835857,0.06794801387786871,-0.10428373460769699,-0.0636704715728761
0.050878255602665,-0.104493392372131,0.242994097423553,0.0824257198333739
0.0514839491217444,-0.0110876306533813,0.00588716382980347,0.0824257198333739
0.0520896426408237,0.108663345909119,0.111268023204803,0.00339007530212389
0.0526953361599031,-0.17873899784088101,0.0154672419548035,0.09200579795837391
0.0533010296789824,-0.154788802528381,-0.0228530705451965,-0.0684605106353761
0.0539067231980618,0.0799231115341187,0.209463823986053,0.08721575889587391
0.0545124167171411,0.103873306846619,-0.0827285588264465,0.240497008895874
0.0551181102362205,0.0200476232528687,-0.0994936955451965,0.0465004268646239
0.0557238037552998,0.0775280920028687,-0.202479535388947,0.130326110458374
0.0563294972743792,0.16135377559661898,-0.224034711170197,0.0728456417083739
0.0569351907934585,-0.0565930017471313,0.108873003673553,0.000995055770873893
0.0575408843125379,-0.0326428064346313,0.0178622614860535,-0.054090393447876105
0.0581465778316172,0.0871081701278687,-0.0228530705451965,0.199781676864624
0.0587522713506965,-0.22184934940338102,0.116058062267303,0.10877093467712401
0.0593579648697759,0.0128625646591187,0.0442074763298035,0.0680556026458739
0.0599636583888552,-0.102098372840881,-0.0875185978889465,0.21894183311462398
0.0605693519079346,0.0104675451278687,0.025047320079803502,0.192596618270874
0.0611750454270139,0.185303970909119,-0.164159222888947,0.300372497177124
0.0617807389460933,0.20206910762786898,-0.116258832263947,0.252472106552124
0.0623864324651726,0.168538834190369,-0.00129789476394653,0.307557555770874
0.062992125984252,-0.0805431970596313,-0.156974164295197,0.09919085655212391
0.0635978195033313,0.0895031896591187,-0.00608793382644653,-0.118755920791626
0.0642035130224107,-0.0518029626846313,-0.018063031482696498,0.130326110458374
0.06480920654149,0.06555299434661871,-0.156974164295197,0.197386657333374
0.0654149000605694,0.06794801387786871,-0.152184125232697,0.00578509483337389
0.0660205935796487,0.053577896690368707,0.00109712476730347,0.0465004268646239
0.066626287098728,-0.0733581384658813,0.0777377497673035,0.17822650108337398
0.0672319806178074,-0.19310911502838102,0.106477984142303,0.17822650108337398
0.0678376741368867,-0.15718382205963102,-0.0252480900764465,0.15427630577087398
0.0684433676559661,-0.305675032997131,-0.0372231877326965,0.192596618270874
0.0690490611750454,-0.0901232751846313,0.128033159923553,0.697945739364624
0.0696547546941248,-0.044617904090881295,0.0154672419548035,0.5231093135833741
0.0702604482132041,-0.0877282556533813,-0.123443890857697,0.348272887802124
0.0708661417322835,0.043997818565368704,0.0513925349235535,0.206966735458374
0.0714718352513628,-0.14760374393463102,0.113663042736053,0.190201598739624
0.0720775287704422,0.06315797481536871,0.0130722224235535,0.190201598739624
0.0726832222895215,0.0559729162216187,-0.0539883244514465,0.0441054073333739
0.0732889158086008,-0.21226927127838102,0.0489975153923035,0.23331195030212398
0.0738946093276802,-0.209874251747131,0.0130722224235535,0.060870544052123894
0.0745003028467595,-0.00629759159088134,0.0489975153923035,0.23331195030212398
0.0751059963658389,0.0248376623153687,-0.0444082463264465,0.194991637802124
0.0757116898849182,-0.06377806034088129,-0.185714398670197,-0.013375061416626099
0.0763173834039976,0.06555299434661871,0.0346273982048035,0.09440081748962391
0.0769230769230769,-0.114073470497131,0.0106772028923035,0.26684222373962396
0.0775287704421563,-0.12844358768463102,-0.0970986760139465,0.307557555770874
0.0781344639612356,0.0176526037216187,0.101687945079803,0.120746032333374
0.078740157480315,0.0775280920028687,-0.0779385197639465,0.21415179405212398
0.0793458509993943,0.115848404502869,0.0322323786735535,0.151881286239624
0.0799515445184737,0.0775280920028687,0.159168413829803,-0.133126037979126
0.080557238037553,-0.190714095497131,-0.166554242420197,0.00339007530212389
0.0811629315566323,-0.0997033533096313,-0.00129789476394653,-0.123545959854126
0.0817686250757117,-0.0733581384658813,-0.190504437732697,0.135116149520874
0.082374318594791,-0.044617904090881295,-0.185714398670197,0.139906188583374
0.0829800121138704,-0.0494079431533813,0.058577593517303496,-0.0445103153228761
0.0835857056329497,-0.173948958778381,0.151983355236053,0.171041442489624
0.0841913991520291,0.0799231115341187,0.0873178278923035,0.192596618270874
0.0847970926711084,0.0344177404403687,0.108873003673553,0.0441054073333739
0.0854027861901878,-0.0589880212783813,-0.061173383045196504,0.22373187217712398
0.0860084797092671,-0.0541979822158813,-0.00129789476394653,0.11116595420837401
0.0866141732283465,0.0895031896591187,0.0226523005485535,0.142301208114624
0.0872198667474258,-0.109283431434631,-0.106678754138947,0.281212340927124
0.0878255602665051,-0.145208724403381,-0.0396182072639465,0.0632655635833739
0.0884312537855845,-0.109283431434631,0.07055269117355349,0.197386657333374
0.0890369473046638,-0.0877282556533813,0.0633676325798035,0.060870544052123894
0.0896426408237432,0.0344177404403687,-0.032433148670196504,0.34587786827087397
0.0902483343428225,0.041602799034118704,0.056182573986053495,0.36503802452087397
0.0908540278619019,0.118243424034119,0.130428179454803,0.0273402706146239
0.0914597213809812,-0.047012923622131296,0.0801327692985535,0.020155212020873902
0.0920654149000606,-0.130838607215881,0.07055269117355349,-0.0109800418853761
0.0926711084191399,-0.06377806034088129,0.156773394298553,0.123141051864624
0.0932768019382193,0.051182877159118706,-0.140209027576447,0.32671771202087396
0.0938824954572986,-0.116468490028381,-0.130628949451447,0.08721575889587391
0.094488188976378,-0.0589880212783813,-0.125838910388947,-0.0229551395416261
0.0950938824954573,0.0272326818466187,-0.0156680119514465,0.324322692489624
0.0956995760145366,0.0823181310653687,0.135218218517303,0.32671771202087396
0.096305269533616,0.0775280920028687,0.0897128474235535,0.278817321395874
0.0969109630526953,-0.00869261112213134,0.00828218336105347,0.367433044052124
0.0975166565717747,-0.121258529090881,-0.0156680119514465,0.15906634483337398
0.098122350090854,-0.0110876306533813,-0.0108779728889465,0.23331195030212398
0.0987280436099334,0.041602799034118704,-0.0827285588264465,0.377013122177124
0.0993337371290127,-0.121258529090881,0.056182573986053495,0.0752406612396239
0.0999394306480921,-0.0230627283096313,-0.0731484807014465,0.571009704208374
0.100545124167171,0.0607629552841187,-0.178529340076447,0.40575335655212397
0.101150817686251,-0.0302477869033813,-0.00369291429519653,-0.123545959854126
0.10175651120533,-0.0589880212783813,-0.0539883244514465,0.00818011436462389
0.102362204724409,-0.130838607215881,-0.030038129138946497,-0.125940979385376
0.102967898243489,0.111058365440369,0.0777377497673035,0.135116149520874
0.103573591762568,-0.044617904090881295,-0.00608793382644653,0.28600237998962397
0.104179285281647,-0.0302477869033813,-0.0396182072639465,-0.24569195594787602
0.104784978800727,0.190094009971619,-0.0970986760139465,-0.212161682510376
0.105390672319806,-0.121258529090881,-0.0707534611701965,0.262052184677124
0.105996365838886,-0.14760374393463102,0.00109712476730347,0.20936175498962398
0.106602059357965,0.0320227209091187,0.0442074763298035,-0.00379498329162611
0.107207752877044,-0.0110876306533813,0.0825277888298035,-0.0157700809478761
0.107813446396124,-0.21226927127838102,-0.034828168201446505,0.10637591514587401
0.108419139915203,-0.0182726892471313,0.0106772028923035,0.250077087020874
0.109024833434282,0.17093385372161898,0.161563433361053,0.230916930770874
0.109630526953362,-0.0254577478408813,0.137613238048553,0.0728456417083739
0.110236220472441,-0.0757531579971313,-0.061173383045196504,0.0225502315521239
0.11084191399152,0.0607629552841187,0.0513925349235535,0.09200579795837391
0.1114476075106,0.0152575841903687,0.147193316173553,0.202176696395874
0.112053301029679,-0.23861448612213101,-0.0515933049201965,-0.051695373916626104
0.112658994548758,-0.0781481775283813,-0.020458051013946498,-0.0157700809478761
0.113264688067838,0.14219361934661898,0.0370224177360535,0.10398089561462401
0.113870381586917,0.00328248653411866,0.0202572810173035,0.15906634483337398
0.114476075105996,0.108663345909119,-0.0707534611701965,0.348272887802124
0.115081768625076,-0.236219466590881,0.00349214429855347,0.10637591514587401
0.115687462144155,-0.00150755252838134,-0.183319379138947,0.259657165145874
0.116293155663234,0.043997818565368704,-0.250379926013947,0.132721129989624
0.116898849182314,-0.0901232751846313,0.159168413829803,0.0488954463958739
0.117504542701393,0.12542848262786901,0.108873003673553,0.297977477645874
0.118110236220472,-0.28172483768463097,0.0178622614860535,0.331507751083374
0.118715929739552,-0.116468490028381,0.156773394298553,0.20936175498962398
0.119321623258631,-0.159578841590881,0.0633676325798035,0.180621520614624
0.11992731677771,-0.200294173622131,-0.0635684025764465,0.0297352901458739
0.12053301029679,0.0200476232528687,-0.0132729924201965,-0.0157700809478761
0.121138703815869,-0.140418685340881,-0.0468032658576965,0.22852191123962398
0.121744397334949,-0.121258529090881,0.0777377497673035,0.0728456417083739
0.122350090854028,-0.0206677087783813,-0.0539883244514465,0.0536854854583739
0.122955784373107,-0.0206677087783813,0.104082964611053,-0.0205601200103761
0.123561477892187,-0.14760374393463102,0.199883745861053,-0.09241070594787609
0.124167171411266,0.00567750606536866,-0.195294476795197,-0.0995957645416261
0.124772864930345,0.0847131505966187,-0.0827285588264465,-0.0732505496978761
0.125378558449425,-0.0709631189346313,-0.123443890857697,0.120746032333374
0.125984251968504,-0.102098372840881,-0.142604047107697,0.135116149520874
0.126589945487583,-0.0925182947158813,0.254969195079803,0.000995055770873893
0.127195639006663,-0.236219466590881,0.00828218336105347,-0.00858502235412611
0.127801332525742,-0.0565930017471313,-0.0635684025764465,0.156671325302124
0.128407026044821,-0.0877282556533813,-0.0252480900764465,0.518319274520874
0.129012719563901,-0.044617904090881295,-0.116258832263947,-0.0205601200103761
0.12961841308298,0.16614381465911898,-0.0444082463264465,0.367433044052124
0.130224106602059,-0.0230627283096313,-0.149789105701447,0.872782165145874
0.130829800121139,-0.0757531579971313,-0.0444082463264465,-0.157076233291626
0.131435493640218,-0.0853332361221313,-0.0851235783576965,0.0800307003021239
0.132041187159297,-0.03503782596588129,-0.147394086170197,0.132721129989624
0.132646880678377,0.0559729162216187,-0.0923086369514465,-0.0277451786041261
0.133252574197456,0.00567750606536866,0.0418124567985535,0.341087829208374
0.133858267716535,-0.0853332361221313,0.0178622614860535,0.123141051864624
0.134463961235615,-0.0110876306533813,0.159168413829803,-0.07804058876037609
0.135069654754694,0.290684830284119,-0.231219769763947,0.0704506221771239
0.135675348273773,0.0966882482528687,-0.283910199451447,-0.121150940322876
0.136281041792853,-0.123653548622131,0.0346273982048035,-0.128335998916626
0.136886735311932,-0.0781481775283813,-0.125838910388947,0.0680556026458739
0.137492428831012,-0.14281370487213102,-0.0851235783576965,0.18301654014587398
0.138098122350091,0.16614381465911898,0.058577593517303496,0.115955993270874
0.13870381586917,-0.0565930017471313,0.209463823986053,0.161461364364624
0.13930950938825,-0.135628646278381,0.0154672419548035,0.0632655635833739
0.139915202907329,0.0559729162216187,-0.032433148670196504,0.0297352901458739
0.140520896426408,-0.0733581384658813,0.147193316173553,0.0632655635833739
0.141126589945488,-0.15718382205963102,0.058577593517303496,0.0297352901458739
0.141732283464567,0.0272326818466187,0.0154672419548035,0.254867126083374
0.142337976983646,-0.0518029626846313,-0.0899136174201965,0.0441054073333739
0.142943670502726,-0.0685680994033813,0.0394174372673035,0.0417103878021239
0.143549364021805,0.0344177404403687,0.163958452892303,0.123141051864624
0.144155057540884,0.043997818565368704,-0.020458051013946498,0.180621520614624
0.144760751059964,-0.0206677087783813,-0.0515933049201965,0.0848207393646239
0.145366444579043,-0.135628646278381,0.0825277888298035,-0.0972007450103761
0.145972138098122,-0.03503782596588129,0.298079546642303,-0.08762066688537609
0.146577831617202,-0.20747923221588102,0.0825277888298035,0.15427630577087398
0.147183525136281,-0.111678450965881,0.0466024958610535,0.0249452510833739
0.14778921865536,0.0296277013778687,0.07055269117355349,0.0560805049896239
0.14839491217444,-0.0661730798721313,-0.10428373460769699,0.0800307003021239
0.149000605693519,0.0799231115341187,-0.020458051013946498,0.142301208114624
0.149606299212598,0.218834244346619,-0.0539883244514465,0.257262145614624
0.150211992731678,0.0559729162216187,0.149588335704803,0.226126891708374
0.150817686250757,0.178118912315369,0.0442074763298035,0.0560805049896239
0.151423379769836,0.07034303340911871,-0.018063031482696498,-0.123545959854126
0.152029073288916,0.0392077795028687,0.0466024958610535,0.032130309677123894
0.152634766807995,-0.154788802528381,-0.178529340076447,0.16385638389587398
0.153240460327075,-0.214664290809631,-0.00369291429519653,0.142301208114624
0.153846153846154,0.20206910762786898,0.216648882579803,0.14469622764587398
0.154451847365233,0.144588638877869,0.00109712476730347,0.10877093467712401
0.155057540884313,0.194884049034119,-0.0779385197639465,0.0560805049896239
0.155663234403392,0.115848404502869,0.120848101329803,0.23810198936462398
0.156268927922471,0.30744996700286903,-0.173739301013947,0.0225502315521239
0.156874621441551,0.42720094356536903,-0.130628949451447,0.08961077842712391
0.15748031496063,0.163748795127869,0.0106772028923035,-0.00139996376037611
0.158086008479709,0.343375259971619,-0.0731484807014465,0.00578509483337389
0.158691701998789,0.43678102169036903,-0.0396182072639465,-0.00858502235412611
0.159297395517868,0.247574478721619,-0.133023968982697,0.317137633895874
0.159903089036947,0.319425064659119,0.0226523005485535,0.6692055049896241
0.160508782556027,0.384090592002869,-0.0827285588264465,0.23810198936462398
0.161114476075106,0.283499771690369,0.0130722224235535,-0.09001568641662609
0.161720169594185,0.343375259971619,0.027442339611053503,-0.049300354385376104
0.162325863113265,0.269129654502869,-0.0635684025764465,0.216546813583374
0.162931556632344,0.30505494747161904,0.0992929255485535,0.0249452510833739
0.163537250151423,0.563717056846619,0.0801327692985535,0.0417103878021239
0.164142943670503,0.479891373252869,-0.178529340076447,0.0297352901458739
0.164748637189582,0.388880631065369,0.00828218336105347,-0.255272034072876
0.165354330708661,0.47510133419036904,-0.0970986760139465,-0.116360901260376
0.165960024227741,0.360140396690369,-0.10428373460769699,-0.0301401981353761
0.16656571774682,0.288289810752869,0.0370224177360535,-0.054090393447876105
0.167171411265899,0.508631607627869,-0.307860394763946,0.412938415145874
0.167777104784979,0.278709732627869,0.027442339611053503,-0.0181651004791261
0.168382798304058,0.333795181846619,0.128033159923553,0.015365172958373901
0.168988491823137,0.477496353721619,0.0945028864860535,0.230916930770874
0.169594185342217,0.309844986534119,0.151983355236053,0.0177601924896239
0.170199878861296,0.209254166221619,-0.10428373460769699,0.197386657333374
0.170805572380376,0.290684830284119,0.058577593517303496,0.0512904659271239
0.171411265899455,0.372115494346619,0.07294771070480349,0.137511169052124
0.172016959418534,0.214044205284119,0.00588716382980347,-0.0229551395416261
0.172622652937614,0.422410904502869,0.029837359142303503,-0.137916077041626
0.173228346456693,0.281104752159119,-0.00848295335769653,-0.058880432510376106
0.173834039975772,0.21643922481536898,0.0968979060173035,0.15906634483337398
0.174439733494852,0.123033463096619,-0.0420132267951965,0.348272887802124
0.175045427013931,0.130218521690369,-0.164159222888947,0.060870544052123894
0.17565112053301,0.21643922481536898,-0.0803335392951965,-0.0469053348541261
0.17625681405209,-0.18352903690338102,-0.0468032658576965,0.060870544052123894
0.176862507571169,0.043997818565368704,-0.0252480900764465,0.132721129989624
0.177468201090248,0.127823502159119,0.140008257579803,0.309952575302124
0.178073894609328,-0.0206677087783813,-0.00608793382644653,0.08721575889587391
0.178679588128407,-0.0781481775283813,0.0489975153923035,0.0225502315521239
0.179285281647486,-0.039827865028381294,0.113663042736053,0.0800307003021239
0.179890975166566,-0.044617904090881295,-0.123443890857697,0.130326110458374
0.180496668685645,0.051182877159118706,-0.00608793382644653,0.410543395614624
0.181102362204724,0.06794801387786871,-0.018063031482696498,0.120746032333374
0.181708055723804,-0.0925182947158813,-0.0779385197639465,0.216546813583374
0.182313749242883,0.0727380529403687,0.07534273023605349,0.151881286239624
0.182919442761962,0.108663345909119,-0.0420132267951965,0.10637591514587401
0.183525136281042,0.209254166221619,0.0394174372673035,0.293187438583374
0.184130829800121,0.0392077795028687,0.00828218336105347,0.020155212020873902
0.1847365233192,0.144588638877869,-0.0707534611701965,0.0704506221771239
0.18534221683828,0.115848404502869,0.027442339611053503,0.171041442489624
0.185947910357359,-0.03503782596588129,-0.00608793382644653,0.192596618270874
0.186553603876439,0.16135377559661898,0.00349214429855347,0.269237243270874
0.187159297395518,-0.0661730798721313,-0.0707534611701965,0.5111342159271239
0.187764990914597,-0.00390257205963134,-0.020458051013946498,0.324322692489624
0.188370684433677,0.0799231115341187,0.0130722224235535,0.709920837020874
0.188976377952756,0.12542848262786901,-0.0420132267951965,0.448863708114624
0.189582071471835,0.254759537315369,-0.0851235783576965,0.367433044052124
0.190187764990915,0.008072525596618661,-0.0108779728889465,0.374618102645874
0.190793458509994,-0.00869261112213134,-0.0396182072639465,0.0752406612396239
0.191399152029073,0.15177369747161898,-0.0875185978889465,0.14469622764587398
0.192004845548153,0.111058365440369,0.027442339611053503,-0.0373252567291261
0.192610539067232,0.0248376623153687,-0.185714398670197,0.0632655635833739
0.193216232586311,0.0392077795028687,-0.0755435002326965,0.0177601924896239
0.193821926105391,-0.0182726892471313,0.154378374767303,0.197386657333374
0.19442761962447,0.043997818565368704,-0.0156680119514465,0.18780657920837399
0.195033313143549,-0.0661730798721313,0.0322323786735535,0.135116149520874
0.195639006662629,0.13261354122161897,0.00109712476730347,0.125536071395874
0.196244700181708,-0.0134826501846313,0.00109712476730347,0.24768206748962399
0.196850393700787,-0.0853332361221313,-0.034828168201446505,0.175831481552124
0.197456087219867,0.0895031896591187,-0.034828168201446505,0.156671325302124
0.198061780738946,-0.0973083337783813,-0.113863812732697,0.30516253623962397
0.198667474258025,0.16614381465911898,-0.10428373460769699,0.24768206748962399
0.199273167777105,0.0799231115341187,-0.0420132267951965,0.139906188583374
0.199878861296184,0.0918982091903687,-0.140209027576447,0.034525329208373895
0.200484554815263,0.0248376623153687,0.209463823986053,-0.0732505496978761
0.201090248334343,-0.0661730798721313,0.027442339611053503,0.0560805049896239
0.201695941853422,0.053577896690368707,-0.243194867420197,0.293187438583374
0.202301635372502,-0.0709631189346313,-0.0707534611701965,0.120746032333374
0.202907328891581,-0.260169661903381,-0.00848295335769653,0.22852191123962398
0.20351302241066,-0.15718382205963102,-0.106678754138947,0.314742614364624
0.20411871592974,-0.135628646278381,0.108873003673553,0.20936175498962398
0.204724409448819,-0.116468490028381,-0.0491982853889465,0.166251403427124
0.205330102967898,-0.12844358768463102,-0.0108779728889465,0.252472106552124
0.205935796486978,-0.154788802528381,-0.061173383045196504,0.18301654014587398
0.206541490006057,-0.0901232751846313,-0.130628949451447,0.185411559677124
0.207147183525136,-0.29130491580963097,-0.00129789476394653,0.115955993270874
0.207752877044216,0.15177369747161898,-0.133023968982697,-0.0636704715728761
0.208358570563295,0.0320227209091187,0.0226523005485535,0.000995055770873893
0.208964264082374,-0.205084212684631,0.0178622614860535,0.0800307003021239
0.209569957601454,-0.00869261112213134,-0.113863812732697,0.09440081748962391
0.210175651120533,-0.233824447059631,-0.113863812732697,0.288397399520874
0.210781344639612,-0.0134826501846313,-0.125838910388947,0.24768206748962399
0.211387038158692,-0.0733581384658813,-0.209664593982697,0.16385638389587398
0.211992731677771,0.149378677940369,-0.0731484807014465,0.09679583702087391
0.21259842519685,0.21643922481536898,0.0849228083610535,0.142301208114624
0.21320411871593,-0.0565930017471313,-0.0228530705451965,0.17822650108337398
0.213809812235009,-0.00869261112213134,-0.130628949451447,0.0177601924896239
0.214415505754088,-0.21226927127838102,-0.0923086369514465,-0.0995957645416261
0.215021199273168,-0.0182726892471313,-0.0970986760139465,-0.0636704715728761
0.215626892792247,0.008072525596618661,-0.0491982853889465,0.14948626670837398
0.216232586311326,0.00328248653411866,-0.0228530705451965,0.118351012802124
0.216838279830406,-0.0613830408096313,0.0633676325798035,0.17343646202087398
0.217443973349485,-0.042222884559631295,0.060972613048553496,0.135116149520874
0.218049666868565,-0.00869261112213134,0.00588716382980347,0.329112731552124
0.218655360387644,0.0847131505966187,-0.0132729924201965,0.142301208114624
0.219261053906723,0.0895031896591187,0.0346273982048035,-0.125940979385376
0.219866747425803,-0.0973083337783813,-0.032433148670196504,0.10158587608337401
0.220472440944882,0.008072525596618661,-0.0444082463264465,0.793746520614624
0.221078134463961,0.16614381465911898,-0.116258832263947,0.434493590927124
0.221683827983041,0.194884049034119,0.06815767164230349,-0.0421152957916261
0.22228952150212,0.0152575841903687,0.056182573986053495,0.034525329208373895
0.222895215021199,-0.0589880212783813,-0.0372231877326965,0.0704506221771239
0.223500908540279,-0.13323362674713102,0.195093706798553,0.0560805049896239
0.224106602059358,0.0320227209091187,-0.212059613513947,-0.056485412979126105
0.224712295578437,0.06794801387786871,0.0202572810173035,0.032130309677123894
0.225317989097517,0.06555299434661871,-0.00369291429519653,0.197386657333374
0.225923682616596,0.0200476232528687,-0.123443890857697,0.197386657333374
0.226529376135675,0.06315797481536871,0.027442339611053503,-0.0756455692291261
0.227135069654755,0.0918982091903687,0.0394174372673035,0.0417103878021239
0.227740763173834,-0.0182726892471313,0.0992929255485535,0.221336852645874
0.228346456692913,-0.0685680994033813,-0.0899136174201965,0.0776356807708739
0.228952150211993,-0.18352903690338102,-0.233614789295197,0.020155212020873902
0.229557843731072,-0.0925182947158813,-0.0779385197639465,0.240497008895874
0.230163537250151,-0.0733581384658813,0.269339312267303,-0.0349302371978761
0.230769230769231,0.0942932287216187,0.0897128474235535,0.00578509483337389
0.23137492428831,0.000887467002868658,-0.0372231877326965,0.23810198936462398
0.231980617807389,-0.0733581384658813,-0.0515933049201965,0.0105751338958739
0.232586311326469,0.218834244346619,-0.0420132267951965,0.142301208114624
0.233192004845548,0.14698365840911898,0.00588716382980347,0.10877093467712401
0.233797698364627,-0.0110876306533813,-0.0491982853889465,0.0632655635833739
0.234403391883707,-0.154788802528381,-0.147394086170197,0.142301208114624
0.235009085402786,-0.03503782596588129,-0.0468032658576965,-0.0109800418853761
0.235614778921866,-0.03503782596588129,-0.0683584416389465,0.125536071395874
0.236220472440945,-0.0110876306533813,-0.00848295335769653,0.269237243270874
0.236826165960024,0.051182877159118706,0.0633676325798035,0.14948626670837398
0.237431859479104,-0.0494079431533813,0.07055269117355349,-0.152286194229126
0.238037552998183,-0.173948958778381,0.144798296642303,-0.049300354385376104
0.238643246517262,0.0368127599716187,-0.178529340076447,-0.00619000282287611
0.239248940036342,-0.0949133142471313,-0.0707534611701965,-0.0469053348541261
0.239854633555421,-0.118863509559631,-0.0755435002326965,0.18301654014587398
0.2404603270745,0.0559729162216187,-0.0276431096076965,0.240497008895874
0.24106602059358,0.051182877159118706,0.154378374767303,0.235706969833374
0.241671714112659,0.281104752159119,-0.116258832263947,0.453653747177124
0.242277407631738,0.168538834190369,-0.111468793201447,0.40575335655212397
0.242883101150818,0.144588638877869,-0.0132729924201965,0.156671325302124
0.243488794669897,-0.0877282556533813,0.0873178278923035,0.0441054073333739
0.244094488188976,0.0128625646591187,-0.0156680119514465,0.18780657920837399
0.244700181708056,0.17093385372161898,-0.0563833439826965,0.271632262802124
0.245305875227135,-0.15239378299713102,-0.00369291429519653,0.10158587608337401
0.245911568746214,-0.0685680994033813,-0.0635684025764465,0.18301654014587398
0.246517262265294,0.0224426427841187,0.0442074763298035,0.28600237998962397
0.247122955784373,-0.130838607215881,0.128033159923553,0.0704506221771239
0.247728649303452,-0.039827865028381294,-0.111468793201447,0.058475524520873894
0.248334342822532,0.12542848262786901,0.00828218336105347,-0.0349302371978761
0.248940036341611,0.0272326818466187,0.0418124567985535,-0.219346741104126
0.24954572986069,-0.145208724403381,-0.0851235783576965,-0.161866272354126
0.25015142337977,-0.039827865028381294,-0.0108779728889465,-0.19060650672912602
0.250757116898849,0.139798599815369,-0.061173383045196504,-0.0349302371978761
0.251362810417929,-0.039827865028381294,0.07534273023605349,-0.0373252567291261
0.251968503937008,-0.044617904090881295,-0.185714398670197,0.132721129989624
0.252574197456087,-0.176343978309631,0.07055269117355349,0.0273402706146239
0.253179890975167,0.0727380529403687,0.211858843517303,-0.049300354385376104
0.253785584494246,0.223624283409119,0.0370224177360535,0.0488954463958739
0.254391278013325,-0.209874251747131,0.111268023204803,0.0728456417083739
0.254996971532405,-0.20268919315338102,0.0154672419548035,0.10158587608337401
0.255602665051484,-0.18352903690338102,0.0801327692985535,0.0728456417083739
0.256208358570563,-0.0805431970596313,0.149588335704803,0.171041442489624
0.256814052089643,-0.047012923622131296,0.025047320079803502,0.20457171592712398
0.257419745608722,0.053577896690368707,-0.0468032658576965,-0.13552105751037602
0.258025439127801,-0.15239378299713102,-0.0563833439826965,-0.0301401981353761
0.258631132646881,-0.171553939247131,-0.018063031482696498,0.350667907333374
0.25923682616596,-0.21705931034088102,0.104082964611053,0.00339007530212389
0.259842519685039,-0.0829382165908813,-0.116258832263947,0.09200579795837391
0.260448213204119,0.0559729162216187,-0.0468032658576965,0.314742614364624
0.261053906723198,0.108663345909119,0.178328570079803,0.0848207393646239
0.261659600242277,0.127823502159119,-0.0420132267951965,0.0704506221771239
0.262265293761357,-0.0997033533096313,0.108873003673553,0.000995055770873893
0.262870987280436,-0.149998763465881,0.130428179454803,0.058475524520873894
0.263476680799515,-0.0134826501846313,-0.020458051013946498,0.18780657920837399
0.264082374318595,0.293079849815369,0.128033159923553,0.0776356807708739
0.264688067837674,0.15177369747161898,0.0489975153923035,0.20936175498962398
0.265293761356753,-0.16197386112213102,0.0466024958610535,0.23331195030212398
0.265899454875833,0.0272326818466187,-0.00608793382644653,0.161461364364624
0.266505148394912,-0.123653548622131,-0.0947036564826965,0.199781676864624
0.267110841913992,-0.15718382205963102,0.132823198986053,0.10637591514587401
0.267716535433071,-0.0997033533096313,0.0130722224235535,0.0465004268646239
0.26832222895215,-0.286514876747131,0.173538531017303,0.0177601924896239
0.26892792247123,0.0559729162216187,0.142403277111053,0.0800307003021239
0.269533615990309,0.06315797481536871,-0.109073773670197,0.197386657333374
0.270139309509388,-0.169158919715881,0.0178622614860535,0.278817321395874
0.270745003028468,-0.03503782596588129,-0.147394086170197,0.15427630577087398
0.271350696547547,0.043997818565368704,0.156773394298553,0.0129701534271239
0.271956390066626,0.000887467002868658,-0.128233929920197,0.10877093467712401
0.272562083585706,0.123033463096619,0.0657626521110535,0.0105751338958739
0.273167777104785,-0.0733581384658813,0.116058062267303,0.259657165145874
0.273773470623864,-0.169158919715881,-0.121048871326447,0.360247985458374
0.274379164142944,-0.0589880212783813,0.231018999767303,0.10877093467712401
0.274984857662023,-0.21226927127838102,0.0466024958610535,0.324322692489624
0.275590551181102,-0.0613830408096313,-0.212059613513947,0.199781676864624
0.276196244700182,0.16614381465911898,0.0106772028923035,0.307557555770874
0.276801938219261,-0.102098372840881,0.07534273023605349,0.17822650108337398
0.27740763173834,0.0583679357528687,0.0873178278923035,0.0848207393646239
0.27801332525742,-0.13323362674713102,0.0226523005485535,0.137511169052124
0.278619018776499,0.120638443565369,-0.171344281482697,-0.0325352176666261
0.279224712295578,0.16614381465911898,-0.00608793382644653,0.341087829208374
0.279830405814658,0.046392838096618705,-0.109073773670197,0.403358337020874
0.280436099333737,-0.0997033533096313,0.0968979060173035,0.317137633895874
0.281041792852816,-0.205084212684631,0.0489975153923035,0.262052184677124
0.281647486371896,0.127823502159119,0.0370224177360535,0.0752406612396239
0.282253179890975,-0.111678450965881,-0.0468032658576965,0.0680556026458739
0.282858873410055,-0.14281370487213102,-0.113863812732697,0.115955993270874
0.283464566929134,-0.0182726892471313,0.0226523005485535,0.0824257198333739
0.284070260448213,0.103873306846619,0.0202572810173035,0.0728456417083739
0.284675953967293,0.0200476232528687,-0.0683584416389465,0.034525329208373895
0.285281647486372,0.120638443565369,-0.032433148670196504,0.036920348739623896
0.285887341005451,0.0751330724716187,0.0106772028923035,0.194991637802124
0.286493034524531,-0.0541979822158813,-0.0515933049201965,0.166251403427124
0.28709872804361,-0.126048568153381,-0.00848295335769653,-0.0756455692291261
0.287704421562689,-0.13323362674713102,-0.0491982853889465,-0.0684605106353761
0.288310115081769,-0.00390257205963134,-0.0444082463264465,0.252472106552124
0.288915808600848,0.101478287315369,-0.0707534611701965,0.180621520614624
0.289521502119927,0.0895031896591187,-0.121048871326447,0.264447204208374
0.290127195639007,0.0296277013778687,-0.0755435002326965,0.398568297958374
0.290732889158086,-0.0326428064346313,-0.185714398670197,0.22852191123962398
0.291338582677165,-0.104493392372131,-0.030038129138946497,-0.0277451786041261
0.291944276196245,0.0344177404403687,-0.0132729924201965,0.135116149520874
0.292549969715324,0.204464127159119,-0.0156680119514465,0.274027282333374
0.293155663234403,0.111058365440369,0.214253863048553,0.259657165145874
0.293761356753483,0.0128625646591187,-0.111468793201447,0.032130309677123894
0.294367050272562,-0.27214475955963097,-0.0827285588264465,-0.128335998916626
0.294972743791641,-0.0541979822158813,-0.101888715076447,0.036920348739623896
0.295578437310721,-0.135628646278381,0.00109712476730347,0.036920348739623896
0.2961841308298,-0.114073470497131,-0.00129789476394653,0.319532653427124
0.296789824348879,0.008072525596618661,-0.156974164295197,0.262052184677124
0.297395517867959,-0.236219466590881,-0.0491982853889465,0.18780657920837399
0.298001211387038,-0.0949133142471313,-0.168949261951447,0.0800307003021239
0.298606904906118,-0.109283431434631,-0.0444082463264465,0.151881286239624
0.299212598425197,0.0152575841903687,0.190303667736053,0.250077087020874
0.299818291944276,0.17093385372161898,-0.0252480900764465,0.262052184677124
0.300423985463356,0.259549576377869,0.154378374767303,0.252472106552124
0.301029678982435,0.245179459190369,0.0873178278923035,-0.0445103153228761
0.301635372501514,-0.0302477869033813,-0.195294476795197,0.0800307003021239
0.302241066020594,-0.140418685340881,-0.0468032658576965,0.039315368270873896
0.302846759539673,-0.15718382205963102,-0.0468032658576965,-0.0109800418853761
0.303452453058752,-0.121258529090881,0.0322323786735535,0.058475524520873894
0.304058146577832,0.0152575841903687,-0.032433148670196504,0.202176696395874
0.304663840096911,0.204464127159119,0.0322323786735535,0.125536071395874
0.30526953361599,0.00567750606536866,0.0777377497673035,-0.0349302371978761
0.30587522713507,-0.06377806034088129,-0.0994936955451965,0.18780657920837399
0.306480920654149,0.041602799034118704,0.056182573986053495,0.18301654014587398
0.307086614173228,0.0272326818466187,-0.0947036564826965,0.21894183311462398
0.307692307692308,0.0368127599716187,-0.0923086369514465,0.20457171592712398
0.308298001211387,-0.15239378299713102,0.0633676325798035,0.058475524520873894
0.308903694730466,-0.0589880212783813,-0.0899136174201965,-0.284012268447876
0.309509388249546,-0.0541979822158813,-0.166554242420197,0.240497008895874
0.310115081768625,-0.044617904090881295,-0.0803335392951965,0.448863708114624
0.310720775287704,0.051182877159118706,-0.0491982853889465,0.0728456417083739
0.311326468806784,-0.0254577478408813,0.0777377497673035,0.09200579795837391
0.311932162325863,0.106268326377869,0.060972613048553496,0.257262145614624
0.312537855844942,0.106268326377869,-0.166554242420197,0.09919085655212391
0.313143549364022,-0.0206677087783813,-0.0108779728889465,-0.17623638954162602
0.313749242883101,-0.0709631189346313,0.108873003673553,-0.0109800418853761
0.31435493640218,0.0559729162216187,0.130428179454803,0.15906634483337398
0.31496062992126,-0.0853332361221313,-0.144999066638947,0.314742614364624
0.315566323440339,0.0104675451278687,0.111268023204803,-0.106780823135376
0.316172016959419,0.0607629552841187,0.0418124567985535,-0.113965881729126
0.316777710478498,0.048787857627868705,-0.161764203357697,0.21894183311462398
0.317383403997577,-0.0110876306533813,0.144798296642303,-0.08522564735412609
0.317989097516657,-0.18831907596588102,0.118453081798553,0.0632655635833739
0.318594791035736,0.0559729162216187,-0.0228530705451965,0.118351012802124
0.319200484554815,0.19727906856536898,-0.212059613513947,0.000995055770873893
0.319806178073895,-0.0685680994033813,-0.140209027576447,-0.133126037979126
0.320411871592974,-0.0925182947158813,-0.00608793382644653,-0.106780823135376
0.321017565112053,-0.123653548622131,-0.133023968982697,0.14469622764587398
0.321623258631133,-0.205084212684631,-0.137814008045197,0.039315368270873896
0.322228952150212,0.0128625646591187,0.00349214429855347,-0.0109800418853761
0.322834645669291,0.046392838096618705,0.0442074763298035,0.192596618270874
0.323440339188371,-0.104493392372131,-0.030038129138946497,0.166251403427124
0.32404603270745,-0.149998763465881,-0.0947036564826965,0.240497008895874
0.324651726226529,-0.0829382165908813,-0.0731484807014465,0.16864642295837398
0.325257419745609,-0.0709631189346313,-0.0635684025764465,0.0488954463958739
0.325863113264688,-0.0565930017471313,-0.10428373460769699,0.161461364364624
0.326468806783767,-0.19310911502838102,0.240599077892303,-0.0277451786041261
0.327074500302847,0.0607629552841187,0.0968979060173035,0.16864642295837398
0.327680193821926,-0.0781481775283813,0.025047320079803502,0.23810198936462398
0.328285887341005,-0.0302477869033813,-0.0396182072639465,0.180621520614624
0.328891580860085,-0.176343978309631,-0.188109418201447,0.21894183311462398
0.329497274379164,-0.0997033533096313,0.207068804454803,0.09200579795837391
0.330102967898244,-0.0613830408096313,-0.0156680119514465,0.17822650108337398
0.330708661417323,0.118243424034119,-0.0108779728889465,0.18780657920837399
0.331314354936402,0.053577896690368707,0.0873178278923035,0.147091247177124
0.331920048455482,-0.209874251747131,0.0202572810173035,0.16385638389587398
0.332525741974561,0.0727380529403687,0.00828218336105347,0.09679583702087391
0.33313143549364,0.0296277013778687,0.0849228083610535,0.16385638389587398
0.33373712901272,0.07034303340911871,-0.159369183826447,0.10637591514587401
0.334342822531799,0.0296277013778687,-0.152184125232697,-0.09001568641662609
0.334948516050878,-0.0925182947158813,-0.0994936955451965,-0.0684605106353761
0.335554209569958,0.00328248653411866,-0.0659634221076965,0.23331195030212398
0.336159903089037,0.0751330724716187,0.113663042736053,0.139906188583374
0.336765596608116,0.0368127599716187,-0.030038129138946497,0.0800307003021239
0.337371290127196,0.0296277013778687,0.192698687267303,0.17822650108337398
0.337976983646275,-0.0685680994033813,0.0418124567985535,0.08721575889587391
0.338582677165354,-0.13802366580963102,-0.0156680119514465,0.09200579795837391
0.339188370684434,-0.114073470497131,0.06815767164230349,0.132721129989624
0.339794064203513,-0.0613830408096313,-0.123443890857697,0.5446644893646241
0.340399757722592,-0.109283431434631,-0.128233929920197,0.333902770614624
0.341005451241672,-0.214664290809631,-0.0252480900764465,-0.142706116104126
0.341611144760751,-0.15239378299713102,-0.209664593982697,0.10158587608337401
0.34221683827983,-0.0326428064346313,-0.106678754138947,0.09200579795837391
0.34282253179891,0.158958756065369,-0.0755435002326965,0.0752406612396239
0.343428225317989,-0.121258529090881,-0.0851235783576965,0.142301208114624
0.344033918837068,-0.114073470497131,-0.144999066638947,0.17822650108337398
0.344639612356148,0.14219361934661898,-0.10428373460769699,0.032130309677123894
0.345245305875227,-0.20268919315338102,-0.0515933049201965,-0.0972007450103761
0.345850999394306,0.06794801387786871,-0.144999066638947,0.125536071395874
0.346456692913386,0.111058365440369,0.142403277111053,-0.0469053348541261
0.347062386432465,0.20685914669036898,-0.018063031482696498,0.036920348739623896
0.347668079951545,0.16614381465911898,-0.144999066638947,0.20457171592712398
0.348273773470624,-0.14760374393463102,0.056182573986053495,-0.113965881729126
0.348879466989703,-0.19789915409088102,-0.0252480900764465,0.00339007530212389
0.349485160508783,0.23559938106536898,-0.061173383045196504,0.09200579795837391
0.350090854027862,0.101478287315369,-0.0156680119514465,0.17822650108337398
0.350696547546941,-0.264959700965881,-0.125838910388947,0.0752406612396239
0.351302241066021,0.15656373653411898,-0.061173383045196504,0.0417103878021239
0.3519079345851,-0.00390257205963134,0.0418124567985535,0.199781676864624
0.352513628104179,-0.0997033533096313,0.0633676325798035,0.0704506221771239
0.353119321623259,-0.0254577478408813,0.00349214429855347,0.10158587608337401
0.353725015142338,0.0248376623153687,0.0202572810173035,0.329112731552124
0.354330708661417,0.00328248653411866,0.178328570079803,0.139906188583374
0.354936402180497,0.108663345909119,-0.0515933049201965,-0.058880432510376106
0.355542095699576,0.00328248653411866,-0.0755435002326965,0.0560805049896239
0.356147789218655,0.0200476232528687,0.0873178278923035,0.0441054073333739
0.356753482737735,0.0559729162216187,-0.034828168201446505,0.0632655635833739
0.357359176256814,0.0296277013778687,0.0370224177360535,0.0752406612396239
0.357964869775893,-0.159578841590881,0.0992929255485535,0.032130309677123894
0.358570563294973,-0.121258529090881,0.00109712476730347,0.127931090927124
0.359176256814052,0.127823502159119,-0.111468793201447,0.0512904659271239
0.359781950333131,0.0392077795028687,-0.0827285588264465,-0.0205601200103761
0.360387643852211,-0.0853332361221313,-0.0132729924201965,0.142301208114624
0.36099333737129,0.0895031896591187,-0.0923086369514465,0.33629779014587396
0.361599030890369,0.0727380529403687,-0.106678754138947,0.293187438583374
0.362204724409449,-0.176343978309631,0.00349214429855347,0.0632655635833739
0.362810417928528,0.0152575841903687,-0.140209027576447,0.0177601924896239
0.363416111447607,-0.0589880212783813,-0.224034711170197,0.060870544052123894
0.364021804966687,-0.190714095497131,0.0154672419548035,0.0776356807708739
0.364627498485766,-0.0997033533096313,0.0466024958610535,0.0752406612396239
0.365233192004846,-0.0709631189346313,-0.0755435002326965,0.278817321395874
0.365838885523925,-0.0230627283096313,-0.140209027576447,0.288397399520874
0.366444579043004,-0.00869261112213134,0.266944292736053,0.20457171592712398
0.367050272562084,0.051182877159118706,-0.0228530705451965,0.0488954463958739
0.367655966081163,-0.0494079431533813,-0.269540082263947,0.16385638389587398
0.368261659600242,-0.18831907596588102,-0.032433148670196504,-0.164261291885376
0.368867353119322,-0.03503782596588129,-0.034828168201446505,0.036920348739623896
0.369473046638401,-0.00150755252838134,0.283709429454803,0.0129701534271239
0.37007874015748,0.043997818565368704,0.0322323786735535,0.491974059677124
0.37068443367656,0.0823181310653687,-0.0563833439826965,0.290792419052124
0.371290127195639,-0.0925182947158813,-0.0396182072639465,-0.169051330947876
0.371895820714718,-0.0877282556533813,-0.00608793382644653,0.199781676864624
0.372501514233798,-0.0781481775283813,-0.0539883244514465,-0.0972007450103761
0.373107207752877,-0.00629759159088134,-0.0779385197639465,0.14948626670837398
0.373712901271956,0.28589479122161904,-0.128233929920197,0.0848207393646239
0.374318594791036,0.14698365840911898,0.0777377497673035,-0.00619000282287611
0.374924288310115,0.07034303340911871,0.0849228083610535,-0.00139996376037611
0.375529981829194,0.053577896690368707,0.0801327692985535,0.21894183311462398
0.376135675348274,0.0990832677841187,0.07055269117355349,0.034525329208373895
0.376741368867353,0.18051393184661899,-0.173739301013947,0.0129701534271239
0.377347062386432,0.043997818565368704,-0.00608793382644653,0.127931090927124
0.377952755905512,-0.00869261112213134,0.0945028864860535,-0.0277451786041261
0.378558449424591,-0.0973083337783813,0.0945028864860535,-0.0229551395416261
0.379164142943671,-0.0278527673721313,-0.00848295335769653,0.0776356807708739
0.37976983646275,-0.039827865028381294,-0.267145062732697,0.166251403427124
0.380375529981829,-0.169158919715881,0.056182573986053495,-0.054090393447876105
0.380981223500909,0.0200476232528687,-0.0156680119514465,0.00578509483337389
0.381586917019988,-0.00390257205963134,-0.338995648670196,0.202176696395874
0.382192610539067,-0.21705931034088102,0.00588716382980347,-0.054090393447876105
0.382798304058147,-0.00390257205963134,-0.0468032658576965,0.00818011436462389
0.383403997577226,0.06794801387786871,-0.0228530705451965,0.14469622764587398
0.384009691096305,0.0320227209091187,-0.142604047107697,0.0632655635833739
0.384615384615385,-0.195504134559631,-0.0396182072639465,-0.025350159072876098
0.385221078134464,0.0392077795028687,0.07294771070480349,0.10158587608337401
0.385826771653543,0.0176526037216187,-0.061173383045196504,0.331507751083374
0.386432465172623,-0.15239378299713102,-0.061173383045196504,0.10637591514587401
0.387038158691702,0.0559729162216187,-0.0707534611701965,-0.00139996376037611
0.387643852210781,-0.118863509559631,-0.142604047107697,0.0632655635833739
0.388249545729861,-0.205084212684631,-0.0947036564826965,-0.00379498329162611
0.38885523924894,-0.044617904090881295,0.053787554454803495,0.118351012802124
0.389460932768019,-0.0757531579971313,-0.0923086369514465,0.319532653427124
0.390066626287099,-0.15718382205963102,-0.00369291429519653,0.319532653427124
0.390672319806178,0.16135377559661898,0.0370224177360535,0.22852191123962398
0.391278013325257,0.0607629552841187,-0.173739301013947,0.199781676864624
0.391883706844337,-0.169158919715881,-0.030038129138946497,-0.0972007450103761
0.392489400363416,-0.252984603309631,0.132823198986053,0.14948626670837398
0.393095093882495,0.043997818565368704,0.056182573986053495,0.27642230186462396
0.393700787401575,0.103873306846619,0.0418124567985535,0.132721129989624
0.394306480920654,0.0296277013778687,0.0968979060173035,0.18301654014587398
0.394912174439733,0.249969498252869,0.025047320079803502,0.262052184677124
0.395517867958813,0.0895031896591187,-0.106678754138947,0.343482848739624
0.396123561477892,-0.106888411903381,-0.0970986760139465,-0.0277451786041261
0.396729254996972,0.048787857627868705,-0.034828168201446505,0.11356097373962401
0.397334948516051,0.271524674034119,0.00349214429855347,0.199781676864624
0.39794064203513,0.0966882482528687,-0.0228530705451965,0.139906188583374
0.39854633555421,-0.0110876306533813,-0.0515933049201965,0.302767516708374
0.399152029073289,-0.00390257205963134,-0.0539883244514465,-0.0660654911041261
0.399757722592368,0.046392838096618705,-0.118653851795197,0.422518493270874
0.400363416111448,-0.13802366580963102,-0.0539883244514465,0.180621520614624
0.400969109630527,-0.0805431970596313,0.00349214429855347,-0.288802307510376
0.401574803149606,0.051182877159118706,-0.0228530705451965,0.211756774520874
0.402180496668686,-0.0254577478408813,-0.0731484807014465,0.257262145614624
0.402786190187765,-0.109283431434631,-0.233614789295197,0.147091247177124
0.403391883706844,-0.0757531579971313,-0.034828168201446505,0.0848207393646239
0.403997577225924,0.0607629552841187,0.180723589611053,0.274027282333374
0.404603270745003,-0.0901232751846313,-0.0444082463264465,0.21415179405212398
0.405208964264082,0.00328248653411866,-0.0156680119514465,0.309952575302124
0.405814657783162,-0.0134826501846313,-0.034828168201446505,0.300372497177124
0.406420351302241,-0.0278527673721313,-0.020458051013946498,0.036920348739623896
0.40702604482132,-0.06377806034088129,-0.133023968982697,0.137511169052124
0.4076317383404,-0.0949133142471313,-0.113863812732697,-0.111570862197876
0.408237431859479,-0.06377806034088129,0.0657626521110535,0.30516253623962397
0.408843125378558,-0.0278527673721313,-0.0444082463264465,0.40575335655212397
0.409448818897638,0.0392077795028687,-0.152184125232697,0.0105751338958739
0.410054512416717,0.209254166221619,0.0130722224235535,-0.049300354385376104
0.410660205935796,-0.0541979822158813,0.0394174372673035,0.14948626670837398
0.411265899454876,-0.114073470497131,-0.058778363513946504,0.151881286239624
0.411871592973955,0.0751330724716187,-0.219244672107697,-0.20018658485412602
0.412477286493035,-0.042222884559631295,-0.0779385197639465,0.039315368270873896
0.413082980012114,-0.00629759159088134,0.175933550548553,0.0465004268646239
0.413688673531193,0.0607629552841187,-0.109073773670197,0.0417103878021239
0.414294367050273,-0.135628646278381,-0.00608793382644653,0.11356097373962401
0.414900060569352,0.0200476232528687,-0.0539883244514465,0.0632655635833739
0.415505754088431,-0.15239378299713102,0.0466024958610535,0.00578509483337389
0.416111447607511,-0.171553939247131,-0.032433148670196504,0.202176696395874
0.41671714112659,-0.114073470497131,-0.0228530705451965,0.034525329208373895
0.417322834645669,-0.0853332361221313,-0.0755435002326965,0.058475524520873894
0.417928528164749,-0.047012923622131296,-0.130628949451447,0.381803161239624
0.418534221683828,-0.0949133142471313,-0.0683584416389465,-0.0421152957916261
0.419139915202907,-0.0613830408096313,-0.291095258045197,-0.0373252567291261
0.419745608721987,-0.176343978309631,-0.018063031482696498,0.0417103878021239
0.420351302241066,-0.0973083337783813,-0.0132729924201965,-0.0229551395416261
0.420956995760145,-0.0949133142471313,0.0657626521110535,0.254867126083374
0.421562689279225,0.0727380529403687,-0.0444082463264465,0.11116595420837401
0.422168382798304,0.06315797481536871,0.0992929255485535,0.00578509483337389
0.422774076317383,0.000887467002868658,-0.0659634221076965,-0.0349302371978761
0.423379769836463,0.041602799034118704,-0.159369183826447,0.10637591514587401
0.423985463355542,0.0607629552841187,0.0633676325798035,-0.0469053348541261
0.424591156874621,-0.121258529090881,-0.0994936955451965,0.0800307003021239
0.425196850393701,-0.135628646278381,0.283709429454803,0.21894183311462398
0.42580254391278,-0.03503782596588129,-0.0108779728889465,0.0441054073333739
0.426408237431859,-0.047012923622131296,0.029837359142303503,0.120746032333374
0.427013930950939,0.0296277013778687,0.262154253673553,0.206966735458374
0.427619624470018,-0.0685680994033813,-0.018063031482696498,0.180621520614624
0.428225317989098,0.0224426427841187,-0.00848295335769653,0.750636169052124
0.428831011508177,0.0751330724716187,-0.0396182072639465,0.22852191123962398
0.429436705027256,-0.0973083337783813,0.00349214429855347,0.039315368270873896
0.430042398546336,0.053577896690368707,0.178328570079803,0.697945739364624
0.430648092065415,0.108663345909119,0.058577593517303496,0.015365172958373901
0.431253785584494,0.0727380529403687,-0.0635684025764465,-0.219346741104126
0.431859479103574,0.0966882482528687,-0.0252480900764465,0.09679583702087391
0.432465172622653,0.113453384971619,-0.188109418201447,-0.00619000282287611
0.433070866141732,-0.0685680994033813,-0.032433148670196504,0.09919085655212391
0.433676559660812,0.0344177404403687,-0.137814008045197,0.230916930770874
0.434282253179891,-0.0589880212783813,0.0921078669548035,0.036920348739623896
0.43488794669897,0.048787857627868705,0.060972613048553496,0.0225502315521239
0.43549364021805,-0.00150755252838134,-0.030038129138946497,-0.111570862197876
0.436099333737129,-0.0709631189346313,0.190303667736053,0.0824257198333739
0.436705027256208,0.0104675451278687,0.151983355236053,0.142301208114624
0.437310720775288,-0.123653548622131,-0.00369291429519653,0.16864642295837398
0.437916414294367,0.000887467002868658,-0.212059613513947,0.09440081748962391
0.438522107813446,-0.106888411903381,0.053787554454803495,-0.113965881729126
0.439127801332526,-0.0541979822158813,-0.128233929920197,0.17343646202087398
0.439733494851605,0.182908951377869,-0.185714398670197,0.0656605831146239
0.440339188370684,0.329005142784119,0.113663042736053,-0.0181651004791261
0.440944881889764,0.209254166221619,-0.0779385197639465,0.0297352901458739
0.441550575408843,0.0847131505966187,-0.116258832263947,0.09919085655212391
0.442156268927922,-0.16197386112213102,-0.135418988513947,0.151881286239624
0.442761962447002,-0.039827865028381294,-0.238404828357697,0.0465004268646239
0.443367655966081,0.07034303340911871,-0.0659634221076965,-0.00379498329162611
0.44397334948516,0.223624283409119,-0.0444082463264465,0.199781676864624
0.44457904300424,0.17572389278411898,-0.058778363513946504,0.18301654014587398
0.445184736523319,-0.245799544715881,-0.061173383045196504,0.060870544052123894
0.445790430042399,-0.0853332361221313,-0.185714398670197,0.17822650108337398
0.446396123561478,-0.173948958778381,0.00109712476730347,0.130326110458374
0.447001817080557,-0.044617904090881295,-0.0228530705451965,0.0728456417083739
0.447607510599637,0.26673463497161903,-0.061173383045196504,-0.056485412979126105
0.448213204118716,0.0775280920028687,0.168748491954803,0.08721575889587391
0.448818897637795,0.000887467002868658,-0.034828168201446505,0.192596618270874
0.449424591156875,-0.0949133142471313,-0.0779385197639465,0.22373187217712398
0.450030284675954,-0.039827865028381294,0.0657626521110535,0.20457171592712398
0.450635978195033,0.0368127599716187,-0.032433148670196504,0.22852191123962398
0.451241671714113,-0.19789915409088102,-0.0803335392951965,0.491974059677124
0.451847365233192,0.0200476232528687,-0.034828168201446505,0.211756774520874
0.452453058752271,0.0296277013778687,-0.0755435002326965,0.0536854854583739
0.453058752271351,-0.0110876306533813,0.0178622614860535,0.216546813583374
0.45366444579043,-0.0518029626846313,0.0322323786735535,0.161461364364624
0.454270139309509,-0.0829382165908813,0.0466024958610535,0.130326110458374
0.454875832828589,-0.0158776697158813,-0.144999066638947,0.36503802452087397
0.455481526347668,-0.0949133142471313,-0.10428373460769699,0.161461364364624
0.456087219866747,-0.00629759159088134,-0.00608793382644653,0.0177601924896239
0.456692913385827,-0.135628646278381,-0.0970986760139465,0.0824257198333739
0.457298606904906,-0.03503782596588129,0.0202572810173035,0.331507751083374
0.457904300423985,0.0104675451278687,0.053787554454803495,0.17343646202087398
0.458509993943065,-0.0661730798721313,0.120848101329803,-0.0684605106353761
0.459115687462144,0.008072525596618661,0.00828218336105347,0.127931090927124
0.459721380981224,0.0942932287216187,-0.331810590076446,0.5829848018646241
0.460327074500303,0.0368127599716187,-0.147394086170197,0.0488954463958739
0.460932768019382,-0.0278527673721313,0.0106772028923035,0.039315368270873896
0.461538461538462,0.0152575841903687,-0.0156680119514465,0.350667907333374
0.462144155057541,-0.0134826501846313,0.00109712476730347,0.139906188583374
0.46274984857662,0.0990832677841187,-0.192899457263947,0.317137633895874
0.4633555420957,0.103873306846619,0.0178622614860535,-0.0421152957916261
0.463961235614779,-0.0134826501846313,0.056182573986053495,0.290792419052124
0.464566929133858,-0.24340452518463102,0.0657626521110535,0.0536854854583739
0.465172622652938,-0.0182726892471313,0.0801327692985535,0.10158587608337401
0.465778316172017,0.0344177404403687,-0.202479535388947,0.14948626670837398
0.466384009691096,-0.185924056434631,0.06815767164230349,-0.118755920791626
0.466989703210176,-0.03503782596588129,0.07534273023605349,0.0752406612396239
0.467595396729255,-0.0781481775283813,-0.267145062732697,0.302767516708374
0.468201090248334,0.0176526037216187,0.0346273982048035,0.0129701534271239
0.468806783767414,-0.12844358768463102,-0.00129789476394653,0.10877093467712401
0.469412477286493,0.0392077795028687,-0.0899136174201965,0.259657165145874
0.470018170805572,0.199674088096619,0.130428179454803,-0.013375061416626099
0.470623864324652,0.12542848262786901,0.058577593517303496,0.0129701534271239
0.471229557843731,-0.0182726892471313,0.060972613048553496,-0.0948057254791261
0.47183525136281,-0.19310911502838102,0.00349214429855347,-0.0205601200103761
0.47244094488189,0.0847131505966187,-0.0923086369514465,0.288397399520874
0.473046638400969,0.041602799034118704,0.0202572810173035,0.463233825302124
0.473652331920048,0.0152575841903687,-0.00129789476394653,0.15427630577087398
0.474258025439128,-0.0805431970596313,-0.111468793201447,0.216546813583374
0.474863718958207,-0.0278527673721313,-0.034828168201446505,0.240497008895874
0.475469412477286,0.0392077795028687,-0.200084515857697,-0.0349302371978761
0.476075105996366,-0.164368880653381,-0.135418988513947,0.00578509483337389
0.476680799515445,-0.106888411903381,-0.135418988513947,0.0680556026458739
0.477286493034525,0.0344177404403687,-0.0755435002326965,0.137511169052124
0.477892186553604,0.053577896690368707,0.120848101329803,0.147091247177124
0.478497880072683,-0.164368880653381,-0.0468032658576965,0.42491351280212397
0.479103573591763,0.06315797481536871,0.113663042736053,0.22373187217712398
0.479709267110842,0.0559729162216187,0.0825277888298035,0.0441054073333739
0.480314960629921,-0.121258529090881,0.0921078669548035,0.123141051864624
0.480920654149001,-0.0685680994033813,0.142403277111053,-0.14510113563537602
0.48152634766808,0.0775280920028687,0.0394174372673035,0.0800307003021239
0.482132041187159,-0.0326428064346313,-0.061173383045196504,0.297977477645874
0.482737734706239,-0.0134826501846313,0.053787554454803495,0.137511169052124
0.483343428225318,0.0871081701278687,0.053787554454803495,0.0105751338958739
0.483949121744397,0.06555299434661871,-0.0707534611701965,-0.00379498329162611
0.484554815263477,0.101478287315369,-0.111468793201447,0.20936175498962398
0.485160508782556,-0.00390257205963134,-0.140209027576447,0.15427630577087398
0.485766202301635,0.0128625646591187,0.0968979060173035,-0.13552105751037602
0.486371895820715,0.0823181310653687,0.00349214429855347,-0.0277451786041261
0.486977589339794,-0.0326428064346313,-0.0228530705451965,0.16864642295837398
0.487583282858873,0.168538834190369,-0.0396182072639465,0.20457171592712398
0.488188976377953,0.0320227209091187,0.0825277888298035,-0.0660654911041261
0.488794669897032,-0.205084212684631,0.00109712476730347,0.16385638389587398
0.489400363416111,0.0248376623153687,0.0466024958610535,-0.049300354385376104
0.490006056935191,-0.0877282556533813,-0.123443890857697,0.21894183311462398
0.49061175045427,-0.0565930017471313,-0.0539883244514465,0.22852191123962398
0.491217443973349,-0.0997033533096313,0.219043902111053,-0.0732505496978761
0.491823137492429,-0.0589880212783813,-0.0228530705451965,0.300372497177124
0.492428831011508,0.0847131505966187,-0.0970986760139465,0.161461364364624
0.493034524530587,0.111058365440369,-0.034828168201446505,0.245287047958374
0.493640218049667,0.07034303340911871,-0.0899136174201965,0.175831481552124
0.494245911568746,-0.037432845497131294,0.00349214429855347,0.0297352901458739
0.494851605087826,-0.0565930017471313,0.07534273023605349,-0.0732505496978761
0.495457298606905,0.0152575841903687,-0.0851235783576965,0.190201598739624
0.496062992125984,-0.0565930017471313,0.058577593517303496,0.30516253623962397
0.496668685645064,0.0128625646591187,-0.121048871326447,0.11356097373962401
0.497274379164143,-0.0206677087783813,0.0489975153923035,0.130326110458374
0.497880072683222,-0.0541979822158813,-0.032433148670196504,0.175831481552124
0.498485766202302,-0.123653548622131,-0.159369183826447,0.202176696395874
0.499091459721381,-0.042222884559631295,0.130428179454803,-0.00858502235412611
0.49969715324046,0.118243424034119,-0.0444082463264465,-0.116360901260376
0.50030284675954,-0.0949133142471313,-0.0707534611701965,0.17343646202087398
0.500908540278619,-0.233824447059631,-0.133023968982697,-0.0229551395416261
0.501514233797698,0.06555299434661871,-0.247984906482697,-0.0157700809478761
0.502119927316778,0.043997818565368704,-0.0779385197639465,0.137511169052124
0.502725620835857,-0.0661730798721313,-0.10428373460769699,0.0680556026458739
0.503331314354936,-0.0589880212783813,0.027442339611053503,0.0704506221771239
0.503937007874016,-0.224244368934631,-0.142604047107697,0.194991637802124
0.504542701393095,0.115848404502869,-0.106678754138947,-0.025350159072876098
0.505148394912174,-0.13802366580963102,0.0849228083610535,-0.0229551395416261
0.505754088431254,-0.044617904090881295,-0.00129789476394653,0.14469622764587398
0.506359781950333,0.00567750606536866,0.058577593517303496,0.0512904659271239
0.506965475469413,-0.18831907596588102,-0.298280316638947,0.216546813583374
0.507571168988492,-0.0326428064346313,-0.101888715076447,0.00578509483337389
0.508176862507571,-0.104493392372131,0.0801327692985535,-0.0205601200103761
0.50878255602665,-0.0805431970596313,-0.0899136174201965,0.0752406612396239
0.50938824954573,-0.0973083337783813,0.00349214429855347,0.281212340927124
0.509993943064809,0.108663345909119,0.0873178278923035,0.0632655635833739
0.510599636583889,0.00328248653411866,-0.0491982853889465,0.199781676864624
0.511205330102968,-0.255379622840881,-0.0899136174201965,0.185411559677124
0.511811023622047,-0.114073470497131,-0.0372231877326965,-0.0325352176666261
0.512416717141127,-0.0949133142471313,0.07294771070480349,-0.0421152957916261
0.513022410660206,0.0296277013778687,0.00828218336105347,-0.0684605106353761
0.513628104179285,-0.0901232751846313,-0.152184125232697,0.130326110458374
0.514233797698365,-0.0877282556533813,-0.0539883244514465,-0.128335998916626
0.514839491217444,-0.0685680994033813,-0.020458051013946498,0.341087829208374
0.515445184736523,-0.116468490028381,-0.0994936955451965,0.0776356807708739
0.516050878255603,0.06555299434661871,0.0801327692985535,0.08721575889587391
0.516656571774682,-0.0829382165908813,-0.0659634221076965,0.125536071395874
0.517262265293761,0.06555299434661871,-0.0444082463264465,0.17822650108337398
0.517867958812841,-0.26256468143463096,0.0202572810173035,0.537479430770874
0.51847365233192,-0.039827865028381294,-0.0707534611701965,-0.0229551395416261
0.519079345850999,-0.00869261112213134,-0.00848295335769653,-0.08283062782287609
0.519685039370079,0.115848404502869,-0.0851235783576965,0.693155700302124
0.520290732889158,-0.0709631189346313,0.0106772028923035,0.278817321395874
0.520896426408237,-0.36315550174713096,0.027442339611053503,-0.061275452041626106
0.521502119927317,-0.0518029626846313,-0.130628949451447,0.317137633895874
0.522107813446396,-0.116468490028381,-0.0132729924201965,-0.121150940322876
0.522713506965475,0.06555299434661871,0.123243120861053,0.0297352901458739
0.523319200484555,-0.0925182947158813,0.053787554454803495,0.309952575302124
0.523924894003634,0.0942932287216187,-0.0372231877326965,0.120746032333374
0.524530587522714,0.0248376623153687,-0.0994936955451965,0.0800307003021239
0.525136281041793,-0.18831907596588102,-0.0108779728889465,0.0632655635833739
0.525741974560872,0.0248376623153687,-0.0947036564826965,0.257262145614624
0.526347668079951,-0.18831907596588102,0.0968979060173035,0.30516253623962397
0.526953361599031,-0.23861448612213101,0.056182573986053495,0.259657165145874
0.52755905511811,0.0224426427841187,-0.118653851795197,0.22373187217712398
0.52816474863719,0.22122926387786898,-0.0563833439826965,0.16864642295837398
0.528770442156269,0.108663345909119,-0.0515933049201965,0.297977477645874
0.529376135675348,-0.06377806034088129,0.125638140392303,0.120746032333374
0.529981829194428,-0.219454329872131,-0.030038129138946497,-0.0756455692291261
0.530587522713507,-0.0805431970596313,-0.137814008045197,0.32671771202087396
0.531193216232586,-0.00390257205963134,0.07055269117355349,0.0752406612396239
0.531798909751666,-0.114073470497131,0.0777377497673035,-0.159471252822876
0.532404603270745,-0.14281370487213102,0.0513925349235535,0.202176696395874
0.533010296789824,-0.0781481775283813,0.0346273982048035,0.14948626670837398
0.533615990308904,0.0966882482528687,-0.0228530705451965,0.10637591514587401
0.534221683827983,-0.111678450965881,0.07294771070480349,-0.08043560829162609
0.534827377347062,0.00567750606536866,0.053787554454803495,0.0800307003021239
0.535433070866142,0.17572389278411898,0.0657626521110535,0.0273402706146239
0.536038764385221,-0.0877282556533813,0.101687945079803,0.26684222373962396
0.5366444579043,-0.102098372840881,0.111268023204803,0.09440081748962391
0.53725015142338,-0.0925182947158813,-0.0515933049201965,-0.0708555301666261
0.537855844942459,-0.0182726892471313,-0.190504437732697,0.020155212020873902
0.538461538461538,0.0224426427841187,0.0178622614860535,-0.142706116104126
0.539067231980618,-0.279329818153381,-0.0659634221076965,0.08961077842712391
0.539672925499697,-0.0278527673721313,0.00109712476730347,0.14469622764587398
0.540278619018776,0.00567750606536866,0.0322323786735535,-0.0397202762603761
0.540884312537856,-0.039827865028381294,0.0801327692985535,0.142301208114624
0.541490006056935,0.0607629552841187,0.0945028864860535,0.17822650108337398
0.542095699576015,0.163748795127869,-0.133023968982697,0.22373187217712398
0.542701393095094,-0.123653548622131,0.056182573986053495,0.11356097373962401
0.543307086614173,-0.0901232751846313,-0.0468032658576965,-0.00619000282287611
0.543912780133253,0.0799231115341187,-0.192899457263947,0.412938415145874
0.544518473652332,-0.171553939247131,0.053787554454803495,-0.08522564735412609
0.545124167171411,-0.0230627283096313,0.156773394298553,-0.061275452041626106
0.545729860690491,-0.22663938846588103,-0.0276431096076965,0.29558245811462397
0.54633555420957,-0.145208724403381,0.154378374767303,0.0177601924896239
0.546941247728649,0.0176526037216187,0.0777377497673035,0.0465004268646239
0.547546941247729,-0.241009505653381,-0.118653851795197,0.118351012802124
0.548152634766808,0.048787857627868705,0.0825277888298035,0.432098571395874
0.548758328285887,0.21643922481536898,0.0466024958610535,0.6811806026458741
0.549364021804967,-0.12844358768463102,0.00349214429855347,0.015365172958373901
0.549969715324046,-0.0302477869033813,-0.0228530705451965,0.468023864364624
0.550575408843125,0.041602799034118704,0.0849228083610535,0.46562884483337397
0.551181102362205,-0.0302477869033813,0.0897128474235535,-0.00858502235412611
0.551786795881284,0.051182877159118706,-0.00369291429519653,0.393778258895874
0.552392489400363,0.0296277013778687,-0.0659634221076965,0.142301208114624
0.552998182919443,-0.114073470497131,0.0322323786735535,0.300372497177124
0.553603876438522,0.041602799034118704,0.0346273982048035,0.317137633895874
0.554209569957601,-0.0877282556533813,0.056182573986053495,0.0129701534271239
0.554815263476681,-0.0781481775283813,-0.0276431096076965,0.142301208114624
0.55542095699576,0.0871081701278687,-0.106678754138947,-0.058880432510376106
0.556026650514839,0.053577896690368707,0.0945028864860535,0.16864642295837398
0.556632344033919,-0.15239378299713102,0.0921078669548035,0.216546813583374
0.557238037552998,-0.159578841590881,-0.0875185978889465,-0.0421152957916261
0.557843731072078,0.06315797481536871,0.0921078669548035,0.147091247177124
0.558449424591157,0.0128625646591187,-0.018063031482696498,0.0417103878021239
0.559055118110236,-0.0781481775283813,-0.147394086170197,0.135116149520874
0.559660811629316,0.0176526037216187,-0.058778363513946504,0.09200579795837391
0.560266505148395,-0.12844358768463102,-0.118653851795197,0.0656605831146239
0.560872198667474,-0.109283431434631,-0.214454633045197,0.0488954463958739
0.561477892186554,0.139798599815369,0.0226523005485535,0.0728456417083739
0.562083585705633,-0.245799544715881,0.0657626521110535,0.0465004268646239
0.562689279224712,-0.154788802528381,-0.0659634221076965,0.199781676864624
0.563294972743792,0.0799231115341187,0.0346273982048035,0.197386657333374
0.563900666262871,-0.0565930017471313,0.135218218517303,0.185411559677124
0.56450635978195,-0.00869261112213134,0.00828218336105347,0.338692809677124
0.56511205330103,-0.0997033533096313,-0.030038129138946497,0.14469622764587398
0.565717746820109,-0.0733581384658813,-0.0252480900764465,0.0297352901458739
0.566323440339188,0.0248376623153687,-0.0731484807014465,-0.00379498329162611
0.566929133858268,-0.06377806034088129,-0.0635684025764465,-0.049300354385376104
0.567534827377347,-0.118863509559631,0.111268023204803,0.139906188583374
0.568140520896426,-0.037432845497131294,0.106477984142303,0.11116595420837401
0.568746214415506,0.24038942012786899,-0.183319379138947,0.039315368270873896
0.569351907934585,-0.00390257205963134,-0.190504437732697,0.0680556026458739
0.569957601453664,-0.15718382205963102,0.151983355236053,-0.133126037979126
0.570563294972744,-0.0997033533096313,0.156773394298553,0.115955993270874
0.571168988491823,0.0176526037216187,0.0178622614860535,0.14948626670837398
0.571774682010902,0.15656373653411898,-0.0683584416389465,0.216546813583374
0.572380375529982,-0.0158776697158813,-0.0563833439826965,0.0800307003021239
0.572986069049061,-0.13802366580963102,0.0489975153923035,-0.051695373916626104
0.57359176256814,-0.0541979822158813,-0.0875185978889465,0.16385638389587398
0.57419745608722,0.046392838096618705,-0.00608793382644653,0.0848207393646239
0.574803149606299,-0.00150755252838134,-0.0970986760139465,-0.0421152957916261
0.575408843125379,0.0559729162216187,-0.0468032658576965,0.257262145614624
0.576014536644458,-0.00390257205963134,0.135218218517303,0.22373187217712398
0.576620230163537,0.0248376623153687,0.0897128474235535,0.156671325302124
0.577225923682617,0.0607629552841187,-0.0851235783576965,0.32671771202087396
0.577831617201696,0.0368127599716187,-0.123443890857697,0.221336852645874
0.578437310720775,0.041602799034118704,-0.0276431096076965,0.5638246456146241
0.579043004239855,0.209254166221619,0.053787554454803495,0.127931090927124
0.579648697758934,0.187698990440369,0.144798296642303,0.221336852645874
0.580254391278013,0.0990832677841187,0.140008257579803,0.6093300167083741
0.580860084797093,-0.0709631189346313,-0.152184125232697,0.08721575889587391
0.581465778316172,-0.0565930017471313,-0.0779385197639465,-0.0660654911041261
0.582071471835251,-0.0757531579971313,0.0873178278923035,0.0824257198333739
0.582677165354331,-0.17873899784088101,-0.00369291429519653,0.060870544052123894
0.58328285887341,0.22122926387786898,-0.020458051013946498,0.245287047958374
0.583888552392489,-0.106888411903381,-0.018063031482696498,0.15427630577087398
0.584494245911569,-0.0901232751846313,0.0466024958610535,0.135116149520874
0.585099939430648,-0.14760374393463102,0.104082964611053,0.0465004268646239
0.585705632949727,-0.18831907596588102,-0.10428373460769699,0.0728456417083739
0.586311326468807,0.0918982091903687,-0.109073773670197,0.235706969833374
0.586917019987886,0.06315797481536871,0.118453081798553,0.0704506221771239
0.587522713506965,0.0128625646591187,-0.0491982853889465,0.00339007530212389
0.588128407026045,-0.102098372840881,-0.0899136174201965,-0.0636704715728761
0.588734100545124,-0.171553939247131,-0.0851235783576965,0.262052184677124
0.589339794064203,-0.0781481775283813,-0.101888715076447,0.16385638389587398
0.589945487583283,0.041602799034118704,0.204673784923553,0.0273402706146239
0.590551181102362,0.163748795127869,0.108873003673553,0.0656605831146239
0.591156874621442,-0.0230627283096313,0.0178622614860535,0.09679583702087391
0.591762568140521,-0.0326428064346313,-0.0444082463264465,0.118351012802124
0.5923682616596,0.043997818565368704,0.0178622614860535,0.17343646202087398
0.59297395517868,0.0823181310653687,-0.00129789476394653,0.15906634483337398
0.593579648697759,-0.047012923622131296,-0.0779385197639465,0.199781676864624
0.594185342216838,0.0751330724716187,0.0873178278923035,0.139906188583374
0.594791035735918,0.185303970909119,-0.171344281482697,0.0680556026458739
0.595396729254997,-0.00390257205963134,-0.154579144763947,-0.0421152957916261
0.596002422774076,0.149378677940369,0.0154672419548035,-0.0229551395416261
0.596608116293156,0.0559729162216187,-0.0994936955451965,0.14469622764587398
0.597213809812235,-0.130838607215881,-0.0108779728889465,0.0632655635833739
0.597819503331314,-0.106888411903381,-0.149789105701447,0.127931090927124
0.598425196850394,0.0823181310653687,-0.0994936955451965,-0.0397202762603761
0.599030890369473,-0.03503782596588129,-0.0228530705451965,0.17822650108337398
0.599636583888552,-0.047012923622131296,-0.178529340076447,0.09919085655212391
0.600242277407632,0.041602799034118704,-0.0372231877326965,-0.0636704715728761
0.600847970926711,0.00328248653411866,0.060972613048553496,0.058475524520873894
0.60145366444579,0.041602799034118704,0.00588716382980347,0.032130309677123894
0.60205935796487,0.06315797481536871,-0.195294476795197,0.137511169052124
0.602665051483949,-0.145208724403381,-0.034828168201446505,0.20457171592712398
0.603270745003028,-0.324835189247131,0.116058062267303,0.274027282333374
0.603876438522108,-0.145208724403381,-0.135418988513947,0.10158587608337401
0.604482132041187,-0.0949133142471313,0.00109712476730347,-0.0301401981353761
0.605087825560267,0.00567750606536866,0.111268023204803,-0.0205601200103761
0.605693519079346,0.233204361534119,-0.236009808826447,0.10637591514587401
0.606299212598425,0.0559729162216187,-0.101888715076447,0.11116595420837401
0.606904906117504,-0.0853332361221313,0.07055269117355349,0.302767516708374
0.607510599636584,0.0104675451278687,0.0442074763298035,0.264447204208374
0.608116293155663,0.185303970909119,0.140008257579803,-0.00379498329162611
0.608721986674743,-0.0589880212783813,0.029837359142303503,0.515924254989624
0.609327680193822,-0.0757531579971313,-0.020458051013946498,0.6237001338958741
0.609933373712901,0.0847131505966187,-0.133023968982697,0.278817321395874
0.610539067231981,0.06794801387786871,0.0801327692985535,0.142301208114624
0.61114476075106,-0.25058958377838103,0.125638140392303,-0.0684605106353761
0.611750454270139,-0.047012923622131296,0.0154672419548035,-0.14031109657287602
0.612356147789219,0.0751330724716187,0.125638140392303,0.08721575889587391
0.612961841308298,-0.06377806034088129,0.00588716382980347,0.09200579795837391
0.613567534827377,-0.037432845497131294,-0.0252480900764465,0.0656605831146239
0.614173228346457,-0.044617904090881295,0.108873003673553,0.0824257198333739
0.614778921865536,0.21164918575286898,0.197488726329803,0.17343646202087398
0.615384615384615,-0.042222884559631295,0.025047320079803502,0.0776356807708739
0.615990308903695,-0.16676390018463103,0.130428179454803,-0.0373252567291261
0.616596002422774,-0.0709631189346313,-0.113863812732697,0.175831481552124
0.617201695941853,0.000887467002868658,-0.195294476795197,0.166251403427124
0.617807389460933,-0.0925182947158813,0.0897128474235535,0.17343646202087398
0.618413082980012,0.00328248653411866,-0.0731484807014465,-0.101990784072876
0.619018776499091,0.0176526037216187,-0.133023968982697,0.10877093467712401
0.619624470018171,-0.0494079431533813,-0.156974164295197,0.202176696395874
0.62023016353725,0.0990832677841187,0.0178622614860535,0.034525329208373895
0.620835857056329,-0.102098372840881,-0.0444082463264465,0.18301654014587398
0.621441550575409,-0.0110876306533813,-0.137814008045197,0.17343646202087398
0.622047244094488,-0.0733581384658813,0.07294771070480349,0.0560805049896239
0.622652937613568,0.0128625646591187,-0.00369291429519653,-0.09001568641662609
0.623258631132647,-0.0925182947158813,-0.030038129138946497,0.11116595420837401
0.623864324651726,-0.0302477869033813,0.0106772028923035,0.132721129989624
0.624470018170806,0.06315797481536871,0.00588716382980347,0.35545794639587397
0.625075711689885,-0.03503782596588129,0.0418124567985535,0.32671771202087396
0.625681405208964,0.06794801387786871,0.0968979060173035,0.24289202842712398
0.626287098728044,-0.00150755252838134,0.104082964611053,0.278817321395874
0.626892792247123,0.0559729162216187,-0.00129789476394653,0.230916930770874
0.627498485766202,-0.109283431434631,-0.121048871326447,0.24289202842712398
0.628104179285282,-0.0877282556533813,0.00349214429855347,0.0536854854583739
0.628709872804361,-0.03503782596588129,-0.231219769763947,0.0800307003021239
0.62931556632344,-0.0134826501846313,-0.00369291429519653,-0.025350159072876098
0.62992125984252,-0.118863509559631,0.058577593517303496,0.08961077842712391
0.630526953361599,-0.12844358768463102,-0.33420560960769596,0.16864642295837398
0.631132646880678,-0.18831907596588102,-0.020458051013946498,0.058475524520873894
0.631738340399758,-0.135628646278381,0.151983355236053,0.0656605831146239
0.632344033918837,0.043997818565368704,0.0106772028923035,0.127931090927124
0.632949727437916,-0.0206677087783813,-0.109073773670197,0.20936175498962398
0.633555420956996,-0.0110876306533813,-0.176134320545197,-0.104385803604126
0.634161114476075,-0.19789915409088102,-0.106678754138947,0.0177601924896239
0.634766807995154,-0.12844358768463102,0.142403277111053,0.206966735458374
0.635372501514234,-0.0973083337783813,-0.164159222888947,0.23810198936462398
0.635978195033313,-0.0518029626846313,0.101687945079803,0.058475524520873894
0.636583888552392,-0.0709631189346313,0.159168413829803,-0.013375061416626099
0.637189582071472,-0.135628646278381,-0.0947036564826965,0.194991637802124
0.637795275590551,-0.0565930017471313,-0.173739301013947,0.09919085655212391
0.638400969109631,-0.15718382205963102,-0.142604047107697,0.139906188583374
0.63900666262871,-0.0757531579971313,0.07534273023605349,-0.0229551395416261
0.639612356147789,0.0272326818466187,-0.00608793382644653,0.506344176864624
0.640218049666869,-0.0565930017471313,-0.0420132267951965,-0.00139996376037611
0.640823743185948,-0.0326428064346313,0.0513925349235535,-0.243296936416626
0.641429436705027,0.178118912315369,0.0657626521110535,0.125536071395874
0.642035130224107,0.20685914669036898,-0.147394086170197,-0.0445103153228761
0.642640823743186,0.00567750606536866,0.0226523005485535,0.0249452510833739
0.643246517262265,0.0392077795028687,-0.0156680119514465,-0.09001568641662609
0.643852210781345,0.106268326377869,0.0777377497673035,0.16864642295837398
0.644457904300424,0.051182877159118706,-0.00608793382644653,0.274027282333374
0.645063597819503,0.06794801387786871,-0.0970986760139465,0.020155212020873902
0.645669291338583,-0.16197386112213102,-0.113863812732697,-0.0325352176666261
0.646274984857662,0.0847131505966187,0.0226523005485535,0.185411559677124
0.646880678376741,0.06555299434661871,0.0418124567985535,0.206966735458374
0.647486371895821,-0.0685680994033813,-0.0156680119514465,0.180621520614624
0.6480920654149,0.101478287315369,0.0442074763298035,0.21894183311462398
0.648697758933979,0.15656373653411898,-0.0875185978889465,-0.0421152957916261
0.649303452453059,0.0152575841903687,0.025047320079803502,0.24768206748962399
0.649909145972138,-0.116468490028381,-0.0635684025764465,0.331507751083374
0.650514839491217,-0.12844358768463102,-0.058778363513946504,0.17343646202087398
0.651120533010297,-0.154788802528381,0.0418124567985535,0.24768206748962399
0.651726226529376,-0.123653548622131,-0.0827285588264465,-0.152286194229126
0.652331920048455,-0.0541979822158813,-0.0563833439826965,0.288397399520874
0.652937613567535,0.252364517784119,-0.00608793382644653,0.350667907333374
0.653543307086614,0.06794801387786871,-0.0851235783576965,0.09200579795837391
0.654149000605693,-0.20747923221588102,-0.0659634221076965,0.23331195030212398
0.654754694124773,0.0368127599716187,-0.0228530705451965,0.14948626670837398
0.655360387643852,0.144588638877869,-0.0515933049201965,-0.0421152957916261
0.655966081162932,-0.135628646278381,-0.0899136174201965,0.135116149520874
0.656571774682011,-0.047012923622131296,-0.212059613513947,0.264447204208374
0.65717746820109,-0.16197386112213102,0.0418124567985535,0.0512904659271239
0.65778316172017,-0.173948958778381,0.130428179454803,0.09200579795837391
0.658388855239249,-0.06377806034088129,-0.0659634221076965,0.09919085655212391
0.658994548758328,-0.0949133142471313,-0.0228530705451965,0.0848207393646239
0.659600242277408,-0.106888411903381,0.00349214429855347,-0.0181651004791261
0.660205935796487,-0.06377806034088129,-0.00129789476394653,0.09679583702087391
0.660811629315566,0.043997818565368704,-0.0108779728889465,0.0297352901458739
0.661417322834646,0.0823181310653687,-0.0396182072639465,0.17822650108337398
0.662023016353725,-0.0254577478408813,0.0394174372673035,0.348272887802124
0.662628709872804,-0.21226927127838102,0.0418124567985535,0.151881286239624
0.663234403391884,-0.15239378299713102,0.00588716382980347,0.171041442489624
0.663840096910963,-0.102098372840881,0.0873178278923035,-0.13552105751037602
0.664445790430042,0.0559729162216187,-0.116258832263947,0.0177601924896239
0.665051483949122,-0.0613830408096313,-0.0899136174201965,0.400963317489624
0.665657177468201,-0.12844358768463102,-0.0851235783576965,0.185411559677124
0.66626287098728,-0.288909896278381,-0.0659634221076965,0.036920348739623896
0.66686856450636,0.0344177404403687,-0.0444082463264465,0.250077087020874
0.667474258025439,0.06315797481536871,-0.0947036564826965,0.21894183311462398
0.668079951544518,-0.25058958377838103,0.0633676325798035,0.0704506221771239
0.668685645063598,-0.0805431970596313,0.137613238048553,-0.257667053604126
0.669291338582677,-0.047012923622131296,-0.0372231877326965,-0.09001568641662609
0.669897032101756,-0.00150755252838134,-0.0875185978889465,0.5278993526458741
0.670502725620836,-0.14760374393463102,-0.178529340076447,0.8081166378021241
0.671108419139915,-0.116468490028381,0.0657626521110535,0.0536854854583739
0.671714112658994,0.101478287315369,0.125638140392303,-0.224136780166626
0.672319806178074,0.0559729162216187,0.151983355236053,0.0441054073333739
0.672925499697153,-0.0853332361221313,-0.137814008045197,0.199781676864624
0.673531193216233,-0.33202024784088097,-0.190504437732697,-0.08762066688537609
0.674136886735312,-0.0829382165908813,0.242994097423553,-0.106780823135376
0.674742580254391,0.0320227209091187,-0.018063031482696498,0.211756774520874
0.675348273773471,-0.0805431970596313,-0.0108779728889465,0.09679583702087391
0.67595396729255,-0.0613830408096313,0.300474566173553,0.10637591514587401
0.676559660811629,-0.0302477869033813,0.06815767164230349,0.09919085655212391
0.677165354330709,-0.336810286903381,-0.259960004138947,0.274027282333374
0.677771047849788,-0.16197386112213102,0.00828218336105347,-0.056485412979126105
0.678376741368867,-0.0302477869033813,-0.164159222888947,0.032130309677123894
0.678982434887947,-0.209874251747131,-0.125838910388947,0.036920348739623896
0.679588128407026,-0.236219466590881,-0.0707534611701965,0.137511169052124
0.680193821926105,-0.33202024784088097,0.0489975153923035,0.0824257198333739
0.680799515445185,-0.0973083337783813,0.0897128474235535,0.185411559677124
0.681405208964264,0.051182877159118706,-0.0396182072639465,0.317137633895874
0.682010902483343,0.111058365440369,0.0394174372673035,0.0465004268646239
0.682616596002423,-0.0757531579971313,-0.10428373460769699,0.039315368270873896
0.683222289521502,-0.200294173622131,-0.00608793382644653,0.000995055770873893
0.683827983040581,0.0895031896591187,0.106477984142303,0.139906188583374
0.684433676559661,0.187698990440369,-0.106678754138947,0.0680556026458739
0.68503937007874,-0.0158776697158813,-0.233614789295197,-0.0301401981353761
0.68564506359782,0.123033463096619,0.058577593517303496,0.10398089561462401
0.686250757116899,-0.14281370487213102,0.0849228083610535,0.135116149520874
0.686856450635978,0.048787857627868705,-0.113863812732697,-0.0325352176666261
0.687462144155058,0.0775280920028687,-0.101888715076447,0.058475524520873894
0.688067837674137,-0.181134017372131,0.0370224177360535,0.166251403427124
0.688673531193216,0.120638443565369,-0.195294476795197,0.060870544052123894
0.689279224712296,0.041602799034118704,-0.197689496326447,-0.049300354385376104
0.689884918231375,-0.0518029626846313,0.168748491954803,-0.166656311416626
0.690490611750454,-0.135628646278381,-0.137814008045197,-0.0397202762603761
0.691096305269534,-0.229034407997131,-0.123443890857697,0.0441054073333739
0.691701998788613,-0.0182726892471313,0.0849228083610535,0.08721575889587391
0.692307692307692,-0.0589880212783813,-0.0228530705451965,0.226126891708374
0.692913385826772,-0.154788802528381,0.00349214429855347,0.199781676864624
0.693519079345851,0.046392838096618705,0.0992929255485535,0.015365172958373901
0.69412477286493,-0.102098372840881,-0.00129789476394653,0.0632655635833739
0.69473046638401,-0.229034407997131,-0.0899136174201965,0.142301208114624
0.695336159903089,-0.14281370487213102,-0.0947036564826965,0.20936175498962398
0.695941853422168,-0.269749740028381,-0.0563833439826965,0.254867126083374
0.696547546941248,0.06794801387786871,-0.0731484807014465,0.32671771202087396
0.697153240460327,0.0990832677841187,0.00349214429855347,0.120746032333374
0.697758933979406,-0.195504134559631,0.166353472423553,-0.054090393447876105
0.698364627498486,0.108663345909119,0.0226523005485535,0.130326110458374
0.698970321017565,-0.109283431434631,0.0418124567985535,-0.08522564735412609
0.699576014536644,-0.111678450965881,0.233414019298553,0.10877093467712401
0.700181708055724,-0.121258529090881,0.113663042736053,0.22373187217712398
0.700787401574803,0.0224426427841187,-0.0108779728889465,0.132721129989624
0.701393095093882,0.00328248653411866,-0.130628949451447,0.10398089561462401
0.701998788612962,0.199674088096619,-0.0491982853889465,-0.18102642860412602
0.702604482132041,0.18051393184661899,-0.0252480900764465,0.240497008895874
0.703210175651121,-0.102098372840881,-0.118653851795197,0.147091247177124
0.7038158691702,-0.0685680994033813,-0.0420132267951965,0.10877093467712401
0.704421562689279,-0.047012923622131296,0.029837359142303503,0.123141051864624
0.705027256208359,-0.00629759159088134,0.149588335704803,0.08961077842712391
0.705632949727438,-0.102098372840881,0.202278765392303,0.135116149520874
0.706238643246517,-0.0589880212783813,-0.161764203357697,0.10398089561462401
0.706844336765597,-0.06377806034088129,0.00828218336105347,0.10398089561462401
0.707450030284676,0.0775280920028687,0.142403277111053,0.0704506221771239
0.708055723803755,-0.154788802528381,-0.164159222888947,0.283607360458374
0.708661417322835,0.0248376623153687,-0.058778363513946504,0.0704506221771239
0.709267110841914,-0.13323362674713102,0.0154672419548035,0.180621520614624
0.709872804360993,-0.252984603309631,0.0106772028923035,0.0848207393646239
0.710478497880073,0.319425064659119,-0.176134320545197,0.0824257198333739
0.711084191399152,0.0895031896591187,0.00828218336105347,0.194991637802124
0.711689884918231,-0.233824447059631,-0.0276431096076965,0.175831481552124
0.712295578437311,0.041602799034118704,-0.185714398670197,0.245287047958374
0.71290127195639,-0.145208724403381,-0.020458051013946498,-0.106780823135376
0.713506965475469,-0.224244368934631,-0.020458051013946498,-0.013375061416626099
0.714112658994549,-0.296094954872131,-0.0539883244514465,0.28600237998962397
0.714718352513628,-0.06377806034088129,-0.0875185978889465,0.0488954463958739
0.715324046032707,0.120638443565369,-0.0875185978889465,0.20936175498962398
0.715929739551787,0.0751330724716187,0.025047320079803502,0.202176696395874
0.716535433070866,0.118243424034119,-0.121048871326447,0.0824257198333739
0.717141126589945,0.06555299434661871,-0.0539883244514465,-0.00619000282287611
0.717746820109025,0.0200476232528687,-0.0420132267951965,-0.013375061416626099
0.718352513628104,-0.00629759159088134,-0.0731484807014465,0.036920348739623896
0.718958207147184,-0.135628646278381,0.0849228083610535,0.194991637802124
0.719563900666263,-0.16197386112213102,-0.0563833439826965,0.491974059677124
0.720169594185342,0.0727380529403687,0.0154672419548035,0.20936175498962398
0.720775287704422,0.0966882482528687,0.06815767164230349,0.09919085655212391
0.721380981223501,-0.0565930017471313,-0.0683584416389465,-0.0301401981353761
0.72198667474258,0.000887467002868658,-0.0659634221076965,0.0225502315521239
0.72259236826166,0.168538834190369,0.113663042736053,0.21415179405212398
0.723198061780739,0.0799231115341187,-0.030038129138946497,0.10637591514587401
0.723803755299818,-0.0997033533096313,-0.0803335392951965,-0.00139996376037611
0.724409448818898,-0.149998763465881,-0.058778363513946504,0.127931090927124
0.725015142337977,0.15656373653411898,0.0394174372673035,0.0848207393646239
0.725620835857056,-0.109283431434631,-0.0132729924201965,0.139906188583374
0.726226529376136,-0.17873899784088101,-0.058778363513946504,0.180621520614624
0.726832222895215,0.0296277013778687,0.027442339611053503,0.185411559677124
0.727437916414294,-0.0326428064346313,-0.0875185978889465,0.15906634483337398
0.728043609933374,-0.0254577478408813,0.0346273982048035,0.26684222373962396
0.728649303452453,-0.13323362674713102,0.0322323786735535,0.0465004268646239
0.729254996971532,0.008072525596618661,-0.0563833439826965,0.5686146846771241
0.729860690490612,0.07034303340911871,-0.154579144763947,0.700340758895874
0.730466384009691,-0.118863509559631,-0.030038129138946497,0.441678649520874
0.73107207752877,0.0224426427841187,0.144798296642303,0.290792419052124
0.73167777104785,0.178118912315369,-0.0420132267951965,0.020155212020873902
0.732283464566929,0.00328248653411866,-0.185714398670197,0.23810198936462398
0.732889158086008,-0.0613830408096313,0.149588335704803,0.0225502315521239
0.733494851605088,-0.00629759159088134,-0.0803335392951965,0.16864642295837398
0.734100545124167,-0.0302477869033813,-0.0827285588264465,0.194991637802124
0.734706238643246,-0.0829382165908813,0.0106772028923035,0.211756774520874
0.735311932162326,0.111058365440369,-0.121048871326447,0.190201598739624
0.735917625681405,-0.0110876306533813,0.0370224177360535,0.135116149520874
0.736523319200485,-0.0182726892471313,-0.128233929920197,-0.0421152957916261
0.737129012719564,-0.159578841590881,-0.106678754138947,0.10158587608337401
0.737734706238643,-0.224244368934631,-0.0396182072639465,0.420123473739624
0.738340399757723,-0.042222884559631295,0.0968979060173035,0.10158587608337401
0.738946093276802,0.00567750606536866,-0.0875185978889465,-0.0205601200103761
0.739551786795881,0.0751330724716187,-0.178529340076447,0.175831481552124
0.740157480314961,-0.16676390018463103,0.0873178278923035,0.0441054073333739
0.74076317383404,-0.12844358768463102,0.0322323786735535,0.10877093467712401
0.741368867353119,-0.0733581384658813,0.0825277888298035,0.09919085655212391
0.741974560872199,0.0942932287216187,0.058577593517303496,0.20936175498962398
0.742580254391278,-0.0206677087783813,-0.0156680119514465,0.11116595420837401
0.743185947910357,-0.0206677087783813,-0.0108779728889465,0.166251403427124
0.743791641429437,0.0128625646591187,0.0178622614860535,0.185411559677124
0.744397334948516,-0.0230627283096313,-0.101888715076447,0.00339007530212389
0.745003028467595,0.115848404502869,0.00349214429855347,0.14948626670837398
0.745608721986675,-0.114073470497131,-0.00129789476394653,0.151881286239624
0.746214415505754,-0.0494079431533813,0.0106772028923035,0.127931090927124
0.746820109024833,-0.16197386112213102,0.07055269117355349,0.18780657920837399
0.747425802543913,-0.0853332361221313,0.190303667736053,0.034525329208373895
0.748031496062992,0.101478287315369,-0.0731484807014465,0.0704506221771239
0.748637189582071,-0.047012923622131296,-0.166554242420197,0.0225502315521239
0.749242883101151,-0.0254577478408813,0.056182573986053495,-0.13552105751037602
0.74984857662023,-0.0302477869033813,-0.106678754138947,0.0848207393646239
0.75045427013931,0.06555299434661871,-0.121048871326447,0.10398089561462401
0.751059963658389,0.0344177404403687,-0.00848295335769653,0.283607360458374
0.751665657177468,-0.334415267372131,0.00588716382980347,0.206966735458374
0.752271350696547,-0.185924056434631,-0.137814008045197,-0.0229551395416261
0.752877044215627,0.111058365440369,0.0154672419548035,0.09919085655212391
0.753482737734706,0.046392838096618705,0.00109712476730347,-0.08522564735412609
0.754088431253786,0.0344177404403687,-0.147394086170197,0.118351012802124
0.754694124772865,-0.173948958778381,-0.137814008045197,0.115955993270874
0.755299818291944,0.103873306846619,-0.0755435002326965,-0.18581646766662602
0.755905511811024,0.178118912315369,-0.061173383045196504,0.321927672958374
0.756511205330103,0.0368127599716187,-0.0923086369514465,0.156671325302124
0.757116898849182,0.0176526037216187,0.07534273023605349,0.11356097373962401
0.757722592368262,-0.15239378299713102,-0.121048871326447,0.22373187217712398
0.758328285887341,-0.13802366580963102,-0.0444082463264465,-0.09001568641662609
0.75893397940642,0.046392838096618705,0.211858843517303,-0.058880432510376106
0.7595396729255,-0.135628646278381,0.0130722224235535,-0.101990784072876
0.760145366444579,-0.18352903690338102,0.06815767164230349,0.559034606552124
0.760751059963658,-0.0158776697158813,0.0777377497673035,0.278817321395874
0.761356753482738,0.0871081701278687,-0.0635684025764465,-0.08283062782287609
0.761962447001817,0.16614381465911898,-0.0707534611701965,0.194991637802124
0.762568140520896,-0.14760374393463102,0.104082964611053,0.09679583702087391
0.763173834039976,-0.12844358768463102,-0.0156680119514465,0.130326110458374
0.763779527559055,0.16614381465911898,-0.0803335392951965,0.0728456417083739
0.764385221078134,-0.03503782596588129,-0.034828168201446505,0.235706969833374
0.764990914597214,-0.12844358768463102,0.0346273982048035,0.171041442489624
0.765596608116293,0.187698990440369,-0.0468032658576965,-0.054090393447876105
0.766202301635373,0.21164918575286898,-0.149789105701447,-0.00379498329162611
0.766807995154452,-0.0326428064346313,0.06815767164230349,-0.0157700809478761
0.767413688673531,-0.037432845497131294,-0.034828168201446505,0.0488954463958739
0.768019382192611,-0.114073470497131,0.0801327692985535,0.151881286239624
0.76862507571169,-0.20747923221588102,0.0489975153923035,-0.08762066688537609
0.769230769230769,0.0727380529403687,-0.133023968982697,-0.049300354385376104
0.769836462749849,-0.0733581384658813,0.0921078669548035,-0.142706116104126
0.770442156268928,-0.190714095497131,-0.0515933049201965,0.135116149520874
0.771047849788007,-0.0541979822158813,-0.168949261951447,0.060870544052123894
0.771653543307087,0.000887467002868658,0.07055269117355349,-0.183421448135376
0.772259236826166,0.0775280920028687,-0.159369183826447,0.194991637802124
0.772864930345245,-0.123653548622131,-0.128233929920197,-0.0277451786041261
0.773470623864325,0.046392838096618705,-0.0707534611701965,-0.101990784072876
0.774076317383404,-0.0565930017471313,-0.020458051013946498,0.0848207393646239
0.774682010902483,-0.0302477869033813,0.00109712476730347,0.058475524520873894
0.775287704421563,0.247574478721619,-0.147394086170197,0.08721575889587391
0.775893397940642,-0.159578841590881,0.0442074763298035,-0.0660654911041261
0.776499091459721,0.0152575841903687,-0.0994936955451965,-0.051695373916626104
0.777104784978801,-0.0230627283096313,-0.10428373460769699,0.230916930770874
0.77771047849788,-0.111678450965881,-0.0994936955451965,0.206966735458374
0.778316172016959,-0.0278527673721313,-0.180924359607697,0.120746032333374
0.778921865536039,0.008072525596618661,-0.0444082463264465,0.202176696395874
0.779527559055118,0.00567750606536866,-0.0803335392951965,0.115955993270874
0.780133252574197,-0.0278527673721313,-0.0899136174201965,0.252472106552124
0.780738946093277,0.223624283409119,-0.176134320545197,0.147091247177124
0.781344639612356,0.108663345909119,0.0849228083610535,0.10637591514587401
0.781950333131435,-0.0973083337783813,0.06815767164230349,0.23810198936462398
0.782556026650515,-0.0709631189346313,-0.214454633045197,0.147091247177124
0.783161720169594,-0.0565930017471313,0.0897128474235535,0.036920348739623896
0.783767413688674,-0.0206677087783813,0.197488726329803,0.0680556026458739
0.784373107207753,0.0224426427841187,-0.101888715076447,0.0824257198333739
0.784978800726832,0.0847131505966187,-0.032433148670196504,0.10637591514587401
0.785584494245912,-0.0589880212783813,0.0897128474235535,0.0680556026458739
0.786190187764991,-0.0757531579971313,-0.00369291429519653,0.0824257198333739
0.78679588128407,0.00328248653411866,-0.00848295335769653,0.151881286239624
0.78740157480315,-0.0158776697158813,-0.0276431096076965,0.09200579795837391
0.788007268322229,0.0320227209091187,-0.00369291429519653,0.199781676864624
0.788612961841308,-0.03503782596588129,0.00349214429855347,0.353062926864624
0.789218655360388,0.043997818565368704,-0.0468032658576965,0.362643004989624
0.789824348879467,-0.102098372840881,-0.0468032658576965,0.458443786239624
0.790430042398546,0.0104675451278687,-0.125838910388947,0.41533343467712397
0.791035735917626,0.0368127599716187,0.0633676325798035,0.139906188583374
0.791641429436705,-0.118863509559631,0.116058062267303,0.123141051864624
0.792247122955784,-0.116468490028381,-0.0228530705451965,0.0536854854583739
0.792852816474864,-0.15239378299713102,-0.00608793382644653,0.058475524520873894
0.793458509993943,-0.18352903690338102,-0.0947036564826965,0.0680556026458739
0.794064203513022,-0.140418685340881,-0.00129789476394653,0.039315368270873896
0.794669897032102,0.0583679357528687,0.104082964611053,0.0800307003021239
0.795275590551181,-0.042222884559631295,0.111268023204803,0.321927672958374
0.79588128407026,0.118243424034119,0.0945028864860535,0.123141051864624
0.79648697758934,0.0895031896591187,0.00349214429855347,0.17822650108337398
0.797092671108419,-0.0518029626846313,-0.0923086369514465,0.10877093467712401
0.797698364627498,-0.0230627283096313,-0.0707534611701965,0.156671325302124
0.798304058146578,0.0368127599716187,-0.300675336170197,0.271632262802124
0.798909751665657,0.0871081701278687,-0.156974164295197,0.10398089561462401
0.799515445184736,-0.106888411903381,-0.0515933049201965,0.036920348739623896
0.800121138703816,-0.111678450965881,0.058577593517303496,0.00339007530212389
0.800726832222895,0.16614381465911898,-0.0947036564826965,0.036920348739623896
0.801332525741975,0.21643922481536898,-0.307860394763946,0.0465004268646239
0.801938219261054,-0.102098372840881,0.151983355236053,0.0632655635833739
0.802543912780133,-0.0565930017471313,0.029837359142303503,0.0536854854583739
0.803149606299213,0.103873306846619,-0.0108779728889465,0.206966735458374
0.803755299818292,-0.130838607215881,0.233414019298553,-0.101990784072876
0.804360993337371,0.0966882482528687,-0.113863812732697,-0.0948057254791261
0.804966686856451,0.0895031896591187,-0.0132729924201965,0.125536071395874
0.80557238037553,-0.042222884559631295,-0.0468032658576965,-0.0373252567291261
0.806178073894609,0.16135377559661898,-0.295885297107697,0.0848207393646239
0.806783767413689,-0.0997033533096313,-0.0228530705451965,0.09200579795837391
0.807389460932768,0.06555299434661871,0.108873003673553,0.020155212020873902
0.807995154451847,-0.0685680994033813,-0.0635684025764465,0.23810198936462398
0.808600847970927,-0.0805431970596313,-0.128233929920197,0.10158587608337401
0.809206541490006,0.0727380529403687,-0.0491982853889465,0.137511169052124
0.809812235009085,-0.039827865028381294,-0.0132729924201965,0.192596618270874
0.810417928528165,-0.0661730798721313,-0.137814008045197,-0.104385803604126
0.811023622047244,-0.140418685340881,-0.0635684025764465,0.0632655635833739
0.811629315566323,0.0727380529403687,-0.10428373460769699,0.379408141708374
0.812235009085403,-0.00390257205963134,0.07055269117355349,0.264447204208374
0.812840702604482,0.0344177404403687,0.0897128474235535,0.060870544052123894
0.813446396123562,0.0200476232528687,-0.228824750232697,0.020155212020873902
0.814052089642641,-0.0254577478408813,0.0777377497673035,0.20457171592712398
0.81465778316172,0.0751330724716187,0.0154672419548035,0.283607360458374
0.815263476680799,0.14219361934661898,-0.144999066638947,0.185411559677124
0.815869170199879,0.19727906856536898,-0.0563833439826965,-0.054090393447876105
0.816474863718958,0.0799231115341187,0.029837359142303503,0.00578509483337389
0.817080557238038,0.000887467002868658,-0.133023968982697,0.23810198936462398
0.817686250757117,-0.0949133142471313,-0.159369183826447,0.171041442489624
0.818291944276196,-0.0877282556533813,0.142403277111053,-0.0229551395416261
0.818897637795276,-0.0110876306533813,-0.140209027576447,0.10877093467712401
0.819503331314355,-0.00390257205963134,-0.176134320545197,0.020155212020873902
0.820109024833434,-0.00869261112213134,0.130428179454803,0.39617327842712396
0.820714718352514,0.0152575841903687,-0.00848295335769653,0.288397399520874
0.821320411871593,0.17093385372161898,-0.00369291429519653,-0.101990784072876
0.821926105390672,-0.0158776697158813,0.060972613048553496,0.197386657333374
0.822531798909752,-0.12844358768463102,0.027442339611053503,0.0512904659271239
0.823137492428831,-0.039827865028381294,-0.0755435002326965,0.115955993270874
0.82374318594791,-0.121258529090881,-0.173739301013947,-0.0732505496978761
0.82434887946699,0.118243424034119,-0.152184125232697,-0.09241070594787609
0.824954572986069,0.0320227209091187,0.0130722224235535,-0.013375061416626099
0.825560266505148,-0.264959700965881,0.0370224177360535,-0.0109800418853761
0.826165960024228,-0.0733581384658813,0.0777377497673035,-0.07804058876037609
0.826771653543307,0.103873306846619,-0.0875185978889465,-0.00858502235412611
0.827377347062386,0.00567750606536866,-0.178529340076447,0.20457171592712398
0.827983040581466,-0.279329818153381,0.0992929255485535,0.00339007530212389
0.828588734100545,-0.0733581384658813,-0.0563833439826965,0.0129701534271239
0.829194427619624,-0.0302477869033813,-0.0635684025764465,0.0273402706146239
0.829800121138704,-0.0589880212783813,-0.0252480900764465,0.118351012802124
0.830405814657783,-0.0613830408096313,0.00588716382980347,0.216546813583374
0.831011508176863,-0.176343978309631,-0.0491982853889465,0.00339007530212389
0.831617201695942,0.00328248653411866,-0.125838910388947,0.18301654014587398
0.832222895215021,-0.0709631189346313,0.106477984142303,0.264447204208374
0.8328285887341,-0.135628646278381,0.07294771070480349,0.060870544052123894
0.83343428225318,-0.13802366580963102,-0.0252480900764465,0.10877093467712401
0.834039975772259,-0.21705931034088102,0.00828218336105347,-0.137916077041626
0.834645669291339,0.23559938106536898,-0.0156680119514465,0.09679583702087391
0.835251362810418,0.16614381465911898,-0.0468032658576965,0.264447204208374
0.835857056329497,-0.0829382165908813,-0.173739301013947,-0.00619000282287611
0.836462749848577,0.111058365440369,-0.233614789295197,-0.104385803604126
0.837068443367656,0.0128625646591187,0.0466024958610535,-0.061275452041626106
0.837674136886735,-0.0805431970596313,0.0370224177360535,0.135116149520874
0.838279830405815,0.108663345909119,-0.058778363513946504,0.0824257198333739
0.838885523924894,-0.06377806034088129,-0.0947036564826965,0.197386657333374
0.839491217443973,-0.0829382165908813,-0.0707534611701965,-0.00619000282287611
0.840096910963053,-0.0709631189346313,-0.224034711170197,0.09919085655212391
0.840702604482132,-0.114073470497131,0.0489975153923035,-0.0157700809478761
0.841308298001211,0.14219361934661898,0.0466024958610535,-0.08522564735412609
0.841913991520291,-0.169158919715881,-0.0994936955451965,0.118351012802124
0.84251968503937,-0.140418685340881,0.135218218517303,-0.15468121376037602
0.843125378558449,-0.22663938846588103,-0.123443890857697,0.132721129989624
0.843731072077529,-0.236219466590881,-0.00608793382644653,0.230916930770874
0.844336765596608,0.043997818565368704,0.0945028864860535,0.230916930770874
0.844942459115687,0.0918982091903687,-0.0731484807014465,0.139906188583374
0.845548152634767,-0.13323362674713102,-0.130628949451447,0.020155212020873902
0.846153846153846,-0.104493392372131,-0.0923086369514465,0.15906634483337398
0.846759539672925,-0.0110876306533813,-0.0947036564826965,0.0441054073333739
0.847365233192005,-0.267354720497131,-0.0252480900764465,0.08721575889587391
0.847970926711084,-0.00150755252838134,0.120848101329803,0.307557555770874
0.848576620230164,0.06794801387786871,0.0657626521110535,-0.18102642860412602
0.849182313749243,-0.173948958778381,-0.0779385197639465,-0.0301401981353761
0.849788007268322,0.0368127599716187,-0.0156680119514465,0.611725036239624
0.850393700787402,0.13261354122161897,-0.0923086369514465,0.139906188583374
0.850999394306481,-0.0230627283096313,-0.130628949451447,0.123141051864624
0.85160508782556,-0.0661730798721313,0.0202572810173035,0.0105751338958739
0.85221078134464,0.123033463096619,0.0657626521110535,0.0536854854583739
0.852816474863719,-0.0733581384658813,0.171143511486053,0.09200579795837391
0.853422168382798,0.0823181310653687,0.0657626521110535,0.00818011436462389
0.854027861901878,0.0775280920028687,-0.283910199451447,0.211756774520874
0.854633555420957,-0.0997033533096313,-0.101888715076447,0.0728456417083739
0.855239248940036,0.111058365440369,-0.0755435002326965,0.034525329208373895
0.855844942459116,-0.0565930017471313,0.0202572810173035,-0.0301401981353761
0.856450635978195,-0.0781481775283813,-0.10428373460769699,0.0465004268646239
0.857056329497274,-0.200294173622131,-0.214454633045197,0.18780657920837399
0.857662023016354,-0.0925182947158813,0.0106772028923035,0.0800307003021239
0.858267716535433,-0.06377806034088129,0.0513925349235535,0.10637591514587401
0.858873410054512,-0.0494079431533813,0.0897128474235535,0.202176696395874
0.859479103573592,0.06794801387786871,-0.176134320545197,0.10398089561462401
0.860084797092671,-0.104493392372131,0.029837359142303503,0.036920348739623896
0.86069049061175,0.182908951377869,0.130428179454803,0.0824257198333739
0.86129618413083,-0.03503782596588129,-0.0875185978889465,0.0824257198333739
0.861901877649909,-0.0685680994033813,0.125638140392303,0.00339007530212389
0.862507571168988,-0.126048568153381,0.060972613048553496,0.09200579795837391
0.863113264688068,-0.145208724403381,0.060972613048553496,0.24768206748962399
0.863718958207147,0.0966882482528687,0.0849228083610535,0.0632655635833739
0.864324651726227,-0.0326428064346313,-0.0683584416389465,0.09679583702087391
0.864930345245306,-0.037432845497131294,-0.111468793201447,0.10877093467712401
0.865536038764385,0.0559729162216187,-0.0827285588264465,0.032130309677123894
0.866141732283465,-0.0278527673721313,0.226228960704803,0.21894183311462398
0.866747425802544,0.0176526037216187,0.027442339611053503,0.0249452510833739
0.867353119321623,0.0775280920028687,-0.200084515857697,0.24768206748962399
0.867958812840703,-0.0997033533096313,0.06815767164230349,0.142301208114624
0.868564506359782,-0.0589880212783813,0.056182573986053495,-0.0684605106353761
0.869170199878861,-0.0757531579971313,-0.0827285588264465,0.10877093467712401
0.869775893397941,-0.0541979822158813,-0.111468793201447,0.0656605831146239
0.87038158691702,-0.22663938846588103,-0.125838910388947,0.139906188583374
0.870987280436099,0.0607629552841187,0.0394174372673035,-0.111570862197876
0.871592973955179,0.139798599815369,0.07294771070480349,0.0129701534271239
0.872198667474258,-0.0518029626846313,-0.173739301013947,0.199781676864624
0.872804360993337,0.0200476232528687,-0.00608793382644653,-0.17623638954162602
0.873410054512417,0.108663345909119,0.151983355236053,-0.058880432510376106
0.874015748031496,-0.0877282556533813,0.056182573986053495,0.032130309677123894
0.874621441550575,-0.19310911502838102,0.029837359142303503,0.060870544052123894
0.875227135069655,0.048787857627868705,-0.0994936955451965,0.142301208114624
0.875832828588734,-0.0685680994033813,0.0346273982048035,-0.137916077041626
0.876438522107813,-0.114073470497131,-0.0683584416389465,0.08721575889587391
0.877044215626893,-0.300884993934631,-0.0659634221076965,0.137511169052124
0.877649909145972,-0.298489974403381,-0.032433148670196504,0.0800307003021239
0.878255602665051,0.0990832677841187,-0.0444082463264465,0.7626112667083741
0.878861296184131,0.0104675451278687,0.0873178278923035,0.7051307979583741
0.87946698970321,-0.15718382205963102,-0.0707534611701965,0.123141051864624
0.880072683222289,-0.0206677087783813,-0.144999066638947,0.654835387802124
0.880678376741369,0.0344177404403687,0.00828218336105347,0.180621520614624
0.881284070260448,0.0751330724716187,-0.0515933049201965,-0.0277451786041261
0.881889763779528,0.0368127599716187,-0.204874554920197,0.271632262802124
0.882495457298607,-0.0494079431533813,0.00349214429855347,-0.09001568641662609
0.883101150817686,0.0320227209091187,-0.00129789476394653,0.190201598739624
0.883706844336766,-0.171553939247131,-0.0108779728889465,0.135116149520874
0.884312537855845,-0.0661730798721313,-0.0827285588264465,0.22852191123962398
0.884918231374924,-0.0230627283096313,0.0346273982048035,0.0536854854583739
0.885523924894004,0.0248376623153687,0.0466024958610535,0.036920348739623896
0.886129618413083,0.15177369747161898,0.0849228083610535,0.341087829208374
0.886735311932162,-0.24340452518463102,0.192698687267303,0.245287047958374
0.887341005451242,-0.181134017372131,-0.152184125232697,0.377013122177124
0.887946698970321,0.108663345909119,0.060972613048553496,0.0848207393646239
0.8885523924894,0.048787857627868705,-0.0970986760139465,0.171041442489624
0.88915808600848,-0.149998763465881,0.0322323786735535,0.08961077842712391
0.889763779527559,-0.12844358768463102,0.104082964611053,0.0656605831146239
0.890369473046638,0.00567750606536866,-0.0923086369514465,0.319532653427124
0.890975166565718,-0.164368880653381,0.0849228083610535,-0.0205601200103761
0.891580860084797,0.053577896690368707,-0.10428373460769699,-0.049300354385376104
0.892186553603876,-0.0613830408096313,0.0154672419548035,0.0273402706146239
0.892792247122956,-0.109283431434631,0.0154672419548035,0.14469622764587398
0.893397940642035,0.0823181310653687,-0.109073773670197,-0.013375061416626099
0.894003634161115,-0.104493392372131,-0.0372231877326965,0.171041442489624
0.894609327680194,-0.329625228309631,0.025047320079803502,0.11116595420837401
0.895215021199273,0.051182877159118706,-0.0731484807014465,0.0297352901458739
0.895820714718352,0.0895031896591187,0.0394174372673035,0.0632655635833739
0.896426408237432,-0.0278527673721313,0.0968979060173035,0.09679583702087391
0.897032101756511,0.120638443565369,-0.0659634221076965,-0.0157700809478761
0.897637795275591,-0.037432845497131294,-0.159369183826447,0.036920348739623896
0.89824348879467,0.261944595909119,-0.0396182072639465,0.0800307003021239
0.898849182313749,-0.20268919315338102,-0.0420132267951965,-0.0373252567291261
0.899454875832829,-0.114073470497131,-0.0970986760139465,0.0536854854583739
0.900060569351908,0.111058365440369,0.0897128474235535,0.0800307003021239
0.900666262870987,-0.121258529090881,0.178328570079803,0.00578509483337389
0.901271956390067,-0.0661730798721313,-0.0970986760139465,-0.00139996376037611
0.901877649909146,-0.0494079431533813,-0.0899136174201965,0.27642230186462396
0.902483343428225,0.0775280920028687,0.029837359142303503,0.269237243270874
0.903089036947305,0.0272326818466187,-0.176134320545197,0.137511169052124
0.903694730466384,-0.0997033533096313,0.00828218336105347,-0.0205601200103761
0.904300423985463,-0.16197386112213102,0.00588716382980347,0.245287047958374
0.904906117504543,0.108663345909119,0.0968979060173035,0.10877093467712401
0.905511811023622,0.130218521690369,0.06815767164230349,0.166251403427124
0.906117504542701,0.0918982091903687,-0.00129789476394653,0.252472106552124
0.906723198061781,0.00328248653411866,0.161563433361053,0.0129701534271239
0.90732889158086,-0.00629759159088134,-0.164159222888947,0.0632655635833739
0.907934585099939,0.000887467002868658,-0.0132729924201965,0.0297352901458739
0.908540278619019,0.0775280920028687,-0.00369291429519653,0.130326110458374
0.909145972138098,-0.0661730798721313,0.025047320079803502,-0.0397202762603761
0.909751665657177,-0.16197386112213102,0.0968979060173035,0.594959899520874
0.910357359176257,0.06315797481536871,-0.133023968982697,0.312347594833374
0.910963052695336,-0.102098372840881,0.147193316173553,-0.286407287979126
0.911568746214416,-0.14760374393463102,0.025047320079803502,0.16385638389587398
0.912174439733495,-0.116468490028381,-0.152184125232697,-0.106780823135376
0.912780133252574,-0.0829382165908813,0.0801327692985535,-0.17144635047912601
0.913385826771653,-0.00390257205963134,0.0825277888298035,0.020155212020873902
0.913991520290733,-0.0685680994033813,0.159168413829803,0.0824257198333739
0.914597213809812,0.043997818565368704,0.254969195079803,0.175831481552124
0.915202907328892,0.0823181310653687,-0.0683584416389465,0.156671325302124
0.915808600847971,-0.0254577478408813,-0.133023968982697,0.226126891708374
0.91641429436705,0.0368127599716187,0.0921078669548035,0.211756774520874
0.91701998788613,-0.0278527673721313,-0.152184125232697,0.254867126083374
0.917625681405209,-0.154788802528381,-0.00848295335769653,0.216546813583374
0.918231374924288,-0.159578841590881,-0.0947036564826965,0.0273402706146239
0.918837068443368,0.0152575841903687,-0.240799847888947,0.0441054073333739
0.919442761962447,-0.0589880212783813,0.175933550548553,0.032130309677123894
0.920048455481526,-0.0182726892471313,-0.00608793382644653,0.039315368270873896
0.920654149000606,0.218834244346619,0.07294771070480349,0.0680556026458739
0.921259842519685,0.168538834190369,-0.0491982853889465,0.21894183311462398
0.921865536038764,0.0751330724716187,0.056182573986053495,0.127931090927124
0.922471229557844,0.185303970909119,0.0418124567985535,0.190201598739624
0.923076923076923,0.053577896690368707,-0.0396182072639465,0.08961077842712391
0.923682616596002,-0.0829382165908813,0.106477984142303,0.14469622764587398
0.924288310115082,0.14698365840911898,-0.0707534611701965,0.18780657920837399
0.924894003634161,-0.0901232751846313,0.027442339611053503,0.11356097373962401
0.92549969715324,-0.360760482215881,0.027442339611053503,0.175831481552124
0.92610539067232,0.0152575841903687,-0.0851235783576965,0.14469622764587398
0.926711084191399,-0.0709631189346313,-0.020458051013946498,-0.025350159072876098
0.927316777710478,-0.286514876747131,-0.202479535388947,0.14469622764587398
0.927922471229558,-0.0494079431533813,0.0346273982048035,0.16385638389587398
0.928528164748637,0.111058365440369,0.144798296642303,0.16385638389587398
0.929133858267717,-0.111678450965881,-0.123443890857697,-0.0397202762603761
0.929739551786796,-0.0182726892471313,-0.0420132267951965,0.020155212020873902
0.930345245305875,0.043997818565368704,0.027442339611053503,0.171041442489624
0.930950938824954,-0.269749740028381,0.0489975153923035,-0.0109800418853761
0.931556632344034,-0.135628646278381,0.06815767164230349,-0.00139996376037611
0.932162325863113,0.101478287315369,-0.00129789476394653,0.10637591514587401
0.932768019382193,0.041602799034118704,0.0370224177360535,0.08961077842712391
0.933373712901272,-0.00629759159088134,-0.0899136174201965,0.235706969833374
0.933979406420351,-0.17873899784088101,-0.0276431096076965,0.0704506221771239
0.934585099939431,-0.19789915409088102,0.245389116954803,-0.133126037979126
0.93519079345851,-0.104493392372131,-0.144999066638947,0.118351012802124
0.935796486977589,-0.0661730798721313,0.0202572810173035,-0.0301401981353761
0.936402180496669,-0.13802366580963102,0.135218218517303,0.307557555770874
0.937007874015748,-0.0661730798721313,-0.034828168201446505,0.269237243270874
0.937613567534827,0.0775280920028687,-0.020458051013946498,0.137511169052124
0.938219261053907,-0.102098372840881,-0.018063031482696498,0.307557555770874
0.938824954572986,0.123033463096619,0.0489975153923035,-0.0229551395416261
0.939430648092065,-0.0518029626846313,-0.0420132267951965,0.391383239364624
0.940036341611145,-0.126048568153381,-0.0156680119514465,0.5255043331146241
0.940642035130224,0.0607629552841187,0.0106772028923035,0.0417103878021239
0.941247728649303,-0.0997033533096313,0.0370224177360535,0.180621520614624
0.941853422168383,-0.00150755252838134,0.245389116954803,0.039315368270873896
0.942459115687462,-0.102098372840881,0.025047320079803502,0.135116149520874
0.943064809206541,-0.284119857215881,0.106477984142303,0.206966735458374
0.943670502725621,-0.00390257205963134,0.142403277111053,0.180621520614624
0.9442761962447,0.319425064659119,-0.140209027576447,0.17343646202087398
0.94488188976378,0.214044205284119,0.120848101329803,0.17822650108337398
0.945487583282859,-0.102098372840881,0.147193316173553,0.24289202842712398
0.946093276801938,-0.14760374393463102,-0.0635684025764465,0.0656605831146239
0.946698970321018,-0.13802366580963102,0.06815767164230349,0.288397399520874
0.947304663840097,0.0368127599716187,0.0346273982048035,0.10158587608337401
0.947910357359176,0.041602799034118704,0.0897128474235535,0.240497008895874
