Time (s),Accel X (m/s^2),Accel Y (m/s^2),Accel Z (m/s^2)
0.0,-0.0742485056877136,-0.11927805376052901,-0.111851341438293
0.000606060606060606,0.150883330249786,0.00526296186447143,0.312067115592957
0.00121212121212121,-0.15088913068771398,0.0890886454582214,0.0797502210617066
0.00181818181818182,-0.19639450178146398,-0.0115021748542786,-0.126221458625793
0.00242424242424242,-0.0502983103752136,-0.0546125264167786,-0.020840599250793398
0.00303030303030303,-0.014373017406463599,0.0651384501457214,0.055800025749206596
0.00363636363636364,0.0287373341560364,0.17770436811447102,0.0150846937179566
0.00424242424242424,0.19399368181228602,0.134594016551971,0.22345139293670702
0.00484848484848485,0.0359223927497864,-0.0522175068855286,0.11567551403045699
0.00545454545454545,-0.0958036814689636,0.0627434306144714,0.0414299085617066
0.00606060606060606,-0.153284150218964,-0.128858131885529,0.398287818717957
0.00666666666666667,0.0455024708747864,0.0699284892082214,0.0869352796554566
0.00727272727272727,0.0910078419685364,0.26392507123947095,0.0605900648117066
0.00787878787878788,0.0023921193122864,-0.140833229541779,0.16836594371795702
0.00848484848484848,-0.0838285838127136,0.0435832743644714,0.704850318717957
0.00909090909090909,0.0215522755622864,0.0220280985832214,0.431818092155457
0.0096969696969697,-0.0407182322502136,-0.10969797563552901,0.0414299085617066
0.0103030303030303,-0.306565400218964,0.0579533915519714,0.724010474967957
0.0109090909090909,-0.0455082713127136,0.0675334696769714,0.407867896842957
0.0115151515151515,0.062267607593536396,-0.140833229541779,0.11567551403045699
0.0121212121212121,0.0023921193122864,-0.15759836626052898,0.144415748405457
0.0127272727272727,-0.0263481150627136,0.0100530009269714,-0.011260521125793399
0.0133333333333333,-0.270640107250214,0.09866872358322139,0.0605900648117066
0.0139393939393939,-0.059878388500213604,0.0387932353019714,0.11328049449920699
0.0145454545454545,0.0359223927497864,-0.248609108448029,0.22345139293670702
0.0151515151515152,0.0047871388435364,-0.0977228779792786,0.07017014293670659
0.0157575757575758,0.0167622364997864,-0.06419260454177861,-0.0974812242507934
0.0163636363636364,-0.0263481150627136,-0.143228249073029,0.16357590465545702
0.016969696969697,0.0934028614997864,0.0699284892082214,0.06538010387420659
0.0175757575757576,0.059872588062286396,0.0244231181144714,0.13244065074920702
0.0181818181818182,0.06945266618728639,-0.19591867876052899,0.142020728874207
0.0187878787878788,-0.0407182322502136,0.000472922801971429,0.06777512340545659
0.0193939393939394,-0.0095829783439636,0.0483733134269714,0.379127662467957
0.02,-0.0191630564689636,-0.0402424092292786,0.0893302991867066
0.0206060606060606,0.28500442399978604,0.0890886454582214,0.048614967155456594
0.0212121212121212,0.13411819353103602,-0.0330573506355286,0.0989103773117066
0.0218181818181818,-0.038323212718963606,0.0387932353019714,-0.138196556282043
0.0224242424242424,0.0119721974372864,0.18249440717697102,0.307277076530457
0.023030303030303,-0.0095829783439636,0.00526296186447143,0.285721900749207
0.0236363636363636,-0.16525924787521398,-0.0450324482917786,0.130045631217957
0.0242424242424242,-0.435896454906464,0.000472922801971429,0.28093186168670703
0.0248484848484848,-0.217949677562714,0.0172380595207214,0.13244065074920702
0.0254545454545455,-0.117358857250214,-0.0162922139167786,-0.0926911851882934
0.0260606060606061,-0.0023979197502136,0.00526296186447143,-0.00886550159454341
0.0266666666666667,0.033527373218536397,0.0699284892082214,0.180341041374207
0.0272727272727273,-0.105383759593964,-0.08814279985427861,0.17794602184295702
0.0278787878787879,-0.0215580760002136,-0.0498224873542786,0.022269752311706602
0.0284848484848485,0.0023921193122864,0.0723235087394714,0.139625709342957
0.0290909090909091,-0.0934086619377136,0.0579533915519714,0.0941203382492066
0.0296969696969697,0.16285842790603602,0.0220280985832214,0.16836594371795702
0.0303030303030303,0.0910078419685364,0.18249440717697102,0.151600806999207
0.0309090909090909,-0.0071879588127136,0.0387932353019714,0.142020728874207
0.0315151515151515,-0.033533173656463605,0.170519309520721,0.11328049449920699
0.0321212121212121,-0.059878388500213604,0.0363982157707214,0.211476295280457
0.0327272727272727,-0.0167680369377136,-0.07616770219802861,0.12286057262420699
0.0333333333333333,-0.241899872875214,0.0340031962394714,-0.0759260484695434
0.0339393939393939,-0.0095829783439636,-0.00671213579177857,0.206686256217957
0.0345454545454545,-0.167654267406464,0.0531633524894714,-0.042395775032043406
0.0351515151515151,-0.0958036814689636,-0.203103737354279,0.161180885124207
0.0357575757575758,0.15327834978103602,-0.0378473896980286,0.180341041374207
0.0363636363636364,-0.0718534861564636,-0.0929328389167786,-0.217232200813293
0.036969696969697,0.0910078419685364,-0.0905378193855286,-0.126221458625793
0.0375757575757576,-0.328120576000214,0.0316081767082214,0.240216529655457
0.0381818181818182,0.0143672169685364,-0.140833229541779,0.249796607780457
0.0387878787878788,0.31613967790603603,-0.11448801469802901,0.47013840465545703
0.0393939393939394,-0.105383759593964,-0.07616770219802861,0.10609543590545699
0.04,-0.0790385447502136,-0.08095774126052861,0.465348365592957
0.0406060606060606,0.0862178029060364,-0.0426374287605286,0.6162345960617069
0.0412121212121212,0.007182158374786401,-0.23663401079177898,0.11807053356170699
0.0418181818181818,-0.100593720531464,-0.16238840532302898,-0.0160505601882934
0.0424242424242424,0.052687529468536394,-0.0546125264167786,-0.138196556282043
0.043030303030303,-0.0502983103752136,-0.00192209672927857,0.11328049449920699
0.0436363636363636,-0.0263481150627136,0.0747185282707214,0.180341041374207
0.0442424242424242,-0.14609909162521398,-0.102512917041779,0.012689674186706601
0.0448484848484848,-0.0407182322502136,-0.140833229541779,-0.011260521125793399
0.0454545454545455,0.0478974904060364,0.20165456342697102,0.331227271842957
0.0460606060606061,0.170043486499786,0.00286794233322143,0.0893302991867066
0.0466666666666667,0.292189482593536,0.09387868452072139,0.0390348890304566
0.0472727272727273,-0.0646684275627136,0.156149192333221,0.130045631217957
0.0478787878787879,-0.0502983103752136,-0.0115021748542786,0.0893302991867066
0.0484848484848485,-0.014373017406463599,-0.06658762407302861,0.00310959606170659
0.0490909090909091,-0.014373017406463599,-0.10730295610427901,0.0414299085617066
0.0496969696969697,0.0646626271247864,-0.0354523701667786,0.206686256217957
0.0503030303030303,-0.26345504865646396,0.0292131571769714,0.0150846937179566
0.0509090909090909,-0.371230927562714,-0.0138971943855286,-0.035210716438293405
0.0515151515151515,-0.0814335642814636,-0.08814279985427861,0.381522681999207
0.0521212121212121,-0.0838285838127136,0.00765798139572143,0.22345139293670702
0.0527272727272727,-0.0479032908439636,-0.0450324482917786,-0.154961693000793
0.0533333333333333,-0.0838285838127136,0.0148430399894714,-0.0663459703445434
0.0539393939393939,-0.0814335642814636,-0.128858131885529,0.16836594371795702
0.0545454545454545,0.0886128224372864,-0.260584206104279,-0.0471858140945434
0.0551515151515152,-0.129333954906464,-0.11448801469802901,0.0174797132492066
0.0557575757575758,0.062267607593536396,0.148964133739471,0.12046555309295699
0.0563636363636364,-0.057483368968963604,0.0842986063957214,0.0965153577804566
0.056969696969697,-0.167654267406464,-0.00671213579177857,0.0318498304367066
0.0575757575757576,-0.105383759593964,0.0220280985832214,0.053405006217956595
0.0581818181818182,-0.033533173656463605,-0.0426374287605286,0.175551002311707
0.0587878787878788,-0.0023979197502136,0.0220280985832214,-0.042395775032043406
0.0593939393939394,-0.25387497053146396,0.0244231181144714,0.18273606090545702
0.06,0.0886128224372864,0.0459782938957214,0.0845402601242066
0.0606060606060606,0.119748076343536,-0.0378473896980286,0.130045631217957
0.0612121212121212,0.110167998218536,-0.207893776416779,0.156390846061707
0.0618181818181818,0.0143672169685364,-0.08095774126052861,0.058195045280456596
0.0624242424242424,0.0095771779060364,0.0723235087394714,0.15878586559295702
0.063030303030303,-0.0886186228752136,-0.212683815479279,0.101305396842957
0.0636363636363636,0.059872588062286396,-0.19112863969802898,-0.14059157581329298
0.0642424242424242,0.12932815446853602,-0.08095774126052861,-0.0879011461257934
0.0648484848484848,-0.17004928693771398,-0.188733620166779,0.0462199476242066
0.0654545454545455,-0.0479032908439636,0.156149192333221,-0.0902961656570434
0.0660606060606061,-0.0287431345939636,-0.0546125264167786,0.127650611686707
0.0666666666666667,-0.0191630564689636,-0.0474274678230286,0.149205787467957
0.0672727272727273,-0.126938935375214,-0.155203346729279,0.11088547496795699
0.0678787878787879,0.026342314624786402,-0.205498756885529,0.0342448499679566
0.0684848484848485,0.0478974904060364,-0.0258722920417786,0.628209693717957
0.0690909090909091,-0.102988740062714,-0.183943581104279,0.235426490592957
0.0696969696969697,0.0095771779060364,-0.0522175068855286,-0.152566673469543
0.0703030303030303,-0.0886186228752136,-0.004317116260528569,0.7000602796554569
0.0709090909090909,-0.100593720531464,-0.16238840532302898,0.144415748405457
0.0715151515151515,-0.014373017406463599,-0.0546125264167786,-0.20046706409454298
0.0721212121212121,0.052687529468536394,0.00765798139572143,0.06777512340545659
0.0727272727272727,0.052687529468536394,0.146569114208221,-0.0016804430007934098
0.0733333333333333,0.052687529468536394,0.189679465770721,0.15878586559295702
0.0739393939393939,-0.0263481150627136,0.0363982157707214,0.252191627311707
0.0745454545454545,0.0478974904060364,0.27350514936447096,0.00550461559295659
0.0751515151515151,0.0431074513435364,0.0890886454582214,0.161180885124207
0.0757575757575758,-0.0790385447502136,-0.215078835010529,0.271351783561707
0.0763636363636364,-0.0431132517814636,0.0699284892082214,0.185131080436707
0.076969696969697,0.0143672169685364,-0.179153542041779,0.142020728874207
0.0775757575757576,-0.0694584666252136,0.158544211864471,-0.0639509508132934
0.0781818181818182,-0.148494111156464,0.0531633524894714,-0.037605735969543405
0.0787878787878788,-0.059878388500213604,-0.25818918657302903,0.022269752311706602
0.0793939393939394,0.16285842790603602,0.0100530009269714,-0.164541771125793
0.08,0.124538115406036,-0.06898264360427861,0.12046555309295699
0.0806060606060606,-0.122148896312714,0.0747185282707214,0.24261154918670702
0.0812121212121212,-0.033533173656463605,-0.11448801469802901,-0.0543708726882934
0.0818181818181818,0.055082548999786395,-0.0522175068855286,-0.032815696907043404
0.0824242424242424,-0.004792939281463599,0.0531633524894714,-0.037605735969543405
0.083030303030303,-2.90021896360126e-06,-0.133648170948029,0.0318498304367066
0.0836363636363636,0.0311323536872864,0.0148430399894714,0.10849045543670699
0.0842424242424242,0.14848831071853602,0.09627370405197139,0.0917253187179566
0.0848484848484849,0.0215522755622864,-0.0594025654792786,0.273746803092957
0.0854545454545454,-0.268245087718964,0.0244231181144714,0.127650611686707
0.0860606060606061,-0.059878388500213604,-0.12406809282302901,0.0342448499679566
0.0866666666666667,-0.0862236033439636,-0.148018288135529,0.12046555309295699
0.0872727272727273,0.0359223927497864,-0.00910715532302857,0.00550461559295659
0.0878787878787879,-0.0934086619377136,-0.0354523701667786,0.252191627311707
0.0884848484848485,-0.0526933299064636,-0.0617975850105286,0.197106178092957
0.0890909090909091,0.06705764665603639,0.18249440717697102,0.11088547496795699
0.0896969696969697,-0.129333954906464,-0.00671213579177857,0.35038742809295703
0.0903030303030303,-0.0526933299064636,-0.102512917041779,0.221056373405457
0.0909090909090909,-0.0694584666252136,-0.126463112354279,0.252191627311707
0.0915151515151515,-0.16046920881271398,-0.08814279985427861,0.422238014030457
0.0921212121212121,-0.167654267406464,-0.0929328389167786,0.273746803092957
0.0927272727272727,-0.117358857250214,-0.0570075459480286,0.30967209606170704
0.0933333333333333,-0.035928193187713606,-0.11448801469802901,-0.0663459703445434
0.0939393939393939,0.0910078419685364,-0.179153542041779,0.00789963512420659
0.0945454545454545,-0.0311381541252136,-0.0450324482917786,-0.00886550159454341
0.0951515151515152,-0.13172897443771397,-0.145623268604279,-0.133406517219543
0.0957575757575758,-0.0958036814689636,-0.07616770219802861,0.0198747327804566
0.0963636363636364,-0.189209443187714,-0.0450324482917786,0.051009986686706595
0.096969696969697,0.0119721974372864,0.00286794233322143,0.165970924186707
0.0975757575757576,-0.0670634470939636,-0.164783424854279,0.35996750621795703
0.0981818181818182,-0.117358857250214,-0.13125315141677898,0.0246647718429566
0.0987878787878788,-0.0263481150627136,-0.08814279985427861,-0.25794753284454297
0.0993939393939394,-0.15567916975021398,0.0316081767082214,0.19231613903045702
0.1,0.06945266618728639,-0.17196848344802898,0.405472877311707
0.100606060606061,0.0407124318122864,-0.0570075459480286,0.319252174186707
0.101212121212121,0.105377959156036,0.0340031962394714,0.15399582653045701
0.101818181818182,-0.0071879588127136,-0.004317116260528569,-0.0735310289382934
0.102424242424242,-0.033533173656463605,0.0651384501457214,-0.00886550159454341
0.103030303030303,-0.014373017406463599,-0.140833229541779,0.0605900648117066
0.103636363636364,-0.0023979197502136,-0.0234772725105286,0.0941203382492066
0.104242424242424,-0.0550883494377136,-0.183943581104279,0.170760963249207
0.104848484848485,0.0478974904060364,-0.11927805376052901,-0.267527610969543
0.105454545454545,0.14848831071853602,0.23278981733322102,0.053405006217956595
0.106060606060606,0.0215522755622864,-0.289324440479279,0.11807053356170699
0.106666666666667,0.0383174122810364,-0.22705393266677898,0.12046555309295699
0.107272727272727,0.0407124318122864,0.160939231395721,0.06298508434295659
0.107878787878788,-0.0191630564689636,-0.138438210010529,-0.0016804430007934098
0.108484848484848,-0.014373017406463599,-0.004317116260528569,0.391102760124207
0.109090909090909,-0.038323212718963606,-0.174363502979279,0.125255592155457
0.10969696969697,-0.13651901350021398,-0.0234772725105286,-0.00886550159454341
0.11030303030303,-0.0814335642814636,0.0100530009269714,0.0150846937179566
0.110909090909091,-0.038323212718963606,-0.150413307666779,0.0893302991867066
0.111515151515152,-0.182024384593964,0.220814719676971,0.00550461559295659
0.112121212121212,-0.22034469709396398,0.09387868452072139,0.0366398694992066
0.112727272727273,-2.90021896360126e-06,-0.08095774126052861,0.34080734996795703
0.113333333333333,0.100587920093536,-0.00671213579177857,0.194711158561707
0.113939393939394,-0.0694584666252136,-0.138438210010529,0.149205787467957
0.114545454545455,-0.17004928693771398,0.12022389936447099,0.201896217155457
0.115151515151515,-0.148494111156464,-0.0426374287605286,-0.14059157581329298
0.115757575757576,0.07424270524978639,0.0459782938957214,-0.020840599250793398
0.116363636363636,-0.0862236033439636,-0.0378473896980286,0.101305396842957
0.116969696969697,0.136513213062286,-0.150413307666779,0.0174797132492066
0.117575757575758,-0.062273408031463605,0.108248801708221,-0.150171653938293
0.118181818181818,-0.46224166975021397,-0.169573463916779,-0.262737571907043
0.118787878787879,0.16285842790603602,-0.004317116260528569,0.17315598278045702
0.119393939393939,-0.193999482250214,-0.27734934282302903,0.07017014293670659
0.12,-0.0646684275627136,-0.169573463916779,-0.107061302375793
0.120606060606061,0.17962356462478601,0.0771135478019714,0.058195045280456596
0.121212121212121,-0.0550883494377136,-0.0234772725105286,-0.178911888313293
0.121818181818182,0.0359223927497864,0.0100530009269714,0.127650611686707
0.122424242424242,0.007182158374786401,-0.07856272172927861,0.225846412467957
0.123030303030303,-0.0646684275627136,-0.164783424854279,0.012689674186706601
0.123636363636364,0.22273391618728602,0.0842986063957214,0.0773552015304566
0.124242424242424,-0.119753876781464,0.139384055614471,0.23782151012420702
0.124848484848485,-0.21555465803146398,0.09148366498947139,0.252191627311707
0.125454545454545,0.055082548999786395,-0.102512917041779,0.24261154918670702
0.126060606060606,0.14369827165603602,-0.24142404985427898,0.225846412467957
0.126666666666667,0.117353056812286,-0.08095774126052861,0.283326881217957
0.127272727272727,-0.0479032908439636,0.0148430399894714,0.11088547496795699
0.127878787878788,0.107772978687286,0.09866872358322139,-0.178911888313293
0.128484848484848,-0.0191630564689636,-0.0282673115730286,0.412657935905457
0.129090909090909,0.126933134937286,0.0579533915519714,0.134835670280457
0.12969696969697,0.0957978810310364,-0.0450324482917786,-0.207652122688293
0.13030303030303,-0.17004928693771398,-0.08814279985427861,0.10370041637420699
0.130909090909091,-0.057483368968963604,0.0316081767082214,0.197106178092957
0.131515151515152,0.117353056812286,0.0172380595207214,0.0318498304367066
0.132121212121212,0.110167998218536,-0.0402424092292786,0.0989103773117066
0.132727272727273,-0.23950485334396399,-0.18154856157302898,0.199501197624207
0.133333333333333,-0.0119779978752136,-0.07377268266677861,-0.0160505601882934
0.133939393939394,-0.13172897443771397,-0.06898264360427861,-0.0950862047195434
0.134545454545455,-0.17483932600021398,-0.0498224873542786,-0.00647048206329341
0.135151515151515,0.196388701343536,-0.08574778032302861,0.058195045280456596
0.135757575757576,-0.033533173656463605,-0.11688303422927901,0.0821452405929566
0.136363636363636,-0.0694584666252136,0.0771135478019714,0.0102946546554566
0.136969696969697,0.057477568531036395,0.0340031962394714,0.0821452405929566
0.137575757575758,0.0957978810310364,0.0387932353019714,0.11088547496795699
0.138181818181818,-0.0095829783439636,0.0124480204582214,-0.00886550159454341
0.138787878787879,0.0957978810310364,-0.174363502979279,0.10609543590545699
0.139393939393939,-0.182024384593964,-0.159993385791779,-0.0855061265945434
0.14,-0.177234345531464,0.0459782938957214,-0.147776634407043
0.140606060606061,-0.134123993968964,-0.16238840532302898,0.0965153577804566
0.141212121212121,-0.184419404125214,-0.12406809282302901,0.0773552015304566
0.141818181818182,-0.038323212718963606,0.23757985639572102,-0.032815696907043404
0.142424242424242,-0.13651901350021398,0.105853782176971,0.00789963512420659
0.143030303030303,0.100587920093536,-0.203103737354279,0.149205787467957
0.143636363636364,-0.0742485056877136,-0.0953278584480286,-0.0471858140945434
0.144242424242424,0.126933134937286,0.0699284892082214,-0.0950862047195434
0.144848484848485,0.0359223927497864,-0.0426374287605286,0.0845402601242066
0.145454545454545,-0.289800263500214,-0.148018288135529,0.144415748405457
0.146060606060606,-0.13651901350021398,-0.12167307329177901,-0.0663459703445434
0.146666666666667,-0.275430146312714,-0.08335276079177861,0.0989103773117066
0.147272727272727,0.13890823259353602,-0.00671213579177857,0.17794602184295702
0.147878787878788,0.119748076343536,0.24715993452072102,0.180341041374207
0.148484848484848,0.416730498218536,0.0747185282707214,0.28093186168670703
0.149090909090909,-0.0910136424064636,-0.6916877217292791,-0.035210716438293405
0.14969696969697,-0.395181122875214,-0.545591530323029,-0.406438743782043
0.15030303030303,-0.167654267406464,0.148964133739471,-0.301057884407043
0.150909090909091,-0.014373017406463599,0.39086110639572097,0.6186296155929569
0.151515151515152,0.462235869312286,0.699818625926971,0.7599357679367069
0.152121212121212,0.433495634937286,0.17291432905197102,0.211476295280457
0.152727272727273,0.0886128224372864,-1.09884104204178,-0.384883568000793
0.153333333333333,-0.656238251781464,-0.6318122334480291,-0.722581321907043
0.153939393939394,-0.344885712718964,0.513007102489471,-0.313032982063293
0.154545454545455,-0.112568818187714,1.0614665751457202,0.266561744499207
0.155151515151515,0.756823271656036,0.994406028270721,1.12397873668671
0.155757575757576,1.1017060841560402,-0.37794016313552903,0.630604713249207
0.156363636363636,0.251474150562286,-1.28086252641678,-0.8375422594070431
0.156969696969697,-1.00591110334396,-0.528826393604279,-1.11536452503204
0.157575757575758,-1.4034843455314598,0.659103293895721,-0.645940696907043
0.158181818181818,-0.289800263500214,1.0279363017082201,0.15399582653045701
0.158787878787879,1.1975068654060401,0.596832786083221,0.807836158561707
0.159393939393939,1.6453755177497902,-0.37794016313552903,1.05212815074921
0.16,0.440680693531036,-0.938374733448029,-0.17651686878204298
0.160606060606061,-1.31486862287521,-0.21747385454177898,-1.8242903062820401
0.161212121212121,-2.1722856150627097,0.23278981733322102,-0.9165779039382931
0.161818181818182,-0.289800263500214,0.695028586864471,0.292906959342957
0.162424242424242,1.49448928728104,0.730953879833221,1.14074387340546
0.163030303030303,2.30879592790604,0.23278981733322102,1.28684006481171
0.163636363636364,0.5700117482185361,-0.492901100635529,0.07017014293670659
0.164242424242424,-1.6094560252189598,-1.1323713154792798,-1.64226882190704
0.164848484848485,-2.06450973615646,-0.370755104541779,-2.2146784898757903
0.165454545454545,-0.6274980174064639,0.40283620405197096,0.127650611686707
0.166060606060606,1.33641799821854,1.11176198530197,1.76105393199921
0.166666666666667,2.10761428728104,1.05907155561447,1.90236008434296
0.167272727272727,1.43461379899979,-0.16238840532302898,0.137230689811707
0.167878787878788,-0.864604951000214,-1.6616706318855299,-2.01589186878204
0.168484848484848,-2.33275192365646,-1.04854563188553,-1.9176960680007902
0.169090909090909,-1.34600387678146,0.7860393290519709,-0.291477806282043
0.16969696969697,0.807118681812286,1.6434563212394702,1.6053776624679599
0.17030303030303,2.5339277638435402,1.32012868452072,1.87361984996796
0.170909090909091,1.97828323259354,-0.744378151416779,0.5180387952804569
0.171515151515152,-0.457451630687714,-1.88680246782303,-1.63029372425079
0.172121212121212,-2.94827194318771,-0.45458078813552905,-2.23623366565704
0.172727272727273,-2.6249443064689597,0.948900657176971,-0.583670189094543
0.173333333333333,0.754428252124786,1.32970876264572,1.17187912731171
0.173939393939394,3.0033515919685403,0.424391379833221,1.95505051403046
0.174545454545455,2.56985305681229,-0.940769752979279,0.913217017936707
0.175151515151515,-0.6682133494377139,-1.23296213579178,-1.15368483753204
0.175757575757576,-3.43446090803146,-0.198313698291779,-2.0949275133132903
0.176363636363636,-3.20453903303146,0.908185325145721,-1.4003718492507902
0.176969696969697,0.852624052906036,0.690238547801971,0.5635441663742069
0.177575757575758,3.34823440446854,0.364515891551971,2.29993332653046
0.178181818181818,2.9530561818122902,0.00765798139572143,1.86403977184296
0.178787878787879,-0.356860810375214,-0.792278542041779,-0.480684349250793
0.179393939393939,-3.3602153025627097,-0.9287946553230291,-2.88049391956329
0.18,-2.99377731428146,-0.404285377979279,-2.21946852893829
0.180606060606061,0.0047871388435364,0.5872527079582209,0.625814674186707
0.181212121212121,2.6608637989997903,1.41592946577072,2.81007248668671
0.181818181818182,2.88120559587479,1.0207512431144699,2.4556095960617097
0.182424242424242,0.371225127124786,-0.667737526416779,-0.430388939094543
0.183030303030303,-2.20342086896896,-2.22210520219803,-3.43613845081329
0.183636363636364,-2.99377731428146,-1.03178049516678,-2.52124098987579
0.184242424242424,-1.13524215803146,1.41832448530197,0.491693580436707
0.184848484848485,2.23934036149979,2.2661613993644703,2.33825363903046
0.185454545454545,3.29554397478104,1.0207512431144699,2.42447434215546
0.186060606060606,1.73399124040604,-1.27846750688553,0.130045631217957
0.186666666666667,-1.7507621775627098,-1.95625803422928,-2.63141188831329
0.187272727272727,-4.03082077131271,-0.169573463916779,-2.77271804065704
0.187878787878788,-2.50279831037521,1.59316091108322,-0.284292747688293
0.188484848484848,2.14593459978104,1.65064137983322,2.02929611949921
0.189090909090909,4.294267119312289,0.0483733134269714,2.43165940074921
0.18969696969697,2.44531204118729,-1.34073801469803,0.5779142835617069
0.19030303030303,-1.57353073225021,-1.3934284443855298,-1.30936110706329
0.190909090909091,-4.6199955760002105,-0.169573463916779,-2.3607746812820403
0.191515151515152,-3.03928268537521,1.12852712202072,-1.37642165393829
0.192121212121212,2.11958938493729,0.764484153270721,1.6436979749679599
0.192727272727273,4.526584013843539,0.479476829051971,3.0878947523117097
0.193333333333333,2.78779983415604,-0.219868874073029,1.57424240856171
0.193939393939394,-1.5447904978752098,-0.9096344990730291,-1.76201979846954
0.194545454545455,-4.69663620100021,-0.725217995166779,-3.8145515367507903
0.195151515151515,-2.78062057600021,-0.239029030323029,-1.83387038440704
0.195757575757576,1.65974563493729,0.699818625926971,1.53592209606171
0.196363636363636,3.90627395524979,1.4422746806144702,3.44475266246796
0.196969696969697,2.66565383806229,0.723768821239471,1.96702561168671
0.197575757575758,-0.823889618968964,-1.10842112016678,-1.4171369859695402
0.198181818181818,-3.70509811506271,-2.08079904985428,-3.60857985706329
0.198787878787879,-3.15903366193771,-0.562356667041779,-2.05421218128204
0.199393939393939,-0.0670634470939636,1.59555593061447,1.44970139293671
0.2,3.3362593068122903,2.00749928998947,3.07591965465546
0.200606060606061,3.5757612599372903,0.596832786083221,2.09156662731171
0.201212121212121,0.586776884937286,-1.4652790303230299,-0.566905052375793
0.201818181818182,-2.82852096662521,-1.95386301469803,-3.40739821643829
0.202424242424242,-4.23200241193771,-0.08335276079177861,-2.78708815784454
0.203030303030303,-1.31965866193771,2.00749928998947,0.30967209606170704
0.203636363636364,3.37697463884354,1.47101491498947,2.75259201793671
0.204242424242424,4.732555693531039,-0.291719460010529,2.6951115491867097
0.204848484848485,0.893339384937286,-1.36947824907303,-0.0759260484695434
0.205454545454545,-3.3099198924064597,-1.27128244829178,-2.93078932971954
0.206060606060606,-4.986433564281461,0.0890886454582214,-2.9762947008132903
0.206666666666667,-1.85374801740646,1.41592946577072,-0.169331810188293
0.207272727272727,3.4320600880622902,0.604017844676971,2.8747380140304597
0.207878787878788,5.08222854509354,0.22799977827072102,3.2411760023117098
0.208484848484848,1.9112226857185401,-0.533616432666779,0.793466041374207
0.209090909090909,-3.1805888377189597,-1.01262033891678,-2.8996540758132903
0.20969696969697,-5.10857956037521,-0.528826393604279,-3.9774128648757903
0.21030303030303,-1.8058476267814598,-0.12167307329177901,-0.8974177476882931
0.210909090909091,3.07041213884354,0.821964622020721,2.88671311168671
0.211515151515152,4.485868681812289,1.41353444623947,3.61958908824921
0.212121212121212,2.24652542009354,0.11782887983322099,1.14553391246796
0.212727272727273,-2.1124101267814597,-1.1060261006355299,-2.26018386096954
0.213333333333333,-4.208052216625211,-1.75507639360428,-4.17619948596954
0.213939393939394,-2.20342086896896,-0.533616432666779,-1.55365309925079
0.214545454545455,1.4920942677497901,2.06258473920822,2.05803635387421
0.215151515151515,4.01883987321854,1.89493337202072,3.27949631481171
0.215757575757576,2.92910598649979,0.17770436811447102,1.6484880140304599
0.216363636363636,-1.0705766306877098,-1.50599436235428,-1.49377761096954
0.216969696969697,-4.00447555646896,-1.82213694047928,-3.68043044300079
0.217575757575758,-3.79850387678146,0.0435832743644714,-2.34161452503204
0.218181818181818,0.462235869312286,2.15838552045822,1.32995041637421
0.218787878787879,4.29905715837479,1.41113942670822,3.49265305309296
0.219393939393939,4.02602493181229,-0.08335276079177861,2.1131218030929597
0.22,-0.119753876781464,-1.00304026079178,-0.772876732063293
0.220606060606061,-4.241582490062711,-1.21619699907303,-3.39302809925079
0.221212121212121,-4.5265898142814605,0.445946555614471,-2.7631379625320402
0.221818181818182,-0.378415986156464,1.55723561811447,0.5779142835617069
0.222424242424242,4.605619658374789,0.599227805614471,3.48546799449921
0.223030303030303,4.34935256853104,0.41241628217697096,3.07831467418671
0.223636363636364,0.332904814624786,-0.818623756885529,-0.322613060188293
0.224242424242424,-4.1146464549064605,-1.2042219014167799,-3.67564040393829
0.224848484848485,-4.90979293928146,-0.253399147510529,-3.65408522815704
0.225454545454545,-0.371230927562714,-0.128858131885529,0.47013840465545703
0.226060606060606,4.27031692399979,1.11176198530197,3.82795578746796
0.226666666666667,4.35174758806229,1.46622487592697,3.2411760023117098
0.227272727272727,0.7304780568122861,-0.26776926469802903,0.23303147106170702
0.227878787878788,-3.57576706037521,-1.29523264360428,-3.1726863023757903
0.228484848484848,-4.20326217756271,-1.42456369829178,-4.27679030628204
0.229090909090909,-0.962800751781464,-0.148018288135529,-0.43757399768829297
0.22969696969697,2.5075825489997903,2.13204030561447,3.12382004528046
0.23030303030303,4.23918167009354,1.50933522748947,3.21962082653046
0.230909090909091,1.7651264943122902,0.0411882548332214,0.649764869499207
0.231515151515152,-2.66086959943771,-1.49641428422928,-2.4206501695632903
0.232121212121212,-4.16494186506271,-1.61616526079178,-3.76186110706329
0.232727272727273,-2.68721481428146,0.661498313426971,-1.41474196643829
0.233333333333333,1.74117629899979,1.97636403608322,2.53943527965546
0.233939393939394,5.01037795915604,1.03751637983322,3.2675212171554597
0.234545454545455,3.00574661149979,-0.449790749073029,1.56466233043671
0.235151515151515,-1.60227096662521,-1.3287629170417798,-1.81231520862579
0.235757575757576,-4.79243698225021,-1.17308664751053,-3.75946608753204
0.236363636363636,-3.87753952131271,0.486661887645721,-2.03026198596954
0.236969696969697,1.14002639665604,1.14529225873947,1.5670573499679599
0.237575757575758,5.24987991228104,0.5273772196769709,3.72736496715546
0.238181818181818,3.29793899431229,0.30224538373947096,2.2161076429367097
0.238787878787879,-1.4034843455314598,-0.844968971729279,-1.21356032581329
0.239393939393939,-4.8259672556877105,-1.2305671162605298,-3.9941780015945403
0.24,-3.82963913068771,-0.16717844438552898,-2.55477126331329
0.240606060606061,1.48490920915604,-0.0186872334480286,1.15990402965546
0.241212121212121,4.92415725603104,1.1261321024894702,3.83514084606171
0.241818181818182,3.44164016618729,1.27462331342697,2.84120774059296
0.242424242424242,-0.771199189281464,-0.773118385791779,-0.7153962633132931
0.243030303030303,-4.32301315412521,-1.07728586626053,-3.62294997425079
0.243636363636364,-3.3769804392814597,-1.61616526079178,-3.27327712268829
0.244242424242424,0.514926298999786,-0.174363502979279,0.786280982780457
0.244848484848485,3.40810989274979,2.56793386030197,3.19567063121796
0.245454545454545,3.84639846696854,1.29378346967697,2.68792649059296
0.246060606060606,0.13890823259353602,0.0100530009269714,0.134835670280457
0.246666666666667,-3.5398417674064597,-1.38145334672928,-3.00503493518829
0.247272727272727,-3.6260624705314597,-1.69041086626053,-3.52235915393829
0.247878787878788,-1.02507125959396,0.771669211864471,-0.147776634407043
0.248484848484848,3.00574661149979,1.93804372358322,3.07591965465546
0.249090909090909,4.605619658374789,0.635153098583221,2.67834641246796
0.24969696969697,1.1376313771247901,-0.279744362354279,0.352782447624207
0.25030303030303,-2.9410868845939597,-1.30960276079178,-2.17396315784454
0.250909090909091,-4.25834762678146,-1.04136057329178,-2.97150466175079
0.251515151515152,-2.33754196271896,0.800409446239471,-0.928553001594543
0.252121212121212,2.8404902638435403,1.11176198530197,2.31909348278046
0.252727272727273,5.36963088884354,0.369305930614471,3.2938664319992097
0.253333333333333,1.8034468068122902,0.239974875926971,1.37785080699921
0.253939393939394,-2.59620407209396,-1.19943186235428,-1.9224861070632902
0.254545454545455,-5.06307418928146,-1.04854563188553,-3.81934157581329
0.255151515151515,-2.51956344709396,0.105853782176971,-1.9991267320632902
0.255757575757576,3.16860793962479,-0.0210822529792786,2.24724289684296
0.256363636363636,4.61040969743729,1.5237053446769702,3.97405197887421
0.256969696969697,2.26329055681229,1.05188649702072,1.72752365856171
0.257575757575758,-2.1794706736564597,-0.844968971729279,-1.75243972034454
0.258181818181818,-4.93613815412521,-0.756353249073029,-3.67564040393829
0.258787878787879,-2.31119674787521,-1.51796946001053,-2.22186354846954
0.259393939393939,2.1147993458747902,0.153754172801971,1.7897941663742098
0.26,3.8583735646247903,2.36675221967697,3.66509445934296
0.260606060606061,2.86444045915604,0.8051994853019709,2.01732102184296
0.261212121212121,-1.1639823924064598,0.0124480204582214,-0.9572932359695431
0.261818181818182,-3.9853154002189597,-1.3838483662605299,-3.52714919300079
0.262424242424242,-2.5818339549064597,-1.71436106157303,-2.6936823961257903
0.263030303030303,0.258659209156036,0.8650749735832209,0.8796867444992069
0.263636363636364,3.92303909196854,1.53328542280197,3.21243576793671
0.264242424242424,3.7913130177497902,0.19686452436447102,2.30232834606171
0.264848484848485,-0.404761201000214,-0.219868874073029,-0.296267845344543
0.265454545454545,-3.58055709943771,-1.4533039326667798,-2.94036940784454
0.266060606060606,-3.60690231428146,-0.794673561573029,-2.86851882190704
0.266666666666667,-0.570017548656464,0.872260032176971,-0.11903640003204301
0.267272727272727,3.78891799821854,0.769274192333221,3.02322922496796
0.267878787878788,4.72297561540604,0.33098561811447097,3.5070231702804597
0.268484848484848,0.19399368181228602,0.469896750926971,0.321647193717957
0.269090909090909,-3.56379196271896,-1.27607248735428,-3.04335524768829
0.26969696969697,-4.2343974314689605,-0.904844460010529,-3.14873610706329
0.27030303030303,-0.874185029125214,-0.126463112354279,-0.6172004625320431
0.270909090909091,4.08829543962479,-0.179153542041779,2.66158127574921
0.271515151515151,4.31582229509354,1.73446706342697,3.5237883069992098
0.272121212121212,0.833463896656036,0.819569602489471,0.647369849967957
0.272727272727273,-3.4632011424064597,-0.914424538135529,-2.7799030992507903
0.273333333333333,-4.51940475568771,-0.574331764698029,-3.64211013050079
0.273939393939394,-0.749644013500214,-1.5299445576667798,-1.13691970081329
0.274545454545455,2.91952590837479,0.477081809520721,2.3262785413742098
0.275151515151515,3.80089309587479,2.33801198530197,3.32260666637421
0.275757575757576,1.59747512712479,0.27111012983322097,1.4736515882492098
0.276363636363636,-2.69439987287521,0.0819035868644714,-1.7476496812820401
0.276969696969697,-4.44994918928146,-1.57784494829178,-3.81215651721954
0.277575757575758,-1.45617477521896,-1.4221686787605299,-2.00391677112579
0.278181818181818,1.40826858415604,1.19798268842697,1.9694206312179598
0.278787878787879,4.05237014665604,1.52131032514572,3.48786301403046
0.279393939393939,2.4381269825935403,0.474686789989471,1.42814621715546
0.28,-1.97828903303146,-0.0474274678230286,-1.0626740953445402
0.280606060606061,-3.84161422834396,-1.2090119404792798,-2.79906325550079
0.281212121212121,-2.5650688181877097,-0.7707233662605291,-2.2410237047195403
0.281818181818182,1.12565627946854,0.831544700145721,0.7767009046554569
0.282424242424242,4.17691116228104,0.5465373759269709,3.15974533824921
0.283030303030303,3.64042678728104,0.378886008739471,2.75738205699921
0.283636363636364,-1.14482223615646,0.09866872358322139,-0.669890892219543
0.284242424242424,-4.136201630687711,-1.3072077412605299,-3.3954231187820403
0.284848484848485,-3.47038620100021,-0.433025612354279,-2.80864333362579
0.285454545454545,1.01069534196854,-0.164783424854279,0.28093186168670703
0.286060606060606,4.79003616228104,0.0483733134269714,3.12382004528046
0.286666666666667,3.46319534196854,1.8829582743644702,2.9944889905929597
0.287272727272727,-0.773594208812714,0.445946555614471,-0.212442161750793
0.287878787878788,-3.82963913068771,-0.9096344990730291,-3.03138015003204
0.288484848484849,-3.58534713850021,-0.47613596391677904,-3.10083571643829
0.289090909090909,0.965189970874786,-1.26649240922928,-0.346563255500793
0.28969696969697,3.94219924821854,1.2722282938957201,2.8483927991867097
0.29030303030303,3.44643020524979,2.22784108686447,3.15016526012421
0.290909090909091,-0.0886186228752136,0.165729270458221,0.338412330436707
0.291515151515152,-3.42727584943771,-0.10730295610427901,-2.3775398180007903
0.292121212121212,-3.59732223615646,-1.43653879594803,-2.94515944690704
0.292727272727273,-0.177234345531464,-0.907239479541779,-0.7776667711257931
0.293333333333333,2.64888870134354,1.29857350873947,2.34064865856171
0.293939393939394,3.93980422868729,0.989615989208221,2.7717521741867097
0.294545454545455,1.02267043962479,0.148964133739471,0.989857642936707
0.295151515151515,-3.10155319318771,-0.23184397172927898,-1.98475661487579
0.295757575757576,-3.54463180646896,-1.39821848344803,-3.28046218128204
0.296363636363636,-1.45377975568771,-0.468950905323029,-1.2039802476882902
0.296969696969697,2.37585647478104,0.982430930614471,1.45928147106171
0.297575757575758,4.272711943531039,0.448341575145721,3.1142399671554597
0.298181818181818,2.1746748341560402,0.752509055614471,1.7299186780929598
0.298787878787879,-2.69918991193771,0.0579533915519714,-1.6063435289382901
0.299393939393939,-4.05956100568771,-1.43653879594803,-3.4816438219070402
0.3,-2.3255668650627097,-0.363570045948029,-2.15001296253204
0.300606060606061,2.7734297169685402,-0.34680490922927903,1.45928147106171
0.301212121212121,4.71818557634354,0.275900168895721,3.3609269788742098
0.301818181818182,2.08605911149979,1.50454518842697,2.1035417249679598
0.302424242424242,-1.99265915021896,-0.0330573506355286,-1.11536452503204
0.303030303030303,-4.3804936228752105,-0.538406471729279,-3.0792805406570403
0.303636363636364,-2.59620407209396,-0.6701325459480291,-2.53561110706329
0.304242424242424,2.2513154591560403,-1.3622931904792799,0.884476783561707
0.304848484848485,3.87992874040604,1.0447014384269702,3.18609055309296
0.305454545454545,2.63451858415604,1.78715749311447,2.18736740856171
0.306060606060606,-1.2957084666252099,0.295060325145721,-0.382488548469543
0.306666666666667,-4.169731904125211,-0.219868874073029,-2.76553298206329
0.307272727272727,-2.57943893537521,-1.68083078813553,-2.78469313831329
0.307878787878788,1.0897309864997902,-0.924004616260529,0.273746803092957
0.308484848484848,3.22129836931229,1.53807546186447,2.5059050062179598
0.309090909090909,2.94587112321854,0.915370383739471,1.97181565074921
0.30969696969697,-0.785569306468964,0.151359153270721,-0.102271263313293
0.31030303030303,-3.82005905256271,-0.255794167041779,-1.95362136096954
0.310909090909091,-2.70397995100021,-1.29283762407303,-2.44460036487579
0.311515151515152,-0.227529755687714,-0.40668039751052903,-0.40883376331329296
0.312121212121212,3.12549758806229,0.903395286083221,2.1897624280929597
0.312727272727273,3.77454788103104,0.0579533915519714,2.84120774059296
0.313333333333333,0.747243193531036,0.860284934520721,0.853341529655457
0.313939393939394,-3.6092973338127097,-0.22705393266677898,-2.5236360094070402
0.314545454545455,-3.50870651350021,-1.41258860063553,-3.09365065784454
0.315151515151515,-0.843049775218964,-0.24621408891677898,-1.20637526721954
0.315757575757576,3.62366165056229,-0.24621408891677898,1.82092942028046
0.316363636363636,4.04039504899979,0.556117454051971,3.0016740491867098
0.316969696969697,0.840648955249786,1.5620256571769702,1.04733811168671
0.317575757575758,-2.98898727521896,-0.24142404985427898,-1.8195002672195402
0.318181818181818,-4.07872116193771,-0.725217995166779,-3.21100661487579
0.318787878787879,-1.2190678416252099,-1.00783029985428,-1.54407302112579
0.319393939393939,3.39852981462479,-0.986275124073029,1.61256272106171
0.32,3.74580764665604,1.6698015360832201,2.99688401012421
0.320606060606061,1.5088594044685402,1.44945973920822,1.6149577405929598
0.321212121212121,-2.65607956037521,0.388466086864471,-1.2590656969070402
0.321818181818182,-4.361333466625211,-0.06658762407302861,-2.78229811878204
0.322424242424242,-1.37953415021896,-1.61377024126053,-1.86979567737579
0.323030303030303,2.04055374040604,-0.8689191670417791,1.31318527965546
0.323636363636364,3.82963333024979,1.46622487592697,2.71427170543671
0.324242424242424,2.14593459978104,0.738138938426971,1.71554856090546
0.324848484848485,-1.64538131818771,0.5656975321769709,-0.684261009407043
0.325454545454545,-4.12662155256271,-0.44739572954177903,-2.5835114976882902
0.326060606060606,-1.86811813459396,-1.34313303422928,-2.07097731800079
0.326666666666667,1.0418305958747902,-0.418655495166779,0.41026291637420703
0.327272727272727,3.8583735646247903,0.764484153270721,2.58015061168671
0.327878787878788,2.7973799122810403,0.41241628217697096,2.51788010387421
0.328484848484848,-0.981960908031464,0.754904075145721,-0.248367454719543
0.329090909090909,-4.155361786937711,-0.473740944385529,-2.85893874378204
0.32969696969697,-2.8309159861564597,-1.35750315141678,-2.54998122425079
0.33030303030303,0.668207548999786,-0.15759836626052898,-0.11903640003204301
0.330909090909091,4.306242216968539,-0.29650949907302904,2.39094406871796
0.331515151515152,2.98419143571854,0.896210227489471,2.50111496715546
0.332121212121212,-0.708928681468964,1.2626482157707202,0.225846412467957
0.332727272727273,-3.67875290021896,-0.423445534229279,-2.32245436878204
0.333333333333333,-3.4368559275627097,-0.5096662373542791,-2.70086745471954
0.333939393939394,0.270634306812286,-1.2090119404792798,-0.6172004625320431
0.334545454545455,4.00446975603104,-0.734798073291779,2.14186203746796
0.335151515151515,3.29075393571854,1.60274098920822,2.67116135387421
0.335757575757576,0.131723173999786,1.24827809858322,0.788676002311707
0.336363636363636,-3.49912643537521,0.570487571239471,-1.59915847034454
0.336969696969697,-4.02842575178146,-0.270164284229279,-2.80864333362579
0.337575757575758,0.102982939624786,-1.62095529985428,-1.1393147203445402
0.338181818181818,2.8668354786872903,-0.363570045948029,1.85685471324921
0.338787878787879,3.73383254899979,1.53089040327072,3.0016740491867098
0.339393939393939,0.8095137013435361,0.798014426708221,0.9826725843429569
0.34,-2.5914140330314597,0.457921653270721,-1.94643630237579
0.340606060606061,-3.92783493146896,-0.6916877217292791,-2.3607746812820403
0.341212121212121,-0.570017548656464,-1.3024177021980299,-1.5584431383132902
0.341818181818182,2.35669631853104,-0.138438210010529,0.9994377210617069
0.342424242424242,3.9445942677497903,0.9057903056144709,2.71427170543671
0.343030303030303,1.5184394825935401,0.556117454051971,1.8879899671554599
0.343636363636364,-2.43813278303146,0.577672629833221,-1.01477370471954
0.344242424242424,-3.92783493146896,-0.672527565479279,-2.90204909534454
0.344848484848485,-1.5950859080314599,-1.37426828813553,-1.65424391956329
0.345454545454545,2.09324417009354,-0.203103737354279,0.826996314811707
0.346060606060606,4.03081497087479,-0.0258722920417786,2.61607590465546
0.346666666666667,2.17946487321854,1.03991139936447,2.03169113903046
0.347272727272727,-2.09804000959396,0.903395286083221,-0.6387556383132931
0.347878787878788,-4.148176728343961,-0.38512522172927904,-2.6601521226882903
0.348484848484849,-2.57464889631271,-0.684502663135529,-2.45897048206329
0.349090909090909,1.8130268849372901,-1.31678781938553,0.28093186168670703
0.34969696969697,4.279897002124789,-0.229448952198029,2.61368088512421
0.35030303030303,2.3543012989997902,1.6003459696769702,2.26879807262421
0.350909090909091,-1.32923874006271,0.908185325145721,0.055800025749206596
0.351515151515152,-3.98771041975021,0.359725852489471,-2.5236360094070402
0.352121212121212,-3.20453903303146,-0.600676979541779,-2.62183181018829
0.352727272727273,1.89206252946854,-1.34073801469803,-0.0950862047195434
0.353333333333333,3.6356367482185403,-0.0570075459480286,2.00295090465546
0.353939393939394,2.90515579118729,1.22193288373947,2.07719651012421
0.354545454545455,-0.838259736156464,0.939320579051971,0.345597389030457
0.355151515151515,-3.78652877912521,0.544142356395721,-2.16917311878204
0.355757575757576,-3.2739945994377098,-0.852154030323029,-2.3775398180007903
0.356363636363636,0.18441360368728602,-1.3287629170417798,-0.5764851305007931
0.356969696969697,3.16381790056229,-0.06419260454177861,1.66285813121796
0.357575757575758,3.1662129200935403,0.817174582958221,2.47716477184296
0.358181818181818,0.5101362599372861,1.01117116498947,1.0880534437179599
0.358787878787879,-3.25483444318771,0.22320973920822101,-1.9272761461257901
0.359393939393939,-3.36261032209396,-0.758748268604279,-2.59548659534454
0.36,-0.531697236156464,-1.2904426045417798,-0.866282493782043
0.360606060606061,3.10394241228104,-0.5096662373542791,1.44251633434296
0.361212121212121,3.78891799821854,0.26153005170822097,2.6256559827804598
0.361818181818182,0.704132841968536,1.0279363017082201,1.44970139293671
0.362424242424242,-3.15903366193771,0.584857688426971,-0.942923118782043
0.363030303030303,-3.68833297834396,-0.370755104541779,-2.57872145862579
0.363636363636364,-1.1975126658439599,-0.615047096729279,-1.2303254625320401
0.364242424242424,3.06801711931229,-0.866524147510529,1.0593132093429598
0.364848484848485,4.29187209978104,-0.16238840532302898,2.24484787731171
0.365454545454545,1.3986885060310401,1.31533864545822,1.57424240856171
0.366060606060606,-2.2393461619377097,1.0207512431144699,-0.564510032844543
0.366666666666667,-3.82484909162521,0.577672629833221,-2.51884597034454
0.367272727272727,-1.8920683299064598,-0.557566627979279,-1.6877741930007901
0.367878787878788,2.5842231739997903,-1.18985178422928,0.6809001234054569
0.368484848484848,3.88232375993729,0.0435832743644714,1.88080490856171
0.369090909090909,1.8034468068122902,0.903395286083221,1.55987229137421
0.36969696969697,-1.71723190412521,1.00877614545822,-0.724976341438293
0.37030303030303,-3.87035446271896,0.38128102827072097,-1.91290602893829
0.370909090909091,-1.9854740916252098,-0.844968971729279,-2.0446321031570402
0.371515151515152,1.36036819353104,-1.24493723344803,-0.150171653938293
0.372121212121212,3.72425247087479,0.0699284892082214,2.06043137340546
0.372727272727273,2.45728713884354,0.793224387645721,2.33106858043671
0.373333333333333,-0.9675907908439639,1.0830217509269702,0.0150846937179566
0.373939393939394,-4.06435104475021,0.287875266551971,-2.51645095081329
0.374545454545455,-2.48124313459396,-0.847363991260529,-2.04942214221954
0.375151515151515,1.02267043962479,-1.17308664751053,-0.178911888313293
0.375757575757576,3.69790725603104,-0.567146706104279,1.89996506481171
0.376363636363636,2.83809524431229,0.548932395458221,2.16820725231171
0.376969696969697,-0.404761201000214,0.989615989208221,0.5994694593429569
0.377575757575758,-3.49912643537521,0.36212087202072096,-1.69735427112579
0.378181818181818,-3.1039482127189597,-0.524036354541779,-1.95362136096954
0.378787878787879,0.136513213062286,-1.06531076860428,-0.459129173469543
0.379393939393939,3.4823554982185403,-0.708452858448029,1.4137760999679598
0.38,3.2691987599372903,0.28308522748947096,2.49871994762421
0.380606060606061,0.373620146656036,1.29617848920822,1.21977951793671
0.381212121212121,-3.42248581037521,1.04709645795822,-1.40755690784454
0.381818181818182,-3.93022995100021,0.151359153270721,-2.37514479846954
0.382424242424242,-0.531697236156464,-0.813833717823029,-1.10817946643829
0.383030303030303,3.27398879899979,-0.859339088916779,1.1790641859054598
0.383636363636364,3.84400344743729,0.16812428998947102,1.99337082653046
0.384242424242424,0.323324736499786,1.14529225873947,0.953932349967957
0.384848484848485,-2.70637497053146,1.05907155561447,-0.9333430406570431
0.385454545454545,-3.81526901350021,-0.00192209672927857,-2.4038850328445402
0.386060606060606,-0.840654755687714,-0.806648659229279,-1.2806208726882902
0.386666666666667,2.58661819353104,-1.10842112016678,0.709640357780457
0.387272727272727,3.93740920915604,0.285480247020721,2.0867765882492098
0.387878787878788,1.1160762013435401,1.02314626264572,2.21131760387421
0.388484848484848,-2.22976608381271,0.972850852489471,-0.705816185188293
0.389090909090909,-3.92064987287521,0.26153005170822097,-2.63859694690704
0.38969696969697,-1.4729399119377098,-1.32636789751053,-1.52730788440704
0.39030303030303,2.10282424821854,-1.04136057329178,0.494088599967957
0.390909090909091,3.92064407243729,-0.442605690479279,1.8065593030929599
0.391515151515152,1.8776924122810401,0.486661887645721,1.49999680309296
0.392121212121212,-1.7124418650627098,1.0207512431144699,-0.13101149768829298
0.392727272727273,-4.02363571271896,0.419601340770721,-2.06858229846954
0.393333333333333,-2.0764848338127098,-0.392310280323029,-1.86979567737579
0.393939393939394,1.4657490529060402,-0.947954811573029,0.230636451530457
0.394545454545455,4.00207473649979,-0.638997292041779,1.96223557262421
0.395151515151515,2.74468948259354,0.484266868114471,1.9358903577804598
0.395757575757576,-1.0490214549064598,1.2243279032707202,0.496483619499207
0.396363636363636,-3.80329391584396,0.812384543895721,-1.70693434925079
0.396969696969697,-2.9674320994377097,-0.0282673115730286,-2.30568923206329
0.397575757575758,0.874179228687286,-0.983880104541779,-0.126221458625793
0.398181818181818,3.52786086931229,-0.763538307666779,1.56226731090546
0.398787878787879,3.12549758806229,0.26392507123947095,2.0364811780929597
0.399393939393939,-0.919690400218964,1.11655202436447,0.7216154554367069
0.4,-3.29794479475021,0.977640891551971,-1.06985915393829
0.400606060606061,-3.10634323225021,-0.07137766313552861,-1.6350837633132902
0.401212121212121,0.124538115406036,-1.05573069047928,-0.528584739875793
0.401818181818182,3.26201370134354,-1.1539264912605298,0.987462623405457
0.402424242424242,3.30751907243729,0.146569114208221,1.86403977184296
0.403030303030303,-0.14130905256271398,1.0614665751457202,1.31318527965546
0.403636363636364,-2.90276657209396,0.654313254833221,-1.55125807971954
0.404242424242424,-3.6931230174064598,0.194469504833221,-2.4469953844070402
0.404848484848485,-0.17004928693771398,-1.4054035420417799,-0.686656028938293
0.405454545454545,3.1326826466560402,-1.07728586626053,1.27486496715546
0.406060606060606,3.58773635759354,-0.102512917041779,1.92870529918671
0.406666666666667,0.795143584156036,0.493846946239471,1.11200363903046
0.407272727272727,-2.75427536115646,1.07344167280197,-0.7800617906570431
0.407878787878788,-3.62366745100021,0.146569114208221,-1.93206618518829
0.408484848484849,-1.2885234080314598,-0.660552467823029,-1.09380934925079
0.409090909090909,2.37585647478104,-0.8689191670417791,0.5827043226242069
0.40969696969697,3.95417434587479,-0.5120612568855291,1.81374436168671
0.41030303030303,1.7220161427497902,0.635153098583221,1.48323166637421
0.410909090909091,-2.08127487287521,1.39437428998947,-0.313032982063293
0.411515151515152,-4.14578170881271,1.11655202436447,-2.17156813831329
0.412121212121212,-1.93517868146896,-0.401890358448029,-1.52730788440704
0.412727272727273,2.04294875993729,-1.07968088579178,0.606654517936707
0.413333333333333,3.63324172868729,-0.552776588916779,1.0497331312179599
0.413939393939394,2.1746748341560402,0.299850364208221,1.06410324840546
0.414545454545455,-1.6525663767814598,1.2842033915519702,0.175551002311707
0.415151515151515,-3.80329391584396,0.819569602489471,-2.06379225940704
0.415757575757576,-2.6153642283439598,-0.361175026416779,-1.7380696031570402
0.416363636363636,1.2957026661872901,-1.14195139360428,-0.0974812242507934
0.416969696969697,3.68353713884354,-1.09644602251053,1.11200363903046
0.417575757575758,2.52674270524979,0.580067649364471,2.02929611949921
0.418181818181818,-1.25499313459396,1.3656340556144702,0.424633033561707
0.418787878787879,-3.74102340803146,0.49145192670822097,-1.9176960680007902
0.419393939393939,-2.8476811228752097,0.0555583720207214,-2.20988845081329
0.42,1.23822219743729,-1.45809397172928,-0.183701927375793
0.420606060606061,3.76975784196854,-0.880894264698029,1.6101677015304598
0.421212121212121,2.86923049821854,0.366910911083221,1.83529953746796
0.421818181818182,-0.21076461896896398,0.8075945048332209,0.690480201530457
0.422424242424242,-3.1973539744377097,0.881840110301971,-1.1488947984695401
0.423030303030303,-3.17340377912521,-0.0402424092292786,-1.6829841539382902
0.423636363636364,-0.148494111156464,-0.837783913135529,-0.7561115953445431
0.424242424242424,3.12789260759354,-0.804253639698029,0.8365763929367069
0.424848484848485,3.55660110368729,-0.634207252979279,1.80895432262421
0.425454545454545,0.601147002124786,0.651918235301971,1.04733811168671
0.426060606060606,-2.79259567365646,1.29138845014572,-1.05309401721954
0.426666666666667,-3.72186325178146,0.551327414989471,-2.1643830797195402
0.427272727272727,-0.900530243968964,-0.382730202198029,-1.1393147203445402
0.427878787878788,2.91234084978104,-0.945559792041779,1.0281779554367099
0.428484848484848,3.65719192399979,-0.686897682666779,1.36108567028046
0.429090909090909,1.2813325489997902,0.642338157176971,0.7767009046554569
0.42969696969697,-2.6417094431877097,1.4470647196769701,-0.169331810188293
0.43030303030303,-4.04279586896896,0.582462668895721,-1.25427565784454
0.430909090909091,-1.48251999006271,-0.155203346729279,-1.4985676500320402
0.431515151515152,2.28245071306229,-1.12518625688553,0.16836594371795702
0.432121212121212,4.06434524431229,-1.05333567094803,1.71075852184296
0.432727272727273,1.7914717091560401,0.970455832958221,1.4185661390304598
0.433333333333333,-1.98307907209396,1.3488689188957201,-0.255552513313293
0.433939393939394,-3.96376022443771,0.513007102489471,-2.17635817737579
0.434545454545455,-1.8441679392814598,-0.43542063188552904,-1.3788166734695402
0.435151515151515,2.05731887712479,-1.57784494829178,0.482113502311707
0.435757575757576,3.45122024431229,-0.370755104541779,1.4952067640304598
0.436363636363636,1.94714797868729,0.414811301708221,1.24851975231171
0.436969696969697,-1.2573881541252099,0.671078391551971,0.0174797132492066
0.437575757575758,-3.23806930646896,0.802804465770721,-1.4818025133132902
0.438181818181818,-2.30161666975021,-0.270164284229279,-1.4554572984695402
0.438787878787879,0.900524443531036,-1.09165598344803,-0.255552513313293
0.439393939393939,3.55420608415604,-0.634207252979279,1.2293595960617099
0.44,2.6608637989997903,-0.255794167041779,1.5287370374679599
0.440606060606061,-0.684978486156464,0.572882590770721,0.5371989515304569
0.441212121212121,-3.25243942365646,1.47101491498947,-1.07704421253204
0.441818181818182,-3.15903366193771,0.577672629833221,-2.06858229846954
0.442424242424242,0.0143672169685364,-0.423445534229279,-0.583670189094543
0.443030303030303,3.42727004899979,-0.715637917041779,1.63411789684296
0.443636363636364,3.58055129899979,-0.607862038135529,1.1527189710617098
0.444242424242424,-0.134123993968964,0.994406028270721,0.453373267936707
0.444848484848485,-3.11352829084396,1.38958425092697,-0.526189720344543
0.445454545454545,-3.3099198924064597,0.510612082958221,-2.26257888050079
0.446060606060606,-0.589177704906464,-0.353989967823029,-0.621990501594543
0.446666666666667,3.04167190446854,-1.52036447954178,0.891661842155457
0.447272727272727,3.77694290056229,-0.703662819385529,1.3323454359054598
0.447878787878788,0.383200224781036,0.948900657176971,1.1575090101242098
0.448484848484848,-2.92911178693771,0.901000266551971,-1.06027907581329
0.449090909090909,-3.5134965525627098,0.479476829051971,-1.99194167346954
0.44969696969697,-0.610732880687714,-0.9886701436042791,-1.00998366565704
0.45030303030303,2.86204543962479,-1.3718732686042798,0.613839576530457
0.450909090909091,3.34104934587479,-0.31806467485427903,1.65567307262421
0.451515151515152,1.20229690446854,0.278295188426971,0.913217017936707
0.452121212121212,-2.39262741193771,0.936925559520721,-0.511819603157043
0.452727272727273,-3.18537887678146,0.364515891551971,-1.6877741930007901
0.453333333333333,-1.2454130564689598,-0.468950905323029,-1.3955818101882902
0.453939393939394,1.7100410450935402,-0.636602272510529,0.439003150749207
0.454545454545455,3.51828079118729,-0.442605690479279,1.48083664684296
0.455151515151515,2.09563918962479,0.0579533915519714,1.0545231702804598
0.455757575757576,-1.5400004588127099,0.836334739208221,-0.0543708726882934
0.456363636363636,-3.46799118146896,1.3608440165519702,-1.7380696031570402
0.456969696969697,-2.3854423533439597,0.20165456342697102,-1.6781941148757902
0.457575757575758,1.1975068654060401,-0.516851295948029,0.436608131217957
0.458181818181818,3.3889497364997903,-0.480926002979279,0.8629216077804569
0.458787878787879,2.84528030290604,-0.9695099873542791,1.0928434827804598
0.459393939393939,-0.900530243968964,0.812384543895721,0.271351783561707
0.46,-3.61887741193771,1.35365895795822,-1.58718337268829
0.460606060606061,-2.84289108381271,0.27350514936447096,-0.866282493782043
0.461212121212121,0.332904814624786,-0.370755104541779,-0.6555207750320431
0.461818181818182,3.60929153337479,-1.50599436235428,0.498878639030457
0.462424242424242,3.05843704118729,-0.373150124073029,2.10593674449921
0.463030303030303,-0.692163544750214,1.38000417280197,0.6976652601242069
0.463636363636364,-3.4536210642814598,0.889025168895721,-1.5033576890945402
0.464242424242424,-2.96503707990646,0.553722434520721,-2.14043288440704
0.464848484848485,0.31613967790603603,-1.45809397172928,-0.320218040657043
0.465454545454545,3.41768997087479,-1.58263498735428,1.45449143199921
0.466060606060606,2.75666458024979,0.12022389936447099,1.56945236949921
0.466666666666667,0.16285842790603602,0.42199636030197096,0.712035377311707
0.467272727272727,-2.78062057600021,0.6471281962394709,-1.0626740953445402
0.467878787878788,-2.88839645490646,0.436366477489471,-1.72848952503204
0.468484848484849,-0.6274980174064639,-0.507271217823029,-0.41841384143829297
0.469090909090909,2.53153274431229,-0.703662819385529,0.6186296155929569
0.46969696969697,3.36978958024979,-0.353989967823029,0.973092506217957
0.47030303030303,1.3076777638435402,-0.00192209672927857,0.8581315687179569
0.470909090909091,-2.30401168928146,0.6854485087394709,-0.5740901109695431
0.471515151515151,-3.59732223615646,0.896210227489471,-1.47222243518829
0.472121212121212,-1.2717582713127098,0.287875266551971,-0.748926536750793
0.472727272727273,1.61424026384354,-0.40668039751052903,0.338412330436707
0.473333333333333,3.60689651384354,-0.7491681904792791,1.36827072887421
0.473939393939394,2.03336868181229,-0.653367409229279,0.894056861686707
0.474545454545455,-1.7507621775627098,1.2291179423332201,-0.284292747688293
0.475151515151515,-3.58774215803146,1.21714284467697,-1.00758864612579
0.475757575757576,-2.23695114240646,0.376490989208221,-1.90332595081329
0.476363636363636,1.13044631853104,-0.873709206104279,0.0821452405929566
0.476969696969697,3.78652297868729,-1.51796946001053,1.64609299449921
0.477575757575758,1.98067825212479,0.23278981733322102,1.09044846324921
0.478181818181818,-1.3268437205314598,1.08062673139572,-0.0998762437820434
0.478787878787879,-3.5230766306877097,0.776459250926971,-1.9655964586257901
0.479393939393939,-2.6680546580314597,-0.0474274678230286,-1.5464680406570401
0.48,1.7531513966560401,-1.59221506547928,0.278536842155457
0.480606060606061,3.63803176774979,-1.27846750688553,0.9227970960617069
0.481212121212121,1.6621406544685402,0.307035422801971,1.26288986949921
0.481818181818182,-0.917295380687714,0.702213645458221,-0.0950862047195434
0.482424242424242,-3.4368559275627097,0.7860393290519709,-1.1441047594070402
0.483030303030303,-2.41657760725021,0.184889426708221,-0.353748314094543
0.483636363636364,0.637072295093536,-0.741983131885529,-0.372908470344543
0.484242424242424,2.63930862321854,-0.598281960010529,0.791071021842957
0.484848484848485,2.70157913103104,-0.301299538135529,1.80416428356171
0.485454545454545,0.177228545093536,0.0292131571769714,0.484508521842957
0.486060606060606,-2.93629684553146,1.02554128217697,-0.964478294563293
0.486666666666667,-2.8381010447502097,0.812384543895721,-1.32133620471954
0.487272727272727,-0.500561982250214,-0.104907936573029,-0.6746809312820431
0.487878787878788,2.0118135060310403,-0.636602272510529,1.3107902601242098
0.488484848484848,3.64282180681229,-0.967114967823029,0.910821998405457
0.489090909090909,0.938844756031036,-0.44739572954177903,0.22345139293670702
0.48969696969697,-2.22497604475021,1.09020680952072,0.127650611686707
0.49030303030303,-3.53744674787521,1.00638112592697,-2.21228347034454
0.490909090909091,-1.67891159162521,0.0340031962394714,-0.768086693000793
0.491515151515152,2.25371047868729,-0.763538307666779,0.949142310905457
0.492121212121212,3.96854446306229,-1.73831125688553,0.0869352796554566
0.492727272727273,1.5040693654060402,0.235184836864471,1.01141281871796
0.493333333333333,-2.33514694318771,1.56442067670822,0.0198747327804566
0.493939393939394,-3.59732223615646,0.683053489208221,-1.38121169300079
0.494545454545455,-1.1903276072502098,-0.12167307329177901,-1.04830397815704
0.495151515151515,2.3447212208747903,-1.45090891313553,0.427028053092957
0.495757575757576,3.36020950212479,-1.00064524126053,1.79218918590546
0.496363636363636,1.48490920915604,0.388466086864471,0.9778825452804569
0.496969696969697,-1.7076518260002098,0.814779563426971,-0.138196556282043
0.497575757575758,-3.1374784861564597,0.877050071239471,-0.665100853157043
0.498181818181818,-1.5064701853752098,0.153754172801971,-1.6494538805007901
0.498787878787879,1.4873042286872902,-0.835388893604279,0.0917253187179566
0.499393939393939,2.85965042009354,-0.5120612568855291,1.95505051403046
0.5,2.11000930681229,0.0819035868644714,0.417447974967957
0.500606060606061,-0.661028290843964,-0.00671213579177857,-0.265132591438293
0.501212121212121,-2.81175582990646,1.00398610639572,-0.861492454719543
0.501818181818182,-2.6153642283439598,0.6471281962394709,-1.27822585315704
0.502424242424242,0.419125517749786,-0.17196848344802898,0.606654517936707
0.503030303030303,2.60817336931229,-0.330039772510529,0.745565650749207
0.503636363636364,2.79498489274979,-1.0293854756355298,0.549174049186707
0.504242424242424,0.546061552906036,0.11543386030197099,0.266561744499207
0.504848484848485,-2.89558151350021,1.23869802045822,-1.40276686878204
0.505454545454545,-2.97222213850021,0.678263450145721,-0.12143141956329301
0.506060606060606,-0.435896454906464,0.40283620405197096,-0.6195954820632931
0.506666666666667,2.65128372087479,-1.00543528032303,-0.686656028938293
0.507272727272727,3.36739456071854,-1.67843576860428,2.53943527965546
0.507878787878788,0.258659209156036,0.637548118114471,1.51915695934296
0.508484848484849,-3.11831832990646,1.55484059858322,-1.3404963609695402
0.509090909090909,-3.10155319318771,0.874655051708221,-1.9009309312820402
0.50969696969697,-0.356860810375214,-0.473740944385529,-1.21356032581329
0.51030303030303,2.8500703419685403,-1.9227277607917799,1.18385422496796
0.510909090909091,3.32667922868729,-0.713242897510529,1.50478684215546
0.511515151515151,0.505346220874786,0.671078391551971,0.338412330436707
0.512121212121212,-2.09085495100021,0.850704856395721,-0.5597199937820431
0.512727272727273,-2.56985885725021,0.534562278270721,-2.38472487659454
0.513333333333333,-1.49210006818771,-0.392310280323029,-0.547744896125793
0.513939393939394,2.18425491228104,-0.792278542041779,1.54310715465546
0.514545454545455,2.69439407243729,-0.248609108448029,-0.0926911851882934
0.515151515151515,1.35797317399979,0.424391379833221,0.441398170280457
0.515757575757576,-1.0490214549064598,0.295060325145721,0.462953346061707
0.516363636363636,-3.20932907209396,1.0614665751457202,-1.46743239612579
0.516969696969697,-1.86811813459396,0.448341575145721,-0.583670189094543
0.517575757575758,1.2645674122810402,0.0747185282707214,-0.0687409898757934
0.518181818181818,2.70157913103104,-0.428235573291779,1.0377580335617098
0.518787878787879,2.51237258806229,-1.17308664751053,1.34671555309296
0.519393939393939,-0.857419892406464,0.386071067333221,-0.219627220344543
0.52,-3.36500534162521,1.0207512431144699,0.24740158824920702
0.520606060606061,-2.38783737287521,1.06386159467697,-1.4003718492507902
0.521212121212121,-0.30417038068771396,-0.0162922139167786,-1.1057844469070401
0.521818181818182,3.2596186818122903,-1.5467096943855299,2.70948166637421
0.522424242424242,2.96742629899979,-0.7108478779792791,1.43772629528046
0.523030303030303,-0.675398408031464,0.668683372020721,-1.22793044300079
0.523636363636364,-3.33866012678146,1.28180837202072,-1.6949592515945402
0.524242424242424,-2.65607956037521,0.7070036845207209,-1.48898757190704
0.524848484848485,0.457445830249786,-1.22338205766678,-0.0974812242507934
0.525454545454546,3.44643020524979,-1.48443918657303,0.635394752311707
0.526060606060606,2.10042922868729,-0.468950905323029,1.0880534437179599
0.526666666666667,0.052687529468536394,0.651918235301971,0.204291236686707
0.527272727272727,-2.78541061506271,0.929740500926971,-1.70214431018829
0.527878787878788,-2.51956344709396,0.13219899702072102,-0.293872825813293
0.528484848484848,0.19399368181228602,-0.253399147510529,1.0880534437179599
0.529090909090909,2.7135542286872902,-0.344409889698029,-0.5381648180007931
0.52969696969697,2.23215530290604,-0.588701881885529,1.1742741468429598
0.53030303030303,0.644257353687286,-0.004317116260528569,1.77063401012421
0.530909090909091,-1.8321928416252098,0.369305930614471,-1.2638557359695402
0.531515151515151,-2.7446952830314597,1.07823171186447,-0.768086693000793
0.532121212121212,-0.665818329906464,0.5273772196769709,-0.708211204719543
0.532727272727273,1.12086624040604,-0.411470436573029,0.5228288343429569
0.533333333333333,2.84767532243729,-0.260584206104279,1.24133469371796
0.533939393939394,1.41305862321854,-0.8713141865730291,-0.6555207750320431
0.534545454545455,-1.3268437205314598,0.38128102827072097,0.352782447624207
0.535151515151515,-2.79259567365646,1.4422746806144702,-1.84345046253204
0.535757575757576,-2.12678024396896,0.663893332958221,-2.64099196643829
0.536363636363636,0.862204131031036,-0.514456276416779,2.15383713512421
0.536969696969697,3.71946243181229,-0.981485085010529,1.0593132093429598
0.537575757575758,1.9926533497810401,-0.380335182666779,-1.43629714221954
0.538181818181818,-1.20948776350021,0.671078391551971,-0.25794753284454297
0.538787878787879,-3.68114791975021,1.03033132123947,-0.188491966438293
0.539393939393939,-1.62382614240646,0.299850364208221,-0.564510032844543
0.54,1.7866816700935402,-0.844968971729279,-0.30824294300079297
0.540606060606061,3.13747268571854,-1.17548166704178,0.5204338148117069
0.541212121212121,1.96870315446854,-0.270164284229279,1.4904167249679598
0.541818181818182,-1.10171188459396,0.697423606395721,-0.6004353258132931
0.542424242424242,-3.11831832990646,0.728558860301971,-0.126221458625793
0.543030303030303,-1.32444870100021,0.33338063764572096,-0.0759260484695434
0.543636363636364,0.601147002124786,-0.49529612016677904,-2.17396315784454
0.544242424242424,2.16269973649979,-1.01741037797928,1.4305412366867098
0.544848484848485,2.0716889943122903,-0.0498224873542786,2.34064865856171
0.545454545454545,-0.38320602521896396,0.230394797801971,-0.9405280992507931
0.546060606060606,-2.24653122053146,0.513007102489471,-1.0674641344070401
0.546666666666667,-2.28006149396896,0.683053489208221,-1.04830397815704
0.547272727272727,-0.299380341625214,0.0842986063957214,0.144415748405457
0.547878787878788,1.80584182634354,-0.08574778032302861,1.34192551403046
0.548484848484848,2.40220168962479,-0.27734934282302903,-0.327403099250793
0.549090909090909,0.586776884937286,-0.622232155323029,0.5587541273117069
0.54969696969697,-1.5280253611564598,0.5058220438957209,-1.07225417346954
0.55030303030303,-3.41769577131271,0.8267546610832209,-1.1488947984695401
0.550909090909091,-0.914900361156464,0.426786399364471,2.00534592418671
0.551515151515152,1.84895217790604,0.0771135478019714,-0.8590974351882931
0.552121212121212,2.5243476857185403,-1.32636789751053,-0.808802025032043
0.552727272727273,1.2094819630622902,-0.734798073291779,2.97053879528046
0.553333333333333,-1.9088334666252098,1.21714284467697,0.13244065074920702
0.553939393939394,-2.9674320994377097,1.3608440165519702,-2.42783522815704
0.554545454545455,-0.845444794750214,-0.27734934282302903,-1.37642165393829
0.555151515151515,2.0884541310310403,-0.952744850635529,0.886871803092957
0.555757575757576,3.06801711931229,-1.10123606157303,1.4257511976242099
0.556363636363636,1.16876663103104,0.00765798139572143,-0.509424583625793
0.556969696969697,-2.16749557600021,0.848309836864471,0.5803093030929569
0.557575757575758,-2.07408981428146,0.445946555614471,-0.847122337532043
0.558181818181818,-0.905320283031464,0.0387932353019714,-2.76553298206329
0.558787878787879,0.864599150562286,-0.8713141865730291,1.60777268199921
0.559393939393939,2.9530561818122902,-0.919214577198029,2.21131760387421
0.56,1.37473831071854,0.357330832958221,-1.52730788440704
0.560606060606061,-1.10650192365646,-0.248609108448029,-0.451944114875793
0.561212121212121,-2.37107223615646,0.254344993114471,-0.25794753284454297
0.561818181818182,-1.97828903303146,0.692633567333221,-0.7177912828445431
0.562424242424242,0.831068877124786,0.304640403270721,0.8581315687179569
0.563030303030303,1.8250019825935402,0.28308522748947096,0.316857154655457
0.563636363636364,1.9016426075935402,-0.821018776416779,1.04733811168671
0.564242424242424,0.186808623218536,-0.433025612354279,-0.329798118782043
0.564848484848485,-2.6584745799064597,0.661498313426971,-0.806407005500793
0.565454545454545,-2.01181930646896,0.903395286083221,1.49281174449921
0.566060606060606,-0.356860810375214,0.771669211864471,-2.09013747425079
0.566666666666667,1.8345820607185401,-0.5312214131355291,-0.547744896125793
0.567272727272727,2.86444045915604,-1.2521222920417798,3.5836637952804598
0.567878787878788,0.0215522755622864,-0.19591867876052899,0.199501197624207
0.568484848484848,-2.38783737287521,0.884235129833221,-2.12606276721954
0.569090909090909,-2.4022074900627097,1.09020680952072,-1.6494538805007901
0.56969696969697,-0.237109833812714,-0.667737526416779,0.0366398694992066
0.57030303030303,2.44052200212479,-1.24972727251053,1.28205002574921
0.570909090909091,2.57943313493729,-0.943164772510529,0.175551002311707
0.571515151515152,0.22752395524978603,-0.07616770219802861,0.283326881217957
0.572121212121212,-1.8226127635002098,1.00638112592697,-1.25667067737579
0.572727272727273,-2.11480514631271,0.101063743114471,-2.26257888050079
0.573333333333333,-0.581992646312714,-0.5719367451667791,1.4784416273117098
0.573939393939394,2.1818598927497903,-0.0138971943855286,1.35150559215546
0.574545454545455,1.78428665056229,-0.25818918657302903,-1.4051618883132901
0.575151515151515,0.514926298999786,-0.06898264360427861,0.929982154655457
0.575757575757576,-1.1160820017814599,0.0292131571769714,0.403077857780457
0.576363636363636,-2.28724655256271,0.40283620405197096,-0.9764533922195431
0.576969696969697,-0.7280888377189639,0.951295676708221,0.23303147106170702
0.577575757575758,0.981955107593536,0.27350514936447096,-0.229207298469543
0.578181818181818,1.53999465837479,-0.533616432666779,1.1790641859054598
0.578787878787879,1.48011917009354,-0.528826393604279,0.786280982780457
0.579393939393939,-0.950825654125214,-0.40668039751052903,-0.5812751695632931
0.58,-2.1363603220939598,0.733348899364471,0.347992408561707
0.580606060606061,-1.58071579084396,1.90690846967697,-2.56195632190704
0.581212121212121,-0.0455082713127136,-0.284534401416779,-0.0998762437820434
0.581818181818182,2.39741165056229,-1.1491364521980298,3.82077072887421
0.582424242424242,1.52322952165604,0.0268181376457214,-1.13452468128204
0.583030303030303,-0.5269071970939639,-0.262979225635529,-2.17635817737579
0.583636363636364,-2.58422897443771,0.829149680614471,-0.262737571907043
0.584242424242424,-1.9255986033439598,0.639943137645721,0.431818092155457
0.584848484848485,0.998720244312286,-0.646182350635529,0.379127662467957
0.585454545454545,2.48602737321854,-0.686897682666779,-0.406438743782043
0.586060606060606,1.39629348649979,-0.8305988545417791,1.1862492444992099
0.586666666666667,-0.474216767406464,0.467501731395721,0.125255592155457
0.587272727272727,-2.41657760725021,0.615992942333221,-1.55604811878204
0.587878787878788,-1.5495805369377098,-0.22226389360427898,1.38024582653046
0.588484848484848,0.526901396656036,0.18728444623947102,-0.11903640003204301
0.589090909090909,1.58789504899979,-0.31566965532302904,-1.3572614976882902
0.58969696969697,1.43461379899979,-0.832993874073029,2.37417893199921
0.59030303030303,0.06945266618728639,0.369305930614471,0.673715064811707
0.590909090909091,-1.2789433299064599,-0.0522175068855286,-1.75722975940704
0.591515151515152,-1.3771391306877099,0.290270286083221,-0.602830345344543
0.592121212121212,-0.560437470531464,0.532167258739471,-0.12382643909454301
0.592727272727273,0.799933623218536,-0.198313698291779,1.18864426403046
0.593333333333333,1.59747512712479,-0.11927805376052901,-0.032815696907043404
0.593939393939394,0.41433547868728604,-0.624627174854279,-0.612410423469543
0.594545454545455,-0.502957001781464,-0.39470529985427905,0.256981666374207
0.595151515151515,-1.9758940135002099,1.3488689188957201,-2.46855056018829
0.595757575757576,-1.8872782908439598,0.592042747020721,0.319252174186707
0.596363636363636,0.663417509937286,-0.104907936573029,2.43165940074921
0.596969696969697,2.27047561540604,-0.24142404985427898,-1.95841140003204
0.597575757575758,1.2693574513435402,-1.25691233110428,-0.475894310188293
0.598181818181818,-1.0609965525627099,0.146569114208221,1.8113493421554598
0.598787878787879,-2.78062057600021,1.11655202436447,-0.0926911851882934
0.599393939393939,-1.16637741193771,0.24236989545822102,-1.3500764390945401
0.6,1.26696243181229,-0.804253639698029,-0.25794753284454297
0.600606060606061,2.09803420915604,-0.715637917041779,1.8544596937179598
0.601212121212121,1.5567597950935401,-0.34680490922927903,0.7216154554367069
0.601818181818182,-1.3699540720939598,0.33098561811447097,-0.969268333625793
0.602424242424242,-2.39981247053146,0.697423606395721,0.712035377311707
0.603030303030303,-0.172444306468964,0.345355735301971,-1.0962043687820402
0.603636363636364,0.728083037281036,-0.229448952198029,-1.25427565784454
0.604242424242424,1.6669306935310402,-0.935979713916779,2.80049240856171
0.604848484848485,1.3028877247810402,0.110643821239471,0.21387131481170701
0.605454545454545,-0.7280888377189639,0.27111012983322097,-2.05421218128204
0.606060606060606,-1.2621781931877099,-0.22226389360427898,-0.763296653938293
0.606666666666667,-1.1975126658439599,0.517797141551971,-0.19567702503204298
0.607272727272727,-0.0886186228752136,0.319010520458221,0.805441139030457
0.607878787878788,1.4370088185310401,0.388466086864471,0.453373267936707
0.608484848484849,1.1496064747810402,0.194469504833221,0.11807053356170699
0.609090909090909,0.593961943531036,-0.612652077198029,0.321647193717957
0.60969696969697,-1.00112106428146,-0.0977228779792786,-1.93685622425079
0.61030303030303,-2.22976608381271,0.592042747020721,1.48323166637421
0.610909090909091,-0.33291061506271397,1.19798268842697,1.9909758069992098
0.611515151515152,0.962794951343536,0.24236989545822102,-2.55237624378204
0.612121212121212,1.59987014665604,-1.04375559282303,1.0545231702804598
0.612727272727273,0.835858916187286,-0.588701881885529,2.77893723278046
0.613333333333333,-1.6310112010002098,0.448341575145721,-1.15847487659454
0.613939393939394,-2.1291752635002097,1.2722282938957201,-2.52124098987579
0.614545454545455,-0.560437470531464,-0.0234772725105286,-0.47828932971954297
0.615151515151515,1.59747512712479,-0.952744850635529,1.47125656871796
0.615757575757576,2.3614863575935403,-0.876104225635529,0.644974830436707
0.616363636363636,0.280214384937286,-0.203103737354279,-0.7992219469070431
0.616969696969697,-1.52563034162521,0.32380055952072095,0.338412330436707
0.617575757575758,-1.35797897443771,0.520192161083221,-1.99194167346954
0.618181818181818,-0.42392135725021396,-0.49529612016677904,-0.962083275032043
0.618787878787879,1.01548538103104,-0.392310280323029,3.44954270153046
0.619393939393939,1.9064326466560402,0.000472922801971429,-0.0687409898757934
0.62,0.160463408374786,-0.08574778032302861,-1.72848952503204
0.620606060606061,-1.00112106428146,0.09866872358322139,0.506063697624207
0.621212121212121,-1.1903276072502098,-0.18633860063552898,0.0366398694992066
0.621818181818182,-0.593967743968964,0.6064128642082209,-0.274712669563293
0.622424242424242,0.663417509937286,0.723768821239471,0.513248756217957
0.623030303030303,0.946029814624786,0.000472922801971429,0.472533424186707
0.623636363636364,0.663417509937286,-0.243819069385529,0.544384010124207
0.624242424242424,-0.158074189281464,-0.464160866260529,-0.9381330797195431
0.624848484848485,-1.3436088572502098,-0.382730202198029,0.973092506217957
0.625454545454545,-1.26457321271896,1.40634938764572,-0.212442161750793
0.626060606060606,-0.122148896312714,0.982430930614471,-2.98347975940704
0.626666666666667,1.37952834978104,-0.924004616260529,2.59931076793671
0.627272727272727,1.5208345021247902,-0.543196510791779,2.13228195934296
0.627878787878788,-0.0239530955314636,-0.282139381885529,-2.68170729846954
0.628484848484849,-1.6262211619377098,0.287875266551971,-1.6997492906570402
0.629090909090909,-2.06450973615646,0.704608664989471,0.23782151012420702
0.62969696969697,0.261054228687286,-0.619837135791779,1.0545231702804598
0.63030303030303,1.9399629200935402,-0.725217995166779,0.477323463249207
0.630909090909091,1.3891084279060402,-0.622232155323029,-0.315428001594543
0.631515151515151,-0.19639450178146398,-0.353989967823029,0.5395939710617069
0.632121212121212,-1.7148368845939599,0.879445090770721,-1.65424391956329
0.632727272727273,-1.74357711896896,0.0866936259269714,-0.219627220344543
0.633333333333333,0.48618606462478603,-0.382730202198029,2.34783371715546
0.633939393939394,1.81063186540604,0.570487571239471,-1.13452468128204
0.634545454545455,1.19511184587479,-0.48571604204177904,-0.336983177375793
0.635151515151515,0.0047871388435364,-0.210288795948029,1.91912522106171
0.635757575757576,-1.12326706037521,0.19207448530197102,-0.6746809312820431
0.636363636363636,-0.950825654125214,-0.08095774126052861,-1.0794392320632902
0.636969696969697,-0.0862236033439636,0.6471281962394709,-0.0136555406570434
0.637575757575758,0.752033232593536,0.33338063764572096,0.434213111686707
0.638181818181818,1.34360305681229,-0.26776926469802903,0.774305885124207
0.638787878787879,0.234709013843536,-0.368360085010529,-0.708211204719543
0.639393939393939,-0.505352021312714,-0.514456276416779,0.501273658561707
0.64,-0.775989228343964,0.6279680399894709,-1.03153884143829
0.640606060606061,-1.31965866193771,1.19558766889572,-1.8841657945632901
0.641212121212121,0.18920364274978602,-0.413865456104279,3.00406906871796
0.641818181818182,1.5208345021247902,0.0483733134269714,1.20301438121796
0.642424242424242,0.831068877124786,-0.423445534229279,-2.8733088609695403
0.643030303030303,-0.0431132517814636,-0.9287946553230291,-0.260342552375793
0.643636363636364,-2.04534957990646,1.0207512431144699,0.9970427015304569
0.644242424242424,-1.2454130564689598,0.8051994853019709,-0.19567702503204298
0.644848484848485,1.01309036149979,-0.5312214131355291,-0.411228782844543
0.645454545454546,1.2358271779060401,-0.22226389360427898,0.525223853874207
0.646060606060606,1.3244429005622902,-0.567146706104279,1.32037033824921
0.646666666666667,-0.596362763500214,-0.0498224873542786,-1.27343581409454
0.647272727272727,-2.2656913767814597,0.649523215770721,0.455768287467957
0.647878787878788,-0.651448212718964,0.0363982157707214,0.769515846061707
0.648484848484848,1.29330764665604,0.160939231395721,-1.8458454820632901
0.649090909090909,0.962794951343536,-0.37554514360427904,0.7192204359054569
0.64969696969697,1.0514106739997902,-0.938374733448029,1.92152024059296
0.65030303030303,-0.673003388500214,0.350145774364471,-1.4985676500320402
0.650909090909091,-1.0490214549064598,0.208839622020721,-1.7811799547195402
0.651515151515151,-0.792754365062714,-0.18154856157302898,0.146810767936707
0.652121212121212,-0.20597457990646398,0.695028586864471,0.5611491468429569
0.652727272727273,0.773588408374786,0.268715110301971,0.8006510999679569
0.653333333333333,0.49576614274978603,0.251949973583221,-0.490264427375793
0.653939393939394,0.057477568531036395,-0.33722483110427903,-0.032815696907043404
0.654545454545455,-0.385601044750214,-0.536011452198029,-1.1105744859695401
0.655151515151515,-1.09692184553146,0.40283620405197096,-0.566905052375793
0.655757575757576,-0.749644013500214,0.874655051708221,2.60649582653046
0.656363636363636,0.586776884937286,0.541747336864471,-0.971663353157043
0.656969696969697,0.713712920093536,-0.31806467485427903,-1.47222243518829
0.657575757575758,0.775983427906036,-0.660552467823029,2.21850266246796
0.658181818181818,-0.9867509470939639,-0.6102570576667791,0.194711158561707
0.658787878787879,-1.5998759470939599,0.9057903056144709,-1.79315505237579
0.659393939393939,-0.591572724437714,0.862679954051971,-1.1656599351882901
0.66,1.1376313771247901,-0.5910969014167791,0.530013892936707
0.660606060606061,1.48011917009354,-0.47613596391677904,1.17187912731171
0.661212121212121,0.459840849781036,-0.49769113969802903,-0.6746809312820431
0.661818181818182,-1.00112106428146,-0.164783424854279,-0.346563255500793
0.662424242424242,-1.24780807600021,0.877050071239471,-1.5847883531570401
0.663030303030303,-0.546067353343964,-0.5120612568855291,-2.14282790393829
0.663636363636364,0.993930205249786,-0.6892927021980291,2.82923264293671
0.664242424242424,1.39629348649979,0.28069020795822097,1.67243820934296
0.664848484848485,0.392780302906036,-0.128858131885529,-2.48292067737579
0.665454545454545,-1.10171188459396,0.09387868452072139,-0.0974812242507934
0.666060606060606,-1.2023027049064599,-0.239029030323029,0.594679420280457
0.666666666666667,-0.153284150218964,-0.193523659229279,-0.0783210680007934
0.667272727272727,0.330509795093536,1.09978688764572,0.254586646842957
0.667878787878788,1.03704055681229,0.558512473583221,0.175551002311707
0.668484848484848,0.682577666187286,-0.150413307666779,0.7599357679367069
0.669090909090909,-0.0215580760002136,0.129803977489471,-0.9141828844070431
0.66969696969697,-1.03704635725021,-1.14674143266678,-0.0831111070632934
0.67030303030303,-0.723298798656464,0.467501731395721,1.20301438121796
0.670909090909091,-0.538882294750214,1.57639577436447,-2.46855056018829
0.671515151515152,0.658627470874786,-0.389915260791779,-0.222022239875793
0.672121212121212,0.984350127124786,-0.46655588579177903,3.30584152965546
0.672727272727273,0.057477568531036395,-0.380335182666779,-1.3237312242507902
0.673333333333333,-0.692163544750214,-0.33722483110427903,-2.66733718128204
0.673939393939394,-1.4154594431877099,0.642338157176971,-0.322613060188293
0.674545454545455,-0.249084931468964,-0.272559303760529,1.4784416273117098
0.675151515151515,1.7747065724372901,-0.308484596729279,1.0449430921554599
0.675757575757576,1.09212600603104,-0.148018288135529,-0.770481712532043
0.676363636363636,-0.222739716625214,-0.878499245166779,0.235426490592957
0.676969696969697,-1.01309616193771,0.218419700145721,-0.851912376594543
0.677575757575758,-1.43222457990646,0.275900168895721,-0.787246849250793
0.678181818181818,0.332904814624786,-0.737193092823029,2.42686936168671
0.678787878787879,1.44658889665604,0.369305930614471,-0.18609694690704298
0.679393939393939,0.996325224781036,0.328590598583221,-1.77159987659454
0.68,0.33529983415603604,-0.888079323291779,1.8113493421554598
0.680606060606061,-1.12805709943771,0.426786399364471,0.053405006217956595
0.681212121212121,-0.919690400218964,-0.0953278584480286,-1.1009944078445402
0.681818181818182,0.397570341968536,0.225604758739471,0.256981666374207
0.682424242424242,0.605937041187286,0.903395286083221,0.316857154655457
0.683030303030303,1.03225051774979,-0.291719460010529,0.6832951429367069
0.683636363636364,-0.122148896312714,0.000472922801971429,-0.964478294563293
0.684242424242424,-0.7065336619377139,-0.07377268266677861,-0.351353294563293
0.684848484848485,-0.172444306468964,-0.294114479541779,-0.372908470344543
0.685454545454545,-0.888555146312714,1.14529225873947,-1.6781941148757902
0.686060606060606,-0.256269990062714,-0.0929328389167786,2.25442795543671
0.686666666666667,1.10410110368729,0.0579533915519714,1.96223557262421
0.687272727272727,0.330509795093536,0.474686789989471,-2.7799030992507903
0.687878787878788,-0.0455082713127136,-1.52754953813553,-0.6172004625320431
0.688484848484848,-1.3172636424064599,0.11782887983322099,1.36348068981171
0.689090909090909,-0.941245576000214,0.922555442333221,0.458163306999207
0.68969696969697,0.603542021656036,-0.12406809282302901,-0.5956452867507931
0.69030303030303,1.02267043962479,-0.31806467485427903,-0.253157493782043
0.690909090909091,0.883759306812286,-0.0282673115730286,1.5550822523117098
0.691515151515152,-0.330515595531464,-0.363570045948029,-0.890232689094543
0.692121212121212,-1.64538131818771,-0.169573463916779,-0.6387556383132931
0.692727272727273,-0.467031708812714,0.0747185282707214,1.0712883069992098
0.693333333333333,1.1112861622810402,-0.0570075459480286,-1.51293776721954
0.693939393939394,0.926869658374786,-0.0234772725105286,-0.20525710315704299
0.694545454545455,0.562826689624786,-0.634207252979279,2.90108322887421
0.695151515151515,-0.464636689281464,0.00526296186447143,-1.19679518909454
0.695757575757576,-1.21427780256271,0.328590598583221,-2.48531569690704
0.696363636363636,-0.476611786937714,-0.615047096729279,0.24261154918670702
0.696969696969697,0.44547073259353603,0.398046164989471,0.769515846061707
0.697575757575758,0.421520537281036,0.728558860301971,1.05212815074921
0.698181818181818,0.656232451343536,0.23278981733322102,-0.24597243518829298
0.698787878787879,-0.335305634593964,0.0627434306144714,-0.265132591438293
0.699393939393939,0.0431074513435364,-0.308484596729279,-0.825567161750793
0.7,-0.795149384593964,-0.330039772510529,-1.35965651721954
0.700606060606061,-0.409551240062714,0.671078391551971,2.97293381481171
0.701212121212121,0.936449736499786,1.23390798139572,0.333622291374207
0.701818181818182,0.308954619312286,0.13698903608322102,-2.41825515003204
0.702424242424242,0.0383174122810364,-0.294114479541779,2.28556320934296
0.703030303030303,-0.577202607250214,-0.701267799854279,0.927587135124207
0.703636363636364,-1.1256620799064598,-0.18633860063552898,-1.35486647815704
0.704242424242424,-0.764014130687714,1.05907155561447,-1.30457106800079
0.704848484848485,0.847834013843536,-0.18154856157302898,0.41984299449920703
0.705454545454545,1.30049270524979,-0.741983131885529,1.2341496351242098
0.706060606060606,0.229918974781036,-0.215078835010529,-0.5142146226882931
0.706666666666667,-1.1376371775627099,-0.461765846729279,-0.420808860969543
0.707272727272727,-0.902925263500214,0.601622825145721,-1.01477370471954
0.707878787878788,-0.0502983103752136,-0.0522175068855286,-2.16677809925079
0.708484848484848,0.965189970874786,-0.912029518604279,1.85206467418671
0.709090909090909,0.9699800099372861,0.45313161420822096,3.03520432262421
0.70969696969697,0.340089873218536,0.398046164989471,-1.99673171253204
0.71030303030303,-0.998726044750214,-0.380335182666779,-1.25188063831329
0.710909090909091,-0.7280888377189639,0.105853782176971,0.724010474967957
0.711515151515152,0.0455024708747864,-0.823413795948029,0.319252174186707
0.712121212121212,0.512531279468536,0.44115651655197097,0.549174049186707
0.712727272727273,0.687367705249786,1.1093669657707201,-0.0495808336257934
0.713333333333333,0.349669951343536,-0.39710031938552903,0.357572486686707
0.713939393939394,-0.22992477521896398,0.160939231395721,-0.6172004625320431
0.714545454545455,-1.12326706037521,-0.967114967823029,-0.7010261461257931
0.715151515151515,-0.22034469709396398,-0.526431374073029,1.42096115856171
0.715757575757576,-0.479006806468964,1.58597585248947,-1.88177077503204
0.716363636363636,0.459840849781036,0.148964133739471,-0.643545677375793
0.716969696969697,0.505346220874786,-0.638997292041779,3.44475266246796
0.717575757575758,-0.117358857250214,0.259135032176971,-0.9333430406570431
0.718181818181818,-0.502957001781464,-0.488111061573029,-2.8661238023757902
0.718787878787879,-0.878975068187714,0.244764914989471,-0.7752717515945431
0.719393939393939,-0.306565400218964,0.0627434306144714,1.65088303356171
0.72,1.43461379899979,-0.411470436573029,1.4688615491867099
0.720606060606061,0.720897978687286,0.216024680614471,-0.425598900032043
0.721212121212121,-0.629893036937714,-0.301299538135529,-0.154961693000793
0.721818181818182,-0.670608368968964,-0.413865456104279,-0.7800617906570431
0.722424242424242,-1.3483988963127098,0.09387868452072139,-1.1991902086257902
0.723030303030303,0.105377959156036,-0.31806467485427903,2.0532463148117097
0.723636363636364,1.53280959978104,0.0172380595207214,1.18385422496796
0.724242424242424,0.36643508806228603,0.853099875926971,-2.36316970081329
0.724848484848485,-0.22034469709396398,-0.722822975635529,1.0497331312179599
0.725454545454545,-0.514932099437714,-0.330039772510529,0.793466041374207
0.726060606060606,-0.46224166975021397,0.0603484110832214,-1.6614289781570402
0.726666666666667,0.778378447437286,-0.38752024126052903,-0.669890892219543
0.727272727272727,0.608332060718536,0.879445090770721,0.553964088249207
0.727878787878788,0.289794463062286,0.244764914989471,1.17666916637421
0.728484848484849,0.05029250993728639,-0.332434792041779,-0.375303489875793
0.729090909090909,-1.07297165021896,0.127408957958221,-0.729766380500793
0.72969696969697,-0.0479032908439636,-0.44500071001052904,-0.444759056282043
0.73030303030303,-0.0742485056877136,0.534562278270721,-1.82189528675079
0.730909090909091,-0.237109833812714,0.39086110639572097,2.56817551403046
0.731515151515152,1.20708694353104,0.158544211864471,2.85557785778046
0.732121212121212,-0.162864228343964,0.5872527079582209,-3.22058669300079
0.732727272727273,-0.347280732250214,-0.732403053760529,-1.18961013050079
0.733333333333333,-0.804729462718964,-0.526431374073029,1.70596848278046
0.733939393939394,-0.562832490062714,0.374095969676971,0.606654517936707
0.734545454545455,0.380805205249786,0.395651145458221,-0.911787864875793
0.735151515151515,0.993930205249786,-0.322854713916779,-0.0016804430007934098
0.735757575757576,0.48618606462478603,-0.104907936573029,1.28684006481171
0.736363636363636,-0.33291061506271397,-0.128858131885529,-0.5956452867507931
0.736969696969697,-1.4729399119377098,-0.39470529985427905,-0.727371360969543
0.737575757575758,-0.320935517406464,0.127408957958221,0.750355689811707
0.738181818181818,1.1975068654060401,0.204049582958221,-0.986033470344543
0.738787878787879,1.15679153337479,-0.380335182666779,-0.313032982063293
0.739393939393939,-0.0934086619377136,0.0819035868644714,2.85078781871796
0.74,-0.37362594709396396,0.0627434306144714,-0.495054466438293
0.740606060606061,-1.0609965525627099,-0.330039772510529,-2.72481765003204
0.741212121212121,-0.399971161937714,-0.16717844438552898,0.0294548109054566
0.741818181818182,0.792748564624786,-0.540801491260529,1.49760178356171
0.742424242424242,0.337694853687286,0.912975364208221,0.9754875257492069
0.743030303030303,0.13411819353103602,1.01117116498947,-0.463919212532043
0.743636363636364,-0.675398408031464,-0.128858131885529,-0.365723411750793
0.744242424242424,-0.296985322093964,-0.07856272172927861,-0.703421165657043
0.744848484848485,-0.598757783031464,-1.26649240922928,-1.11536452503204
0.745454545454545,0.598751982593536,-0.210288795948029,2.1562321546554597
0.746060606060606,0.0790327443122864,1.65303639936447,-0.22681227893829298
0.746666666666667,0.215548857593536,-0.0186872334480286,-2.3775398180007903
0.747272727272727,-0.0814335642814636,-0.183943581104279,2.46997971324921
0.747878787878788,-0.950825654125214,0.0292131571769714,0.666530006217957
0.748484848484849,-0.5077470408439639,-0.36596506547927904,-2.04702712268829
0.749090909090909,-0.158074189281464,0.184889426708221,-0.746531517219543
0.74969696969697,0.356855009937286,0.09387868452072139,1.1575090101242098
0.75030303030303,1.05380569353104,0.0196330790519714,1.1958293226242098
0.750909090909091,0.15806838884353602,0.139384055614471,-0.533374778938293
0.751515151515151,-1.0562065135002099,-0.576726784229279,-0.396858665657043
0.752121212121212,-0.629893036937714,-0.373150124073029,-0.523794700813293
0.752727272727273,0.062267607593536396,0.16812428998947102,-2.00391677112579
0.753333333333333,0.821488798999786,-0.8904743428230291,1.94547043590546
0.753939393939394,1.25977737321854,0.170519309520721,3.01604416637421
0.754545454545455,-0.15567916975021398,1.30336354780197,-2.37993483753204
0.755151515151515,-0.981960908031464,-0.579121803760529,-1.01477370471954
0.755757575757576,-0.977170868968964,-0.39470529985427905,1.0233879163742101
0.756363636363636,0.06945266618728639,-0.361175026416779,-0.370513450813293
0.756969696969697,1.54478469743729,-0.22705393266677898,-0.34895827503204296
0.757575757575758,0.574801787281036,1.1093669657707201,0.527618873405457
0.758181818181818,0.12932815446853602,0.259135032176971,0.585099342155457
0.758787878787879,-0.730483857250214,-0.148018288135529,-0.6938410875320431
0.759393939393939,-1.3986943064689599,-0.22226389360427898,-0.7944319078445431
0.76,0.229918974781036,-0.648577370166779,0.376732642936707
0.760606060606061,0.387990263843536,1.0327263407707201,-0.8135920640945431
0.761212121212121,0.17962356462478601,0.479476829051971,0.628209693717957
0.761818181818182,0.399965361499786,-0.45697580766677903,2.65918625621796
0.762424242424242,-0.6274980174064639,0.678263450145721,-1.8793757555007902
0.763030303030303,-0.37362594709396396,-0.852154030323029,-2.87809890003204
0.763636363636364,-0.306565400218964,-0.308484596729279,0.5419889905929569
0.764242424242424,0.18441360368728602,0.35254079389572096,1.5455021741867099
0.764848484848485,1.31965286149979,0.105853782176971,0.549174049186707
0.765454545454545,0.615517119312286,0.0459782938957214,0.00789963512420659
0.766060606060606,-0.570017548656464,0.38128102827072097,0.206686256217957
0.766666666666667,-0.617917939281464,-0.389915260791779,-1.14649977893829
0.767272727272727,-0.675398408031464,-0.919214577198029,-0.724976341438293
0.767878787878788,0.342484892749786,0.32380055952072095,2.27119309215546
0.768484848484848,1.81542190446854,0.577672629833221,-0.0926911851882934
0.769090909090909,0.677787627124786,0.551327414989471,-1.6781941148757902
0.76969696969697,-0.658633271312714,-0.473740944385529,1.99337082653046
0.77030303030303,-0.684978486156464,-0.5695417256355291,-0.219627220344543
0.770909090909091,-0.598757783031464,0.0387932353019714,-2.27934401721954
0.771515151515151,0.42631057634353603,-0.464160866260529,-0.0663459703445434
0.772121212121212,1.4058735646247902,0.275900168895721,1.35150559215546
0.772727272727273,0.364040068531036,0.544142356395721,1.2676799085617099
0.773333333333333,-0.579597626781464,0.0890886454582214,-0.942923118782043
0.773939393939394,-1.1256620799064598,0.0459782938957214,-0.040000755500793406
0.774545454545455,-0.356860810375214,-0.07137766313552861,-0.811197044563293
0.775151515151515,0.0239472950935364,-0.557566627979279,-1.43629714221954
0.775757575757576,0.450260771656036,0.146569114208221,3.2076457288742097
0.776363636363636,0.728083037281036,1.32012868452072,0.403077857780457
0.776969696969697,-0.713718720531464,0.45313161420822096,-3.15113112659454
0.777575757575758,-0.371230927562714,-0.0546125264167786,0.932377174186707
0.778181818181818,-1.1520072947502098,-0.615047096729279,1.3275553968429599
0.778787878787879,0.0287373341560364,-0.243819069385529,-0.792036888313293
0.779393939393939,0.6490473927497861,0.534562278270721,-1.3500764390945401
0.78,0.637072295093536,0.0819035868644714,0.6761100843429569
0.780606060606061,0.565221709156036,-0.255794167041779,1.13834885387421
0.781212121212121,-0.821494599437714,0.00765798139572143,-1.15128981800079
0.781818181818182,-1.08494674787521,-0.478530983448029,-0.147776634407043
0.782424242424242,-0.14130905256271398,-0.363570045948029,-0.545349876594543
0.783030303030303,0.857414091968536,0.0579533915519714,-1.6398738023757902
0.783636363636364,1.06578079118729,-0.8497590107917791,2.27358811168671
0.784242424242424,0.35445999040603604,0.501032004833221,2.7286418226242097
0.784848484848485,-0.859814911937714,1.0327263407707201,-2.83738356800079
0.785454545454545,-0.9460356150627139,-0.708452858448029,-1.6949592515945402
0.786060606060606,-0.27303512678146397,-0.193523659229279,1.2940251234054598
0.786666666666667,0.922079619312286,-0.588701881885529,0.549174049186707
0.787272727272727,1.13523635759354,0.596832786083221,0.0174797132492066
0.787878787878788,0.397570341968536,1.4207195048332202,-0.265132591438293
0.788484848484848,-0.26345504865646396,-0.18154856157302898,0.221056373405457
0.789090909090909,-0.680188447093964,0.0699284892082214,-1.49617263050079
0.78969696969697,-0.773594208812714,-0.825808815479279,-0.193282005500793
0.79030303030303,0.977165068531036,-0.45458078813552905,1.40180100231171
0.790909090909091,0.438285673999786,1.37521413373947,-1.41953200550079
0.791515151515152,0.462235869312286,0.290270286083221,0.17315598278045702
0.792121212121212,-0.555647431468964,-0.272559303760529,2.64481613903046
0.792727272727273,-1.10650192365646,0.46031667280197097,-1.5752082750320402
0.793333333333333,-0.184419404125214,-0.581516823291779,-2.8828889390945402
0.793939393939394,-0.014373017406463599,-0.291719460010529,0.261771705436707
0.794545454545455,0.804723662281036,0.0795085673332214,2.44842453746796
0.795151515151515,0.886154326343536,0.00765798139572143,0.872501685905457
0.795757575757576,-0.20597457990646398,0.350145774364471,-0.969268333625793
0.796363636363636,-1.47054489240646,-0.0162922139167786,0.307277076530457
0.796969696969697,-0.713718720531464,-0.368360085010529,-1.2590656969070402
0.797575757575758,-0.20118454084396398,-0.9096344990730291,-0.0160505601882934
0.798181818181818,1.08015090837479,-0.0426374287605286,2.92742844371796
0.798787878787879,1.46335403337479,0.611202903270721,-0.12143141956329301
0.799393939393939,-0.198789521312714,0.673473411083221,-1.9176960680007902
0.8,-1.04183639631271,-0.38752024126052903,1.1862492444992099
0.800606060606061,-0.960405732250214,-0.593491920948029,-0.0998762437820434
0.801212121212121,0.215548857593536,0.146569114208221,-2.10211257190704
0.801818181818182,1.19511184587479,-0.322854713916779,0.058195045280456596
0.802424242424242,0.984350127124786,0.539352317333221,1.54789719371796
0.803030303030303,0.0239472950935364,0.429181418895721,0.829391334342957
0.803636363636364,-1.0442314158439598,-0.219868874073029,-1.0626740953445402
0.804242424242424,-1.1160820017814599,0.12022389936447099,-0.454339134407043
0.804848484848485,0.368830107593536,-0.145623268604279,-1.1273396226882901
0.805454545454545,0.907709502124786,-0.382730202198029,-0.7369514390945431
0.806060606060606,0.47421096696853604,0.208839622020721,3.21722580699921
0.806666666666667,0.507741240406036,1.1860075907707202,0.292906959342957
0.807272727272727,-0.917295380687714,0.486661887645721,-3.4050031969070402
0.807878787878788,-1.02028122053146,-0.373150124073029,0.0102946546554566
0.808484848484848,-0.574807587718964,-0.806648659229279,1.5934025648117098
0.809090909090909,0.740058134937286,-0.342014870166779,-0.11664138050079301
0.80969696969697,0.9292646779060361,0.599227805614471,-1.24469557971954
0.81030303030303,0.438285673999786,0.00526296186447143,0.5611491468429569
0.810909090909091,-0.241899872875214,0.0244231181144714,0.968302467155457
0.811515151515152,-1.31965866193771,-0.13604319047927899,-1.40755690784454
0.812121212121212,-0.565227509593964,-0.7300080342292791,0.230636451530457
0.812727272727273,0.778378447437286,-0.0450324482917786,-0.250762474250793
0.813333333333333,1.53999465837479,0.148964133739471,-1.47940749378204
0.813939393939394,0.864599150562286,-0.389915260791779,2.58494065074921
0.814545454545455,-0.591572724437714,0.675868430614471,1.95505051403046
0.815151515151515,-1.1759574900627099,0.235184836864471,-2.7535578844070403
0.815757575757576,-0.869394990062714,-0.574331764698029,-1.2686457750320401
0.816363636363636,0.25626418962478603,-0.363570045948029,1.59100754528046
0.816969696969697,1.5184394825935401,-0.574331764698029,1.42814621715546
0.817575757575758,0.330509795093536,0.9273454813957209,0.312067115592957
0.818181818181818,-0.500561982250214,1.0614665751457202,-0.384883568000793
0.818787878787879,-0.641868134593964,0.00765798139572143,-0.305847923469543
0.819393939393939,-0.934060517406464,-0.0210822529792786,-0.923762962532043
0.82,-0.119753876781464,-1.2138019795417798,1.1527189710617098
0.820606060606061,1.01309036149979,0.251949973583221,1.09523850231171
0.821212121212121,0.390385283374786,1.3823991923332202,-2.06858229846954
0.821818181818182,0.0047871388435364,-0.08814279985427861,0.927587135124207
0.822424242424242,-1.14482223615646,-0.128858131885529,2.34543869762421
0.823030303030303,-1.3555839549064599,0.216024680614471,-2.0015217515945403
0.823636363636364,0.49576614274978603,-0.538406471729279,-2.31047927112579
0.824242424242424,0.490976103687286,-0.342014870166779,0.934772193717957
0.824848484848485,1.03225051774979,0.19207448530197102,2.02450608043671
0.825454545454545,0.663417509937286,0.09148366498947139,0.47013840465545703
0.826060606060606,-1.1520072947502098,0.656708274364471,-0.909392845344543
0.826666666666667,-1.03465133771896,-0.272559303760529,-0.590855247688293
0.827272727272727,0.0047871388435364,-0.758748268604279,-1.60873854846954
0.827878787878788,0.268239287281036,-0.746773170948029,0.989857642936707
0.828484848484848,1.3986885060310401,-0.224658913135529,3.2507560804367097
0.829090909090909,0.687367705249786,0.915370383739471,-1.39797682971954
0.82969696969697,-1.5064701853752098,0.287875266551971,-1.97278151721954
0.83030303030303,-1.11129196271896,-1.09644602251053,1.19343430309296
0.830909090909091,-0.5484623728752139,-0.358780006885529,-0.281897728157043
0.831515151515152,0.459840849781036,0.0459782938957214,-1.3572614976882902
0.832121212121212,1.38192336931229,0.0651384501457214,0.613839576530457
0.832727272727273,0.43589065446853603,0.968060813426971,1.4736515882492098
0.833333333333333,-0.562832490062714,0.00286794233322143,-0.22681227893829298
0.833939393939394,-1.7627372752189598,0.0363982157707214,-1.76680983753204
0.834545454545455,-0.593967743968964,0.00286794233322143,0.180341041374207
0.835151515151515,1.09691604509354,0.0148430399894714,-1.1656599351882901
0.835757575757576,0.838253935718536,-0.11927805376052901,0.9802775648117069
0.836363636363636,0.546061552906036,0.414811301708221,3.88783127574921
0.836969696969697,-0.474216767406464,1.1860075907707202,-1.9224861070632902
0.837575757575758,-1.38911422834396,0.218419700145721,-3.38823806018829
0.838181818181818,-1.14482223615646,-0.564751686573029,0.812626197624207
0.838787878787879,0.330509795093536,-0.823413795948029,2.02929611949921
0.839393939393939,1.14002639665604,0.304640403270721,-0.648335716438293
0.84,0.804723662281036,0.410021262645721,-0.8159870836257931
0.840606060606061,-0.129333954906464,0.0675334696769714,1.2389396741867098
0.841212121212121,-0.9867509470939639,0.230394797801971,-0.291477806282043
0.841818181818182,-1.01788620100021,-0.468950905323029,-1.27343581409454
0.842424242424242,0.22273391618728602,-0.7515632100105291,1.0976335218429598
0.843030303030303,1.5783149708747901,0.345355735301971,-0.626780540657043
0.843636363636364,1.3388130177497901,-0.478530983448029,-0.583670189094543
0.844242424242424,-0.0263481150627136,-0.133648170948029,3.03280930309296
0.844848484848485,-1.17116745100021,0.740533957958221,0.249796607780457
0.845454545454545,-1.16637741193771,-0.519246315479279,-3.04814528675079
0.846060606060606,-0.30417038068771396,-0.159993385791779,0.0150846937179566
0.846666666666667,0.965189970874786,-0.6892927021980291,2.1298869398117097
0.847272727272727,1.23343215837479,-0.0138971943855286,0.7383805921554569
0.847878787878788,-0.0311381541252136,1.28180837202072,-0.346563255500793
0.848484848484849,-0.883765107250214,0.41241628217697096,-0.454339134407043
0.849090909090909,-1.0562065135002099,0.09866872358322139,-0.866282493782043
0.84969696969697,-0.754434052562714,-0.5719367451667791,-1.07225417346954
0.85030303030303,1.09212600603104,-0.840178932666779,1.7179435804367098
0.850909090909091,1.0897309864997902,1.11894704389572,0.0246647718429566
0.851515151515152,-0.035928193187713606,0.862679954051971,-1.8242903062820401
0.852121212121212,-0.764014130687714,-0.332434792041779,2.08438156871796
0.852727272727273,-1.46575485334396,0.410021262645721,0.589889381217957
0.853333333333333,-0.670608368968964,-0.104907936573029,-2.72721266956329
0.853939393939394,0.795143584156036,-0.19591867876052899,-0.9596882555007931
0.854545454545454,1.0633857716560402,-0.155203346729279,2.2065275648117098
0.855151515151515,1.0729658497810401,0.0316081767082214,1.5670573499679599
0.855757575757576,-0.380811005687714,0.49145192670822097,-0.772876732063293
0.856363636363636,-1.6813066111564599,0.0771135478019714,-0.751321556282043
0.856969696969697,-0.570017548656464,-0.524036354541779,-1.15128981800079
0.857575757575758,0.292189482593536,-0.995855202198029,-0.732161400032043
0.858181818181818,1.2214570607185402,-0.43781565141677903,2.93221848278046
0.858787878787879,1.5687348927497902,0.347750754833221,1.66046311168671
0.859393939393939,-0.0910136424064636,1.32012868452072,-2.45178542346954
0.86,-1.45617477521896,-0.07856272172927861,0.0605900648117066
0.860606060606061,-0.938850556468964,-1.19943186235428,1.06170822887421
0.861212121212121,0.052687529468536394,-0.11927805376052901,-0.7800617906570431
0.861818181818182,1.44179885759354,-0.07377268266677861,-0.250762474250793
0.862424242424242,1.08015090837479,0.438761497020721,1.0018327405929601
0.863030303030303,-0.361650849437714,0.690238547801971,0.872501685905457
0.863636363636364,-1.04662643537521,-0.205498756885529,-0.890232689094543
0.864242424242424,-1.4585697947502099,-0.07137766313552861,-0.842332298469543
0.864848484848485,0.31613967790603603,0.110643821239471,-0.389673607063293
0.865454545454545,1.30049270524979,-0.0905378193855286,-0.5405598375320431
0.866060606060606,0.711317900562286,0.213629661083221,2.69990158824921
0.866666666666667,0.253869170093536,0.730953879833221,1.6269328382492099
0.867272727272727,-1.17835250959396,0.853099875926971,-3.1726863023757903
0.867878787878788,-1.25259811506271,0.0124480204582214,-1.51293776721954
0.868484848484849,-0.644263154125214,-0.806648659229279,1.6915983655929598
0.869090909090909,0.718502959156036,-0.612652077198029,0.843761451530457
0.86969696969697,1.1017060841560402,0.35254079389572096,-1.2758308336257902
0.87030303030303,0.22752395524978603,0.127408957958221,0.211476295280457
0.870909090909091,-0.795149384593964,0.417206321239471,0.925192115592957
0.871515151515151,-1.3555839549064599,-0.0162922139167786,-1.18482009143829
0.872121212121212,-0.495771943187714,-1.07010080766678,0.0462199476242066
0.872727272727273,0.960399931812286,-0.0953278584480286,0.575519264030457
0.873333333333333,1.9758882130622901,0.216024680614471,-1.07225417346954
0.873939393939394,0.716107939624786,-0.42584055376052904,1.3323454359054598
0.874545454545455,-0.799939423656464,0.395651145458221,2.66637131481171
0.875151515151515,-1.2837333689689598,0.23278981733322102,-1.97278151721954
0.875757575757576,-0.749644013500214,-0.42584055376052904,-2.50926589221954
0.876363636363636,0.517321318531036,-0.248609108448029,1.11679367809296
0.876969696969697,1.5040693654060402,-0.653367409229279,1.90236008434296
0.877575757575758,0.615517119312286,0.539352317333221,0.6210246351242069
0.878181818181818,-0.637078095531464,1.15487233686447,-0.808802025032043
0.878787878787879,-1.1975126658439599,0.0340031962394714,-0.6387556383132931
0.879393939393939,-0.704138642406464,-0.26776926469802903,-1.20637526721954
0.88,-0.004792939281463599,-1.0150153584480301,0.0941203382492066
0.880606060606061,1.6621406544685402,-0.243819069385529,2.39333908824921
0.881212121212121,0.953214873218536,1.39437428998947,-1.47222243518829
0.881818181818182,-0.764014130687714,0.426786399364471,-0.909392845344543
0.882424242424242,-1.60227096662521,-0.21747385454177898,2.31909348278046
0.883030303030303,-1.6262211619377098,0.0627434306144714,-0.653125755500793
0.883636363636364,0.704132841968536,-0.557566627979279,-2.41346511096954
0.884242424242424,1.2525923146247901,-0.272559303760529,-0.12382643909454301
0.884848484848485,1.4010835255622902,-0.11448801469802901,2.70948166637421
0.885454545454545,0.500556181812286,0.19686452436447102,0.872501685905457
0.886060606060606,-1.39390426740646,0.718978782176971,-1.4219270250320402
0.886666666666667,-1.60706100568771,-0.349199928760529,-0.7752717515945431
0.887272727272727,0.13411819353103602,-0.5719367451667791,-1.34768141956329
0.887878787878788,1.0897309864997902,-0.679712624073029,0.35038742809295703
0.888484848484848,1.7603364552497902,-0.26776926469802903,3.35613693981171
0.889090909090909,0.713712920093536,0.728558860301971,-0.0950862047195434
0.88969696969697,-1.3531889353752098,1.04709645795822,-3.02898513050079
0.89030303030303,-1.72681198225021,-0.627022194385529,0.465348365592957
0.890909090909091,-0.469426728343964,-0.983880104541779,0.8222062757492069
0.891515151515151,1.09212600603104,0.108248801708221,-1.0578840562820402
0.892121212121212,1.86571731462479,-0.0210822529792786,0.5228288343429569
0.892727272727273,0.49576614274978603,0.699818625926971,1.4688615491867099
0.893333333333333,-1.05860153303146,0.254344993114471,-0.00886550159454341
0.893939393939394,-1.84656295881271,-0.06658762407302861,-1.3069660875320401
0.894545454545455,-1.20948776350021,0.151359153270721,0.0366398694992066
0.895151515151515,1.08015090837479,0.33098561811447097,-0.830357200813293
0.895757575757576,1.62142532243729,-0.0498224873542786,0.144415748405457
0.896363636363636,0.718502959156036,0.0292131571769714,3.6004289319992098
0.896969696969697,-0.593967743968964,1.16205739545822,-0.0687409898757934
0.897575757575758,-1.9806840525627099,0.673473411083221,-4.03968337268829
0.898181818181818,-1.47054489240646,-0.47613596391677904,-0.732161400032043
0.898787878787879,0.277819365406036,-1.1539264912605298,2.42447434215546
0.899393939393939,1.5855000294685402,-0.330039772510529,0.764725806999207
0.9,1.1975068654060401,0.673473411083221,-0.928553001594543
0.900606060606061,-0.498166962718964,0.328590598583221,0.288116920280457
0.901212121212121,-1.3052885447502098,0.335775657176971,-0.0304206773757934
0.901818181818182,-1.5663456736564598,-0.507271217823029,-1.2686457750320401
0.902424242424242,0.026342314624786402,-0.952744850635529,0.589889381217957
0.903030303030303,1.69088088884354,0.359725852489471,0.455768287467957
0.903636363636364,1.8345820607185401,0.0459782938957214,-0.5597199937820431
0.904242424242424,0.07184768571853639,-0.08095774126052861,1.45928147106171
0.904848484848485,-1.4298295603752098,0.184889426708221,1.40659104137421
0.905454545454545,-1.2286479197502098,-0.188733620166779,-2.45897048206329
0.906060606060606,-0.419131318187714,-0.21747385454177898,-1.8745857164382902
0.906666666666667,0.934054716968536,-0.207893776416779,1.90236008434296
0.907272727272727,1.7004609669685402,-0.272559303760529,1.72752365856171
0.907878787878788,0.0383174122810364,0.651918235301971,0.051009986686706595
0.908484848484848,-1.1687724314689598,0.783644309520721,-0.7944319078445431
0.909090909090909,-1.22625290021896,0.12022389936447099,-0.9189729234695431
0.90969696969697,-0.663423310375214,-0.23184397172927898,-0.8567024156570431
0.91030303030303,0.754428252124786,-1.0150153584480301,1.84248459606171
0.910909090909091,1.6717207325935401,0.364515891551971,2.25203293590546
0.911515151515152,0.251474150562286,0.9656657938957209,-2.23383864612579
0.912121212121212,-0.754434052562714,-0.0522175068855286,-0.528584739875793
0.912727272727273,-1.5879008494377098,-0.183943581104279,2.08198654918671
0.913333333333333,-1.00830612287521,-0.004317116260528569,-1.0243537828445402
0.913939393939394,1.0011152638435399,-0.579121803760529,-2.12845778675079
0.914545454545455,1.1615815724372902,0.0148430399894714,0.6761100843429569
0.915151515151515,1.0777558888435401,0.16333425092697101,2.84360276012421
0.915757575757576,-0.244294892406464,0.32140553998947097,0.455768287467957
0.916363636363636,-1.7411820994377099,0.735743918895721,-1.6566389390945402
0.916969696969697,-1.13524215803146,-0.6892927021980291,-0.7944319078445431
0.917575757575758,0.493371123218536,-0.46655588579177903,-0.9405280992507931
0.918181818181818,1.17834670915604,-0.459370827198029,1.19822434215546
0.918787878787879,1.2262470997810402,-0.15759836626052898,3.1310051038742097
0.919393939393939,-0.311355439281464,1.27941335248947,-0.911787864875793
0.92,-1.6477763377189598,0.651918235301971,-2.47573561878204
0.920606060606061,-0.910110322093964,-1.16111154985428,0.46055832653045703
0.921212121212121,0.0119721974372864,-0.607862038135529,0.733590553092957
0.921818181818182,1.4705390919685402,-0.193523659229279,-0.344168235969543
0.922424242424242,1.37952834978104,0.44115651655197097,0.161180885124207
0.923030303030303,-0.153284150218964,1.10697194623947,0.767120826530457
0.923636363636364,-1.0825517283439599,-0.342014870166779,-0.207652122688293
0.924242424242424,-1.94475875959396,-0.38752024126052903,-0.9548982164382931
0.924848484848485,-0.117358857250214,-0.174363502979279,0.048614967155456594
0.925454545454545,1.13523635759354,0.314220481395721,-0.962083275032043
0.926060606060606,1.08254592790604,0.445946555614471,0.932377174186707
0.926666666666667,0.0359223927497864,0.18728444623947102,3.24357102184296
0.927272727272727,-1.15440231428146,0.975245872020721,-1.2159553453445402
0.927878787878788,-1.32444870100021,0.24715993452072102,-3.3523127672195403
0.928484848484848,-0.435896454906464,-0.696477760791779,0.15399582653045701
0.929090909090909,0.941239775562286,-0.7898835225105291,2.1729972913742097
0.92969696969697,1.37473831071854,0.225604758739471,0.101305396842957
0.93030303030303,0.591566923999786,0.429181418895721,-0.602830345344543
0.930909090909091,-0.8478398142814639,0.278295188426971,0.527618873405457
0.931515151515152,-1.3172636424064599,0.5273772196769709,-0.7800617906570431
0.932121212121212,-0.852629853343964,-1.05573069047928,-1.0626740953445402
0.932727272727273,0.699342802906036,-0.7491681904792791,1.66764817028046
0.933333333333333,1.7315962208747901,0.524982200145721,0.00310959606170659
0.933939393939394,1.2262470997810402,0.28069020795822097,-1.21356032581329
0.934545454545455,-0.893345185375214,0.14177907514572102,1.66764817028046
0.935151515151515,-1.33402877912521,-0.0905378193855286,0.352782447624207
0.935757575757576,-0.804729462718964,-0.464160866260529,-2.72481765003204
0.936363636363636,0.100587920093536,0.151359153270721,-0.892627708625793
0.936969696969697,1.60466018571854,-0.313274635791779,2.19455246715546
0.937575757575758,0.946029814624786,-0.0546125264167786,1.40659104137421
0.938181818181818,-0.601152802562714,1.03751637983322,-0.416018821907043
0.938787878787879,-1.5879008494377098,0.395651145458221,-0.746531517219543
0.939393939393939,-0.768804169750214,0.335775657176971,-0.511819603157043
0.94,-0.15088913068771398,-0.538406471729279,-0.851912376594543
0.940606060606061,1.29809768571854,-1.18985178422928,2.87713303356171
0.941212121212121,1.10889114274979,0.939320579051971,0.388707740592957
0.941818181818182,-0.22034469709396398,1.05188649702072,-3.13436598987579
0.942424242424242,-1.1520072947502098,-0.16717844438552898,1.08565842418671
0.943030303030303,-2.04534957990646,-0.140833229541779,1.4353312757492098
0.943636363636364,-0.16046920881271398,-0.421050514698029,-1.62071364612579
0.944242424242424,1.24540725603104,-0.18633860063552898,-1.67579909534454
0.944848484848485,0.938844756031036,0.23278981733322102,1.9263102796554599
0.945454545454545,0.555641631031036,0.0842986063957214,2.11791184215546
0.946060606060606,-0.881370087718964,0.24236989545822102,-0.969268333625793
0.946666666666667,-1.69328170881271,-0.11448801469802901,-0.8782575914382931
0.947272727272727,-0.0023979197502136,-0.9910651631355291,-0.351353294563293
0.947878787878788,0.773588408374786,-0.32764475297927903,-1.1273396226882901
0.948484848484848,1.3412080372810402,-0.507271217823029,2.10593674449921
0.949090909090909,0.543666533374786,0.216024680614471,2.40052414684296
0.94969696969697,-1.27415329084396,1.5117302470207201,-2.31287429065704
0.95030303030303,-1.39390426740646,-0.08335276079177861,-2.18833327503204
0.950909090909091,-0.5484623728752139,-1.2640973896980299,1.14553391246796
0.951515151515152,0.687367705249786,-0.583911842823029,0.604259498405457
0.952121212121212,1.8297920216560402,-0.0594025654792786,-0.404043724250793
0.952727272727273,0.6897627247810361,0.714188743114471,0.371942603874207
0.953333333333333,-0.756829072093964,0.6279680399894709,0.443793189811707
0.953939393939394,-1.48251999006271,-0.490506081104279,-0.789641868782043
0.954545454545455,-1.2957084666252099,-0.0929328389167786,-0.526189720344543
0.955151515151515,0.7089228810310361,0.000472922801971429,0.051009986686706595
0.955757575757576,1.32683792009354,0.165729270458221,-0.9165779039382931
0.956363636363636,0.5292964161872861,0.00765798139572143,2.07719651012421
0.956969696969697,-0.625102997875214,0.204049582958221,2.1729972913742097
0.957575757575758,-1.67412155256271,0.896210227489471,-2.8565437242507903
0.958181818181818,-1.01788620100021,-0.0378473896980286,-2.63141188831329
0.958787878787879,0.380805205249786,-0.852154030323029,1.42335617809296
0.959393939393939,1.3459980763435402,-0.593491920948029,2.00774094371796
0.96,1.02267043962479,0.239974875926971,-0.612410423469543
0.960606060606061,-0.490981904125214,0.204049582958221,-0.274712669563293
0.961212121212121,-0.979565888500214,0.850704856395721,0.185131080436707
0.961818181818182,-1.01309616193771,-0.07616770219802861,-1.6278987047195401
0.962424242424242,-0.294590302562714,-1.3024177021980299,0.0102946546554566
0.963030303030303,1.59747512712479,-0.0498224873542786,1.7514738538742098
0.963636363636364,2.00941848649979,0.40044118452072097,-0.8207771226882931
0.964242424242424,0.0215522755622864,0.41241628217697096,-0.291477806282043
0.964848484848485,-1.5447904978752098,-0.0474274678230286,2.03408615856171
0.965454545454545,-1.0609965525627099,-0.389915260791779,-0.990823509407043
0.966060606060606,-0.251479951000214,-0.418655495166779,-2.43262526721954
0.966666666666667,0.771193388843536,-0.219868874073029,0.532408912467957
0.967272727272727,1.6286103810310402,-0.332434792041779,2.07240647106171
0.967878787878788,0.282609404468536,0.366910911083221,0.609049537467957
0.968484848484849,-1.20948776350021,0.718978782176971,-0.9788484117507931
0.969090909090909,-1.4154594431877099,0.160939231395721,-0.432783958625793
0.96969696969697,-0.14609909162521398,0.17770436811447102,-1.1441047594070402
0.97030303030303,0.541271513843536,-1.1108161396980298,0.944352271842957
0.970909090909091,1.42982375993729,-0.0330573506355286,3.3273967054367097
0.971515151515152,0.665812529468536,1.23630300092697,-1.3955818101882902
0.972121212121212,-0.9675907908439639,0.35254079389572096,-1.92009108753204
0.972727272727273,-1.48731002912521,-0.0522175068855286,1.48083664684296
0.973333333333333,-1.0777616892814599,-0.28692942094802903,0.331227271842957
0.973939393939394,0.924474638843536,-0.44500071001052904,-1.7763899156570402
0.974545454545454,0.941239775562286,-0.00910715532302857,-0.7968269273757931
0.975151515151515,0.938844756031036,0.35254079389572096,2.29514328746796
0.975757575757576,0.052687529468536394,0.00286794233322143,0.929982154655457
0.976363636363636,-1.7148368845939599,0.635153098583221,-1.4818025133132902
0.976969696969697,-1.03704635725021,-0.49529612016677904,-0.5788801500320431
0.977575757575758,0.783168486499786,-0.7898835225105291,-0.8183821031570431
0.978181818181818,1.1975068654060401,-0.148018288135529,0.058195045280456596
0.978787878787879,1.3244429005622902,-0.562356667041779,2.81246750621796
0.979393939393939,0.21315383806228602,0.680658469676971,0.771910865592957
0.98,-1.3555839549064599,0.922555442333221,-2.86133376331329
0.980606060606061,-0.938850556468964,-0.519246315479279,-0.562115013313293
0.981212121212121,-0.20597457990646398,-0.828203835010529,1.35150559215546
0.981818181818182,1.1064961232185402,-0.32524973344802904,0.11807053356170699
