Time (s),Accel X (m/s^2),Accel Y (m/s^2),Accel Z (m/s^2)
0.0,0.0384656041145325,-0.034621784877777104,0.0506987277030943
0.000605693519079346,0.182166775989532,-0.118447468471527,0.0363286105155943
0.00121138703815869,0.08397097520828249,0.00848856668472292,0.134524411296844
0.00181708055723804,-0.122000704479218,0.046808879184722894,0.192004880046844
0.00242277407631738,-0.117210665416718,-0.231013386440277,0.177634762859344
0.00302846759539673,-0.145950899791718,0.0396238205909729,-0.11695263948440601
0.00363416111447607,-0.09326047010421751,-0.269333698940277,0.07225390348434431
0.00423985463355542,-0.0142248255729675,-0.163952839565277,0.170449704265594
0.00484554815263477,-0.0453600794792175,0.240805461215973,0.12494433317184399
0.00545124167171411,-0.0693102747917175,0.06836405496597289,0.345286130046844
0.00605693519079346,-0.0741003138542175,-0.0609669997215271,0.376421383953094
0.0066626287098728,-0.208221407604218,-0.166347859096527,0.354866208171844
0.00726832222895215,-0.0261999232292175,0.051598918247222895,0.189609860515594
0.0078740157480315,-0.0573351771354675,-0.0633620192527771,0.237510251140594
0.00847970926711084,-0.138765841197968,-0.13281758565902702,0.249485348796844
0.00908540278619019,-0.0166198451042175,0.130634562778473,0.06985888395309431
0.00969109630526953,0.0624157994270325,-0.0729420973777771,0.292595700359344
0.0102967898243489,-0.0261999232292175,-0.0801271559715271,0.6590336886405941
0.0109024833434282,0.0336755650520325,-0.039411823940277105,0.647058590984344
0.0115081768625076,-0.177086153697968,-0.125632527065277,0.206374997234344
0.0121138703815869,-0.102840548229218,-0.0897072340965271,0.0554887667655943
0.0127195639006663,0.0264905064582825,-0.00109151144027708,0.316545895671844
0.0133252574197456,-0.210616427135468,-0.0944972731590271,0.239905270671844
0.013930950938825,-0.0836803919792175,-0.0657570387840271,0.314150876140594
0.0145366444579043,-0.191456270885468,0.142609660434723,0.105784176921844
0.0151423379769836,-0.00224972791671754,-0.10168233175277701,0.08901904020309431
0.015748031496063,-0.040570040416717496,-0.298073933315277,0.27104052457809397
0.0163537250151423,-0.09565548963546751,-0.242988484096527,0.249485348796844
0.0169594185342217,-0.217801485729218,-0.044201863002777106,0.08183398160934431
0.017565112053301,-0.0309899622917175,-0.0777321364402771,-0.0762373074531557
0.0181708055723804,0.194141873645782,-0.144792683315277,0.12254931364059399
0.0187764990914597,-0.165111056041718,-0.211853230190277,0.146499508953094
0.0193821926105391,0.0360705845832825,-0.0657570387840271,0.07464892301559431
0.0199878861296184,0.163006619739532,-0.0753371169090271,0.314150876140594
0.0205935796486978,0.0193054478645325,-0.0921022536277771,0.115364255046844
0.0211992731677771,-0.009434786510467539,-0.13760762472152702,0.06985888395309431
0.0218049666868564,0.021700467395782498,0.0420188401222229,0.5440727511405941
0.0224106602059358,-0.0214098841667175,-0.0106715895652771,0.39079150114059397
0.0230163537250151,0.0983410923957825,0.046808879184722894,0.256670407390594
0.0236220472440945,-0.0190148646354675,-0.140002644252777,0.134524411296844
0.0242277407631738,-0.143555880260468,-0.022646687221527097,0.0363286105155943
0.0248334342822532,0.146241483020782,0.123449504184723,-0.00917676057815565
0.0254391278013325,-0.0501501185417175,0.113869426059723,0.012378415203094401
0.0260448213204119,-0.0190148646354675,-0.0489919020652771,-0.0163618191719056
0.0266505148394912,0.222882108020782,-0.242988484096527,0.215955075359344
0.0272562083585706,0.0240954869270325,-0.0106715895652771,0.0363286105155943
0.0278619018776499,-0.105235567760468,-0.28130879659652697,0.000403317546844352
0.0284675953967293,-0.256121798229218,0.0731540940284729,0.194399899578094
0.0290732889158086,-0.141160860729218,0.0587839768409729,0.211165036296844
0.0296789824348879,0.100736111927032,-0.0897072340965271,0.414741696453094
0.0302846759539673,-0.0525451380729675,-0.034621784877777104,0.0171684542655944
0.0308903694730466,-0.131580782604218,-0.12802754659652701,-0.0283369168281556
0.031496062992126,0.0696008580207825,-0.0992873122215271,0.136919430828094
0.0321017565112053,-0.136370821666718,-0.118447468471527,0.182424801921844
0.0327074500302847,-0.143555880260468,-0.195088093471527,0.151289548015594
0.033313143549364,0.055230740833282506,0.0587839768409729,0.136919430828094
0.0339188370684434,-0.112420626354218,0.202485148715973,0.146499508953094
0.0345245305875227,0.115106229114532,0.049203898715972895,0.251880368328094
0.0351302241066021,0.0719958775520325,0.118659465122223,0.328520993328094
0.0357359176256814,-0.0812853724479675,0.049203898715972895,0.266250485515594
0.0363416111447607,0.0696008580207825,-0.0609669997215271,0.00279833707809435
0.0369473046638401,0.0600207798957825,-0.0777321364402771,0.283015622234344
0.0375529981829194,0.0193054478645325,-0.0897072340965271,0.273435544109344
0.0381586917019988,-0.136370821666718,-0.161557820034027,0.06746386442184431
0.0387643852210781,-0.210616427135468,-0.0537819411277771,0.0267485323905944
0.0393700787401575,-0.011829806041717501,-0.0465968825340271,-0.11455761995315601
0.0399757722592368,0.00014529161453246,-0.041806843471527105,-0.09779248323440569
0.0405814657783162,-0.122000704479218,-0.00109151144027708,0.15847460660934398
0.0411871592973955,-0.107630587291718,0.0276487229347229,0.187214840984344
0.0417928528164749,-0.162716036510468,-0.183112995815277,0.021958493328094398
0.0423985463355542,-0.0788903529167175,0.00609354715347292,0.21356005582809398
0.0430042398546336,-0.112420626354218,0.0252537034034729,0.0387236300468443
0.0436099333737129,-0.0788903529167175,-0.034621784877777104,0.0435136691093443
0.0442156268927922,0.00014529161453246,0.0971042893409729,0.132129391765594
0.0448213204118716,-0.0860754115104675,-0.0825221755027771,0.230325192546844
0.0454270139309509,0.08636599473953249,-0.245383503627777,0.17284472379684399
0.0460327074500303,0.127081326770782,-0.0657570387840271,0.06506884489059431
0.0466384009691096,-0.0812853724479675,0.152189738559723,0.242300290203094
0.047244094488189,-0.0309899622917175,-0.120842488002777,0.08662402067184431
0.0478497880072683,-0.112420626354218,-0.0489919020652771,0.21356005582809398
0.0484554815263477,-0.148345919322968,0.00609354715347292,0.21835009489059398
0.049061175045427,-0.0884704310417175,-0.178322956752777,0.000403317546844352
0.0496668685645064,-0.0501501185417175,-0.0537819411277771,0.14889452848434398
0.0502725620835857,-0.0309899622917175,-0.0705470778465271,0.285410641765594
0.050878255602665,-0.157925997447968,-0.149582722377777,0.115364255046844
0.0514839491217444,-0.00224972791671754,0.00609354715347292,0.0267485323905944
0.0520896426408237,0.052835721302032505,-0.0657570387840271,0.369236325359344
0.0526953361599031,-0.215406466197968,0.00609354715347292,0.136919430828094
0.0533010296789824,-0.033384981822967494,-0.0322267653465271,0.0554887667655943
0.0539067231980618,0.0384656041145325,-0.0753371169090271,0.27104052457809397
0.0545124167171411,-0.193851290416718,-0.034621784877777104,0.182424801921844
0.0551181102362205,0.07678591661453249,0.0276487229347229,0.07225390348434431
0.0557238037552998,0.0983410923957825,0.0420188401222229,0.146499508953094
0.0563294972743792,-0.165111056041718,0.00130350809097292,0.08422900114059431
0.0569351907934585,-0.157925997447968,-0.185508015346527,0.17284472379684399
0.0575408843125379,-0.0836803919792175,-0.173532917690277,0.28062060270309397
0.0581465778316172,-0.09805050916671751,-0.00109151144027708,0.160869626140594
0.0587522713506965,-0.122000704479218,-0.015461628627777101,0.29020068082809397
0.0593579648697759,0.052835721302032505,-0.154372761440277,0.180029782390594
0.0599636583888552,0.0600207798957825,-0.0944972731590271,0.117759274578094
0.0605693519079346,-0.0238049036979675,-0.0561769606590271,0.22793017301559398
0.0611750454270139,0.08876101427078249,-0.116052448940277,-0.025941897296905603
0.0617807389460933,-0.0573351771354675,0.0156736252784729,0.134524411296844
0.0623864324651726,-0.141160860729218,-0.142397663784027,0.203979977703094
0.062992125984252,0.0624157994270325,-0.147187702846527,0.156079587078094
0.0635978195033313,-0.165111056041718,-0.0849171950340271,0.393186520671844
0.0642035130224107,-0.100445528697968,-0.252568562221527,0.129734372234344
0.06480920654149,-0.0549401576042175,-0.0489919020652771,0.230325192546844
0.0654149000605694,-0.0285949427604675,-0.151977741909027,0.196794919109344
0.0660205935796487,-0.102840548229218,-0.219038288784027,0.16326464567184398
0.066626287098728,-0.0525451380729675,-0.118447468471527,0.266250485515594
0.0672319806178074,-0.0525451380729675,-0.221433308315277,0.0363286105155943
0.0678376741368867,-0.122000704479218,-0.231013386440277,0.426716794109344
0.0684433676559661,0.07439089708328249,-0.0873122145652771,0.117759274578094
0.0690490611750454,0.0672058384895325,-0.219038288784027,-0.10976758089065601
0.0696547546941248,0.0145154088020325,-0.0944972731590271,-0.13611279573440602
0.0702604482132041,0.0049353306770324595,-0.0537819411277771,-0.289394045734406
0.0708661417322835,0.0911560338020325,-0.12802754659652701,0.493777340984344
0.0714718352513628,-0.0477550990104675,-0.180717976284027,0.278225583171844
0.0720775287704422,-0.0764953333854675,-0.178322956752777,-0.09539746370315569
0.0726832222895215,-0.0238049036979675,0.00130350809097292,0.100994137859344
0.0732889158086008,0.0648108189582825,-0.10886739034652701,-0.0786323269844057
0.0738946093276802,-0.0525451380729675,-0.0561769606590271,0.112969235515594
0.0745003028467595,0.0264905064582825,-0.034621784877777104,0.20877001676559398
0.0751059963658389,0.055230740833282506,-0.10647237081527701,0.189609860515594
0.0757116898849182,-0.26091183729171796,-0.0921022536277771,0.347681149578094
0.0763173834039976,-0.24175168104171801,0.0563889573097229,0.160869626140594
0.0769230769230769,-0.0741003138542175,-0.0561769606590271,0.132129391765594
0.0775287704421563,-0.141160860729218,0.0300437424659729,0.21835009489059398
0.0781344639612356,-0.0261999232292175,-0.10647237081527701,0.0578837862968443
0.078740157480315,-0.00224972791671754,0.111474406528473,0.019563473796844397
0.0793458509993943,-0.110025606822968,-0.0585719801902771,0.0578837862968443
0.0799515445184737,-0.0477550990104675,-0.123237507534027,-0.10258252229690601
0.080557238037553,-0.042965059947967496,0.0899192307472229,0.129734372234344
0.0811629315566323,-0.239356661510468,-0.0657570387840271,0.266250485515594
0.0817686250757117,0.0049353306770324595,-0.0298317458152771,0.0602788058280943
0.082374318594791,-0.138765841197968,-0.0657570387840271,0.132129391765594
0.0829800121138704,-0.32318234510421795,-0.154372761440277,0.08422900114059431
0.0835857056329497,0.00733035020828246,-0.149582722377777,0.194399899578094
0.0841913991520291,-0.217801485729218,0.00609354715347292,0.184819821453094
0.0847970926711084,0.00254031114578246,0.0252537034034729,0.12494433317184399
0.0854027861901878,-0.0453600794792175,0.180929972934723,0.359656247234344
0.0860084797092671,-0.033384981822967494,0.0180686448097229,0.0985991183280943
0.0866141732283465,0.0719958775520325,-0.233408405971527,0.151289548015594
0.0872198667474258,-0.160321016979218,0.051598918247222895,0.249485348796844
0.0878255602665051,-0.0812853724479675,-0.0274367262840271,0.306965817546844
0.0884312537855845,0.115106229114532,-0.211853230190277,0.211165036296844
0.0890369473046638,0.0719958775520325,-0.0753371169090271,0.0602788058280943
0.0896426408237432,-0.035780001354217494,-0.180717976284027,0.06267382535934429
0.0902483343428225,0.117501248645782,0.118659465122223,0.0291435519218444
0.0908540278619019,-0.133975802135468,0.0731540940284729,0.254275387859344
0.0914597213809812,-0.179481173229218,-0.0897072340965271,0.192004880046844
0.0920654149000606,0.00014529161453246,-0.0921022536277771,0.177634762859344
0.0926711084191399,-0.0764953333854675,-0.202273152065277,0.220745114421844
0.0932768019382193,-0.0477550990104675,-0.151977741909027,0.16805468473434398
0.0938824954572986,-0.0669152552604675,-0.0729420973777771,0.07943896207809431
0.094488188976378,0.0360705845832825,0.06596903543472289,0.07225390348434431
0.0950938824954573,0.112711209583282,0.0611789963722229,0.100994137859344
0.0956995760145366,0.220487088489532,0.0180686448097229,0.127339352703094
0.096305269533616,0.045650662708282504,-0.144792683315277,0.22314013395309398
0.0969109630526953,-0.131580782604218,-0.190298054409027,0.112969235515594
0.0975166565717747,-0.0453600794792175,-0.044201863002777106,0.196794919109344
0.098122350090854,-0.0788903529167175,-0.168742878627777,0.151289548015594
0.0987280436099334,-0.009434786510467539,-0.199878132534027,0.575208005046844
0.0993337371290127,-0.011829806041717501,-0.154372761440277,0.0602788058280943
0.0999394306480921,0.045650662708282504,-0.13760762472152702,-0.164853030109406
0.100545124167171,-0.038175020885467495,-0.0705470778465271,0.474617184734344
0.101150817686251,0.189351834583282,-0.0489919020652771,0.23272021207809399
0.10175651120533,0.170191678333282,0.0276487229347229,0.22793017301559398
0.102362204724409,-0.227381563854218,-0.0489919020652771,-0.0187568387031556
0.102967898243489,0.00972536973953246,-0.142397663784027,0.105784176921844
0.103573591762568,0.167796658802032,-0.044201863002777106,0.259065426921844
0.104179285281647,-0.100445528697968,0.0348337815284729,0.211165036296844
0.104784978800727,-0.203431368541718,-0.120842488002777,-0.0834223660469057
0.105390672319806,-0.0645202357292175,-0.10407735128402701,-0.00917676057815565
0.105996365838886,-0.18187619276046801,0.0324387619972229,0.22314013395309398
0.106602059357965,-0.033384981822967494,0.0755491135597229,-0.0115717801094056
0.107207752877044,-0.0309899622917175,-0.0657570387840271,0.21356005582809398
0.107813446396124,0.242042264270782,0.0180686448097229,0.230325192546844
0.108419139915203,0.146241483020782,0.0827341721534729,-0.0714472683906557
0.109024833434282,-0.119605684947968,-0.19748311300277702,0.12015429410934399
0.109630526953362,0.0049353306770324595,0.0611789963722229,0.100994137859344
0.110236220472441,-0.126790743541718,0.06596903543472289,0.048303708171844296
0.11084191399152,0.112711209583282,0.0276487229347229,-0.0187568387031556
0.1114476075106,0.0193054478645325,0.00848856668472292,0.117759274578094
0.112053301029679,0.117501248645782,-0.10168233175277701,0.388396481609344
0.112658994548758,-0.00703976697921754,0.0755491135597229,0.237510251140594
0.113264688067838,0.052835721302032505,-0.0130666090965271,0.12494433317184399
0.113870381586917,0.103131131458282,-0.0202516676902771,0.201584958171844
0.114476075105996,-0.033384981822967494,0.0420188401222229,0.08183398160934431
0.115081768625076,0.0360705845832825,-0.125632527065277,0.048303708171844296
0.115687462144155,0.115106229114532,-0.00109151144027708,0.230325192546844
0.116293155663234,-0.131580782604218,0.0851291916847229,0.07464892301559431
0.116898849182314,-0.124395724010468,-0.118447468471527,0.247090329265594
0.117504542701393,0.270782498645782,0.0420188401222229,0.287805661296844
0.118110236220472,-0.0764953333854675,0.0899192307472229,-0.09060742464065569
0.118715929739552,-0.217801485729218,-0.0202516676902771,-0.0810273465156557
0.119321623258631,-0.042965059947967496,-0.0585719801902771,0.0363286105155943
0.11992731677771,0.07678591661453249,-0.25017354269027703,0.07943896207809431
0.12053301029679,-0.0477550990104675,-0.0513869215965271,0.139314450359344
0.121138703815869,-0.167506075572968,-0.140002644252777,0.201584958171844
0.121744397334949,-0.189061251354218,-0.13760762472152702,0.0938090792655943
0.122350090854028,-0.129185763072968,0.0420188401222229,0.335706051921844
0.122955784373107,0.0360705845832825,-0.10168233175277701,0.259065426921844
0.123561477892187,0.139056424427032,0.00848856668472292,0.199189938640594
0.124167171411266,-0.0453600794792175,-0.0322267653465271,0.239905270671844
0.124772864930345,-0.100445528697968,-0.0968922926902771,0.177634762859344
0.125378558449425,-0.165111056041718,-0.0657570387840271,0.20877001676559398
0.125984251968504,-0.122000704479218,0.0036985276222229204,0.177634762859344
0.126589945487583,0.155821561145782,0.17134989480972299,0.07464892301559431
0.127195639006663,-0.0453600794792175,-0.0657570387840271,0.06506884489059431
0.127801332525742,-0.215406466197968,0.0396238205909729,0.117759274578094
0.128407026044821,-0.122000704479218,0.192905070590973,-0.10976758089065601
0.129012719563901,0.0408606236457825,-0.0705470778465271,0.0315385714530944
0.12961841308298,-0.117210665416718,-0.00348653097152708,-0.0762373074531557
0.130224106602059,-0.0309899622917175,-0.0489919020652771,0.572812985515594
0.130829800121139,0.0600207798957825,-0.130422566127777,0.515332516765594
0.131435493640218,-0.0477550990104675,-0.130422566127777,0.0914140597343443
0.132041187159297,0.251622342395782,0.049203898715972895,0.220745114421844
0.132646880678377,0.00254031114578246,-0.0729420973777771,-0.0355219754219057
0.133252574197456,-0.112420626354218,-0.216643269252777,0.16326464567184398
0.133858267716535,0.057625760364532506,0.130634562778473,0.309360837078094
0.134463961235615,-0.0812853724479675,-0.0585719801902771,0.0985991183280943
0.135069654754694,0.184561795520782,-0.214248249721527,0.0291435519218444
0.135675348273773,0.141451443958282,-0.0873122145652771,0.278225583171844
0.136281041792853,0.227672147083282,-0.015461628627777101,0.333311032390594
0.136886735311932,0.215697049427032,0.0036985276222229204,0.06985888395309431
0.137492428831012,-0.062125216197967494,-0.154372761440277,0.07943896207809431
0.138098122350091,0.136661404895782,-0.0681520583152771,0.244695309734344
0.13870381586917,-0.0573351771354675,0.0420188401222229,0.302175778484344
0.13930950938825,-0.107630587291718,-0.022646687221527097,0.136919430828094
0.139915202907329,-0.038175020885467495,-0.147187702846527,0.07943896207809431
0.140520896426408,-0.040570040416717496,-0.142397663784027,0.15368456754684398
0.141126589945488,0.052835721302032505,0.022858683872222903,0.0914140597343443
0.141732283464567,0.057625760364532506,0.022858683872222903,0.29020068082809397
0.142337976983646,0.055230740833282506,0.125844523715973,0.12015429410934399
0.142943670502726,-0.124395724010468,-0.044201863002777106,0.15847460660934398
0.143549364021805,-0.0477550990104675,0.0036985276222229204,-0.023546877765655602
0.144155057540884,0.105526150989532,0.0156736252784729,0.0530937472343443
0.144760751059964,-0.148345919322968,-0.221433308315277,0.326125973796844
0.145366444579043,-0.169901095104218,-0.0609669997215271,0.129734372234344
0.145972138098122,0.117501248645782,-0.0322267653465271,0.21835009489059398
0.146577831617202,0.151031522083282,0.051598918247222895,0.22793017301559398
0.147183525136281,0.0600207798957825,-0.130422566127777,0.335706051921844
0.14778921865536,0.143846463489532,-0.0058815505027770805,0.12494433317184399
0.14839491217444,-0.0166198451042175,0.06836405496597289,0.06506884489059431
0.149000605693519,-0.167506075572968,-0.142397663784027,0.160869626140594
0.149606299212598,0.0288855259895325,-0.0681520583152771,0.242300290203094
0.150211992731678,0.122291287708282,0.0971042893409729,0.311755856609344
0.150817686250757,-0.033384981822967494,0.16655985574722298,0.175239743328094
0.151423379769836,0.117501248645782,0.106684367465973,0.144104489421844
0.152029073288916,-0.042965059947967496,-0.0777321364402771,0.151289548015594
0.152634766807995,-0.0477550990104675,-0.041806843471527105,0.136919430828094
0.153240460327075,0.057625760364532506,0.0899192307472229,0.12494433317184399
0.153846153846154,-0.208221407604218,0.0348337815284729,0.177634762859344
0.154451847365233,0.055230740833282506,0.049203898715972895,0.06267382535934429
0.155057540884313,0.00254031114578246,-0.120842488002777,0.0506987277030943
0.155663234403392,-0.009434786510467539,-0.116052448940277,0.206374997234344
0.156268927922471,0.0672058384895325,-0.175927937221527,0.302175778484344
0.156874621441551,0.00254031114578246,0.0324387619972229,0.215955075359344
0.15748031496063,0.0121203892707825,0.0947092698097229,0.08422900114059431
0.158086008479709,0.052835721302032505,-0.0585719801902771,0.0602788058280943
0.158691701998789,0.115106229114532,0.0348337815284729,0.189609860515594
0.159297395517868,-0.009434786510467539,0.0947092698097229,0.362051266765594
0.159903089036947,-0.0717052943229675,-0.0825221755027771,0.0075883761405943495
0.160508782556027,0.131871365833282,-0.0968922926902771,0.45066698942184397
0.161114476075106,-0.0645202357292175,-0.0178566481590271,0.283015622234344
0.161720169594185,-0.0788903529167175,-0.219038288784027,-0.11216260042190601
0.162325863113265,0.0336755650520325,-0.195088093471527,0.0554887667655943
0.162931556632344,-0.009434786510467539,0.0587839768409729,0.22314013395309398
0.163537250151423,0.0312805455207825,-0.022646687221527097,0.15368456754684398
0.164142943670503,0.0959460728645325,-0.135212605190277,0.021958493328094398
0.164748637189582,0.119896268177032,-0.140002644252777,0.292595700359344
0.165354330708661,0.172586697864532,-0.10407735128402701,0.0075883761405943495
0.165960024227741,-0.0693102747917175,0.142609660434723,0.12254931364059399
0.16656571774682,-0.258516817760468,-0.0130666090965271,0.100994137859344
0.167171411265899,-0.107630587291718,-0.166347859096527,0.12494433317184399
0.167777104784979,0.119896268177032,-0.039411823940277105,0.199189938640594
0.168382798304058,0.115106229114532,-0.147187702846527,0.20877001676559398
0.168988491823137,0.0624157994270325,-0.154372761440277,0.201584958171844
0.169594185342217,0.00733035020828246,-0.161557820034027,0.0339335909843443
0.170199878861296,-0.00224972791671754,-0.178322956752777,-0.0882124051094057
0.170805572380376,-0.040570040416717496,-0.120842488002777,0.108179196453094
0.171411265899455,-0.162716036510468,-0.125632527065277,0.16805468473434398
0.172016959418534,0.00972536973953246,0.046808879184722894,0.115364255046844
0.172622652937614,0.0983410923957825,-0.231013386440277,0.21835009489059398
0.173228346456693,-0.0309899622917175,-0.199878132534027,0.0578837862968443
0.173834039975772,-0.251331759166718,-0.163952839565277,0.156079587078094
0.174439733494852,-0.100445528697968,-0.0178566481590271,0.314150876140594
0.175045427013931,0.0145154088020325,-0.0489919020652771,0.285410641765594
0.17565112053301,-0.0525451380729675,-0.242988484096527,0.215955075359344
0.17625681405209,0.289942654895782,-0.338789265346527,-0.0522871121406557
0.176862507571169,0.263597440052032,-0.149582722377777,0.0387236300468443
0.177468201090248,-0.31120724744796796,0.06357401590347289,0.00998339567184435
0.178073894609328,0.112711209583282,-0.161557820034027,0.110574215984344
0.178679588128407,-0.153135958385468,-0.0897072340965271,0.268645505046844
0.179285281647486,-0.165111056041718,-0.307654011440277,0.06985888395309431
0.179890975166566,0.0145154088020325,-0.034621784877777104,0.07943896207809431
0.180496668685645,-0.0741003138542175,0.00609354715347292,0.151289548015594
0.181102362204724,0.0672058384895325,-0.0897072340965271,0.15847460660934398
0.181708055723804,-0.062125216197967494,0.00848856668472292,0.266250485515594
0.182313749242883,0.0360705845832825,-0.240593464565277,0.00279833707809435
0.182919442761962,0.139056424427032,-0.0130666090965271,0.12494433317184399
0.183525136281042,0.0121203892707825,-0.13281758565902702,0.402766598796844
0.184130829800121,-0.107630587291718,-0.185508015346527,0.100994137859344
0.1847365233192,0.055230740833282506,0.020463664340972902,0.203979977703094
0.18534221683828,0.00014529161453246,-0.0178566481590271,0.07704394254684431
0.185947910357359,-0.0309899622917175,-0.0705470778465271,0.165659665203094
0.186553603876439,0.00254031114578246,-0.0585719801902771,0.127339352703094
0.187159297395518,-0.122000704479218,-0.0681520583152771,0.266250485515594
0.187764990914597,0.110316190052032,-0.18790303487777701,0.285410641765594
0.188370684433677,0.167796658802032,0.0851291916847229,0.103389157390594
0.188976377952756,-0.0525451380729675,-0.00827657003402708,-0.0546821316719057
0.189582071471835,-0.0836803919792175,-0.044201863002777106,0.321335934734344
0.190187764990915,0.0049353306770324595,-0.0298317458152771,0.505752438640594
0.190793458509994,0.115106229114532,0.0156736252784729,0.0435136691093443
0.191399152029073,0.0169104283332825,-0.0729420973777771,0.132129391765594
0.192004845548153,0.00254031114578246,-0.307654011440277,-0.0642622097969057
0.192610539067232,-0.169901095104218,0.147399699497223,-0.20077832307815602
0.193216232586311,-0.0285949427604675,0.176139933872223,0.287805661296844
0.193821926105391,0.00014529161453246,-0.0921022536277771,0.0339335909843443
0.19442761962447,-0.145950899791718,0.123449504184723,0.0243535128593444
0.195033313143549,0.0432556431770325,-0.0921022536277771,0.144104489421844
0.195639006662629,-0.0285949427604675,-0.168742878627777,0.08662402067184431
0.196244700181708,0.00014529161453246,0.0875242112159729,0.203979977703094
0.196850393700787,0.048045682239532504,0.0252537034034729,0.134524411296844
0.197456087219867,-0.325577364635468,0.0348337815284729,0.07943896207809431
0.198061780738946,0.021700467395782498,-0.345974323940277,0.0602788058280943
0.198667474258025,-0.0669152552604675,-0.0777321364402771,0.242300290203094
0.199273167777105,-0.36150265760421796,0.101894328403473,0.165659665203094
0.199878861296184,0.0193054478645325,-0.0753371169090271,0.0962040987968443
0.200484554815263,-0.157925997447968,0.022858683872222903,0.15368456754684398
0.201090248334343,-0.035780001354217494,-0.29328389425277696,-0.0115717801094056
0.201695941853422,0.0624157994270325,-0.211853230190277,-0.124137698078156
0.202301635372502,-0.117210665416718,-0.0298317458152771,-0.0139667996406556
0.202907328891581,0.0959460728645325,0.07075907449722289,0.215955075359344
0.20351302241066,-0.062125216197967494,0.159374797153473,0.117759274578094
0.20411871592974,0.182166775989532,-0.171137898159027,-0.0187568387031556
0.204724409448819,-0.00703976697921754,-0.149582722377777,0.242300290203094
0.205330102967898,-0.184271212291718,0.0372288010597229,0.0985991183280943
0.205935796486978,0.0145154088020325,-0.202273152065277,0.21835009489059398
0.206541490006057,0.0169104283332825,-0.231013386440277,0.261460446453094
0.207147183525136,-0.0190148646354675,-0.10886739034652701,0.0411186495780943
0.207752877044216,0.048045682239532504,-0.259753620815277,-0.023546877765655602
0.208358570563295,-0.0764953333854675,-0.0897072340965271,-0.0690522488594057
0.208964264082374,-0.275281954479218,0.178534953403473,0.07464892301559431
0.209569957601454,-0.265701876354218,-0.116052448940277,0.144104489421844
0.210175651120533,-0.100445528697968,-0.118447468471527,0.0506987277030943
0.210781344639612,0.0719958775520325,-0.185508015346527,0.15847460660934398
0.211387038158692,-0.0693102747917175,-0.10647237081527701,0.0075883761405943495
0.211992731677771,0.0264905064582825,0.111474406528473,0.07943896207809431
0.21259842519685,-0.0717052943229675,-0.0130666090965271,0.311755856609344
0.21320411871593,-0.153135958385468,-0.175927937221527,0.196794919109344
0.213809812235009,0.08397097520828249,-0.166347859096527,0.07225390348434431
0.214415505754088,0.311497830677032,-0.0729420973777771,0.21356005582809398
0.215021199273168,-0.0597301966667175,0.0444138596534729,0.0267485323905944
0.215626892792247,-0.0597301966667175,-0.0921022536277771,-0.004386721515655651
0.216232586311326,-0.035780001354217494,-0.19269307394027702,0.287805661296844
0.216838279830406,-0.0285949427604675,-0.0561769606590271,0.06746386442184431
0.217443973349485,-0.114815645885468,-0.0465968825340271,0.06985888395309431
0.218049666868565,-0.0788903529167175,0.0372288010597229,0.0578837862968443
0.218655360387644,-0.033384981822967494,0.0036985276222229204,0.347681149578094
0.219261053906723,0.050440701770782505,-0.041806843471527105,-0.0187568387031556
0.219866747425803,0.0719958775520325,-0.0921022536277771,-0.0858173855781557
0.220472440944882,-0.033384981822967494,0.0324387619972229,0.704539059734344
0.221078134463961,-0.179481173229218,0.0731540940284729,0.292595700359344
0.221683827983041,-0.138765841197968,-0.0106715895652771,0.0530937472343443
0.22228952150212,-0.165111056041718,-0.0106715895652771,0.249485348796844
0.222895215021199,-0.215406466197968,0.013278605747222899,0.103389157390594
0.223500908540279,-0.169901095104218,-0.00348653097152708,0.0914140597343443
0.224106602059358,-0.0741003138542175,-0.0825221755027771,0.438691891765594
0.224712295578437,0.0193054478645325,0.00609354715347292,0.110574215984344
0.225317989097517,-0.112420626354218,-0.190298054409027,0.141709469890594
0.225923682616596,-0.0573351771354675,-0.307654011440277,0.359656247234344
0.226529376135675,0.00733035020828246,-0.0921022536277771,-0.0139667996406556
0.227135069654755,0.045650662708282504,-0.0921022536277771,0.115364255046844
0.227740763173834,-0.00464474744796754,0.190510051059723,0.0506987277030943
0.228346456692913,0.0624157994270325,-0.0561769606590271,0.249485348796844
0.228952150211993,0.0169104283332825,-0.116052448940277,0.364446286296844
0.229557843731072,-0.0309899622917175,-0.10886739034652701,-0.0283369168281556
0.230163537250151,0.0600207798957825,-0.156767780971527,0.182424801921844
0.230769230769231,0.146241483020782,0.0563889573097229,0.40037157926559397
0.23137492428831,-0.09565548963546751,-0.0322267653465271,0.22793017301559398
0.231980617807389,0.00972536973953246,-0.0729420973777771,0.211165036296844
0.232586311326469,0.00733035020828246,0.0444138596534729,0.144104489421844
0.233192004845548,-0.0693102747917175,-0.00109151144027708,0.12015429410934399
0.233797698364627,0.165401639270782,0.0300437424659729,0.203979977703094
0.234403391883707,0.117501248645782,0.0300437424659729,0.100994137859344
0.235009085402786,0.048045682239532504,-0.19748311300277702,0.249485348796844
0.235614778921866,-0.177086153697968,-0.13281758565902702,0.285410641765594
0.236220472440945,-0.150740938854218,-0.142397663784027,0.203979977703094
0.236826165960024,0.117501248645782,0.022858683872222903,0.180029782390594
0.237431859479104,-0.0884704310417175,0.0827341721534729,0.21835009489059398
0.238037552998183,-0.00464474744796754,-0.242988484096527,0.160869626140594
0.238643246517262,0.052835721302032505,-0.214248249721527,0.00998339567184435
0.239248940036342,0.057625760364532506,-0.0298317458152771,0.211165036296844
0.239854633555421,-0.114815645885468,-0.0537819411277771,0.266250485515594
0.2404603270745,-0.122000704479218,0.0300437424659729,0.297385739421844
0.24106602059358,0.246832303333282,-0.151977741909027,0.254275387859344
0.241671714112659,0.167796658802032,-0.151977741909027,-0.045102053546905704
0.242277407631738,-0.0525451380729675,-0.00348653097152708,0.170449704265594
0.242883101150818,0.129476346302032,-0.286098835659027,0.273435544109344
0.243488794669897,-0.00703976697921754,-0.140002644252777,-0.0570771512031557
0.244094488188976,-0.244146700572968,-0.159162800502777,-0.09300244417190569
0.244700181708056,-0.172296114635468,-0.0777321364402771,0.07704394254684431
0.245305875227135,-0.153135958385468,-0.13281758565902702,0.15368456754684398
0.245911568746214,0.0384656041145325,0.0755491135597229,0.203979977703094
0.246517262265294,-0.0573351771354675,0.113869426059723,0.0914140597343443
0.247122955784373,-0.0812853724479675,-0.0825221755027771,0.21356005582809398
0.247728649303452,0.0145154088020325,-0.0849171950340271,0.117759274578094
0.248334342822532,-0.143555880260468,-0.231013386440277,0.17284472379684399
0.248940036341611,-0.126790743541718,-0.0298317458152771,0.0435136691093443
0.24954572986069,0.0432556431770325,0.116264445590973,-0.14090283479690602
0.25015142337977,0.131871365833282,0.00609354715347292,0.551257809734344
0.250757116898849,0.0169104283332825,-0.0322267653465271,0.15847460660934398
0.251362810417929,0.08397097520828249,0.0971042893409729,0.309360837078094
0.251968503937008,0.048045682239532504,-0.140002644252777,0.6039482394218441
0.252574197456087,-0.155530977916718,-0.0489919020652771,0.16805468473434398
0.253179890975167,0.0288855259895325,-0.211853230190277,0.07943896207809431
0.253785584494246,-0.107630587291718,-0.211853230190277,0.105784176921844
0.254391278013325,-0.062125216197967494,0.0372288010597229,0.12254931364059399
0.254996971532405,-0.035780001354217494,0.013278605747222899,0.225535153484344
0.255602665051484,-0.165111056041718,-0.0609669997215271,0.132129391765594
0.256208358570563,-0.0669152552604675,-0.156767780971527,0.139314450359344
0.256814052089643,0.0935510533332825,-0.317234089565277,0.16805468473434398
0.257419745608722,-0.162716036510468,-0.0513869215965271,0.045908688640594296
0.258025439127801,-0.102840548229218,-0.0058815505027770805,0.151289548015594
0.258631132646881,0.0145154088020325,-0.0465968825340271,0.07943896207809431
0.25923682616596,-0.0645202357292175,-0.154372761440277,-0.00678174104690565
0.259842519685039,0.0240954869270325,-0.183112995815277,0.07704394254684431
0.260448213204119,-0.105235567760468,-0.039411823940277105,0.268645505046844
0.261053906723198,-0.038175020885467495,0.0899192307472229,0.048303708171844296
0.261659600242277,0.110316190052032,0.137819621372223,0.08422900114059431
0.262265293761357,0.146241483020782,-0.0753371169090271,0.206374997234344
0.262870987280436,0.0648108189582825,-0.0873122145652771,0.08901904020309431
0.263476680799515,-0.143555880260468,-0.00109151144027708,0.0315385714530944
0.264082374318595,-0.011829806041717501,0.0755491135597229,0.21835009489059398
0.264688067837674,0.0600207798957825,0.190510051059723,0.306965817546844
0.265293761356753,-0.208221407604218,0.06836405496597289,0.304570798015594
0.265899454875833,-0.09326047010421751,-0.219038288784027,0.237510251140594
0.266505148394912,-0.239356661510468,-0.149582722377777,0.06746386442184431
0.267110841913992,0.301917752552032,0.152189738559723,-0.00917676057815565
0.267716535433071,-0.0788903529167175,-0.120842488002777,-0.251073733234406
0.26832222895215,-0.26330685682296795,-0.13760762472152702,-0.10737256135940601
0.26892792247123,0.07918093614578249,-0.0585719801902771,0.393186520671844
0.269533615990309,-0.404613009166718,-0.0897072340965271,-0.0714472683906557
0.270139309509388,0.107921170520782,-0.0585719801902771,0.266250485515594
0.270745003028468,-0.172296114635468,-0.0897072340965271,0.352471188640594
0.271350696547547,0.0193054478645325,-0.034621784877777104,-0.0211518582344056
0.271956390066626,0.27796755723953204,-0.039411823940277105,0.175239743328094
0.272562083585706,-0.0693102747917175,0.101894328403473,0.12015429410934399
0.273167777104785,-0.00464474744796754,0.118659465122223,0.22793017301559398
0.273773470623864,-0.335157442760468,0.0252537034034729,0.0291435519218444
0.274379164142944,0.186956815052032,-0.27172871847152696,0.139314450359344
0.274984857662023,-0.179481173229218,0.06836405496597289,0.110574215984344
0.275590551181102,-0.0693102747917175,-0.0968922926902771,0.12015429410934399
0.276196244700182,0.0264905064582825,-0.221433308315277,0.136919430828094
0.276801938219261,-0.186666231822968,0.259965617465973,0.27104052457809397
0.27740763173834,0.186956815052032,-0.0130666090965271,0.438691891765594
0.27801332525742,-0.110025606822968,0.0372288010597229,-0.12653271760940601
0.278619018776499,0.057625760364532506,0.0372288010597229,0.180029782390594
0.279224712295578,0.021700467395782498,-0.0298317458152771,0.0267485323905944
0.279830405814658,0.021700467395782498,0.140214640903473,-0.09539746370315569
0.280436099333737,-0.035780001354217494,-0.10168233175277701,0.687773923015594
0.281041792852816,-0.407008028697968,-0.0513869215965271,0.177634762859344
0.281647486371896,-0.8596667201042181,-1.2273415114402801,0.12015429410934399
0.282253179890975,0.871932400989532,0.6575388596534729,-0.270233889484406
0.282858873410055,2.48617556505203,2.11371073465347,0.6159233370780941
0.283464566929134,-2.01646115369797,-2.1446339919090303,0.170449704265594
0.284070260448213,-0.823741427135468,-0.844138386440277,-0.948024416828156
0.284675953967293,0.43843386583328203,1.08864237527847,1.06618700895309
0.285281647486372,-0.5794494349479681,0.204880168247223,-0.143297854328156
0.285887341005451,0.852772244739532,0.523417765903473,0.15847460660934398
0.286493034524531,-2.90980343885422,-2.53502217550278,-1.07496045198441
0.28709872804361,2.5652112095832798,-0.908803913784027,-0.373219729328156
0.287704421562689,5.9733240025520296,6.63311259012222,1.7439775362968402
0.288310115081769,-5.84609738416672,-2.39850606222153,-1.07975049104691
0.288915808600848,-2.41403439588547,-5.2461842848777795,-0.751632815265656
0.289521502119927,2.08860232286453,3.79740946512222,1.95713427457809
0.290127195639007,0.440828885364532,1.15809794168472,-0.0522871121406557
0.290732889158086,0.946178006458282,0.540182902622223,-0.174433108234406
0.291338582677165,-3.35048703260422,-2.34342061300278,-1.4677436551094099
0.291944276196245,2.7017273228645298,-3.9145534255027803,-0.622301760578156
0.292549969715324,5.09435183458328,7.449814250278471,1.5092656222343401
0.293155663234403,-5.06532101697922,0.463542277622223,-0.8210883816719059
0.293761356753483,-4.21029904432297,-8.309414265346529,-0.725287600421906
0.294367050272562,2.93164919786453,4.295573527622221,0.891350583171844
0.294972743791641,3.8657068150520297,2.8346116135597197,0.831475094890594
0.295578437310721,-0.0501501185417175,0.013278605747222899,-0.13132275667190602
0.2961841308298,-4.6581676966667205,0.0971042893409729,-0.967184573078156
0.296789824348879,0.584530057239532,-6.78378682394028,-0.9192841824531559
0.297395517867959,6.0331994908332796,4.41292948465347,1.4062797823905901
0.298001211387038,-1.30514035291672,6.16129374246597,0.311755856609344
0.298606904906118,-6.5478381068229705,-8.68543233175278,-1.64018506135941
0.299212598425197,1.27429568223953,-0.0777321364402771,0.362051266765594
0.299818291944276,4.87880007677078,5.114670207309721,0.9632011691093441
0.300423985463356,-0.315997286510468,-0.676487019252777,0.690168942546844
0.301029678982435,-5.41978390760422,1.7113474534034698,-1.02945508089066
0.301635372501514,-1.11832882947922,-6.9155128981590295,-1.25937695589066
0.302241066020594,8.23661745958328,-0.9614943434715271,-0.0882124051094057
0.302846759539673,2.35684451036453,11.308190715122201,0.886560544109344
0.303452453058752,-9.38114621229172,-5.7778786208152795,1.05900195035934
0.304058146577832,-1.63086300916672,-5.25576436300278,-2.21738476839066
0.304663840096911,5.73861208848953,4.31233866434097,3.54024218473434
0.30526953361599,1.8443103306770299,2.8346116135597197,-0.981554690265656
0.30587522713507,-5.61378048963547,0.8180051682472229,0.139314450359344
0.306480920654149,-3.25708127088547,-6.33112813253403,-1.36715283479691
0.307086614173228,9.67841921739578,-3.39722920675278,-1.94435254182816
0.307692307692308,3.5998596470832798,9.99572001199722,4.6419511691093405
0.308298001211387,-10.5211755091667,0.779684855747223,-1.7407758816719099
0.308903694730466,-4.03546261854172,-9.89252217550278,-0.912099123859406
0.309509388249546,6.2655163853645295,2.84898173074722,1.2098881808280901
0.310115081768625,5.7936975377082796,5.79725077371597,0.412346676921844
0.310720775287704,-5.02939572401047,0.726994426059723,1.7320024386405901
0.311326468806784,-6.3083361536979705,-3.5217702223777803,-2.5622675808906603
0.311932162325863,7.1037732213020295,-7.02568379659653,-0.275023928546906
0.312537855844942,4.79018435411453,5.991247355747221,2.6037895480155897
0.313143549364022,-8.11657589979172,5.9241868088722205,-0.176828127765656
0.313749242883101,-4.82581906385422,-8.12739278097153,-0.926469241046906
0.31435493640218,5.69789675645828,-1.25847676534653,-0.10258252229690601
0.31496062992126,7.48937136583328,5.533798625278471,1.27694872770309
0.315566323440339,-4.18874386854172,2.1161057541847197,0.690168942546844
0.316172016959419,-9.66136349744797,-0.947124226284027,-1.37912793245316
0.316777710478498,4.87161501817703,-6.43411397237778,-0.7612128933906559
0.317383403997577,7.4702112095832796,-0.10168233175277701,-0.176828127765656
0.317989097516657,-3.92289670057297,8.30004618387222,0.7787846652030941
0.318594791035736,-6.81129025526047,-2.53502217550278,1.3128740206718401
0.319200484554815,2.22751345567703,-4.85579610128403,-1.89405713167191
0.319806178073895,7.19478396348953,2.11850077371597,1.77511279020309
0.320411871592974,-2.39008420057297,3.38546610574722,-0.583981448078156
0.321017565112053,-9.38833127088547,-0.35076436300277697,0.546467770671844
0.321623258631133,2.63706179552078,-4.72407002706528,-1.05580029573441
0.322228952150212,10.9381994908333,-2.42964131612778,-1.79586133089066
0.322834645669291,-2.0883117396354702,5.1194602463722205,3.06363329801559
0.323440339188371,-7.94413449354172,4.388979289340971,-1.3216474637031599
0.32404603270745,-1.24047482557297,-6.64487569112778,-0.023546877765655602
0.324651726226529,5.9733240025520296,-1.7015553786277802,0.953621090984344
0.325257419745609,1.98082644395828,6.039147746372221,-0.5791914090156559
0.325863113264688,-9.34282589979172,-0.7603127028465271,1.02786669645309
0.326468806783767,0.462384061145782,-2.53262715597153,-2.5119721707344103
0.327074500302847,12.3033606236458,-3.07150655050278,0.15368456754684398
0.327680193821926,-1.40812619276047,0.6575388596534729,0.6207133761405941
0.328285887341005,-8.14292111463547,7.32048319559097,0.472222165203094
0.328891580860085,-3.33851193494797,-4.225905964565279,2.0744902316093397
0.329497274379164,5.49671511583328,-5.21504903097153,-2.6149580105781602
0.330102967898244,6.53375857286453,5.90263163309097,1.9715043917655901
0.330708661417323,-9.62064816541672,1.6299167893409698,-0.5576362332344059
0.331314354936402,-1.3075353724479701,-2.15181905050278,-1.40068310823441
0.331920048455482,9.09403445177078,-2.05122823019028,1.11408739957809
0.332525741974561,0.155821561145782,-2.02967305440903,-2.34192578401566
0.33313143549364,-6.41611203260422,4.79134257059097,2.91514208707809
0.33373712901272,-4.88808957166672,2.01072489480972,0.20877001676559398
0.334342822531799,6.9840222447395295,-7.073584187221529,-1.12046582307816
0.334948516050878,6.85708620958328,3.07171854715347,1.3080839816093401
0.335554209569958,-7.27592404432297,5.466738078403471,-0.8737788113594059
0.336159903089037,-4.5647619349479704,-3.93610860128403,1.1619877902030902
0.336765596608116,6.67027468614578,-0.647746784877777,-1.54198926057816
0.337371290127196,3.99264285020828,-2.89188008565903,-1.19471142854691
0.337976983646275,-5.63773068494797,1.4383152268409698,0.893745602703094
0.338582677165354,-4.35639523572922,7.2749778244972205,-0.09779248323440569
0.339188370684434,3.7627209752082798,-6.343103230190279,1.24102343473434
0.339794064203513,5.98050906114578,-1.6368898512840302,-0.7731879910469059
0.340399757722592,-4.30130978651047,5.32782694559097,1.67931200895309
0.341005451241672,-7.75013791151047,-2.52783711690903,-0.167248049640656
0.341611144760751,7.83425417833328,0.0947092698097229,-1.26895703401566
0.34221683827983,6.62955935411453,-2.33384053487778,1.21707323942184
0.34282253179891,-6.94062130994797,-1.61054463644028,-3.1011469754219103
0.343428225317989,-3.50376828260422,7.57196024637222,3.16182909879684
0.344033918837068,-0.0166198451042175,-1.4189430739402802,0.201584958171844
0.344639612356148,5.57575076036453,-5.36833028097153,-1.8701069363594098
0.345245305875227,-0.756680880260468,4.388979289340971,2.36907763395309
0.345850999394306,-9.75955929822922,0.236015422153473,-3.35501904573441
0.346456692913386,7.8558093541145295,-2.1446339919090303,1.83259325895309
0.347062386432465,6.42119265489578,0.7964499924659729,-1.8054414090156599
0.347668079951545,-5.49881955213547,-5.17672871847153,-1.62341992464066
0.348273773470624,-4.28933468885422,5.2990867112159705,4.72817187223434
0.348879466989703,-1.1710192591667201,5.89544657449722,-0.964789553546906
0.349485160508783,5.72184695177078,-10.417031452846501,0.8171049777030941
0.350090854027862,1.19765505723953,4.12073710184097,-1.81502148714066
0.350696547546941,-8.57881466932297,4.00338114480972,0.594368161296844
0.351302241066021,3.99024783067703,-4.266621296596529,0.40037157926559397
0.3519079345851,7.93484499864578,2.91604227762222,-1.7455659207344099
0.352513628104179,-5.69521115369797,-6.163476765346529,0.242300290203094
0.353119321623259,-4.59110714979172,1.4766355393409698,0.06267382535934429
0.353725015142338,0.0935510533332825,8.81018534402847,2.6109746066093398
0.354330708661417,5.63802126817703,-7.578933308315279,-0.8594086941719059
0.354936402180497,2.7017273228645298,-0.49207051534652696,-0.8929389676094059
0.355542095699576,-7.77887814588547,6.132553508090971,0.8003398409843441
0.356147789218655,0.050440701770782505,-4.37679219503403,-0.847433596515656
0.356753482737735,7.47739626817703,1.17007303934097,0.5776030245780941
0.357359176256814,-1.93503048963547,-1.8213063551902802,-1.21387158479691
0.357964869775893,-4.91443478651047,-3.28466328878403,-1.01268994417191
0.358570563294973,0.208511990833282,8.83413553934097,2.84568652067184
0.359176256814052,4.8285046666145295,-2.15181905050278,-0.32771435823440603
0.359781950333131,1.80359499864578,-6.00061543722153,0.000403317546844352
0.360387643852211,-7.39807004041672,6.357685344028471,0.14889452848434398
0.36099333737129,-1.34825070447922,-2.70985860128403,0.0363286105155943
0.361599030890369,8.96230837755203,-1.0596901442527802,0.06746386442184431
0.362204724409449,0.8934875767707819,1.49579569559097,-2.1766694363594103
0.362810417928528,-6.13110470838547,-6.295202839565279,0.08183398160934431
0.363416111447607,-1.29795529432297,7.29413798074722,1.6721269503593401
0.364021804966687,3.67650027208328,3.94350565652847,1.17875292692184
0.364627498485766,1.28627077989578,-9.27939717550278,-1.04622021760941
0.365233192004846,-5.79340695447922,3.78064432840347,-1.07975049104691
0.365838885523925,-3.08703488416672,0.27673075418472304,0.647058590984344
0.366444579043004,10.4304553502083,-2.09433858175278,-0.842643557453156
0.367050272562084,2.69933230333328,3.94111063699722,0.15847460660934398
0.367655966081163,-9.49850216932297,-7.878310749721529,-1.75275097932816
0.368261659600242,-0.466883516979218,2.36039774637222,1.6673369112968401
0.368867353119322,1.81557009630203,9.05926737527847,3.8444096652030897
0.369473046638401,2.79273806505203,-7.35140645284653,-2.2964204129219103
0.37007874015748,-3.02476437635422,-1.48121358175278,0.908115719890594
0.37068443367656,-4.27735959119797,4.89193339090347,-0.8402485379219059
0.371290127195639,9.01739382677078,-3.43315449972153,0.347681149578094
0.371895820714718,2.51012576036453,3.30164042215347,-0.356454592609406
0.372501514233798,-8.25548703260422,-4.4342726637840295,-1.27853711214066
0.373107207752877,-2.50983517713547,-2.88709004659653,1.21946825895309
0.373712901271956,3.06577029161453,10.9297776291847,1.3847246066093402
0.374318594791036,4.8021594517707795,-3.83551778097153,0.608738278484344
0.374924288310115,-2.57689572401047,-4.08699483175278,-1.78628125276566
0.375529981829194,-5.92513302869797,5.50984842996597,0.5632329073905941
0.376135675348274,6.11463015489578,-2.64279805440903,-0.13132275667190602
0.376741368867353,5.07758669786453,0.5761081955909729,0.374026364421844
0.377347062386432,-6.26043576307297,0.348581340122223,-1.47971875276566
0.377952755905512,-3.51095334119797,-6.51075459737778,-0.198383303546906
0.378558449424591,3.45136843614578,7.914448039340971,1.77511279020309
0.379164142943671,4.7686291783332795,2.92083231668472,0.829080075359344
0.37976983646275,-3.06787472791672,-7.54540303487778,-0.7204975613594059
0.380375529981829,-7.1992834193229704,3.23218485574722,0.0291435519218444
0.380981223500909,3.99503786973953,-0.710017292690277,0.242300290203094
0.381586917019988,8.80663210802078,-0.690857136440277,-1.00789990510941
0.382192610539067,-3.72650509901047,2.48733378152847,-0.124137698078156
0.382798304058147,-6.55502316541672,-6.448484089565279,-1.89884717073441
0.383403997577226,2.70651736192703,2.66935526590347,2.4337431612968397
0.384009691096305,3.83696658067703,8.15874003152847,2.10562548551559
0.384615384615385,-2.26554318494797,-5.54077168722153,-1.59707470979691
0.385221078134464,-7.42441525526047,-2.90385518331528,-0.0283369168281556
0.385826771653543,2.57718630723953,2.90646219949722,-2.0425483426094098
0.386432465172623,11.764481229114502,-1.79017110128403,1.95473925504684
0.387038158691702,-2.5577355677604703,2.53283915262222,-0.9552094754219059
0.387643852210781,-8.77520627088547,-4.39834737081528,-1.3911030301094098
0.388249545729861,0.8982776158332819,-3.36609395284653,3.04686816129684
0.38885523924894,4.90754031114578,11.138144328403499,0.572812985515594
0.389460932768019,0.289942654895782,-2.90385518331528,0.912905758953094
0.390066626287099,-7.20167843885422,-5.6916579176902795,-3.24484814729691
0.390672319806178,1.14975466661453,3.29685038309097,0.867400387859344
0.391278013325257,10.9693347447395,0.176139933872223,0.0243535128593444
0.391883706844337,-1.30035031385422,1.55088114480972,-1.20908154573441
0.392489400363416,-10.188267794323,-2.5637624098777803,0.285410641765594
0.393095093882495,-0.035780001354217494,-4.58994893331528,-0.988739748859406
0.393700787401575,6.52178347520828,7.71805643777847,3.10195361051559
0.394306480920654,2.26104372911453,3.47408182840347,-0.174433108234406
0.394912174439733,-5.57546017713547,-7.03765889425278,-1.47971875276566
0.395517867958813,-3.08942990369797,1.6562620041847198,-0.0307319363594056
0.396123561477892,8.31086306505203,1.28982401590347,-0.248678713703156
0.396729254996972,3.0705603306770297,-0.748337605190277,1.27694872770309
0.397334948516051,-9.21588986463547,1.6682371018409698,-2.06170849885941
0.39794064203513,-1.93503048963547,-5.789853718471529,-0.356454592609406
0.39854633555421,6.39005740098953,2.4921238205909697,1.99545458707809
0.399152029073289,3.6693152134895297,7.75877176980972,0.994336423015594
0.399757722592368,-6.35384152479172,-5.21025899190903,-0.322924319171906
0.400363416111448,-7.11785275526047,-1.5434840895652802,-1.6042597683906599
0.400969109630527,8.03064577989578,0.5545530198097229,1.7272123995780901
0.401574803149606,7.5564319127082795,-0.10168233175277701,-1.50845898714066
0.402180496668686,-6.60292355604172,1.23952860574722,0.08183398160934431
0.402786190187765,-5.12519650526047,-4.05106953878403,-0.30855420198440603
0.403391883706844,3.91839724473953,-0.793842976284027,0.812314938640594
0.403997577225924,4.88119509630203,7.9336081955909705,3.2528398409843398
0.404603270745003,-5.1371716029167205,-0.27412373800277695,-2.10481885042191
0.405208964264082,-8.71772580213547,-7.219680378627779,-1.46534863557816
0.405814657783162,5.85117800645828,1.94845438699722,-0.986344729328156
0.406420351302241,12.708118924427001,1.55567118387222,0.8554252902030941
0.40702604482132,-5.24973752088547,0.47791239480972303,-0.181618166828156
0.4076317383404,-9.32606076307297,-1.84525655050278,-1.83657666292191
0.408237431859479,2.63945681505203,-5.46173604269028,2.15352587614059
0.408843125378558,5.6404162877082795,7.61986063699722,1.75595263395309
0.409448818897638,-1.06084836072922,5.1793357346534705,0.6829838839530941
0.410054512416717,-9.13206418104172,-9.01115498800278,-1.8485517605781598
0.410660205935796,3.3268274205207797,-0.34118428487777697,-1.48211377229691
0.411265899454876,12.1668445103645,3.65370829324722,1.22425829801559
0.411871592973955,-3.45826291151047,-0.24777852315902701,-0.502550784015656
0.412477286493035,-10.739122286510499,-0.0633620192527771,-0.14090283479690602
0.413082980012114,0.706676053333282,-5.124038288784029,0.12254931364059399
0.413688673531193,7.5899621861457796,2.85377176980972,0.7428593722343441
0.414294367050273,1.40602175645828,8.03419901590347,1.85654345426559
0.414900060569352,-7.8914440638542205,-5.363540241909029,-1.7886762722969098
0.415505754088431,-1.4009411341667202,-3.44273457784653,-0.452255373859406
0.416111447607511,9.48921267442703,3.69202860574722,0.491382321453094
0.41671714112659,2.31612917833328,-1.06687520284653,0.0530937472343443
0.417322834645669,-10.2960436732292,1.01439676980972,-0.912099123859406
0.417928528164749,-2.33978879041672,-2.65237813253403,-0.787558108234406
0.418534221683828,7.90610476427078,-2.6068727614402802,1.7439775362968402
0.419139915202907,3.14001589708328,8.33836649637222,0.714119137859344
0.419745608721987,-7.28071408338547,-0.695647175502777,-0.176828127765656
0.420351302241066,-6.75859982557297,-6.35747334737778,-1.86292187776566
0.420956995760145,8.81142214708328,1.7017673752784699,0.591973141765594
0.421562689279225,8.12884158067703,1.06708719949722,0.019563473796844397
0.422168382798304,-7.75492795057297,0.626403605747223,-0.732472659015656
0.422774076317383,-5.24255246229172,-1.40457295675278,-0.00678174104690565
0.423379769836463,5.58293581895828,-3.91694844503403,-0.138507815265656
0.423985463355542,4.27525515489578,6.00322245340347,2.27567187223434
0.424591156874621,-4.91922482557297,5.3254319260597205,-0.234308596515656
0.425196850393701,-8.89016720838547,-9.43028340597153,-0.943234377765656
0.42580254391278,5.94218874864578,-0.0561769606590271,-2.3562959012031603
0.426408237431859,13.5535608189583,3.40462626199722,1.8517534152030901
0.427013930950939,-5.91794797010422,-1.26805684347153,-0.366034670734406
0.427619624470018,-9.45299679822922,0.9569163010597229,-1.31685742464066
0.428225317989098,2.00717165880203,-5.9646901442527795,2.20861132535934
0.428831011508177,6.54573367052078,3.47168680887222,0.263855465984344
0.429436705027256,-0.617769747447968,8.82455546121597,3.79650927457809
0.430042398546336,-11.0384997279167,-6.85324239034653,-3.87473828401566
0.430648092065415,4.03096316270828,-4.977942097377779,-0.457045412921906
0.431253785584494,12.564417752552,6.38642557840347,1.02307665739059
0.431859479103574,-2.9768639857292203,-0.25017354269027703,-1.93237744417191
0.432465172622653,-11.2348913294792,-1.31835225362778,1.67931200895309
0.433070866141732,-0.29923214979171797,-1.99374776144028,-2.00662304964066
0.433676559660812,8.94793826036453,-2.21408955831528,2.64210986051559
0.434282253179891,0.941387967395782,9.892734172153471,0.431506833171844
0.43488794669897,-8.06388547010422,-1.6967653395652802,-0.8977290066719059
0.43549364021805,-1.8416247279167202,-7.91663106222153,-0.36842969026565603
0.436099333737129,10.0400671666145,5.31824686746597,-0.6941523465156559
0.436705027256208,2.8310583775520297,-0.805818073940277,2.17987109098434
0.437310720775288,-10.533150606823,0.0994993088722229,-2.61735303010941
0.437916414294367,-2.78526242322922,-0.671696980190277,0.790759762859344
0.438522107813446,8.35636843614578,-4.56120869894028,0.247090329265594
0.439127801332526,3.62380984239578,7.05224100809097,0.6829838839530941
0.439733494851605,-7.57290646619797,3.48126688699722,1.00391650114059
0.440339188370684,-6.40174191541672,-7.746584675502779,-2.53113232698441
0.440944881889764,7.98993044786453,-0.025041706752777098,0.934460934734344
0.441550575408843,8.74675661973953,3.40462626199722,-0.991134768390656
0.442156268927922,-8.33452267713547,-2.00332783956528,0.5201225558280941
0.442761962447002,-5.88441769666672,1.36646464090347,-1.08454053010941
0.443367655966081,5.62125613145828,-4.36481709737778,0.570417965984344
0.44397334948516,4.37584597520828,2.39392801980972,2.06251513395309
0.44457904300424,-4.33723507947922,9.353854777622221,0.5177275362968441
0.445184736523319,-10.686431856822999,-9.01115498800278,-0.9144941433906559
0.445790430042399,5.63802126817703,-2.9996559645652803,-3.01971631135941
0.446396123561478,13.809827908802001,5.07634989480972,2.57504931364059
0.447001817080557,-5.75987668104172,-1.56743428487778,-1.7240107449531599
0.447607510599637,-9.35480099744797,0.561738078403473,-0.337294436359406
0.448213204118716,1.9520862095832798,-3.72534688253403,1.59788134489059
0.448818897637795,6.56010378770828,-0.269333698940277,0.328520993328094
0.449424591156875,-0.32078732557296796,9.89512919168472,3.4923417941093398
0.450030284675954,-10.226588106823,-3.27029317159653,-3.19215771760941
0.450635978195033,2.97715456895828,-9.39196309347153,-0.646251955890656
0.451241671714113,13.575115994739502,6.88698466043472,0.239905270671844
0.451847365233192,-3.30019162244797,0.6766990159034729,-0.251073733234406
0.452453058752271,-11.1989660365105,-1.94824239034653,0.0147734347343444
0.453058752271351,0.050440701770782505,-0.185508015346527,-0.164853030109406
0.45366444579043,8.36834353380203,-4.259436238002779,1.51405566129684
0.454270139309509,2.2227234166145298,8.37429178934097,0.687773923015594
0.454875832828589,-8.81113156385422,2.34842264871597,0.515332516765594
0.455481526347668,-1.74582394666672,-9.29616231222153,-2.2988154324531602
0.456087219866747,10.437640408802,2.99507792215347,1.02307665739059
0.456692913385827,2.44306521348953,2.85616678934097,-0.004386721515655651
0.457298606904906,-10.097257052135499,-2.66195821065903,-1.75275097932816
0.457904300423985,-3.43191769666672,1.2922190354347198,0.268645505046844
0.458509993943065,8.10010134630203,-4.20195576925278,0.12494433317184399
0.459115687462144,4.45727663927078,2.5088889573097197,2.24214159879684
0.459721380981224,-7.54656125135422,7.99587870340347,0.745254391765594
0.460327074500303,-7.04600216932297,-8.429165241909029,-1.97069775667191
0.460932768019382,7.59475222520828,-3.2726881911277803,0.0914140597343443
0.461538461538462,9.26408083848953,5.6583396409034705,0.527307614421844
0.462144155057541,-8.08304562635422,-2.44880147237778,-0.502550784015656
0.46274984857662,-6.49993771619797,0.741364543247223,-0.9192841824531559
0.4633555420957,5.6739465611457796,-2.72901875753403,1.0015214816093398
0.463961235614779,4.77102419786453,-0.935149128627777,0.745254391765594
0.464566929133858,-4.43543088026047,10.1226560471535,1.3128740206718401
0.465172622652938,-10.1188122279167,-5.14319844503403,-1.2282417019844099
0.465778316172017,5.30990359239578,-7.66515401144028,-2.42335644807816
0.466384009691096,13.757137479114501,6.743283488559721,1.29850390348434
0.466989703210176,-5.63533566541672,-0.9231740309715271,-1.26416699495316
0.467595396729255,-9.225469942760471,-0.985444538784027,-0.277418948078156
0.468201090248334,1.68144900255203,-0.647746784877777,1.4446000948905902
0.468806783767414,5.99248415880203,-3.8546779372215303,-0.0858173855781557
0.469412477286493,1.18088992052078,9.40175516824722,2.58941943082809
0.470018170805572,-11.1678307826042,1.4766355393409698,-1.70964062776566
0.470623864324652,1.8059900181770299,-11.8827834059715,-2.44491162385941
0.471229557843731,14.4061877720833,5.12904032449722,1.6074614230155901
0.47183525136281,-2.33978879041672,4.269228312778471,-1.31685742464066
0.47244094488189,-11.2827917201042,-4.50133321065903,0.805129880046844
0.473046638400969,-0.7806310755729681,1.85504862527847,-0.0834223660469057
0.473652331920048,8.078546170520779,-4.50372823019028,0.893745602703094
0.474258025439128,3.29808718614578,4.65961649637222,1.25778857145309
0.474863718958207,-9.32366574354172,7.914448039340971,-0.207963381671906
0.475469412477286,-2.64874630994797,-10.8505299880028,-1.47971875276566
0.476075105996366,11.3046374791145,0.183324992465973,-0.672597170734406
0.476680799515445,2.22032839708328,6.63550760965347,1.03505175504684
0.477286493034525,-9.46976193494797,-4.13250020284653,-1.1635761746406599
0.477892186553604,-3.46065793104172,1.07187723855972,0.33091601285934397
0.478497880072683,7.01515749864578,-2.18055928487778,-0.344479494953156
0.479103573591763,5.3410388463020295,-0.956704304409027,0.690168942546844
0.479709267110842,-7.57051144666672,10.012485148716,0.8769804659843441
0.480314960629921,-6.30354611463547,-5.82817403097153,-1.35996777620316
0.480920654149001,7.1708337681770296,-6.81971211690903,-1.01268994417191
0.48152634766808,9.06529421739578,7.116906535434721,0.342891110515594
0.482132041187159,-6.68195920057297,-2.19732442159653,0.141709469890594
0.482737734706239,-7.21365353651047,-0.0753371169090271,-1.3911030301094098
0.483343428225318,5.74819216661453,0.06836405496597289,1.66973193082809
0.483949121744397,4.39021609239578,-3.76366719503403,0.445876950359344
0.484554815263477,-3.3456969935417202,9.45205057840347,1.85414843473434
0.485160508782556,-10.983414278698,-0.853718464565277,-0.7731879910469059
0.485766202301635,4.33513064317703,-10.594262898159,-3.46518994417191
0.486371895820715,15.4432312291145,5.246396281528471,2.8001811495780897
0.486977589339794,-5.32158810682297,2.45859354715347,-2.86883008089066
0.487583282858873,-9.08416379041672,-4.1085500075340295,0.769204587078094
0.488188976377953,1.07311404161453,1.44071024637222,1.02786669645309
0.488794669897032,5.75777224473953,-3.8810231520652803,0.129734372234344
0.489400363416111,0.9557580845832819,5.66312967996597,3.1091386691093397
0.490006056935191,-10.7295422083855,6.724123332309721,-2.9550507840156603
0.49061175045427,1.74850954942703,-13.784428913784,-0.234308596515656
0.491217443973349,14.2553015416145,2.46338358621597,-1.05819531526566
0.491823137492429,-1.89192013807297,7.169596965122221,0.45066698942184397
0.492428831011508,-11.9965075404167,-5.943134968471529,0.848240231609344
0.493034524530587,-0.684830294322968,2.54002421121597,-1.14920605745316
0.493640218049667,7.51092654161453,-3.67744649190903,1.7870878878593401
0.494245911568746,3.6597351353645298,1.2275535080909699,-0.241493655109406
0.494851605087826,-8.60276486463547,10.079545695591,1.72481738004684
0.495457298606905,-3.9348717982292203,-9.200361530971529,-1.59707470979691
0.496062992125984,12.0327234166145,-3.27029317159653,-0.931259280109406
0.496668685645064,2.41911501817703,7.88570780496597,1.87570361051559
0.497274379164143,-9.33324582166672,-3.65589131612778,-2.5359223660469103
0.497880072683222,-3.48700314588547,-0.28130879659652697,1.03744677457809
0.498485766202302,6.67027468614578,0.343791301059723,-0.275023928546906
0.499091459721381,5.71466189317703,-3.61278096456528,0.6638237277030941
0.49969715324046,-7.71900265760422,9.53108622293472,0.984756344890594
0.50030284675954,-6.87116574354172,-2.27636006612778,-1.33362256135941
0.500908540278619,7.07982302598953,-9.87575703878403,-1.0534052762031598
0.501514233797698,9.35509158067703,7.33964335184097,-0.11695263948440601
0.502119927316778,-7.0268420130729705,-0.6405617262840271,0.294990719890594
0.502725620835857,-6.6939342982292205,-2.09673360128403,-1.0438251980781599
0.503331314354936,5.2476330845832795,1.74727274637222,1.81822314176559
0.503937007874016,4.73030886583328,-4.225905964565279,-0.801928225421906
0.504542701393095,-3.09900998182297,6.89416971902847,2.2972270480155896
0.505148394912174,-10.7295422083855,3.22978983621597,-0.6342768582344059
0.505754088431254,4.26567507677078,-12.0552248122215,-1.93716748323441
0.506359781950333,14.2050061314583,3.43576151590347,1.33921923551559
0.506965475469413,-4.56955197401047,4.79852762918472,-2.66764844026566
0.507571168988492,-9.28774045057297,-5.4186256911277795,1.5212407198905902
0.508176862507571,1.17849490098953,2.90646219949722,0.175239743328094
0.50878255602665,5.67634158067703,-4.17800557394028,0.6183183566093441
0.50938824954573,1.1689148228645299,2.58313456277847,1.7607426730155902
0.509993943064809,-10.3056237513542,9.96218973855972,-0.888148928546906
0.510599636583889,0.136661404895782,-13.180883991909,-0.9384443387031559
0.511205330102968,15.859964627552001,-1.25368672628403,-1.67371533479691
0.511811023622047,-2.12902707166672,9.20775858621597,1.51166064176559
0.512416717141127,-12.3006750208855,-5.65333760519028,-0.945629397296906
0.513022410660206,0.263597440052032,0.6575388596534729,0.33091601285934397
0.513628104179285,6.5122033970832796,-0.9614943434715271,0.953621090984344
0.514233797698365,4.29202029161453,-1.1962062575340302,-0.49776074495315603
0.514839491217444,-9.64699338026047,10.4124534104347,1.76313769254684
0.515445184736523,-3.8749963099479703,-5.5455617262840295,-1.62341992464066
0.516050878255603,12.5716028111458,-7.80167012472153,-0.394774905109406
0.516656571774682,2.1460827916145298,9.69634257059097,-0.124137698078156
0.517262265293761,-9.13206418104172,-2.56855244894028,0.268645505046844
0.517867958812841,-3.98756222791672,-1.8907619215965301,-0.21035840120315602
0.51847365233192,6.31341677598953,2.57115946512222,0.192004880046844
0.519079345850999,6.12900027208328,-5.4186256911277795,0.457852048015594
0.519685039370079,-7.71421261854172,8.18029520730972,-0.229518557453156
0.520290732889158,-7.36453976697922,1.5963865159034698,1.32005907926559
0.520896426408237,8.41624392442703,-11.219362995815299,-1.18752636995316
0.521502119927317,9.20899538927078,5.19849589090347,0.0435136691093443
0.522107813446396,-7.83875363416672,1.5748313401222198,-0.217543459796906
0.522713506965475,-6.55023312635422,-3.67026143331528,-1.08933056917191
0.523319200484555,4.69677859239578,3.09806376199722,2.3571025362968396
0.523924894003634,5.29792849473953,-3.39004414815903,-0.413935061359406
0.524530587522714,-2.90501339979172,3.5100071213722197,1.83977831754684
0.525136281041793,-10.7367272669792,6.89895975809097,-0.5600312527656559
0.525741974560872,3.39388796739578,-11.7318971755028,-2.3586909207344102
0.526347668079951,14.547493924427,-0.156767780971527,1.13085253629684
0.526953361599031,-4.83539914197922,7.97671854715347,-1.15878613557816
0.52755905511811,-9.85775509901047,-5.890444538784029,0.486592282390594
0.52816474863719,2.06465212755203,1.63231180887222,0.225535153484344
0.528770442156269,5.50390017442703,-1.95303242940903,0.9224858370780941
0.529376135675348,1.77724978380203,-0.398664753627777,1.43022997770309
0.529981829194428,-10.6026061732292,11.047133586215999,0.215955075359344
0.530587522713507,-0.445328341197968,-9.07582051534653,-1.25937695589066
0.531193216232586,15.3546155064583,-5.9311598708152795,-1.36236279573441
0.531798909751666,-0.931517306041718,10.778891398715999,0.40995165739059397
0.532404603270745,-12.2240343958855,-4.09896992940903,0.132129391765594
0.533010296789824,0.155821561145782,-0.40105977315902697,0.0387236300468443
0.533615990308904,6.48346316270828,1.28503397684097,1.51166064176559
0.534221683827983,3.85852175645828,-3.48105489034653,-0.562426272296906
0.534827377347062,-8.89495724744797,9.43049540262222,1.28892382535934
0.535433070866142,-4.52165158338547,-1.66563008565903,-0.8594086941719059
0.536038764385221,12.8757702916145,-10.5391774489403,-1.39828808870316
0.5366444579043,3.07774538927078,8.23298563699722,0.376421383953094
0.53725015142338,-10.0421716029167,0.870695597934723,-0.7157075222969059
0.537855844942459,-3.25468625135422,-4.704909870815279,0.5799980441093441
0.538461538461538,5.39372927598953,3.64412821512222,0.14889452848434398
0.539067231980618,6.07630984239578,-4.213930866909029,0.0243535128593444
0.539672925499697,-6.10954953260422,4.781762492465971,0.8218950167655941
0.540278619018776,-8.11418088026047,5.09551005105972,0.28062060270309397
0.540884312537856,7.24986941270828,-11.456469929409,-2.20780469026566
0.541490006056935,10.126287869739501,1.38801981668472,0.745254391765594
0.542095699576015,-6.83524045057297,5.6583396409034705,-0.198383303546906
0.542701393095094,-7.70223752088547,-5.052187702846529,-1.4509785183906598
0.543307086614173,5.07998171739578,2.39632303934097,1.51884570035934
0.543912780133253,4.86682497911453,-1.7829860426902802,-0.375614748859406
0.544518473652332,-1.89431515760422,0.0947092698097229,1.39909472379684
0.545124167171411,-11.9941125208855,9.11674784402847,0.632688473796844
0.545729860690491,2.94841433458328,-9.40393819112778,-1.37433789339066
0.54633555420957,15.8048791783333,-4.2283009840965295,-0.586376467609406
0.546941247728649,-4.65577267713547,9.67718241434097,-2.1263740262031603
0.547546941247729,-10.1738976771355,-5.4521559645652795,2.01221972379684
0.548152634766808,1.9736413853645298,0.362951457309723,-0.133717776203156
0.548758328285887,5.13267214708328,0.686279094028473,1.07816210660934
0.549364021804967,1.84670535020828,-2.67872334737778,0.500962399578094
0.549969715324046,-10.1834777552605,10.1202610276222,-0.169643069171906
0.550575408843125,-2.1218420130729703,-4.69053975362778,-0.176828127765656
0.551181102362205,16.118626736927002,-8.91535420675278,-2.76584424104691
0.551786795881284,0.680330838489532,8.85808573465347,1.45418017301559
0.552392489400363,-13.7760070521355,0.128239543247223,-0.904914065265656
0.552998182919443,-0.248936739635468,-3.77085225362778,0.426716794109344
0.553603876438522,6.44993288927078,2.36518778543472,1.33682421598434
0.554209569957601,4.14113406114578,-2.53981221456528,-1.54677929964066
0.554815263476681,-7.67589230604172,6.12297342996597,2.4672734347343397
0.55542095699576,-6.94780636854172,3.05255839090347,-1.6042597683906599
0.556026650514839,13.4984753697395,-11.719922077846501,-0.823483401203156
0.556632344033919,4.03335818223953,4.202167765903471,0.292595700359344
0.557238037552998,-10.906773653698,5.10269510965347,-1.1084907254219099
0.557843731072078,-3.4055724818229702,-6.33831319112778,1.61464648160934
0.558449424591157,5.50869021348953,3.63454813699722,-0.969579592609406
0.559055118110236,5.89668337755203,-2.88230000753403,1.03505175504684
0.559660811629316,-5.46528927869797,1.37604471902847,-0.169643069171906
0.560266505148395,-9.05542355604172,7.70368632059097,0.546467770671844
0.560872198667474,6.66069460802078,-9.30334737081528,-1.57551953401566
0.561477892186554,10.9956799595833,-2.39611104269028,-0.358849612140656
0.562083585705633,-6.85440060682297,6.72651835184097,0.45066698942184397
0.562689279224712,-7.9177892786979704,-3.90976338644028,-1.7455659207344099
0.563294972743792,5.0751916783332796,0.410851847934723,2.46487841520309
0.563900666262871,5.73621706895828,0.846745402622223,-0.248678713703156
0.56450635978195,-1.98053586072922,-2.5972926833152803,0.5823930636405941
0.56511205330103,-11.682759981822999,9.13351298074722,0.613528317546844
0.565717746820109,1.62157351427078,-5.7515334059715295,-0.8210883816719059
0.566323440339188,16.003665799427,-7.93100117940903,-1.70964062776566
0.566929133858268,-3.05829464979172,9.58377665262222,-1.44379345979691
0.567534827377347,-12.0108776576042,-2.62842793722153,1.78469286832809
0.568140520896426,2.42630007677078,-2.07757344503403,-0.421120119953156
0.568746214415506,5.56617068223953,2.05144022684097,0.953621090984344
0.569351907934585,0.891092557239532,-3.24634297628403,-0.32771435823440603
0.569957601453664,-8.86142697401047,8.07251932840347,1.2434184542655902
0.570563294972744,-3.41754757947922,-1.03334492940903,-0.524105959796906
0.571168988491823,16.099466580677,-10.2900954176903,-3.49872021760941
0.571774682010902,1.78682986192703,6.56844706277847,1.8517534152030901
0.572380375529982,-14.2669860560417,2.98549784402847,-1.3216474637031599
0.572986069049061,-0.28007199354171797,-5.337195027065279,1.4110698214530901
0.57359176256814,6.45951296739578,3.02381815652847,1.00870654020309
0.57419745608722,4.06688845567703,-1.81412129659653,-1.32404248323441
0.574803149606299,-7.37411984510422,3.52198221902847,1.8637285128593402
0.575408843125379,-7.5058459193229705,5.68947489480972,-1.1731562527656598
0.576014536644458,12.8733752720833,-11.906733601284001,-0.643856936359406
0.576620230163537,6.44035281114578,2.2262766526222197,-1.11567578401566
0.577225923682617,-11.7665856654167,6.750468547153471,0.0387236300468443
0.577831617201696,-3.67620968885422,-6.1107863356590295,0.235115231609344
0.578437310720775,5.9996692173957795,2.2358567307472197,-0.25825879182815603
0.579043004239855,5.58772585802078,-0.8800636794090271,0.651848630046844
0.579648697758934,-4.90006466932297,-0.5615260817527771,-0.631881838703156
0.580254391278013,-10.2720934779167,7.61746561746597,1.44699511442184
0.580860084797093,7.02952761583328,-6.867612507534029,-1.31925244417191
0.581465778316172,12.281805447864501,-4.63784932394028,-0.588771487140656
0.582071471835251,-7.58967160291672,7.536034953403471,-0.193593264484406
0.582677165354331,-7.9848498255729705,-3.48823994894028,-0.8570136746406559
0.58328285887341,4.11957888536453,-1.0860353590965302,1.9619243136405902
0.583888552392489,5.7002917759895295,2.93999247293472,-0.236703616046906
0.584494245911569,-1.1829943568229702,-3.49782002706528,1.25778857145309
0.585099939430648,-11.5318737513542,8.26412089090347,-0.207963381671906
0.585705632949727,1.3700964634895298,-3.1361720778465303,0.00998339567184435
0.586311326468807,15.6947082798958,-9.01115498800278,-2.4856269558906603
0.586917019987886,-1.9829308802604702,8.33357645730972,-0.0546821316719057
0.587522713506965,-12.7772839076042,-0.42021992940902697,1.30568896207809
0.588128407026045,2.50054568223953,-3.3756740309715303,-1.00789990510941
0.588734100545124,6.21043093614578,2.43464335184097,2.28046191129684
0.589339794064203,1.7628796666145299,-2.3410255934715303,-1.4892988308906598
0.589945487583283,-9.01949826307297,5.014079386997221,1.4230449191093402
0.590551181102362,-5.1108263880729705,2.69809550027847,-0.725287600421906
0.591156874621442,16.132996854114502,-11.106797077846501,-1.42223828401566
0.591762568140521,3.67889529161453,3.77345926980972,0.505752438640594
0.5923682616596,-15.165118380260498,5.43799784402847,-0.983949709796906
0.59297395517868,-1.24047482557297,-5.87367940206528,1.77750780973434
0.593579648697759,7.4103357213020296,2.91364725809097,0.589578122234344
0.594185342216838,4.04772829942703,-0.944729206752777,-0.11455761995315601
0.594791035735918,-6.55262814588547,1.54130106668472,0.261460446453094
0.595396729254997,-8.54288937635422,6.42714091043472,0.266250485515594
0.596002422774076,12.1788196080208,-9.12372090597153,-1.1037006863594099
0.596608116293156,7.98514040880203,-1.3854128005027802,-0.852223635578156
0.597213809812235,-11.826461153697998,7.928818156528471,-0.0858173855781557
0.597819503331314,-4.85455929822922,-4.65700948019028,-0.09779248323440569
0.598425196850394,6.00445925645828,-0.257358601284027,0.9368559542655941
0.599030890369473,5.56138064317703,1.25629374246597,0.110574215984344
0.599636583888552,-4.78031369276047,-1.8644167067527802,0.412346676921844
0.600242277407632,-11.3211120326042,7.136066691684721,0.6805888644218441
0.600847970926711,7.03671267442703,-4.6402443434715295,-0.672597170734406
0.60145366444579,13.9391589634895,-6.582605183315279,-0.7803730496406559
0.60205935796487,-8.08065060682297,7.57914530496597,-1.17076123323441
0.602665051483949,-9.30450558729172,-1.7183205153465302,0.278225583171844
0.603270745003028,4.68719851427078,-2.15421407003403,1.74158251676559
0.603876438522108,5.91105349473953,3.48126688699722,-0.909704104328156
0.604482132041187,-0.49322873182296795,-3.69900166769028,1.09492724332809
0.605087825560267,-11.5318737513542,6.7289133713722205,1.18593798551559
0.605693519079346,0.323472928333282,-0.415429890346527,-0.512130862140656
0.606299212598425,16.9305383580208,-10.373921101284001,-1.31925244417191
0.606904906117504,-2.3781091029167203,6.5229416916847205,-1.64976513948441
0.607510599636584,-13.1700671107292,1.7616428635597199,0.785969723796844
0.608116293155663,2.45983035020828,-4.7001198317527795,0.417136715984344
0.608721986674743,6.84271609239578,3.04297831277847,1.2218632784843402
0.609327680193822,1.43715701036453,-1.80214619894028,-0.20556836214065602
0.609933373712901,-9.48413205213547,2.93999247293472,0.366841305828094
0.610539067231981,-5.28566281385422,4.561420695590971,0.22793017301559398
0.61114476075106,15.979715604114501,-10.2900954176903,-1.69766553010941
0.611750454270139,4.85245486192703,0.899435832309723,0.333311032390594
0.612356147789219,-15.701602755260499,7.38035868387222,-0.912099123859406
0.612961841308298,-1.59493771619797,-5.81380391378403,0.565627926921844
0.613567534827377,7.73126833848953,1.18683817605972,1.48052538785934
0.614173228346457,3.53519411973953,1.07666727762222,-0.583981448078156
0.614778921865536,-6.44245724744797,-0.32202412862777696,0.311755856609344
0.615384615384615,-9.32366574354172,7.26060770730972,0.06267382535934429
0.615990308903695,12.593157986927,-7.327456257534029,-0.931259280109406
0.616596002422774,8.76112673692703,-4.45103780050278,-1.32883252229691
0.617201695941853,-12.865899630260499,9.07124247293472,0.0147734347343444
0.617807389460933,-5.02460568494797,-3.4451295973777802,0.5368876925468441
0.618413082980012,6.57686892442703,-1.39978291769028,-0.11216260042190601
0.619018776499091,5.98290408067703,2.36997782449722,0.45066698942184397
0.619624470018171,-4.42824582166672,-2.85116475362778,-0.5744013699531559
0.62023016353725,-11.2301012904167,6.13973856668472,1.27455370817184
0.620835857056329,6.24635622911453,-1.54108907003403,-0.545661135578156
0.621441550575409,14.078070096302001,-8.42677022237778,-1.67850537385941
0.622047244094488,-7.05797726697922,6.54689188699722,-0.37800976839065603
0.622652937613568,-10.0565417201042,0.782079875278473,-0.5408710965156559
0.623258631132647,4.33273562364578,-4.532468464565279,2.06251513395309
0.623864324651726,6.5385486119270295,4.216537883090971,-0.25825879182815603
0.624470018170806,-0.965047579479218,-2.72422871847153,0.021958493328094398
0.625075711689885,-11.7809557826042,4.594950969028471,0.5416777316093441
0.625681405208964,-0.648905001354218,2.07539042215347,-0.11695263948440601
0.626287098728044,16.9065881627083,-10.5918678786278,-1.25937695589066
0.626892792247123,-0.126790743541718,3.91476542215347,-0.866593752765656
0.627498485766202,-14.470562716198,4.15905741434097,1.20030810270309
0.628104179285282,2.03351687364578,-4.98273213644028,-0.8594086941719059
0.628709872804361,7.5300866978645296,1.20839335184097,1.9068388644218401
0.62931556632344,1.14975466661453,0.135424601840973,-0.492970705890656
0.62992125984252,-8.79915646619797,1.02397684793472,0.8434501925468441
0.630526953361599,-6.49035763807297,5.60085917215347,0.08183398160934431
0.631132646880678,16.2862781041145,-7.772929890346529,-2.14074414339066
0.631738340399758,6.7517053502082796,-2.67632832784653,0.251880368328094
0.632344033918837,-16.8679772669792,8.67127421121597,-1.8485517605781598
0.632949727437916,-2.22722287244797,-4.59713399190903,1.41585986051559
0.633555420956996,8.80663210802078,-0.468120320034027,1.5906962862968401
0.634161114476075,3.49447878770828,2.65259012918472,-0.5336860379219059
0.634766807995154,-5.62096554822922,-2.14942403097153,0.196794919109344
0.635372501514234,-9.91763058729172,6.73849344949722,0.0602788058280943
0.635978195033313,11.290267361927,-4.259436238002779,-0.09539746370315569
0.636583888552392,10.5358362095833,-6.63769063253403,-1.5108540066719098
0.637189582071472,-12.5808923060417,8.25214579324722,-0.301369143390656
0.637795275590551,-5.98261349744797,-1.26805684347153,0.769204587078094
0.638400969109631,6.8379260533332795,-3.18167744894028,-0.263048830890656
0.63900666262871,5.67634158067703,3.07171854715347,0.5991582003593441
0.639612356147789,-4.07138791151047,-2.03925313253403,-0.583981448078156
0.640218049666869,-11.9150768763542,4.422509562778471,1.7655327120780901
0.640823743185948,5.84399294786453,1.3089841721534698,-0.272628909015656
0.641429436705027,14.9187219517708,-9.43746846456528,-1.77670117464066
0.642035130224107,-6.60531857557297,3.54832743387222,-0.583981448078156
0.642640823743186,-10.9905993372917,3.62736307840347,-0.265443850421906
0.643246517262265,3.69087038927078,-5.11685323019028,2.0912553683280897
0.643852210781345,7.38399050645828,3.58425272684097,-0.548056155109406
0.644457904300424,-0.7207555872917181,-1.63928487081528,0.239905270671844
0.645063597819503,-11.7186852747917,1.75206278543472,-0.00199170198440565
0.645669291338583,-1.02013302869797,3.84770487527847,0.7811796847343441
0.646274984857662,16.7149866002083,-8.347734577846529,-1.60186474885941
0.646880678376741,0.560579861927032,0.664723918247223,-1.4246333035469099
0.647486371895821,-15.2106237513542,5.31106180887222,0.9033256808280941
0.6480920654149,1.58085818223953,-4.07980977315903,-0.5767963894844059
0.648697758933979,8.06657107286453,0.0396238205909729,2.0649101534843397
0.649303452453059,1.48266238145828,1.9676145432472198,-1.0270600613594099
0.649909145972138,-8.04472531385422,-1.6153346755027802,1.28892382535934
0.650514839491217,-7.80043332166672,6.27385966043472,-0.310949221515656
0.651120533010297,14.887586697864501,-4.88214131612778,-0.31813428010940603
0.651726226529376,8.22703738145828,-6.2041920973777795,-0.6390668972969059
0.652331920048455,-15.658492403697998,8.75749491434097,-2.22456982698441
0.652937613567535,-3.74327023572922,-2.04404317159653,2.0457499972343403
0.653543307086614,8.79226199083328,-2.28354512472153,0.407556637859344
0.654149000605693,4.21298464708328,3.57227762918472,0.244695309734344
0.654754694124773,-5.6760509974479705,-2.48951680440903,-0.478600588703156
0.655360387643852,-10.015826388072998,5.2056809494972205,0.182424801921844
0.655966081162932,9.79577517442703,-1.28003194112778,1.00870654020309
0.656571774682011,11.7572961705208,-7.62204365987778,-2.32755566682816
0.65717746820109,-11.256446505260499,5.773300578403471,0.5584428683280941
0.65778316172017,-7.62320187635422,1.6035715744972199,-0.0618671902656557
0.658388855239249,6.76847048692703,-4.06064961690903,0.316545895671844
0.658994548758328,6.54573367052078,2.95675760965347,1.3464042941093401
0.659600242277408,-3.61393918104172,-1.06687520284653,-1.3863129910469099
0.660205935796487,-11.816881075572999,1.34011942605972,1.41825488004684
0.660811629315566,4.45488161973953,3.2010496018409698,-0.6342768582344059
0.661417322834646,15.304320096302002,-8.68782735128403,-0.9767646512031559
0.662023016353725,-4.97670529432297,1.78080301980972,-1.67850537385941
0.662628709872804,-11.6085143763542,5.1194602463722205,1.5523759737968401
0.663234403391884,3.31245730333328,-5.00189229269028,0.8003398409843441
0.663840096910963,7.81269900255203,1.1772580979347198,-0.20077832307815602
0.664445790430042,-0.715965548229218,0.6551438401222229,0.929670895671844
0.665051483949122,-11.1319054896355,1.56285624246597,-1.21387158479691
0.665657177468201,-2.64874630994797,2.82263651590347,1.51884570035934
0.66626287098728,17.1173498814583,-5.909604695034029,-1.5228291043281599
0.66686856450636,2.20116824083328,-2.63082295675278,-0.382799807453156
0.667474258025439,-15.629752169323,5.8906565354347205,-0.8186933621406559
0.668079951544518,0.292337674427032,-2.48233174581528,0.46024706754684397
0.668685645063598,8.20069216661453,-1.42133809347153,2.47924853239059
0.669291338582677,2.23469851427078,2.91604227762222,-1.29769726839066
0.669897032101756,-8.78239132947922,-2.32665547628403,1.0518168917655901
0.670502725620836,-7.3789098841667204,4.8128977463722205,0.021958493328094398
0.671108419139915,14.336732205677,-2.13265889425278,0.136919430828094
0.671714112658994,8.11207644395828,-6.07965108175278,-1.90603222932816
0.672319806178074,-14.1328649622917,6.51336161355972,-0.507340823078156
0.672925499697153,-5.42936398572922,-0.156767780971527,0.912905758953094
0.673531193216233,8.30846804552078,-3.77085225362778,0.342891110515594
0.674136886735312,5.73861208848953,3.85728495340347,1.23623339567184
0.674742580254391,-6.27959591932297,-1.00939473409653,-1.1084907254219099
0.675348273773471,-9.75476925916672,2.85377176980972,0.553652829265594
0.67595396729255,8.10489138536453,0.645563761997223,0.021958493328094398
0.676559660811629,12.9308557408333,-7.832805378627779,-1.56833447542191
0.677165354330709,-9.88889035291672,4.00577616434097,-0.397169924640656
0.677771047849788,-9.95355588026047,3.45971171121597,-0.528895998859406
0.678376741368867,7.7624035923957795,-5.265344441127779,1.65775683317184
0.678982434887947,6.58884402208328,2.76036600809097,0.22793017301559398
0.679588128407026,-3.62112423963547,0.190510051059723,-1.0007148465156601
0.680193821926105,-11.1390905482292,-0.429800007534027,1.1667778292655901
0.680799515445185,2.68735720567703,4.2476731369972205,-0.531291018390656
0.681405208964264,15.974925565052,-6.987363484096529,0.194399899578094
0.682010902483343,-3.42473263807297,-0.834558308315277,-2.2724702176094103
0.682616596002423,-12.9688854701042,5.57451395730972,0.510542477703094
0.683222289521502,2.57718630723953,-4.2809914137840295,1.39430468473434
0.683827983040581,7.78874880723953,0.7772898362159729,-0.143297854328156
0.684433676559661,0.198931912708282,2.02269999246597,0.924880856609344
0.68503937007874,-10.3080187708855,-0.7004372145652771,-0.500155764484406
0.68564506359782,-4.04264767713547,3.23457987527847,0.965596188640594
0.686250757116899,16.6048157017708,-3.73013692159653,-1.1132807644844098
0.686856450635978,3.65255007677078,-4.29536153097153,-1.4725336941719098
0.687462144155058,-15.7854284388542,6.56605204324722,-0.8785688504219059
0.688067837674137,-0.648905001354218,-1.69916035909653,1.60506640348434
0.688673531193216,8.74915163927078,-2.50867696065903,1.31526904020309
0.689279224712296,2.84063845567703,4.108762004184721,-1.0821455105781599
0.689884918231375,-8.15968625135422,-2.37934590597153,0.671008786296844
0.690490611750454,-8.78478634901047,3.71597880105972,-0.10497754182815601
0.691096305269534,13.857728299427,0.559343058872223,0.20877001676559398
0.691701998788613,9.99935183458328,-7.64838887472153,-1.1635761746406599
0.692307692307692,-13.8119323451042,5.04521464090347,-1.73119580354691
0.692913385826772,-5.86525754041672,1.85983866434097,1.1452226534843402
0.693519079345851,7.85341433458328,-4.439062702846529,1.0733720675468401
0.69412477286493,5.91105349473953,4.19737772684097,0.6159233370780941
0.69473046638401,-5.17549191541672,-0.630981648159027,-0.179223147296906
0.695336159903089,-10.5954211146355,0.808425090122223,-0.610326662921906
0.695941853422168,7.26184451036453,3.10045878152847,0.374026364421844
0.696547546941248,13.3643542759895,-7.566958210659029,-0.7564228543281559
0.697153240460327,-7.89623410291672,1.28982401590347,-1.19710644807816
0.697758933979406,-10.5690758997917,5.29669169168472,0.5440727511405941
0.698364627498486,6.11702517442703,-5.26773946065903,1.00870654020309
0.698970321017565,7.78874880723953,1.8430735276222199,0.117759274578094
0.699576014536644,-3.30737668104172,1.1628879807472199,0.215955075359344
0.700181708055724,-10.897193575572999,-1.46444844503403,0.9176957980155941
0.700787401574803,0.9964734166145319,4.32670878152847,-0.19119824495315602
0.701393095093882,15.539032010364501,-5.437785847377779,-0.351664553546906
0.701998788612962,-1.23807980604172,-2.82960957784653,-1.6425800808906599
0.702604482132041,-13.201202364635499,6.37445048074722,-0.179223147296906
0.703210175651121,1.32219607286453,-3.53614033956528,1.32005907926559
0.7038158691702,8.54078494005203,-0.748337605190277,0.302175778484344
0.704421562689279,0.431248807239532,2.8346116135597197,0.35007616910934397
0.705027256208359,-10.2002428919792,-1.8428615309715302,-0.301369143390656
0.705632949727438,-5.30961300916672,3.05734842996597,0.433901852703094
0.706238643246517,15.687523221302001,-1.30158711690903,-0.912099123859406
0.706844336765597,5.87273318223953,-5.864099323940279,-1.35038769807816
0.707450030284676,-16.0632507044792,5.50745341043472,-1.4030781277656599
0.708055723803755,-1.7482189661979701,0.130634562778473,1.12606249723434
0.708661417322835,8.31086306505203,-3.85228291769028,1.35837939176559
0.709267110841914,3.17115115098953,4.3674241135597205,-0.344479494953156
0.709872804360993,-6.86877072401047,-1.7183205153465302,-0.0666572293281557
0.710478497880073,-9.49131711072922,1.12696268777847,-0.121742678546906
0.711084191399152,12.080623807239501,3.08608866434097,0.23272021207809399
0.711689884918231,10.466380643177,-7.60288350362778,-1.06777539339066
0.712295578437311,-12.372525606822999,2.17358622293472,-1.91082226839066
0.71290127195639,-7.29747922010422,4.422509562778471,1.07576708707809
0.713506965475469,7.30016482286453,-4.44864278097153,1.37035448942184
0.714112658994549,7.21154910020828,3.48126688699722,0.06506884489059431
0.714718352513628,-5.1707018763542205,0.197695109653473,-0.0307319363594056
0.715324046032707,-10.1667126185417,-0.729177448940277,-0.24628369417190601
0.715929739551787,5.67155154161453,3.75908915262222,1.19791308317184
0.716535433070866,13.3427991002083,-5.43539082784653,-1.25219189729691
0.717141126589945,-5.89878781385422,-2.00572285909653,-1.30009228792191
0.717746820109025,-11.1414855677605,5.905026652622221,-0.160062991046906
0.718352513628104,4.96741579942703,-3.2726881911277803,0.9584111300468441
0.718958207147184,7.91807986192703,-0.226223347377777,1.39430468473434
0.719563900666263,-2.13142209119797,3.19146952371597,-1.1683662137031599
0.720169594185342,-11.330692110729201,-2.75296895284653,0.165659665203094
0.720775287704422,0.174981717395782,3.4836619065284697,0.139314450359344
0.721380981223501,15.256419705677,-2.45119649190903,-0.385194826984406
0.72198667474258,0.584530057239532,-5.29647969503403,-1.41744824495316
0.72259236826166,-13.507764864635499,6.039147746372221,-0.646251955890656
0.723198061780739,-0.488438692760468,-1.5099538161277801,1.48052538785934
0.723803755299818,8.99583865098953,-2.45598653097153,0.5991582003593441
0.724409448818898,1.1689148228645299,3.77824930887222,-0.5384760769844059
0.725015142337977,-9.32606076307297,-1.7494557692527801,0.06267382535934429
0.725620835857056,-6.15744992322922,1.65865702371597,-0.346874514484406
0.726226529376136,14.2145862095833,0.791659953403473,-0.179223147296906
0.726832222895215,7.68336794786453,-6.3838185622215295,-0.179223147296906
0.727437916414294,-13.967608614635498,3.75429911355972,-2.6484882840156603
0.728043609933374,-3.91331662244797,1.3784397385597198,2.09604540739059
0.728649303452453,7.90370974473953,-3.5121901442527803,1.49968554410934
0.729254996971532,3.90642214708328,3.51240214090347,-0.236703616046906
0.729860690490612,-6.65082394666672,-0.7435475661277771,0.220745114421844
0.730466384009691,-10.140367403697999,0.06836405496597289,-0.528895998859406
0.73107207752877,10.916644315052,3.27529520730972,0.9632011691093441
0.73167777104785,11.5082141392708,-5.183913777065279,-1.54198926057816
0.732283464566929,-11.222916231823,-0.690857136440277,-1.47732373323441
0.732889158086008,-8.21477170057297,4.388979289340971,1.43502001676559
0.733494851605088,5.97571902208328,-3.4523146559715303,0.8434501925468441
0.734100545124167,8.04022585802078,1.88857889871597,1.12127245817184
0.734706238643246,-3.93726681776047,1.92210917215347,-0.7372626980781559
0.735311932162326,-10.6073962122917,-2.22845967550278,-0.128927737140656
0.735917625681405,4.06688845567703,3.9195554612159698,0.8003398409843441
0.736523319200485,13.1535925572395,-2.93259541769028,-1.0486152371406599
0.737129012719564,-3.97079709119797,-4.27141133565903,-0.988739748859406
0.737734706238643,-11.390567599010499,6.4630662034034705,-1.06298535432816
0.738340399757723,3.24539675645828,-2.40569112081528,1.6505717745780901
0.738946093276802,9.11079958848953,-1.2105763747215301,-0.0355219754219057
0.739551786795881,-1.7098986536979701,3.77106425027847,0.242300290203094
0.740157480314961,-11.160645724010498,-2.46796162862778,-0.09300244417190569
0.74076317383404,-0.533944063854218,2.51846903543472,0.000403317546844352
0.741368867353119,14.039749783802002,-0.7794728590965271,-0.0858173855781557
0.741974560872199,2.70891238145828,-5.80182881612778,-2.32995068635941
0.742580254391278,-12.899429903698,5.12425028543472,0.9775712862968441
0.743185947910357,-2.21285275526047,-0.0274367262840271,0.467432126140594
0.743791641429437,8.856927518177029,-3.67744649190903,0.103389157390594
0.744397334948516,2.01675173692703,4.53986551980972,0.6997490206718441
0.745003028467595,-8.61473996229172,-1.48600362081528,-0.0211518582344056
0.745608721986675,-7.13222287244797,0.35816141824722303,-0.217543459796906
0.746214415505754,13.3930945103645,2.10413065652847,-0.0738422879219057
0.746820109024833,9.16349001817703,-6.402978718471529,-0.7947431668281559
0.747425802543913,-13.924498263073,2.79629130105972,-2.58382275667191
0.748031496062992,-4.83060910291672,2.33644755105972,2.5942094698905898
0.748637189582071,7.50134646348953,-3.98161397237778,0.27104052457809397
0.749242883101151,4.8620349400520295,3.16272928934097,0.654243649578094
0.74984857662023,-5.50121457166672,0.45635721902847304,-0.236703616046906
0.75045427013931,-10.581050997448,-1.58419942159653,-0.883358889484406
0.751059963658389,9.21139040880203,4.135107219028471,1.4278349581718401
0.751665657177468,12.7703894322395,-3.33735371847153,-1.59707470979691
0.752271350696547,-10.020616427135499,-3.44033955831528,-0.9743696316719059
0.752877044215627,-8.77281125135422,5.612834269809721,0.112969235515594
0.753482737734706,5.2811633580207795,-2.6571681715965303,1.5044755831718402
0.754088431253786,7.77437869005203,0.9736814377784729,0.311755856609344
0.754694124772865,-2.38529416151047,3.49803202371597,0.07464892301559431
0.755299818291944,-11.112745333385499,-3.84270283956528,-0.5767963894844059
0.755905511811024,2.7616028111457798,3.40941630105972,0.462642087078094
0.756511205330103,12.277015408802,-0.42021992940902697,0.14889452848434398
0.757116898849182,-2.1218420130729703,-5.42102071065903,-2.42335644807816
0.757722592368262,-10.849293184948,4.935043742465971,0.532097653484344
0.758328285887341,1.22639529161453,-0.147187702846527,0.012378415203094401
0.75893397940642,9.67602419786453,-3.0858766676902802,1.05660693082809
0.7595396729255,-0.464488497447968,4.17342753152847,0.7404643527030941
0.760145366444579,-11.1319054896355,-1.50755879659653,-0.6007465847969059
0.760751059963658,-1.77456418104172,0.0923142502784729,1.26018359098434
0.761356753482738,12.9907312291145,2.03707010965347,-0.830668459796906
0.761962447001817,4.17466433458328,-6.57302510519028,-1.2018964871406599
0.762568140520896,-12.482696505260499,2.44661844949722,-0.9144941433906559
0.763173834039976,-2.95291379041672,2.82263651590347,1.67452196989059
0.763779527559055,8.57192019395828,-4.33607686300278,1.3679594698905901
0.764385221078134,2.86937869005203,3.7327439377784697,-0.7133125027656559
0.764990914597214,-7.62320187635422,-0.211853230190277,0.668613766765594
0.765596608116293,-7.71421261854172,-1.00460469503403,-0.6773872097969059
0.766202301635373,11.7620862095833,3.09806376199722,0.687773923015594
0.766807995154452,9.92989626817703,-4.805500691127779,-1.0174799832344101
0.767413688673531,-11.3354821497917,-0.0777321364402771,-2.39701123323441
0.768019382192611,-7.10108761854172,3.39504618387222,2.08407030973434
0.76862507571169,6.61997927598953,-3.35651387472153,0.0315385714530944
0.769230769230769,6.0331994908332796,1.38083475809097,1.27934374723434
0.769836462749849,-5.40780880994797,2.71007059793472,-1.20429150667191
0.770442156268928,-10.3918444544792,-3.55769551534653,-0.49776074495315603
0.771047849788007,7.68097292833328,2.9878928635597197,1.20030810270309
0.771653543307087,12.918880643177001,-0.19269307394027702,-1.5228291043281599
0.772259236826166,-8.42313839979172,-5.737163288784029,-0.868988772296906
0.772864930345245,-9.26379025526047,4.29796854715347,-0.423515139484406
0.773470623864325,4.43093142442703,-0.180717976284027,1.4613652316093402
0.774076317383404,7.79114382677078,-0.937544148159027,0.465037106609344
0.774682010902483,-1.2261047083854701,4.35305399637222,-0.0858173855781557
0.775287704421563,-11.218126192760499,-3.1026418044090303,-0.433095217609406
0.775893397940642,1.73653445177078,1.24192362527847,-0.0163618191719056
0.776499091459721,12.2889905064583,2.29812723855972,0.455457028484344
0.777104784978801,-1.00097287244797,-5.9910353590965295,-2.1335590847969104
0.77771047849788,-9.84338498182297,2.33405253152847,-0.667807131671906
0.778316172016959,-0.744705782604218,2.1759812424659697,0.929670895671844
0.778921865536039,8.976678494739529,-3.3157985426902803,1.53561083707809
0.779527559055118,1.0012634556770301,3.6632883713722197,0.5967631808280941
0.780133252574197,-11.112745333385499,-0.6621169020652771,-1.01029492464066
0.780738946093277,-2.27751828260422,-2.07996846456528,0.611133298015594
0.781344639612356,11.9393176548958,3.81656962137222,-0.8186933621406559
0.781950333131435,5.49192507677078,-4.90848653097153,-0.9168891629219059
0.782556026650515,-10.403819552135499,-0.38189961690902696,-0.8378535183906559
0.783161720169594,-5.08208615369797,4.11115702371597,0.5967631808280941
0.783767413688674,8.05938601427078,-3.97682393331528,1.95713427457809
0.784373107207753,3.57111941270828,2.64061503152847,-0.852223635578156
0.784978800726832,-7.42681027479172,1.38083475809097,0.07464892301559431
0.785584494245912,-8.13334103651047,-2.79847432394028,-0.260653811359406
0.786190187764991,9.96103152208328,2.82263651590347,-0.045102053546905704
0.78679588128407,11.1441711705208,-2.62603291769028,-0.203173342609406
0.78740157480315,-10.475670138073,-2.11349873800278,-2.32995068635941
0.788007268322229,-7.38130490369797,3.12680399637222,1.1931230441093401
0.788612961841308,5.68113161973953,-2.08715352315903,0.932065915203094
0.789218655360388,5.72424197130203,0.731784465122223,1.07576708707809
0.789824348879467,-3.45347287244797,3.19625956277847,-0.445070315265656
0.790430042398546,-10.5930260951042,-3.11701192159653,-1.16118115510941
0.791035735917626,5.94937380723953,1.57962137918472,2.13676073942184
0.791641429436705,13.4026745884895,2.27896708230972,-1.09651562776566
0.792247122955784,-6.79452511854172,-5.90002461690903,-0.6366718777656559
0.792852816474864,-9.79308957166672,2.35321268777847,-0.612721682453156
0.793458509993943,3.19510134630203,1.3952048752784698,1.15240771207809
0.794064203513022,7.90370974473953,-1.97219258565903,2.18705614957809
0.794669897032102,0.112711209583282,4.7266770432472205,-1.11088574495316
0.795275590551181,-11.0672399622917,-2.7433888747215303,0.12494433317184399
0.79588128407026,0.586925076770782,-0.844138386440277,-0.320529299640656
0.79648697758934,11.898602322864502,3.97464091043472,0.412346676921844
0.797092671108419,-0.5075988490104679,-5.377910359096529,-1.01029492464066
0.797698364627498,-8.65545529432297,0.8539304612159729,-1.83657666292191
0.798304058146578,-1.47518673963547,2.82982157449722,1.4661552706718401
0.798909751665657,8.43300906114578,-3.24155293722153,0.28062060270309397
0.799515445184736,2.28978396348953,2.92322733621597,1.07576708707809
0.800121138703816,-11.3402721888542,0.9736814377784729,-0.864198733234406
0.800726832222895,-3.04392453260422,-3.7013966872215303,0.5776030245780941
0.801332525741975,11.002865018177001,3.62736307840347,-0.480995608234406
0.801938219261054,5.71705691270828,-2.72183369894028,-1.6425800808906599
0.802543912780133,-8.88537716932297,-3.06671651144028,0.455457028484344
0.803149606299213,-6.05685910291672,5.406862590122221,-0.9384443387031559
0.803755299818292,6.80918581895828,-3.6582863356590303,2.26609179410934
0.804360993337371,4.58181765489578,1.4167600510597198,-0.315739260578156
0.804966686856451,-7.34777463026047,3.1842844651222197,0.141709469890594
0.80557238037553,-7.53458615369797,-4.02472432394028,0.225535153484344
0.806178073894609,8.77070681505203,1.65386698465347,-0.272628909015656
0.806783767413689,9.88918093614578,0.202485148715973,-0.509735842609406
0.807389460932768,-7.9249743372917205,-3.6415211989402803,-1.4892988308906598
0.807995154451847,-7.99682492322922,2.57115946512222,0.867400387859344
0.808600847970927,4.61774294786453,-0.870483601284027,0.462642087078094
0.809206541490006,6.16013552598953,-1.3039821364402802,1.42543993864059
0.809812235009085,-3.33132687635422,4.33149882059097,-0.548056155109406
0.810417928528165,-9.91284054822922,-3.33495869894028,-0.8186933621406559
0.811023622047244,4.1770593541145296,-0.26214864034652696,0.594368161296844
0.811629315566323,13.479315213489501,4.29317850809097,-0.229518557453156
0.812235009085403,-5.31919308729172,-6.01259053487778,-0.888148928546906
0.812840702604482,-9.46018185682297,0.458752238559723,-0.7588178738594059
0.813446396123562,2.49096560411453,2.91843729715347,1.9499492159843401
0.814052089642641,7.32171999864578,-2.36258076925278,1.39669970426559
0.81465778316172,1.04197878770828,4.2141428635597205,-0.133717776203156
0.815263476680799,-10.2505383021355,-1.05011006612778,-0.492970705890656
0.815869170199879,-0.26330685682296795,-2.5206520583152803,-0.11216260042190601
0.816474863718958,10.777733182239501,4.57818583230972,1.17635790739059
0.817080557238038,0.6779358189582819,-3.09545674581528,-1.6521601590156598
0.817686250757117,-8.21477170057297,-2.20211446065903,-1.62820996370316
0.818291944276196,-1.9781408411979702,4.02254130105972,0.5560478487968441
0.818897637795276,7.46542117052078,-2.40329610128403,0.865005368328094
0.819503331314355,2.79034304552078,1.42155009012222,1.22904833707809
0.820109024833434,-9.69728879041672,2.34123759012222,-0.924074221515656
0.820714718352514,-4.10491818494797,-4.21153584737778,0.134524411296844
0.821320411871593,10.164608182239501,2.69809550027847,0.22793017301559398
0.821926105390672,6.24396120958328,-1.11477559347153,-1.15639111604691
0.822531798909752,-7.54416623182297,-4.180400593471529,-1.3096723660469098
0.823137492428831,-6.05925412244797,4.295573527622221,0.182424801921844
0.82374318594791,5.28355837755203,-1.9290822340965301,1.76313769254684
0.82434887946699,5.30990359239578,-0.041806843471527105,0.203979977703094
0.824954572986069,-6.49993771619797,4.25246317605972,0.021958493328094398
0.825560266505148,-7.78127316541672,-3.27029317159653,-0.509735842609406
0.826165960024228,7.62828249864578,0.612033488559723,-0.464230471515656
0.826771653543307,11.0771106236458,1.2323435471534698,0.127339352703094
0.827377347062386,-7.47950070447922,-3.70379170675278,-0.962394534015656
0.827983040581466,-8.61953000135422,2.18556132059097,-0.212753420734406
0.828588734100545,4.31118044786453,-0.214248249721527,1.09492724332809
0.829194427619624,5.74340212755203,-1.53629903097153,0.8961406222343441
0.829800121138704,-1.98532589979172,4.31952372293472,-0.0858173855781557
0.830405814657783,-9.97271603651047,-2.45598653097153,-0.9983198269844059
0.831011508176863,3.71482058458328,-1.10998555440903,-0.401959963703156
0.831617201695942,13.3811194127083,4.42490458230972,0.591973141765594
0.832222895215021,-5.10603634901047,-4.26901631612778,-1.35757275667191
0.8328285887341,-9.26618527479172,-1.3375124098777802,-0.7204975613594059
0.83343428225318,1.75329958848953,3.17709940652847,1.41825488004684
0.834039975772259,6.90019656114578,-1.65605000753403,1.22904833707809
0.834645669291339,1.84191531114578,3.45971171121597,0.273435544109344
0.835251362810418,-10.1451574427605,-0.175927937221527,-1.07496045198441
0.835857056329497,-0.32318234510421795,-4.06304463644028,0.429111813640594
0.836462749848577,10.1454480259895,4.5207053635597205,0.9200908175468441
0.837068443367656,-0.205826388072968,-1.3255373122215302,-1.74796094026566
0.837674136886735,-6.6939342982292205,-3.4618947340965303,-0.9959248074531559
0.838279830405815,-2.3278136927604702,3.90758036355972,0.0578837862968443
0.838885523924894,6.38047732286453,-1.8260963942527801,1.16917284879684
0.839491217443973,3.49208376817703,0.8730906174659729,0.989546383953094
0.840096910963053,-10.013431368541701,3.36151591043472,-0.962394534015656
0.840702604482132,-3.27384640760422,-5.231814167690279,0.9632011691093441
0.841308298001211,9.55148318223953,2.67893534402847,-0.967184573078156
0.841913991520291,5.76974734239578,-0.288493855190277,0.220745114421844
0.84251968503937,-6.67477414197922,-4.3145216872215295,-1.9299824246406598
0.843125378558449,-6.29396603651047,4.508730265903471,-0.298974123859406
0.843731072077529,4.36147585802078,-1.57940938253403,2.67803515348434
0.844336765596608,5.11590701036453,-0.448960163784027,-1.44379345979691
0.844942459115687,-6.00416867322922,3.8093845627784697,0.7021440402030941
0.845548152634767,-8.02556515760422,-2.58292256612778,-1.07256543245316
0.846153846153846,7.61151736192703,-0.9782594801902771,0.788364743328094
0.846759539672925,9.93708132677078,2.3556077073097197,-0.7133125027656559
0.847365233192005,-5.45091916151047,-4.01753926534653,-1.37433789339066
0.847970926711084,-8.04951535291672,0.822795207309723,0.7213041964530941
0.848576620230164,3.08253542833328,1.4023899338722199,0.865005368328094
0.849182313749243,5.91823855333328,-2.21648457784653,1.35598437223434
0.849788007268322,-2.0020910365104703,4.14708231668472,-0.646251955890656
0.850393700787402,-9.12727414197922,-1.70395039815903,0.206374997234344
0.850999394306481,2.62987673692703,-2.69309346456528,0.654243649578094
0.85160508782556,12.4901721470833,4.98294413309097,0.405161618328094
0.85221078134464,-3.59956906385422,-2.59968770284653,-1.1635761746406599
0.852816474863719,-8.94525265760422,-2.86792989034653,-0.988739748859406
0.853422168382798,1.38925661973953,3.50282206277847,0.730884274578094
0.854027861901878,6.3852673619270295,-1.26805684347153,1.17635790739059
0.854633555420957,1.8706555455207798,3.02860819559097,0.5225175753593441
0.855239248940036,-8.95962277479172,1.5580662034034698,-0.828273440265656
0.855844942459116,-1.17580929822922,-4.77436543722153,-0.382799807453156
0.856450635978195,9.62093874864578,3.98661600809097,0.182424801921844
0.857056329497274,0.333053006458282,0.38450663309097305,-0.6965473660469059
0.857662023016354,-6.45682736463547,-4.659404499721529,-1.06777539339066
0.858267716535433,-1.9446105677604701,3.46450175027847,-0.0379169949531557
0.858873410054512,5.95895388536453,-0.573501179409027,1.3727495089530901
0.859479103573592,3.35796267442703,-0.0585719801902771,0.46982714567184397
0.860084797092671,-8.63629513807297,3.83572977762222,0.371631344890594
0.86069049061175,-4.8042638880729704,-4.446247761440279,-0.5552412137031559
0.86129618413083,9.40778201036453,1.2059983323097199,-0.5791914090156559
0.861901877649909,5.90386843614578,1.8694187424659698,-0.00917676057815565
0.862507571168988,-6.09278439588547,-5.13361836690903,-2.58621777620316
0.863113264688068,-5.4030187708854704,2.12568583230972,0.314150876140594
0.863718958207147,2.86698367052078,0.710229289340973,1.6721269503593401
0.864324651726227,5.23086794786453,-1.45247334737778,0.457852048015594
0.864930345245306,-5.06771603651047,4.28359842996597,0.156079587078094
0.865536038764385,-8.15010617322922,-1.59377949972153,-0.868988772296906
0.866141732283465,6.95528201036453,-2.8367946364402803,0.481802243328094
0.866747425802544,9.73350466661453,3.66568339090347,-1.04622021760941
0.867353119321623,-5.04137082166672,-3.34693379659653,0.297385739421844
0.867958812840703,-7.65673214979172,0.142609660434723,-0.7971381863594059
0.868564506359782,2.09818240098953,1.58441141824722,0.951226071453094
0.869170199878861,6.20085085802078,-2.79128926534653,1.37753954801559
0.869775893397941,-1.44165646619797,3.90518534402847,-1.1132807644844098
0.87038158691702,-8.83747677869797,-0.8393483473777771,0.848240231609344
0.870987280436099,1.74850954942703,-3.18167744894028,-0.787558108234406
0.871592973955179,12.257855252552002,4.56621073465347,1.1715678683280901
0.872198667474258,-2.83555783338547,-0.949519245815277,-1.08454053010941
0.872804360993337,-8.70814572401047,-4.532468464565279,-1.4461884793281599
0.873410054512417,1.42278689317703,2.60947977762222,1.7870878878593401
0.874015748031496,5.76974734239578,0.652748820590973,0.278225583171844
0.874621441550575,2.47420046739578,1.7113474534034698,1.5859062472343401
0.875227135069655,-8.82071164197922,2.11131571512222,-0.8594086941719059
0.875832828588734,-1.45123654432297,-5.28689961690903,-0.9001240262031559
0.876438522107813,9.81972536973953,2.37716288309097,1.54040087614059
0.877044215626893,-0.0645202357292175,3.0046580002784697,-1.57312451448441
0.877649909145972,-5.44612912244797,-5.84014912862778,-0.416330080890656
0.878255602665051,-1.87755002088547,2.09455057840347,0.0387236300468443
0.878861296184131,5.01771120958328,1.04553202371597,0.6757988253593441
0.87946698970321,4.24890994005203,-1.28482198019028,2.1247856417655897
0.880072683222289,-8.28662228651047,4.53268046121597,-0.732472659015656
0.880678376741369,-5.56588009901047,-3.82354268331528,0.625503415203094
0.881284070260448,9.096429471302029,-0.971074421596527,-0.397169924640656
0.881889763779528,5.72903201036453,2.95196757059097,-0.562426272296906
0.882495457298607,-6.02093380994797,-4.412717488002779,-1.48690381135941
0.883101150817686,-4.82581906385422,0.7748948166847229,0.654243649578094
0.883706844336766,2.29457400255203,1.90055399637222,1.87091357145309
0.884312537855845,5.1350671666145296,-1.93147725362778,-0.174433108234406
0.884918231374924,-4.49051632947922,3.5267722580909697,0.381211423015594
0.885523924894004,-7.79324826307297,-0.556736042690277,-0.967184573078156
0.886129618413083,5.99487917833328,-3.33974873800278,0.412346676921844
0.886735311932162,8.87129763536453,4.30994364480972,-0.9767646512031559
0.887341005451242,-4.22466916151047,-2.7338087965965303,-0.11216260042190601
0.887946698970321,-6.8999059779167204,-1.90513203878403,-0.686967287921906
0.8885523924894,1.50182253770828,2.56636942605972,0.347681149578094
0.88915808600848,5.50869021348953,-2.29312520284653,1.49489550504684
0.889763779527559,-0.950677462291718,3.16991434793472,-0.809113284015656
0.890369473046638,-8.566839571666721,0.49707255105972303,0.146499508953094
0.890975166565718,1.83952029161453,-4.80310567159653,-0.7612128933906559
0.891580860084797,11.740531033802,4.434484660434721,0.690168942546844
0.892186553603876,-2.54336545057297,0.940151164340973,-0.409145022296906
0.892792247122956,-7.89623410291672,-5.03542256612778,-1.70485058870316
0.893397940642035,0.459989041614532,1.57243632059097,2.08646532926559
0.894003634161115,5.28355837755203,1.39280985574722,-0.5791914090156559
0.894609327680194,2.67777712755203,0.224040324497223,1.6290165987968401
0.895215021199273,-7.94652951307297,2.76276102762222,-0.483390627765656
0.895820714718352,-1.63565304822922,-4.439062702846529,-1.19231640901566
0.896426408237432,9.10361452989578,0.29589091043472304,1.5691411105155901
0.897032101756511,0.37855837755203203,4.54465555887222,-1.6258149441719099
0.897637795275591,-5.26889767713547,-5.76590352315903,-0.413935061359406
0.89824348879467,-1.57577755994797,1.05032206277847,-0.6534370144844059
0.898849182313749,4.09562869005203,2.25501688699722,1.37035448942184
0.899454875832829,3.93037234239578,-1.39259785909653,1.0685820284843401
0.900060569351908,-7.16814816541672,3.80219950418472,-0.20556836214065602
0.900666262870987,-5.31200802869797,-2.93020039815903,-0.14090283479690602
0.901271956390067,7.71450320177078,-1.8596266676902802,-0.7133125027656559
0.901877649909146,5.37935915880203,4.11115702371597,0.239905270671844
0.902483343428225,-4.5982922083854705,-3.85228291769028,-1.86292187776566
0.903089036947305,-4.2653844935417204,-1.33511739034653,0.433901852703094
0.903694730466384,1.10185427598953,3.17709940652847,0.644663571453094
0.904300423985463,4.57463259630203,-1.9961427809715302,0.570417965984344
0.904906117504543,-3.5851989466667202,3.30643046121597,0.328520993328094
0.905511811023622,-7.56332638807297,0.00848856668472292,-0.8402485379219059
0.906117504542701,5.2811633580207795,-4.51570332784653,-0.13611279573440602
0.906723198061781,9.42694216661453,4.10397196512222,-0.332504397296906
0.90732889158086,-3.7815905482292202,-1.40457295675278,0.160869626140594
0.907934585099939,-6.16703000135422,-2.75296895284653,-1.8317866238594098
0.908540278619019,1.2072351353645299,1.95324442605972,1.23862841520309
0.909145972138098,4.40219119005203,-1.4021779372215302,0.5823930636405941
0.909751665657177,-0.035780001354217494,2.0562302659034697,0.215955075359344
0.910357359176257,-8.16447629041672,1.53890604715347,0.08183398160934431
0.910963052695336,1.40602175645828,-4.78394551534653,-1.19231640901566
0.911568746214416,10.8639538853645,2.99747294168472,0.970386227703094
0.912174439733495,-2.05957150526047,2.81066141824722,-0.375614748859406
0.912780133252574,-7.52021603651047,-5.76111348409653,-1.08454053010941
0.913385826771653,0.32826296739578203,1.07187723855972,0.254275387859344
0.913991520290733,4.89796023302078,1.91492411355972,1.1715678683280901
0.914597213809812,2.7616028111457798,0.255175578403473,1.3727495089530901
0.915202907328892,-7.0795324427604704,3.59862284402847,-0.624696780109406
0.915808600847971,-1.9996960169792202,-4.81747578878403,-0.270233889484406
0.91641429436705,9.156304959583279,-0.26214864034652696,0.785969723796844
0.91701998788613,-0.169901095104218,5.30866678934097,-0.710917483234406
0.917625681405209,-5.30482297010422,-5.28689961690903,-0.5744013699531559
0.918231374924288,-0.708780489635468,-0.39387471456527695,-0.588771487140656
0.918837068443368,3.36754275255203,2.5687644455909697,0.584788083171844
0.919442761962447,3.6597351353645298,-1.2441066481590302,0.994336423015594
0.920048455481526,-6.53107297010422,3.5435373948097197,0.0147734347343444
0.920654149000606,-5.15154172010422,-2.12068379659653,-0.425910159015656
0.921259842519685,6.8642712681770295,-2.72901875753403,0.247090329265594
0.921865536038764,5.29313845567703,4.2812034104347205,-0.0642622097969057
0.922471229557844,-4.21029904432297,-3.14335713644028,-2.1766694363594103
0.923076923076923,-3.88936642713547,-1.8763918044090302,0.309360837078094
0.923682616596002,1.09945925645828,3.66807841043472,0.651848630046844
0.924288310115082,4.05251833848953,-2.13744893331528,0.824290036296844
0.924894003634161,-2.92177853651047,2.82742655496597,0.244695309734344
0.92549969715324,-7.57051144666672,1.32095926980972,-0.5336860379219059
0.92610539067232,4.57942263536453,-4.932436726284029,-0.591166506671906
0.926711084191399,9.24252566270828,3.49084696512222,-0.5983515652656559
0.927316777710478,-3.45347287244797,0.0396238205909729,-0.0403120144844057
0.927922471229558,-6.29636105604172,-3.81396260519028,-0.9168891629219059
0.928528164748637,1.03718874864578,2.3029172776222198,1.40388476285934
0.929133858267717,3.74356081895828,-1.0525050856590301,0.8218950167655941
0.929739551786796,0.30910281114578203,1.11498759012222,0.07943896207809431
0.930345245305875,-7.74774289197922,2.36997782449722,-0.0618671902656557
0.930950938824954,0.883907498645782,-4.865376179409029,-1.1851313504219099
0.931556632344034,10.715462674427,1.85025858621597,0.965596188640594
0.932162325863113,-1.8464147669792201,4.32431376199722,-0.823483401203156
0.932768019382193,-6.83045041151047,-5.72758321065903,-0.363639651203156
0.933373712901272,0.07678591661453249,0.00848856668472292,0.261460446453094
0.933979406420351,4.00701296739578,2.4226682541847198,0.7189091769218441
0.934585099939431,2.81668826036453,0.192905070590973,1.1619877902030902
0.93519079345851,-6.57178830213547,3.51958719949722,-0.5169209012031559
0.935796486977589,-2.17213742322922,-3.73253194112778,-0.682177248859406
0.936402180496669,7.73366335802078,-1.8596266676902802,0.479407223796844
0.937007874015748,0.761761502552032,5.13862040262222,0.613528317546844
0.937613567534827,-5.44852414197922,-2.88948506612778,-1.6306049832344098
0.938219261053907,-0.931517306041718,-2.35539571065903,-0.241493655109406
0.938824954572986,3.80343630723953,3.13159403543472,0.9799663058280941
0.939430648092065,2.91967410020828,-0.844138386440277,0.251880368328094
0.940036341611145,-5.50360959119797,2.74120585184097,0.869795407390594
0.940642035130224,-6.32749630994797,-0.12802754659652701,-0.691757326984406
0.941247728649303,7.00318240098953,-4.09657490987778,0.021958493328094398
0.941853422168383,5.95176882677078,3.39983622293472,0.328520993328094
0.942459115687462,-4.48572629041672,-0.889643757534027,-2.4425166043281603
0.943064809206541,-3.20199582166672,-3.89299824972153,0.9967314425468441
0.943670502725621,0.711466092395782,3.46450175027847,0.22793017301559398
0.9442761962447,3.37233279161453,-1.17465108175278,0.594368161296844
0.94488188976378,-2.36852902479172,1.44789530496597,-0.0379169949531557
0.945487583282859,-7.38848996229172,1.4981907151222198,-0.217543459796906
0.946093276801938,4.2968103306770296,-4.69053975362778,-0.828273440265656
0.946698970321018,9.05810915880203,1.75685282449722,-0.00678174104690565
0.947304663840097,-3.9779821497917203,1.3904148362159698,-0.452255373859406
0.947910357359176,-5.21141720838547,-3.23676289815903,-0.624696780109406
0.948516050878256,0.263597440052032,0.892250773715973,1.77990282926559
0.949121744397335,3.8225964634895298,0.25757059793472303,-0.373219729328156
0.949727437916414,1.39404665880203,0.22643534402847298,1.0470268527030901
0.950333131435494,-8.09741574354172,3.1675193284034697,-0.605536623859406
0.950938824954573,1.2120251744270298,-4.352841999721529,-0.452255373859406
0.951544518473652,10.4256653111458,0.38450663309097305,0.594368161296844
0.952150211992732,-2.15058224744797,4.527890422153471,-0.445070315265656
0.952755905511811,-6.21732541151047,-4.11573506612778,-0.766002932453156
0.95336159903089,-0.0453600794792175,-1.7350856520652802,0.230325192546844
0.95396729254997,4.07886355333328,2.7915012619972197,0.671008786296844
0.954572986069049,2.37121462755203,0.791659953403473,0.8793754855155941
0.955178679588128,-6.34426144666672,2.69330546121597,-0.289394045734406
0.955784373107208,-1.5039269740104702,-3.22957783956528,0.29020068082809397
0.956390066626287,6.89301150255203,-2.30270528097153,-0.351664553546906
0.956995760145366,0.7186511509895319,5.1122751877784705,0.500962399578094
0.957601453664446,-5.49881955213547,-1.4668434645652801,-0.722892580890656
0.958207147183525,-0.7614709193229681,-3.17209737081528,-1.85334179964066
0.958812840702604,4.09802370958328,2.06102030496597,1.4661552706718401
0.959418534221684,2.68735720567703,0.925781047153473,0.146499508953094
0.960024227740763,-5.08208615369797,1.56046122293472,1.00870654020309
0.960629921259842,-5.28087277479172,-0.116052448940277,-0.457045412921906
0.961235614778922,6.46430300645828,-3.18407246847153,-0.0474970730781557
0.961841308298001,4.6225329869270295,2.75797098855972,0.632688473796844
0.962447001817081,-3.83428097791672,-0.547155964565277,-2.2892353543281603
0.96305269533616,-2.67988156385422,-3.49302998800278,0.419531735515594
0.963658388855239,0.809661893177032,2.99986796121597,0.27104052457809397
0.964264082374319,3.3268274205207797,-0.530390827846527,1.38711962614059
0.964869775893398,-2.61042599744797,1.4981907151222198,0.019563473796844397
0.965475469412477,-6.27720089979172,1.25150370340347,-0.25825879182815603
0.966081162931557,2.7879480259895297,-3.60559590597153,-1.07256543245316
0.966686856450636,9.36467165880203,1.67542216043472,0.06746386442184431
0.967292549969715,-2.71580685682297,0.9952366135597229,-0.133717776203156
0.967898243488795,-6.0353039271354705,-2.93259541769028,-1.61144482698441
0.968503937007874,1.3269861119270299,0.109079386997223,2.4409282198905897
0.969109630526953,2.68017214708328,0.858720500278473,-0.5600312527656559
0.969715324046033,0.938992947864532,-0.113657429409027,1.03984179410934
0.970321017565112,-7.21844357557297,2.3124973557472197,-0.306159182453156
0.970926711084191,0.203721951770782,-3.73732198019028,-1.00550488557816
0.971532404603271,10.8926941197395,-0.348369343471527,0.8793754855155941
0.97213809812235,-1.94221554822922,4.6332712815284705,-0.548056155109406
0.972743791641429,-7.01486691541672,-3.0762965895652803,-0.5815864285469059
0.973349485160509,0.373768338489532,-2.2380397536277803,-0.6151167019844059
0.973955178679588,4.19142947130203,2.35081766824722,1.21228320035934
0.974560872198667,2.24667361192703,0.5114426682472231,1.63859667692184
0.975166565717747,-5.22818234510422,2.66696024637222,-1.77430615510941
0.975772259236826,-2.26554318494797,-2.88230000753403,1.39190966520309
0.976377952755905,7.07982302598953,-2.05362324972153,-1.0534052762031598
0.976983646274985,0.9773132603645319,4.10397196512222,0.946436032390594
0.977589339794064,-6.16463498182297,-0.657326863002777,-0.742052737140656
0.978195033313144,0.831217068958282,-3.0331862380027803,-1.75993603792191
0.978800726832223,3.26455691270828,0.959311320590973,1.9667143527030901
0.979406420351302,2.29457400255203,2.2526218674659697,-1.06298535432816
0.980012113870382,-4.75875851697922,0.8970408127784729,2.2373515597343396
0.980617807389461,-6.28678097791672,0.686279094028473,-0.8186933621406559
0.98122350090854,7.24986941270828,-4.240276081752779,0.23272021207809399
0.98182919442762,4.89796023302078,2.09455057840347,-1.07975049104691
0.982434887946699,-4.64619259901047,1.18204813699722,-1.91561230745316
0.983040581465778,-1.79372433729172,-5.05458272237778,1.19072802457809
0.983646274984858,0.790501736927032,2.63822001199722,-0.502550784015656
0.984251968503937,2.34965945177078,0.6335886643409729,1.95952929410934
