Time (s),Accel X (m/s^2),Accel Y (m/s^2),Accel Z (m/s^2)
0.0,0.0494665088653565,-0.0213227840423584,-0.118130315494538
0.000605693519079346,0.07820674324035651,0.0098124698638916,0.29620806341171196
0.00121138703815869,0.0255163135528565,0.203809051895142,0.262677789974212
0.00181708055723804,-0.190035444259644,-0.040482940292358396,-0.0989701592445375
0.00242277407631738,-0.053519330978393495,-0.27040481529235805,0.0447310126304625
0.00302846759539673,-0.247515913009644,-0.0021626277923583997,-0.154055608463288
0.00363416111447607,-0.10620976066589399,0.110403290176392,-0.13250043268203798
0.00423985463355542,-0.0774695262908935,-0.0428779598236084,-0.000774358463287528
0.00484554815263477,-0.09662968254089349,-0.08598831138610841,0.147716852474212
0.00545124167171411,0.111737016677856,0.0553178409576416,0.181247125911712
0.00605693519079346,-0.190035444259644,0.09363815345764159,-0.134895452213288
0.0066626287098728,-0.031964155197143504,-0.09077835044860841,-0.0654398858070375
0.00726832222895215,0.0997619190216065,0.0337626651763916,0.214777399349212
0.0078740157480315,-0.010408979415893499,0.0409477237701416,-0.0199345147132875
0.00847970926711084,-0.0607043895721435,-0.157838897323608,0.07107622747421251
0.00908540278619019,-0.0607043895721435,0.203809051895142,0.00880571966171247
0.00969109630526953,-0.14213505363464402,0.108008270645142,-0.0965751397132875
0.0102967898243489,-0.0654944286346435,-0.0644331356048584,0.43751421575546195
0.0109024833434282,0.123712114334106,0.0960331729888916,0.154901911067962
0.0115081768625076,0.145267290115356,0.07687301673889159,-0.0702299248695375
0.0121138703815869,-0.0199890575408935,-0.09077835044860841,0.554870172786712
0.0127195639006663,-0.10381474113464399,-0.0093476863861084,0.332133356380462
0.0133252574197456,0.0135412158966065,0.163093719863892,0.06868120794296251
0.013930950938825,-0.0774695262908935,-0.0117427059173584,0.0231758368492125
0.0145366444579043,-0.163690229415894,-0.0165327449798584,0.130951715755462
0.0151423379769836,0.020726274490356498,-0.0021626277923583997,0.205197321224212
0.015748031496063,0.0542565479278565,0.0433427433013916,-0.125315374088288
0.0163537250151423,0.07581172370910651,0.0457377628326416,0.198012262630462
0.0169594185342217,0.037491411209106505,-0.0811982723236084,0.0782612860679625
0.017565112053301,-0.10620976066589399,-0.0500630184173584,0.0375459540367125
0.0181708055723804,-0.0199890575408935,0.244524383926392,-0.000774358463287528
0.0187764990914597,-0.055914350509643496,0.06489791908264159,0.21717241888046201
0.0193821926105391,-0.0654944286346435,0.0960331729888916,0.0351509345054625
0.0199878861296184,0.0997619190216065,0.165488739395142,-0.0678349053382875
0.0205935796486978,0.135687211990356,-0.0620381160736084,0.0471260321617125
0.0211992731677771,0.0877868213653565,0.151118622207642,0.159691950130462
0.0218049666868564,-0.118184858322144,0.0313676456451416,0.0830513251304625
0.0224106602059358,0.00156611824035646,-0.09317336997985841,0.15729693059921201
0.0230163537250151,0.387164262771606,0.09124313392639159,0.28662798528671196
0.0236220472440945,0.15724238777160598,-0.08838333091735841,0.051916071224212504
0.0242277407631738,-0.302601362228394,0.0241825870513916,0.121371637630462
0.0248334342822532,-0.0223840770721435,0.026577606582641602,0.0734712470054625
0.0254391278013325,0.037491411209106505,0.0337626651763916,-0.039094670963287496
0.0260448213204119,-0.0630994091033935,0.151118622207642,0.128556696224212
0.0266505148394912,0.109341997146606,-0.0620381160736084,0.0830513251304625
0.0272562083585706,0.00396113777160646,-0.0285078426361084,0.104606500911712
0.0278619018776499,0.018331254959106497,0.117588348770142,0.0207808173179625
0.0284675953967293,0.032701372146606504,-0.09556838951110841,-0.0822050225257875
0.0290732889158086,-0.0223840770721435,-0.119518584823608,0.181247125911712
0.0296789824348879,0.0255163135528565,0.06729293861389159,-0.0414896904945375
0.0302846759539673,0.00396113777160646,0.155908661270142,0.018385797786712503
0.0308903694730466,0.13329219245910598,0.24212936439514202,0.0207808173179625
0.031496062992126,-0.149320112228394,0.10321823158264201,0.030360895442962502
0.0321017565112053,-0.0367541942596435,0.0169975284576416,0.102211481380462
0.0327074500302847,0.0470714893341065,0.06489791908264159,-0.036699651432037496
0.033313143549364,-0.228355756759644,-0.138678741073608,0.0926314032554625
0.0339188370684434,-0.0391492137908935,-0.0237178035736084,0.027965875911712502
0.0345245305875227,-0.053519330978393495,0.06729293861389159,0.0375459540367125
0.0351302241066021,0.102156938552856,0.18704391517639202,0.0758662665367125
0.0357359176256814,0.0303063526153565,0.230154266738892,-0.039094670963287496
0.0363416111447607,-0.0223840770721435,-0.126703643417358,0.29860308294296195
0.0369473046638401,-0.22596073722839402,0.172673797988892,0.0902363837242125
0.0375529981829194,-0.0630994091033935,-0.0069526668548584,-0.0151444756507875
0.0381586917019988,0.26022822761535597,-0.0213227840423584,0.214777399349212
0.0387643852210781,-0.14213505363464402,-0.0452729793548584,-0.0223295342445375
0.0393700787401575,-0.22117069816589402,-0.141073760604858,0.0375459540367125
0.0399757722592368,-0.0654944286346435,0.139143524551392,0.154901911067962
0.0405814657783162,-0.16129520988464402,0.0385527042388916,-0.161240667057038
0.0411871592973955,-0.09662968254089349,0.07208297767639159,0.43751421575546195
0.0417928528164749,-0.10620976066589399,-0.131493682479858,0.34650347356796196
0.0423985463355542,0.140477251052856,-0.150653838729858,-0.0319096123695375
0.0430042398546336,0.0398864307403565,0.26847457923889195,-0.125315374088288
0.0436099333737129,0.130897172927856,0.08645309486389159,0.107001520442962
0.0442156268927922,0.0590465869903565,-0.09556838951110841,0.0974214423179625
0.0448213204118716,-0.132554975509644,-0.244059600448608,-0.28099164361953805
0.0454270139309509,0.169217485427856,-0.277589873886108,0.054311090755462504
0.0460327074500303,0.181192583084106,0.026577606582641602,-0.182795842838288
0.0466384009691096,-0.010408979415893499,-0.112333526229858,0.0591011298179625
0.047244094488189,-0.16608524894714402,0.108008270645142,-0.0606498467445375
0.0478497880072683,-0.12776493644714398,0.0026274112701416,0.121371637630462
0.0484554815263477,-0.0607043895721435,-0.24166458091735799,0.054311090755462504
0.049061175045427,-0.0391492137908935,0.07208297767639159,-0.0127494561195375
0.0496668685645064,-0.180455366134644,0.129563446426392,0.15729693059921201
0.0502725620835857,-0.0151990184783935,-0.114728545761108,0.00641070013046247
0.050878255602665,0.0901818408966065,-0.107543487167358,0.0854463446617125
0.0514839491217444,-0.0846545848846435,-0.0093476863861084,0.06628618841171251
0.0520896426408237,-0.17087528800964402,0.09363815345764159,0.102211481380462
0.0526953361599031,0.037491411209106505,0.170278778457642,0.0447310126304625
0.0533010296789824,0.123712114334106,0.0960331729888916,0.195617243099212
0.0539067231980618,-0.209195600509644,0.0313676456451416,0.159691950130462
0.0545124167171411,-0.130159955978394,-0.0261128231048584,0.128556696224212
0.0551181102362205,-0.024779096603393502,-0.0309028621673584,0.116581598567962
0.0557238037552998,0.0734167041778565,0.0169975284576416,0.126161676692962
0.0563294972743792,-0.051124311447143495,0.0193925479888916,0.0614961493492125
0.0569351907934585,-0.125369916915894,-0.0045576473236084,-0.11094525690078799
0.0575408843125379,-0.0870496044158935,0.0337626651763916,-0.0941801201820375
0.0581465778316172,0.104551958084106,0.155908661270142,-0.194770940494538
0.0587522713506965,0.0877868213653565,-0.131493682479858,-0.0486747490882875
0.0593579648697759,0.0422814502716065,-0.0045576473236084,-0.0103544365882875
0.0599636583888552,0.130897172927856,0.0098124698638916,-0.0582548272132875
0.0605693519079346,-0.158900190353394,-0.136283721542358,0.051916071224212504
0.0611750454270139,-0.0295691356658935,-0.17220901451110798,0.0998164618492125
0.0617807389460933,-0.0942346630096435,-0.33028030357360805,0.0447310126304625
0.0623864324651726,-0.0056189403533935395,0.0505278018951416,-0.0750199639320375
0.062992125984252,-0.0199890575408935,0.0193925479888916,0.0423359930992125
0.0635978195033313,0.0686266651153565,0.0050224308013916,0.188432184505462
0.0642035130224107,0.032701372146606504,0.07208297767639159,0.0758662665367125
0.06480920654149,-0.17087528800964402,0.0050224308013916,-0.00556439752578753
0.0654149000605694,0.0925768604278565,-0.0285078426361084,0.0495210516929625
0.0660205935796487,-0.0391492137908935,-0.0740132137298584,0.0231758368492125
0.066626287098728,0.0734167041778565,-0.29195999107360804,0.142926813411712
0.0672319806178074,0.006356157302856461,-0.165023955917358,0.0734712470054625
0.0678376741368867,0.0398864307403565,0.0409477237701416,-0.127710393619538
0.0684433676559661,0.07581172370910651,-0.133888702011108,-0.0582548272132875
0.0690490611750454,0.176402544021606,0.0529228214263916,0.152506891536712
0.0696547546941248,0.0398864307403565,-0.0285078426361084,0.178852106380462
0.0702604482132041,-0.17566532707214402,-0.09796340904235841,0.004015680599212469
0.0708661417322835,0.0494665088653565,0.0625028995513916,-0.374397405338288
0.0714718352513628,0.0446764698028565,-0.0332978816986084,0.030360895442962502
0.0720775287704422,0.106946977615356,-0.0476679988861084,0.399193903255462
0.0726832222895215,0.018331254959106497,-0.153048858261108,0.06628618841171251
0.0732889158086008,0.181192583084106,-0.0141377254486084,-0.0462797295570375
0.0738946093276802,-0.0199890575408935,0.0960331729888916,-0.0582548272132875
0.0745003028467595,0.0710216846466065,-0.0692231746673584,-0.0965751397132875
0.0751059963658389,0.0662316455841065,-0.0811982723236084,0.06628618841171251
0.0757116898849182,-0.0798645458221435,-0.0380879207611084,-0.0103544365882875
0.0763173834039976,0.0662316455841065,-0.114728545761108,-0.039094670963287496
0.0769230769230769,-0.0774695262908935,-0.141073760604858,0.37524370794296197
0.0775287704421563,-0.0391492137908935,-0.09796340904235841,-0.029514592838287498
0.0781344639612356,0.0255163135528565,0.13195846595764202,-0.0917851006507875
0.078740157480315,0.0949718799591065,0.0553178409576416,-0.0702299248695375
0.0793458509993943,0.16203242683410599,0.0385527042388916,-0.221116155338288
0.0799515445184737,0.12850215339660598,0.0505278018951416,0.128556696224212
0.080557238037553,0.104551958084106,-0.117123565292358,0.0734712470054625
0.0811629315566323,0.0542565479278565,0.0409477237701416,-0.10615521783828799
0.0817686250757117,-0.0008289012908935411,-0.08838333091735841,0.004015680599212469
0.082374318594791,-0.125369916915894,-0.0668281551361084,0.0207808173179625
0.0829800121138704,0.174007524490356,0.08884811439514159,0.111791559505462
0.0835857056329497,0.0494665088653565,-0.0740132137298584,0.219567438411712
0.0841913991520291,-0.0008289012908935411,0.0241825870513916,0.190827204036712
0.0847970926711084,0.035096391677856505,0.0146025089263916,0.130951715755462
0.0854027861901878,-0.0008289012908935411,-0.0811982723236084,0.114186579036712
0.0860084797092671,0.126107133865356,-0.0716181941986084,0.0806563055992125
0.0866141732283465,-0.16608524894714402,-0.203344268417358,-0.029514592838287498
0.0872198667474258,-0.10381474113464399,0.0433427433013916,-0.182795842838288
0.0878255602665051,0.0255163135528565,-0.100358428573608,0.06868120794296251
0.0884312537855845,-0.0415442333221435,0.110403290176392,0.135741754817962
0.0890369473046638,-0.053519330978393495,0.10321823158264201,0.06628618841171251
0.0896426408237432,0.104551958084106,-0.119518584823608,0.0471260321617125
0.0902483343428225,-0.0032239208221435402,0.10082321205139201,0.0375459540367125
0.0908540278619019,-0.010408979415893499,-0.09317336997985841,0.334528375911712
0.0914597213809812,0.109341997146606,-0.0189277645111084,0.200407282161712
0.0920654149000606,0.018331254959106497,0.06489791908264159,0.178852106380462
0.0926711084191399,0.114132036209106,-0.0716181941986084,0.250702692317962
0.0932768019382193,0.0135412158966065,0.07926803627014159,0.135741754817962
0.0938824954572986,-0.122974897384644,0.18225387611389202,-0.0127494561195375
0.094488188976378,-0.0199890575408935,-0.0356929012298584,0.0638911688804625
0.0950938824954573,0.171612504959106,-0.0596430965423584,0.00162066106796247
0.0956995760145366,0.0662316455841065,-0.0788032527923584,0.260282770442962
0.096305269533616,-0.17087528800964402,-0.109938506698608,0.207592340755462
0.0969109630526953,-0.0774695262908935,0.0026274112701416,0.26507280950546197
0.0975166565717747,0.26980830574035597,-0.0500630184173584,0.202802301692962
0.098122350090854,0.135687211990356,0.143933563613892,0.0878413641929625
0.0987280436099334,-0.0343591747283935,-0.114728545761108,-0.0462797295570375
0.0993337371290127,0.0566515674591065,-0.0740132137298584,0.0447310126304625
0.0999394306480921,-0.223565717697144,0.251709442520142,0.535710016536712
0.100545124167171,-0.15650517082214402,-0.0716181941986084,-0.216326116275788
0.101150817686251,-0.0415442333221435,-0.0332978816986084,-0.0678349053382875
0.10175651120533,-0.051124311447143495,0.122378387832642,0.722521539974212
0.102362204724409,0.0111461963653565,0.163093719863892,0.219567438411712
0.102967898243489,-0.134949995040894,0.383435516738892,0.133346735286712
0.103573591762568,0.0446764698028565,0.0289726261138916,-0.0462797295570375
0.104179285281647,-0.110999799728394,-0.0117427059173584,0.0758662665367125
0.104784978800727,-0.22117069816589402,0.07447799720764159,0.0734712470054625
0.105390672319806,-0.0439392528533935,-0.0644331356048584,-0.173215764713288
0.105996365838886,0.0518615283966065,0.165488739395142,0.219567438411712
0.106602059357965,0.226697954177856,-0.0596430965423584,0.15729693059921201
0.107207752877044,-0.144530073165894,-0.131493682479858,0.00641070013046247
0.107813446396124,-0.118184858322144,-0.129098662948608,0.051916071224212504
0.108419139915203,0.0470714893341065,-0.155443877792358,-0.0582548272132875
0.109024833434282,0.0470714893341065,-0.0117427059173584,-0.0941801201820375
0.109630526953362,0.13808223152160598,-0.0764082332611084,-0.125315374088288
0.110236220472441,-0.0367541942596435,0.06968795814514159,0.0974214423179625
0.11084191399152,-0.122974897384644,0.07447799720764159,0.22675249700546202
0.1114476075106,-0.213985639572144,-0.191369170761108,-0.0319096123695375
0.112053301029679,-0.22117069816589402,-0.169813994979858,0.0782612860679625
0.112658994548758,0.0925768604278565,-0.239269561386108,-0.209141057682038
0.113264688067838,-0.0175940380096435,0.0122074893951416,-0.194770940494538
0.113870381586917,-0.0918396434783935,0.179858856582642,-0.000774358463287528
0.114476075105996,-0.053519330978393495,-0.0596430965423584,-0.0534647881507875
0.115081768625076,-0.0463342723846435,0.06968795814514159,0.107001520442962
0.115687462144155,0.109341997146606,-0.0189277645111084,0.054311090755462504
0.116293155663234,-0.0846545848846435,-0.09317336997985841,0.133346735286712
0.116898849182314,0.0231212940216065,-0.0524580379486084,0.238727594661712
0.117504542701393,0.106946977615356,-0.136283721542358,0.312973200130462
0.118110236220472,-0.293021284103394,0.07926803627014159,0.150111872005462
0.118715929739552,-0.178060346603394,0.136748505020142,-0.122920354557038
0.119321623258631,-0.17566532707214402,-0.0045576473236084,0.16208696966171202
0.11992731677771,-0.120579877853394,-0.0548530574798584,0.21717241888046201
0.12053301029679,0.171612504959106,0.0122074893951416,0.171667047786712
0.121138703815869,0.0398864307403565,-0.0332978816986084,0.0423359930992125
0.121744397334949,-0.0295691356658935,-0.148258819198608,0.07107622747421251
0.122350090854028,-0.276256147384644,-0.0261128231048584,0.018385797786712503
0.122955784373107,-0.120579877853394,0.105613251113892,0.0231758368492125
0.123561477892187,0.0111461963653565,0.07208297767639159,0.0974214423179625
0.124167171411266,-0.237935834884644,-0.0069526668548584,0.0782612860679625
0.124772864930345,-0.204405561447144,-0.0309028621673584,0.0351509345054625
0.125378558449425,-0.0894446239471435,-0.0716181941986084,0.0207808173179625
0.125984251968504,-0.110999799728394,-0.136283721542358,0.0998164618492125
0.126589945487583,-0.233145795822144,-0.0141377254486084,-0.122920354557038
0.127195639006663,0.032701372146606504,0.108008270645142,0.0495210516929625
0.127801332525742,-0.21638065910339402,0.0361576847076416,0.135741754817962
0.128407026044821,-0.0343591747283935,0.0625028995513916,0.0327559149742125
0.129012719563901,0.150057329177856,-0.114728545761108,0.135741754817962
0.12961841308298,0.035096391677856505,-0.119518584823608,0.135741754817962
0.130224106602059,0.0901818408966065,0.08884811439514159,0.269862848567962
0.130829800121139,-0.209195600509644,0.0026274112701416,-0.182795842838288
0.131435493640218,0.0159362354278565,-0.08598831138610841,0.363268610286712
0.132041187159297,-0.0918396434783935,-0.0356929012298584,0.657856012630462
0.132646880678377,-0.0175940380096435,-0.0692231746673584,0.176457086849212
0.133252574197456,-0.024779096603393502,-0.105148467636108,0.22196245794296202
0.133858267716535,-0.271466108322144,0.0553178409576416,0.133346735286712
0.134463961235615,0.0231212940216065,0.0960331729888916,0.171667047786712
0.135069654754694,0.14287227058410598,0.000232391738891603,0.0423359930992125
0.135675348273773,-0.0175940380096435,-0.09317336997985841,0.07107622747421251
0.136281041792853,-0.10141972160339399,0.08405807533264159,-0.0486747490882875
0.136886735311932,-0.10141972160339399,0.0074174503326416,0.30578814153671197
0.137492428831012,0.0111461963653565,0.08166305580139159,0.0974214423179625
0.138098122350091,0.0470714893341065,-0.0356929012298584,0.0255708563804625
0.13870381586917,-0.22596073722839402,0.0337626651763916,0.164481989192962
0.13930950938825,0.018331254959106497,0.17746383705139201,0.114186579036712
0.139915202907329,-0.0128039989471435,-0.0788032527923584,0.430329157161712
0.140520896426408,0.018331254959106497,-0.0644331356048584,-0.0319096123695375
0.141126589945488,-0.0607043895721435,0.0050224308013916,-0.0103544365882875
0.141732283464567,-0.0846545848846435,-0.0644331356048584,0.018385797786712503
0.142337976983646,0.0470714893341065,0.0169975284576416,0.224357477474212
0.142943670502726,-0.180455366134644,-0.0620381160736084,0.380033747005462
0.143549364021805,-0.12776493644714398,-0.165023955917358,0.0926314032554625
0.144155057540884,0.0973668994903565,0.07447799720764159,-0.0510697686195375
0.144760751059964,0.114132036209106,-0.121913604354858,-0.10855023736953799
0.145366444579043,-0.134949995040894,-0.212924346542358,0.0758662665367125
0.145972138098122,-0.13734501457214401,0.0289726261138916,-0.118130315494538
0.146577831617202,-0.055914350509643496,-0.22729446372985798,-0.13250043268203798
0.147183525136281,-0.190035444259644,-0.08598831138610841,0.0806563055992125
0.14778921865536,0.0470714893341065,0.0217875675201416,-0.144475530338288
0.14839491217444,0.0231212940216065,-0.198554229354858,0.109396539974212
0.149000605693519,-0.0295691356658935,-0.0021626277923583997,0.027965875911712502
0.149606299212598,-0.17566532707214402,-0.0356929012298584,-0.10855023736953799
0.150211992731678,-0.0415442333221435,0.0193925479888916,0.0614961493492125
0.150817686250757,0.164427446365356,0.0385527042388916,0.07107622747421251
0.151423379769836,-0.113394819259644,-0.121913604354858,0.0878413641929625
0.152029073288916,-0.108604780197144,-0.0692231746673584,-0.00316937799453753
0.152634766807995,-0.0654944286346435,-0.0596430965423584,0.159691950130462
0.153240460327075,0.0662316455841065,-0.0309028621673584,0.195617243099212
0.153846153846154,0.0231212940216065,-0.0069526668548584,0.0375459540367125
0.154451847365233,0.018331254959106497,-0.0572480770111084,0.00880571966171247
0.155057540884313,0.0662316455841065,0.136748505020142,0.0375459540367125
0.155663234403392,-0.0343591747283935,0.08405807533264159,-0.0822050225257875
0.156268927922471,-0.14692509269714402,-0.0835932918548584,0.0351509345054625
0.156874621441551,-0.027174116134643503,0.0193925479888916,0.135741754817962
0.15748031496063,-0.09902470207214349,0.0074174503326416,0.0782612860679625
0.158086008479709,-0.0032239208221435402,-0.143468780136108,0.0830513251304625
0.158691701998789,0.126107133865356,0.151118622207642,0.0112007391929625
0.159297395517868,0.0494665088653565,0.06489791908264159,0.0159907782554625
0.159903089036947,-0.252305952072144,-0.0692231746673584,0.238727594661712
0.160508782556027,-0.058309370040893496,-0.102753448104858,0.0638911688804625
0.161114476075106,-0.0175940380096435,-0.102753448104858,-0.178005803775788
0.161720169594185,0.00156611824035646,0.0553178409576416,-0.034304631900787495
0.162325863113265,0.135687211990356,-0.133888702011108,0.195617243099212
0.162931556632344,-0.0128039989471435,-0.0500630184173584,-0.0726249444007875
0.163537250151423,-0.0607043895721435,0.07447799720764159,-0.0510697686195375
0.164142943670503,-0.09662968254089349,-0.0572480770111084,-0.237881292057038
0.164748637189582,-0.139740034103394,0.136748505020142,-0.11094525690078799
0.165354330708661,-0.0415442333221435,-0.0165327449798584,0.22196245794296202
0.165960024227741,-0.0750745067596435,0.0409477237701416,0.018385797786712503
0.16656571774682,-0.0870496044158935,0.0146025089263916,-0.0127494561195375
0.167171411265899,0.0111461963653565,-0.18178909263610799,0.121371637630462
0.167777104784979,-0.247515913009644,0.13195846595764202,-0.0726249444007875
0.168382798304058,0.020726274490356498,0.10082321205139201,-0.0630448662757875
0.168988491823137,0.190772661209106,-0.26321975669860803,0.214777399349212
0.169594185342217,0.0973668994903565,-0.131493682479858,-0.029514592838287498
0.170199878861296,-0.125369916915894,0.108008270645142,0.202802301692962
0.170805572380376,-0.144530073165894,-0.0548530574798584,0.145321832942962
0.171411265899455,0.154847368240356,0.0433427433013916,0.0495210516929625
0.172016959418534,-0.185245405197144,-0.08838333091735841,-0.158845647525788
0.172622652937614,0.0566515674591065,-0.0428779598236084,-0.10855023736953799
0.173228346456693,0.006356157302856461,0.163093719863892,0.142926813411712
0.173834039975772,-0.28823124504089404,0.122378387832642,0.118976618099212
0.174439733494852,-0.031964155197143504,0.0026274112701416,0.224357477474212
0.175045427013931,0.0446764698028565,0.13195846595764202,0.130951715755462
0.17565112053301,0.116527055740356,0.0098124698638916,0.0135957587242125
0.17625681405209,-0.0343591747283935,0.0361576847076416,-0.0319096123695375
0.176862507571169,-0.0008289012908935411,0.119983368301392,0.12376665716171201
0.177468201090248,0.190772661209106,-0.08598831138610841,0.054311090755462504
0.178073894609328,-0.0415442333221435,0.06489791908264159,0.0327559149742125
0.178679588128407,-0.0415442333221435,0.0313676456451416,0.214777399349212
0.179285281647486,0.0734167041778565,-0.0572480770111084,-0.034304631900787495
0.179890975166566,0.0159362354278565,0.0481327823638916,0.0231758368492125
0.180496668685645,-0.115789838790894,-0.126703643417358,0.118976618099212
0.181102362204724,-0.024779096603393502,-0.0069526668548584,-0.036699651432037496
0.181708055723804,-0.190035444259644,0.0361576847076416,0.0375459540367125
0.182313749242883,0.037491411209106505,0.108008270645142,0.145321832942962
0.182919442761962,0.0542565479278565,0.0601078800201416,0.171667047786712
0.183525136281042,-0.209195600509644,-0.09077835044860841,0.154901911067962
0.184130829800121,0.140477251052856,-0.0668281551361084,0.0758662665367125
0.1847365233192,-0.051124311447143495,0.0193925479888916,0.0399409735679625
0.18534221683828,0.0231212940216065,-0.0740132137298584,0.200407282161712
0.185947910357359,0.0303063526153565,-0.224899444198608,0.224357477474212
0.186553603876439,0.0590465869903565,-0.121913604354858,0.128556696224212
0.187159297395518,-0.051124311447143495,-0.0213227840423584,-0.0654398858070375
0.187764990914597,-0.240330854415894,0.124773407363892,0.0902363837242125
0.188370684433677,-0.0223840770721435,-0.234479522323608,0.188432184505462
0.188976377952756,0.0686266651153565,-0.126703643417358,-0.13729047174453798
0.189582071471835,-0.19722050285339401,-0.0644331356048584,-0.154055608463288
0.190187764990915,-0.10620976066589399,-0.107543487167358,-0.245066350650788
0.190793458509994,-0.0654944286346435,0.0026274112701416,-0.0247245537757875
0.191399152029073,-0.10620976066589399,0.08645309486389159,0.7847920477867121
0.192004845548153,0.0470714893341065,0.0409477237701416,0.312973200130462
0.192610539067232,0.00156611824035646,-0.155443877792358,0.0231758368492125
0.193216232586311,0.07820674324035651,0.179858856582642,0.174062067317962
0.193821926105391,-0.0774695262908935,-0.0021626277923583997,0.128556696224212
0.19442761962447,0.109341997146606,-0.148258819198608,0.205197321224212
0.195033313143549,0.0159362354278565,0.153513641738892,0.027965875911712502
0.195639006662629,-0.0223840770721435,0.0169975284576416,0.0159907782554625
0.196244700181708,-0.0415442333221435,0.0193925479888916,0.22675249700546202
0.196850393700787,-0.051124311447143495,0.117588348770142,0.205197321224212
0.197456087219867,0.035096391677856505,0.0984281925201416,0.154901911067962
0.198061780738946,-0.13734501457214401,-0.114728545761108,0.054311090755462504
0.198667474258025,0.0710216846466065,-0.162628936386108,0.188432184505462
0.199273167777105,-0.0846545848846435,-0.0165327449798584,0.109396539974212
0.199878861296184,0.111737016677856,0.0313676456451416,-0.0175394951820375
0.200484554815263,0.0925768604278565,-0.0141377254486084,0.238727594661712
0.201090248334343,0.0710216846466065,-0.0620381160736084,0.109396539974212
0.201695941853422,0.0734167041778565,-0.0165327449798584,0.28902300481796195
0.202301635372502,0.0973668994903565,-0.0045576473236084,0.236332575130462
0.202907328891581,0.150057329177856,-0.117123565292358,-0.0223295342445375
0.20351302241066,-0.273861127853394,-0.0620381160736084,-0.151660588932038
0.20411871592974,0.106946977615356,0.0385527042388916,-0.0534647881507875
0.204724409448819,0.0638366260528565,-0.0644331356048584,0.241122614192962
0.205330102967898,-0.204405561447144,-0.0165327449798584,0.109396539974212
0.205935796486978,-0.010408979415893499,0.153513641738892,0.0854463446617125
0.206541490006057,0.0518615283966065,-0.09796340904235841,0.15729693059921201
0.207147183525136,0.135687211990356,-0.09556838951110841,0.0974214423179625
0.207752877044216,0.020726274490356498,-0.153048858261108,0.06868120794296251
0.208358570563295,-0.130159955978394,-0.136283721542358,-0.149265569400788
0.208964264082374,-0.0032239208221435402,0.270869598770142,-0.156450627994538
0.209569957601454,-0.283441205978394,-0.0620381160736084,-0.0175394951820375
0.210175651120533,-0.12776493644714398,-0.107543487167358,0.281837946224212
0.210781344639612,0.0973668994903565,0.0361576847076416,0.12376665716171201
0.211387038158692,-0.055914350509643496,0.0625028995513916,0.018385797786712503
0.211992731677771,-0.0415442333221435,0.203809051895142,0.31536821966171197
0.21259842519685,-0.051124311447143495,-0.107543487167358,0.12376665716171201
0.21320411871593,-0.010408979415893499,-0.0668281551361084,0.128556696224212
0.213809812235009,-0.0726794872283935,-0.0596430965423584,0.126161676692962
0.214415505754088,0.00396113777160646,0.026577606582641602,0.26507280950546197
0.215021199273168,0.020726274490356498,0.170278778457642,0.238727594661712
0.215626892792247,0.0901818408966065,-0.268009795761108,-0.170820745182038
0.216232586311326,0.0518615283966065,-0.0476679988861084,0.0854463446617125
0.216838279830406,-0.22117069816589402,0.153513641738892,0.111791559505462
0.217443973349485,-0.158900190353394,-0.210529327011108,0.0926314032554625
0.218049666868565,-0.223565717697144,-0.0644331356048584,0.018385797786712503
0.218655360387644,0.116527055740356,-0.0165327449798584,0.104606500911712
0.219261053906723,0.07820674324035651,0.13195846595764202,0.0112007391929625
0.219866747425803,-0.0678894481658935,0.07687301673889159,-0.0846000420570375
0.220472440944882,0.032701372146606504,-0.203344268417358,-0.0534647881507875
0.221078134463961,-0.14692509269714402,-0.0596430965423584,-0.144475530338288
0.221683827983041,0.0542565479278565,-0.145863799667358,0.36805864934921195
0.22228952150212,-0.0822595653533935,-0.0740132137298584,0.15729693059921201
0.222895215021199,-0.0008289012908935411,0.0481327823638916,-0.151660588932038
0.223500908540279,0.032701372146606504,-0.0692231746673584,0.0471260321617125
0.224106602059358,-0.024779096603393502,-0.196159209823608,-0.0199345147132875
0.224712295578437,0.185982622146606,-0.0069526668548584,-0.156450627994538
0.225317989097517,0.169217485427856,-0.0213227840423584,0.07107622747421251
0.225923682616596,-0.0032239208221435402,-0.0788032527923584,0.0423359930992125
0.226529376135675,-0.0678894481658935,-0.0380879207611084,-0.14208051080703799
0.227135069654755,-0.0008289012908935411,-0.0548530574798584,0.164481989192962
0.227740763173834,-0.024779096603393502,0.0122074893951416,0.183642145442962
0.228346456692913,-0.25949101066589403,-0.0332978816986084,0.0902363837242125
0.228952150211993,0.140477251052856,0.0313676456451416,0.186037164974212
0.229557843731072,0.130897172927856,0.07687301673889159,0.145321832942962
0.230163537250151,-0.010408979415893499,0.10321823158264201,0.229147516536712
0.230769230769231,0.0518615283966065,0.129563446426392,0.104606500911712
0.23137492428831,-0.0918396434783935,-0.150653838729858,0.0782612860679625
0.231980617807389,-0.09662968254089349,-0.0380879207611084,0.118976618099212
0.232586311326469,0.121317094802856,0.136748505020142,-0.0127494561195375
0.233192004845548,0.0398864307403565,-0.143468780136108,0.130951715755462
0.233797698364627,-0.0415442333221435,0.0361576847076416,-0.0438847100257875
0.234403391883707,0.0949718799591065,-0.0500630184173584,0.06628618841171251
0.235009085402786,-0.00801395988464354,-0.0811982723236084,0.0926314032554625
0.235614778921866,-0.0175940380096435,-0.0261128231048584,0.164481989192962
0.236220472440945,0.0566515674591065,0.0481327823638916,0.0471260321617125
0.236826165960024,-0.0032239208221435402,0.07687301673889159,0.07107622747421251
0.237431859479104,0.0135412158966065,-0.23687454185485798,0.16687700872421202
0.238037552998183,0.0686266651153565,-0.0117427059173584,-0.0702299248695375
0.238643246517262,-0.0032239208221435402,0.0625028995513916,0.0471260321617125
0.239248940036342,-0.0798645458221435,-0.136283721542358,0.0591011298179625
0.239854633555421,-0.09662968254089349,0.0313676456451416,-0.163635686588288
0.2404603270745,0.0853918018341065,-0.0476679988861084,-0.0798100029945375
0.24106602059358,-0.0128039989471435,-0.117123565292358,0.145321832942962
0.241671714112659,-0.0367541942596435,-0.09317336997985841,-0.120525335025788
0.242277407631738,0.0470714893341065,-0.109938506698608,0.0591011298179625
0.242883101150818,-0.0894446239471435,0.230154266738892,0.0159907782554625
0.243488794669897,-0.0774695262908935,0.0433427433013916,0.0231758368492125
0.244094488188976,-0.0391492137908935,0.0481327823638916,0.00641070013046247
0.244700181708056,-0.132554975509644,0.10082321205139201,0.051916071224212504
0.245305875227135,-0.0702844676971435,-0.0500630184173584,0.214777399349212
0.245911568746214,-0.134949995040894,0.08645309486389159,0.0926314032554625
0.246517262265294,-0.192430463790894,0.0625028995513916,0.128556696224212
0.247122955784373,-0.051124311447143495,0.170278778457642,0.0830513251304625
0.247728649303452,0.0686266651153565,-0.0285078426361084,0.0231758368492125
0.248334342822532,0.166822465896606,-0.0189277645111084,-0.10615521783828799
0.248940036341611,0.0662316455841065,0.17746383705139201,0.118976618099212
0.24954572986069,0.14766230964660598,-0.0692231746673584,-0.000774358463287528
0.25015142337977,-0.0223840770721435,-0.0356929012298584,-0.168425725650788
0.250757116898849,-0.00801395988464354,0.0313676456451416,-0.189980901432038
0.251362810417929,0.0734167041778565,-0.0476679988861084,0.027965875911712502
0.251968503937008,-0.0391492137908935,-0.141073760604858,-0.233091252994538
0.252574197456087,0.0159362354278565,-0.112333526229858,-0.10136517877578799
0.253179890975167,0.0111461963653565,-0.0165327449798584,0.171667047786712
0.253785584494246,-0.0415442333221435,0.0313676456451416,-0.0127494561195375
0.254391278013325,0.00396113777160646,0.0553178409576416,0.0902363837242125
0.254996971532405,0.109341997146606,0.218179169082642,-0.118130315494538
0.255602665051484,-0.0295691356658935,0.108008270645142,0.0231758368492125
0.256208358570563,-0.10620976066589399,0.0481327823638916,0.0878413641929625
0.256814052089643,-0.132554975509644,-0.126703643417358,0.109396539974212
0.257419745608722,0.0662316455841065,-0.0069526668548584,-0.266621526432038
0.258025439127801,0.035096391677856505,0.08166305580139159,-0.10136517877578799
0.258631132646881,-0.125369916915894,0.06489791908264159,0.169272028255462
0.25923682616596,-0.0415442333221435,0.0409477237701416,0.0327559149742125
0.259842519685039,-0.00801395988464354,0.261289520645142,0.0351509345054625
0.260448213204119,0.0734167041778565,0.249314422988892,-0.0223295342445375
0.261053906723198,-0.10620976066589399,0.0098124698638916,0.209987360286712
0.261659600242277,-0.110999799728394,0.18225387611389202,0.142926813411712
0.262265293761357,-0.0056189403533935395,-0.0045576473236084,0.198012262630462
0.262870987280436,0.0255163135528565,-0.0237178035736084,0.126161676692962
0.263476680799515,0.164427446365356,0.07926803627014159,-0.0726249444007875
0.264082374318595,0.18358760261535598,0.213389130020142,0.07107622747421251
0.264688067837674,0.0111461963653565,-0.0021626277923583997,-0.0606498467445375
0.265293761356753,-0.0750745067596435,0.07687301673889159,-0.127710393619538
0.265899454875833,0.121317094802856,0.0241825870513916,0.0758662665367125
0.266505148394912,-0.173270307540894,-0.0644331356048584,-0.0750199639320375
0.267110841913992,-0.031964155197143504,-0.153048858261108,0.0734712470054625
0.267716535433071,0.020726274490356498,-0.105148467636108,0.118976618099212
0.26832222895215,-0.024779096603393502,0.24691940345764202,-0.0917851006507875
0.26892792247123,0.00396113777160646,0.0074174503326416,-0.151660588932038
0.269533615990309,0.0973668994903565,-0.133888702011108,0.06868120794296251
0.270139309509388,0.00156611824035646,-0.0476679988861084,-0.0917851006507875
0.270745003028468,-0.0463342723846435,0.0625028995513916,0.00641070013046247
0.271350696547547,-0.139740034103394,-0.09317336997985841,0.334528375911712
0.271956390066626,0.0255163135528565,-0.124308623886108,0.0782612860679625
0.272562083585706,-0.0750745067596435,-0.0668281551361084,0.0614961493492125
0.273167777104785,-0.0870496044158935,0.0433427433013916,-0.029514592838287498
0.273773470623864,0.08060176277160651,0.148723602676392,0.16687700872421202
0.274379164142944,-0.0199890575408935,-0.0596430965423584,0.102211481380462
0.274984857662023,0.126107133865356,0.0385527042388916,0.133346735286712
0.275590551181102,-0.110999799728394,0.0169975284576416,0.056706110286712505
0.276196244700182,-0.0846545848846435,-0.117123565292358,0.200407282161712
0.276801938219261,-0.364871870040894,0.08645309486389159,0.224357477474212
0.27740763173834,-0.10620976066589399,-0.040482940292358396,-0.0750199639320375
0.27801332525742,-0.0439392528533935,0.0241825870513916,0.0734712470054625
0.278619018776499,-0.120579877853394,0.0361576847076416,-0.027119573307037497
0.279224712295578,0.13808223152160598,-0.040482940292358396,-0.0726249444007875
0.279830405814658,0.24825312995910598,0.12716842689514202,0.231542536067962
0.280436099333737,0.08060176277160651,-0.0332978816986084,0.590795465755462
0.281041792852816,0.0111461963653565,0.119983368301392,0.0614961493492125
0.281647486371896,0.12850215339660598,-0.0069526668548584,0.114186579036712
0.282253179890975,0.061441606521606504,-0.0788032527923584,0.272257868099212
0.282858873410055,-0.00801395988464354,0.0385527042388916,-0.240276311588288
0.283464566929134,-0.0870496044158935,-0.08598831138610841,0.118976618099212
0.284070260448213,0.035096391677856505,0.0337626651763916,0.16687700872421202
0.284675953967293,0.07820674324035651,0.0313676456451416,0.0207808173179625
0.285281647486372,0.150057329177856,0.06729293861389159,-0.036699651432037496
0.285887341005451,-0.0008289012908935411,0.0433427433013916,0.16208696966171202
0.286493034524531,-0.10141972160339399,-0.18178909263610799,0.0830513251304625
0.28709872804361,-0.0343591747283935,-0.040482940292358396,-0.0319096123695375
0.287704421562689,-0.0223840770721435,0.0146025089263916,-0.0893900811195375
0.288310115081769,-0.051124311447143495,-0.160233916854858,0.00641070013046247
0.288915808600848,0.104551958084106,0.0241825870513916,0.030360895442962502
0.289521502119927,0.123712114334106,0.0601078800201416,0.0135957587242125
0.290127195639007,-0.163690229415894,-0.16741897544860798,0.39679888372421196
0.290732889158086,-0.0822595653533935,-0.0045576473236084,0.102211481380462
0.291338582677165,-0.024779096603393502,0.122378387832642,0.0207808173179625
0.291944276196245,-0.0654944286346435,0.0361576847076416,0.111791559505462
0.292549969715324,0.166822465896606,0.220574188613892,0.152506891536712
0.293155663234403,0.0422814502716065,-0.09556838951110841,0.293813043880462
0.293761356753483,-0.0774695262908935,-0.107543487167358,0.207592340755462
0.294367050272562,-0.0056189403533935395,0.0601078800201416,0.188432184505462
0.294972743791641,0.061441606521606504,-0.08838333091735841,0.0998164618492125
0.295578437310721,-0.0870496044158935,-0.0668281551361084,0.0902363837242125
0.2961841308298,-0.00801395988464354,-0.0476679988861084,0.219567438411712
0.296789824348879,0.118922075271606,0.119983368301392,0.0758662665367125
0.297395517867959,-0.163690229415894,-0.0069526668548584,0.0159907782554625
0.298001211387038,0.018331254959106497,0.000232391738891603,-0.0438847100257875
0.298606904906118,-0.115789838790894,-0.0261128231048584,-0.036699651432037496
0.299212598425197,0.020726274490356498,0.0146025089263916,-0.0414896904945375
0.299818291944276,-0.09662968254089349,0.0313676456451416,0.0399409735679625
0.300423985463356,0.0853918018341065,0.0433427433013916,0.0854463446617125
0.301029678982435,0.0997619190216065,0.0577128604888916,0.248307672786712
0.301635372501514,-0.17087528800964402,0.0361576847076416,0.0351509345054625
0.302241066020594,0.126107133865356,0.0625028995513916,-0.0917851006507875
0.302846759539673,0.0255163135528565,0.0553178409576416,0.0974214423179625
0.303452453058752,-0.0295691356658935,0.0601078800201416,0.0806563055992125
0.304058146577832,-0.0607043895721435,0.0337626651763916,0.0806563055992125
0.304663840096911,-0.257095991134644,0.0409477237701416,0.0926314032554625
0.30526953361599,-0.0894446239471435,0.206204071426392,0.0495210516929625
0.30587522713507,0.08299678230285651,-0.0189277645111084,0.30578814153671197
0.306480920654149,-0.055914350509643496,-0.138678741073608,0.212382379817962
0.307086614173228,0.00396113777160646,0.06729293861389159,-0.0750199639320375
0.307692307692308,-0.139740034103394,0.141538544082642,0.0399409735679625
0.308298001211387,0.061441606521606504,-0.145863799667358,0.0854463446617125
0.308903694730466,0.037491411209106505,-0.0740132137298584,0.200407282161712
0.309509388249546,-0.185245405197144,0.12716842689514202,0.25788775091171195
0.310115081768625,0.21711787605285598,0.0026274112701416,-0.209141057682038
0.310720775287704,-0.0702844676971435,-0.09556838951110841,-0.388767522525788
0.311326468806784,-0.149320112228394,-0.0644331356048584,0.693781305599212
0.311932162325863,-0.15171513175964402,-0.0285078426361084,0.320158258724212
0.312537855844942,-0.0678894481658935,-0.0740132137298584,-0.13729047174453798
0.313143549364022,0.0686266651153565,0.172673797988892,0.174062067317962
0.313749242883101,-0.264281049728394,0.0960331729888916,0.142926813411712
0.31435493640218,-0.10620976066589399,-0.193764190292358,0.164481989192962
0.31496062992126,0.037491411209106505,-0.325490264511108,-0.0414896904945375
0.315566323440339,0.15724238777160598,-0.0093476863861084,0.00641070013046247
0.316172016959419,0.0303063526153565,0.194228973770142,0.109396539974212
0.316777710478498,-0.237935834884644,-0.0452729793548584,0.231542536067962
0.317383403997577,-0.122974897384644,-0.0285078426361084,0.159691950130462
0.317989097516657,0.0159362354278565,-0.0045576473236084,0.0614961493492125
0.318594791035736,0.135687211990356,-0.0668281551361084,0.262677789974212
0.319200484554815,0.303338579177856,-0.0380879207611084,0.205197321224212
0.319806178073895,0.13329219245910598,-0.0668281551361084,0.109396539974212
0.320411871592974,0.07820674324035651,0.06489791908264159,0.253097711849212
0.321017565112053,0.0255163135528565,-0.141073760604858,0.109396539974212
0.321623258631133,0.0949718799591065,-0.112333526229858,-0.0750199639320375
0.322228952150212,0.150057329177856,0.0385527042388916,0.164481989192962
0.322834645669291,0.0111461963653565,0.117588348770142,0.31776323919296195
0.323440339188371,0.104551958084106,0.119983368301392,0.0447310126304625
0.32404603270745,0.0877868213653565,-0.08598831138610841,0.150111872005462
0.324651726226529,0.00875117683410646,0.158303680801392,0.33692339544296196
0.325257419745609,-0.053519330978393495,0.12716842689514202,0.0423359930992125
0.325863113264688,-0.0008289012908935411,-0.191369170761108,-0.187585881900788
0.326468806783767,0.0901818408966065,-0.0668281551361084,-0.235486272525788
0.327074500302847,0.13329219245910598,0.189438934707642,0.0471260321617125
0.327680193821926,-0.0798645458221435,-0.0069526668548584,0.126161676692962
0.328285887341005,0.0973668994903565,0.0361576847076416,0.0614961493492125
0.328891580860085,-0.010408979415893499,-0.0380879207611084,-0.00556439752578753
0.329497274379164,-0.027174116134643503,-0.0788032527923584,0.219567438411712
0.330102967898244,-0.09662968254089349,-0.08598831138610841,0.248307672786712
0.330708661417323,0.0303063526153565,0.0409477237701416,0.0255708563804625
0.331314354936402,0.21711787605285598,0.0457377628326416,0.27704790716171196
0.331920048455482,0.08060176277160651,-0.0117427059173584,0.140531793880462
0.332525741974561,0.0925768604278565,-0.0285078426361084,0.0734712470054625
0.33313143549364,-0.053519330978393495,0.0385527042388916,0.164481989192962
0.33373712901272,0.126107133865356,0.0601078800201416,-0.0534647881507875
0.334342822531799,0.12850215339660598,-0.258429717636108,-0.0630448662757875
0.334948516050878,-0.09902470207214349,-0.0644331356048584,0.133346735286712
0.335554209569958,-0.12776493644714398,0.0505278018951416,0.147716852474212
0.336159903089037,0.0973668994903565,0.232549286270142,0.0950264227867125
0.336765596608116,0.0470714893341065,0.119983368301392,-0.00795941705703753
0.337371290127196,-0.055914350509643496,0.0505278018951416,0.00641070013046247
0.337976983646275,-0.281046186447144,0.119983368301392,-0.0702299248695375
0.338582677165354,-0.0032239208221435402,0.0050224308013916,0.284232965755462
0.339188370684434,0.0470714893341065,0.163093719863892,-0.149265569400788
0.339794064203513,-0.0343591747283935,0.0433427433013916,-0.316916936588288
0.340399757722592,-0.0008289012908935411,-0.0237178035736084,0.250702692317962
0.341005451241672,-0.182850385665894,0.146328583145142,-0.235486272525788
0.341611144760751,0.07820674324035651,-0.0021626277923583997,0.229147516536712
0.34221683827983,0.219512895584106,-0.0237178035736084,0.274652887630462
0.34282253179891,0.0303063526153565,-0.09796340904235841,0.0399409735679625
0.343428225317989,0.21711787605285598,-0.186579131698608,0.0758662665367125
0.344033918837068,0.18358760261535598,0.0193925479888916,0.00641070013046247
0.344639612356148,0.0231212940216065,0.108008270645142,0.118976618099212
0.345245305875227,0.0638366260528565,0.0481327823638916,0.16687700872421202
0.345850999394306,0.00156611824035646,0.0098124698638916,0.15729693059921201
0.346456692913386,0.111737016677856,-0.0788032527923584,0.00641070013046247
0.347062386432465,-0.031964155197143504,-0.0069526668548584,0.0423359930992125
0.347668079951545,0.00875117683410646,0.0337626651763916,-0.0941801201820375
0.348273773470624,0.130897172927856,-0.186579131698608,0.0998164618492125
0.348879466989703,0.00396113777160646,0.0313676456451416,-0.0438847100257875
0.349485160508783,0.07820674324035651,0.110403290176392,0.233937555599212
0.350090854027862,-0.122974897384644,-0.133888702011108,0.0327559149742125
0.350696547546941,-0.25949101066589403,0.201414032363892,-0.259436467838288
0.351302241066021,-0.132554975509644,0.0169975284576416,0.231542536067962
0.3519079345851,-0.185245405197144,0.0074174503326416,0.0806563055992125
0.352513628104179,0.035096391677856505,0.0481327823638916,0.0830513251304625
0.353119321623259,0.0901818408966065,-0.0021626277923583997,0.114186579036712
0.353725015142338,0.0518615283966065,0.0313676456451416,0.0806563055992125
0.354330708661417,-0.0678894481658935,-0.105148467636108,-0.144475530338288
0.354936402180497,-0.237935834884644,-0.0668281551361084,-0.0127494561195375
0.355542095699576,0.0925768604278565,-0.0692231746673584,0.202802301692962
0.356147789218655,0.0255163135528565,0.0217875675201416,0.12376665716171201
0.356753482737735,-0.178060346603394,0.105613251113892,-0.00316937799453753
0.357359176256814,-0.0607043895721435,0.09363815345764159,-0.0319096123695375
0.357964869775893,0.121317094802856,-0.0788032527923584,-0.0127494561195375
0.358570563294973,-0.185245405197144,0.0625028995513916,-0.034304631900787495
0.359176256814052,-0.21638065910339402,-0.0452729793548584,0.339318414974212
0.359781950333131,-0.149320112228394,-0.0069526668548584,0.27704790716171196
0.360387643852211,0.0446764698028565,0.09124313392639159,0.0950264227867125
0.36099333737129,0.00156611824035646,-0.191369170761108,-0.0510697686195375
0.361599030890369,0.245858110427856,0.0026274112701416,0.126161676692962
0.362204724409449,0.0710216846466065,0.0529228214263916,0.0159907782554625
0.362810417928528,-0.185245405197144,0.141538544082642,-0.0438847100257875
0.363416111447607,-0.0008289012908935411,-0.145863799667358,0.233937555599212
0.364021804966687,-0.0223840770721435,-0.165023955917358,0.147716852474212
0.364627498485766,-0.144530073165894,0.153513641738892,-0.257041448307038
0.365233192004846,-0.233145795822144,-0.0500630184173584,-0.0846000420570375
0.365838885523925,-0.0128039989471435,0.06729293861389159,0.260282770442962
0.366444579043004,-0.187640424728394,-0.0380879207611084,0.186037164974212
0.367050272562084,0.14766230964660598,0.110403290176392,0.202802301692962
0.367655966081163,0.19316768074035598,0.0337626651763916,0.018385797786712503
0.368261659600242,0.174007524490356,-0.0476679988861084,0.00880571966171247
0.368867353119322,-0.14213505363464402,0.153513641738892,-0.039094670963287496
0.369473046638401,-0.281046186447144,0.0505278018951416,-0.0175394951820375
0.37007874015748,-0.10620976066589399,0.0313676456451416,-0.0558598076820375
0.37068443367656,0.061441606521606504,0.08884811439514159,-0.355237249088288
0.371290127195639,-0.0175940380096435,-0.0309028621673584,0.300998102474212
0.371895820714718,0.00156611824035646,0.117588348770142,0.902148004817962
0.372501514233798,0.032701372146606504,-0.0045576473236084,0.030360895442962502
0.373107207752877,-0.10381474113464399,-0.179394073104858,-0.10855023736953799
0.373712901271956,0.13808223152160598,0.0960331729888916,0.0734712470054625
0.374318594791036,0.178797563552856,-0.0692231746673584,-0.0965751397132875
0.374924288310115,0.0470714893341065,-0.17220901451110798,-0.0678349053382875
0.375529981829194,0.0231212940216065,-0.0668281551361084,-0.00795941705703753
0.376135675348274,-0.187640424728394,0.08884811439514159,0.253097711849212
0.376741368867353,-0.0439392528533935,0.0050224308013916,0.255492731380462
0.377347062386432,0.121317094802856,-0.186579131698608,0.219567438411712
0.377952755905512,0.0542565479278565,0.0217875675201416,0.018385797786712503
0.378558449424591,0.13329219245910598,0.07208297767639159,0.111791559505462
0.379164142943671,-0.024779096603393502,-0.200949248886108,0.104606500911712
0.37976983646275,0.037491411209106505,-0.0596430965423584,-0.00316937799453753
0.380375529981829,0.0638366260528565,-0.0309028621673584,0.0375459540367125
0.380981223500909,0.00156611824035646,-0.0380879207611084,-0.0462797295570375
0.381586917019988,-0.0463342723846435,0.07926803627014159,0.190827204036712
0.382192610539067,-0.218775678634644,-0.09077835044860841,-0.027119573307037497
0.382798304058147,-0.271466108322144,-0.100358428573608,0.178852106380462
0.383403997577226,0.0255163135528565,-0.162628936386108,0.16208696966171202
0.384009691096305,0.0159362354278565,-0.040482940292358396,-0.00795941705703753
0.384615384615385,0.159637407302856,0.07926803627014159,0.128556696224212
0.385221078134464,-0.132554975509644,0.0337626651763916,0.116581598567962
0.385826771653543,-0.139740034103394,-0.0141377254486084,-0.134895452213288
0.386432465172623,0.185982622146606,-0.0069526668548584,-0.0462797295570375
0.387038158691702,-0.194825483322144,0.10082321205139201,0.300998102474212
0.387643852210781,0.0638366260528565,0.08645309486389159,-0.034304631900787495
0.388249545729861,0.00156611824035646,0.08405807533264159,0.126161676692962
0.38885523924894,-0.0487292919158935,0.026577606582641602,0.152506891536712
0.389460932768019,0.13329219245910598,0.07926803627014159,0.0998164618492125
0.390066626287099,0.0686266651153565,0.0217875675201416,0.12376665716171201
0.390672319806178,0.07820674324035651,0.0481327823638916,0.0159907782554625
0.391278013325257,-0.00801395988464354,-0.26321975669860803,0.0782612860679625
0.391883706844337,0.037491411209106505,-0.220109405136108,-0.209141057682038
0.392489400363416,0.018331254959106497,-0.0117427059173584,0.0207808173179625
0.393095093882495,-0.0128039989471435,-0.165023955917358,0.111791559505462
0.393700787401575,0.07820674324035651,0.0960331729888916,-0.233091252994538
0.394306480920654,0.037491411209106505,-0.126703643417358,-0.0558598076820375
0.394912174439733,-0.0367541942596435,0.0361576847076416,-0.0510697686195375
0.395517867958813,0.061441606521606504,0.0169975284576416,-0.0103544365882875
0.396123561477892,0.00396113777160646,-0.287169952011108,-0.027119573307037497
0.396729254996972,-0.139740034103394,0.25889450111389195,-0.0822050225257875
0.397334948516051,-0.0870496044158935,0.0146025089263916,0.06868120794296251
0.39794064203513,-0.204405561447144,-0.124308623886108,0.0782612860679625
0.39854633555421,-0.113394819259644,-0.0213227840423584,-0.0199345147132875
0.399152029073289,0.0877868213653565,-0.0811982723236084,0.0471260321617125
0.399757722592368,0.0997619190216065,0.0625028995513916,0.633905817317962
0.400363416111448,-0.0223840770721435,-0.0237178035736084,0.6075606024742121
0.400969109630527,-0.0415442333221435,-0.16741897544860798,0.00641070013046247
0.401574803149606,0.0853918018341065,-0.0811982723236084,0.370453668880462
0.402180496668686,-0.0128039989471435,-0.0285078426361084,0.461464411067962
0.402786190187765,-0.0032239208221435402,-0.155443877792358,0.0495210516929625
0.403391883706844,0.0590465869903565,-0.0692231746673584,-0.13250043268203798
0.403997577225924,0.0734167041778565,0.07926803627014159,-0.0558598076820375
0.404603270745003,0.0542565479278565,0.000232391738891603,0.332133356380462
0.405208964264082,-0.0008289012908935411,0.0074174503326416,0.0255708563804625
0.405814657783162,0.104551958084106,0.160698700332642,0.152506891536712
0.406420351302241,-0.0942346630096435,0.18225387611389202,0.121371637630462
0.40702604482132,-0.0630994091033935,-0.0811982723236084,-0.0151444756507875
0.4076317383404,0.07581172370910651,-0.0500630184173584,0.135741754817962
0.408237431859479,-0.00801395988464354,0.07447799720764159,0.0112007391929625
0.408843125378558,0.0494665088653565,-0.0572480770111084,-0.039094670963287496
0.409448818897638,-0.194825483322144,0.148723602676392,-0.10615521783828799
0.410054512416717,0.061441606521606504,0.0217875675201416,0.231542536067962
0.410660205935796,0.0590465869903565,-0.143468780136108,0.181247125911712
0.411265899454876,-0.132554975509644,0.07208297767639159,-0.0199345147132875
0.411871592973955,-0.194825483322144,0.175068817520142,-0.0175394951820375
0.412477286493035,-0.0726794872283935,-0.100358428573608,-0.0534647881507875
0.413082980012114,0.413509477615356,-0.138678741073608,0.0830513251304625
0.413688673531193,0.0470714893341065,0.06729293861389159,-0.0558598076820375
0.414294367050273,-0.192430463790894,-0.107543487167358,0.16208696966171202
0.414900060569352,-0.0175940380096435,-0.294355010604858,0.004015680599212469
0.415505754088431,-0.194825483322144,-0.08598831138610841,-0.180400823307038
0.416111447607511,0.0853918018341065,0.203809051895142,0.147716852474212
0.41671714112659,0.0662316455841065,0.424150848770142,0.454279352474212
0.417322834645669,0.114132036209106,-0.0069526668548584,0.401588922786712
0.417928528164749,0.16203242683410599,-0.438056182479858,-0.249856389713288
0.418534221683828,-0.372056928634644,-0.248849639511108,-0.29057172174453805
0.419139915202907,-0.590003705978394,-0.287169952011108,0.109396539974212
0.419745608721987,-0.429537397384644,-0.22729446372985798,0.109396539974212
0.420351302241066,0.0422814502716065,-0.143468780136108,-0.039094670963287496
0.420956995760145,0.267413286209106,0.29721481361389196,-0.13250043268203798
0.421562689279225,0.0590465869903565,0.836094208145142,0.710546442317962
0.422168382798304,-0.0056189403533935395,0.35709030189514196,0.837482477474212
0.422774076317383,0.18358760261535598,-0.574572295761108,-0.6929350029945379
0.423379769836463,-0.139740034103394,-0.5075117488861081,-1.06176801080704
0.423985463355542,-0.659459272384644,0.30679489173889196,-0.156450627994538
0.424591156874621,-0.304996381759644,-0.404525909042358,0.593190485286712
0.425196850393701,0.21711787605285598,-0.22729446372985798,0.027965875911712502
0.42580254391278,0.559605669021606,0.251709442520142,-0.5923441826820379
0.426408237431859,0.37039912605285596,0.402595672988892,0.0974214423179625
0.427013930950939,-0.403192182540894,1.01332565345764,1.1416499579429602
0.427619624470018,0.123712114334106,-0.37339065513610803,0.004015680599212469
0.428225317989098,0.22190791511535599,-0.756593780136108,-1.4234159600257899
0.428831011508177,-0.27865116691589403,0.46486618080139197,-0.295361760807038
0.429436705027256,-0.326551557540894,-0.275194854354858,0.641090875911712
0.430042398546336,-0.132554975509644,-0.337465362167358,0.38721880559921196
0.430648092065415,0.308128618240356,-0.0452729793548584,-0.386372502994538
0.431253785584494,0.451829790115356,0.0385527042388916,-0.30015179986953805
0.431859479103574,0.135687211990356,1.1570268253326401,1.6948994696617101
0.432465172622653,0.363214067459106,-0.0213227840423584,0.859037653255462
0.433070866141732,0.12850215339660598,-0.802099151229858,-1.49526654596329
0.433676559660812,-0.487017866134644,0.0577128604888916,-0.819871038150788
0.434282253179891,-0.295416303634644,-0.37099563560485804,0.6051655829429621
0.43488794669897,-0.336131635665894,-0.17220901451110798,0.164481989192962
0.43549364021805,-0.0128039989471435,0.0241825870513916,-0.980337346744538
0.436099333737129,0.827847856521606,0.175068817520142,-0.247461370182038
0.436705027256208,0.21232783699035598,0.9869804386138921,1.53443316106796
0.437310720775288,-0.190035444259644,0.321165008926392,1.03387407903671
0.437916414294367,-0.010408979415893499,-0.799704131698608,-1.32282513971329
0.438522107813446,-0.726519819259644,-0.639237823104858,-1.7180033623695399
0.439127801332526,-0.819925580978394,-0.09077835044860841,0.107001520442962
0.439733494851605,-0.333736616134644,-0.564992217636108,0.796767145442962
0.440339188370684,0.521285356521606,-0.253639678573608,-0.6522196709632879
0.440944881889764,0.624271196365356,0.575037079238892,-0.604319280338288
0.441550575408843,0.394349321365356,1.08517623939514,1.1560200751304601
0.442156268927922,-0.053519330978393495,0.7283183292388921,1.44821245794296
0.442761962447002,-0.431932416915894,-0.385365752792358,-0.8917216240882879
0.443367655966081,-0.609163862228394,-0.782938994979858,-2.19940228815079
0.44397334948516,-0.0894446239471435,-0.138678741073608,0.198012262630462
0.44457904300424,-0.0415442333221435,0.124773407363892,1.21829058294296
0.445184736523319,0.118922075271606,-0.31351516685485803,-0.6115043389320379
0.445790430042399,0.284178422927856,0.175068817520142,-0.9132767998695379
0.446396123561478,0.241068071365356,0.9869804386138921,0.756051813411712
0.447001817080557,0.166822465896606,1.04685592689514,2.0134370673179602
0.447607510599637,-0.0678894481658935,-0.0261128231048584,0.145321832942962
0.448213204118716,-0.149320112228394,-0.766173858261108,-1.63178265924454
0.448818897637795,-0.0487292919158935,-0.275194854354858,-0.154055608463288
0.449424591156875,-0.300206342697144,0.124773407363892,1.07698443059921
0.450030284675954,-0.242725873947144,-0.394945830917358,-0.223511174869538
0.450635978195033,-0.108604780197144,-0.608102569198608,-1.25815961236954
0.451241671714113,0.27938838386535597,0.6468876651763921,0.303393122005462
0.451847365233192,0.334473833084106,0.936685028457642,1.9942769110679601
0.452453058752271,-0.055914350509643496,0.479236297988892,0.6865962470054621
0.453058752271351,-0.49899296379089403,-0.205739287948608,-1.57190717096329
0.45366444579043,-0.436722455978394,-0.656002959823608,-0.882141545963288
0.454270139309509,0.0231212940216065,0.0122074893951416,0.9069380438804621
0.454875832828589,-0.451092573165894,-0.385365752792358,-0.139685491275788
0.455481526347668,-0.0151990184783935,-0.43087112388610804,-1.68686810846329
0.456087219866747,0.420694536209106,0.596592255020142,0.198012262630462
0.456692913385827,0.875748247146606,1.03967086830139,2.01822710638046
0.457298606904906,0.22190791511535599,0.579827118301392,1.2230806220054602
0.457904300423985,-0.757655073165894,-0.114728545761108,-1.1240385186195399
0.458509993943065,-0.637904096603394,-0.7086933895111079,-1.4018607842445399
0.459115687462144,-0.218775678634644,-0.5075117488861081,0.7057564032554621
0.459721380981224,-0.058309370040893496,-0.200949248886108,0.930888239192962
0.460327074500303,0.164427446365356,-0.658397979354858,-0.7336503350257879
0.460932768019382,0.195562700271606,0.45528610267639197,0.193222223567962
0.461538461538462,0.629061235427856,1.38455368080139,2.3631099188804603
0.462144155057541,0.344053911209106,0.424150848770142,1.75716997747421
0.46274984857662,-0.7025696239471441,0.251709442520142,-1.0689530694007898
0.4633555420957,-0.764840131759644,-0.548227080917358,-2.10360150690079
0.463961235614779,-0.0726794872283935,-1.0463911434173598,0.121371637630462
0.464566929133858,-0.00801395988464354,0.28763473548889196,0.7871870673179621
0.465172622652938,-0.0774695262908935,-0.473981475448608,-0.927646917057038
0.465778316172017,0.15245234870910598,-0.157838897323608,-0.721675237369538
0.466384009691096,0.6338512744903559,1.41568893470764,1.3691768134117102
0.466989703210176,0.444644731521606,0.369065399551392,1.3476216376304602
0.467595396729255,-0.21159062004089402,0.26607955970764197,-0.6330595147132879
0.468201090248334,-0.8031604442596441,-0.0285078426361084,-1.47371137018204
0.468806783767414,0.178797563552856,-0.960170440292358,-0.11334027643203799
0.469412477286493,0.126107133865356,0.263684540176392,0.9452583563804621
0.470018170805572,0.0279113330841065,-0.34225540122985804,-0.621084417057038
0.470623864324652,0.061441606521606504,-0.7110884090423579,-1.54077191705704
0.471229557843731,0.12850215339660598,1.08038620033264,0.700966364192962
0.47183525136281,1.00507930183411,0.699578094863892,1.9415864813804602
0.47244094488189,-0.125369916915894,0.505581512832642,-0.0774149834632875
0.473046638400969,-0.985181928634644,0.151118622207642,-1.5814872490882899
0.473652331920048,-0.22117069816589402,-1.1829072566986099,-0.537258733463288
0.474258025439128,-0.21638065910339402,-0.198554229354858,0.590795465755462
0.474863718958207,-0.38882206535339403,-0.17699905357360798,-0.582764104557038
0.475469412477286,0.559605669021606,-0.416501006698608,-1.3084550225257898
0.476075105996366,0.473384965896606,0.630122528457642,0.571635309505462
0.476680799515445,1.02184443855286,0.6876029972076421,1.9344014227867101
0.477286493034525,-0.0678894481658935,0.6253324893951421,0.322553278255462
0.477892186553604,-1.35640995597839,0.32835006752014195,-1.3371952569007899
0.478497880072683,-0.721729780197144,-1.08710647544861,-0.884536565494538
0.479103573591763,0.169217485427856,-1.05357620201111,0.219567438411712
0.479709267110842,-0.0463342723846435,-0.126703643417358,-0.158845647525788
0.480314960629921,0.0877868213653565,-0.517091827011108,-1.15517377252579
0.480920654149001,0.736837114334106,0.33793014564514195,0.44709429388046196
0.48152634766808,0.511705278396606,1.08996627845764,2.12121294622421
0.482132041187159,0.276993364334106,0.601382294082642,0.542895075130462
0.482737734706239,-1.10014286613464,0.536716766738892,-1.22462933893204
0.483343428225318,-0.609163862228394,-0.541042022323608,-0.8486112725257879
0.483949121744397,0.49015010261535596,-1.54934524497986,0.34889849309921195
0.484554815263477,0.0973668994903565,-0.0356929012298584,0.0782612860679625
0.485160508782556,-0.204405561447144,0.0553178409576416,-1.22462933893204
0.485766202301635,0.21711787605285598,-0.234479522323608,0.0327559149742125
0.486371895820715,0.681751665115356,1.12828659095764,1.85057573919296
0.486977589339794,0.298548540115356,0.48642135658264196,1.23505571966171
0.487583282858873,-0.590003705978394,0.675627899551392,-0.7935258233070379
0.488188976377953,-0.956441694259644,0.27565963783264197,-0.846216252994538
0.488794669897032,0.420694536209106,-1.18530227622986,0.21717241888046201
0.489400363416111,0.169217485427856,-0.18178909263610799,0.12376665716171201
0.490006056935191,-0.218775678634644,0.210994110488892,-1.10008832330704
0.49061175045427,0.365609086990356,-0.35183547935485804,-0.324101995182038
0.491217443973349,0.5141002979278559,1.07320114173889,1.3260664618492102
0.491823137492429,0.811082719802856,0.840884247207642,1.66136919622421
0.492428831011508,-0.17566532707214402,0.45528610267639197,-0.563603948307038
0.493034524530587,-0.963626752853394,0.761848602676392,-1.19588910455704
0.493640218049667,0.118922075271606,-1.27870803794861,0.202802301692962
0.494245911568746,-0.10381474113464399,-0.639237823104858,-0.158845647525788
0.494851605087826,-0.362476850509644,0.0577128604888916,-1.15517377252579
0.495457298606905,-0.09662968254089349,-0.45003128013610805,-1.25576459283829
0.496062992125984,0.691331743240356,0.393015594863892,1.27337603216171
0.496668685645064,1.15836055183411,0.591802215957642,1.8649458563804602
0.497274379164143,-0.173270307540894,0.773823700332642,-0.41032269830703805
0.497880072683222,-1.2055237255096398,0.6253324893951421,-1.2988749444007899
0.498485766202302,-0.321761518478394,-1.0847114559173598,-0.163635686588288
0.499091459721381,0.150057329177856,-1.07513137779236,-0.11334027643203799
0.49969715324046,-0.0008289012908935411,-0.665583037948608,-0.858191350650788
0.50030284675954,-0.0128039989471435,-0.129098662948608,-1.17433392877579
0.500908540278619,0.8733532276153559,0.210994110488892,1.0817744696617102
0.501514233797698,1.04579463386536,0.678022919082642,2.27688921575546
0.502119927316778,-0.0391492137908935,0.9031547550201421,-0.0917851006507875
0.502725620835857,-0.954046674728394,0.5247416690826421,-1.24618451471329
0.503331314354936,-0.721729780197144,-0.215319366073608,-0.259436467838288
0.503937007874016,0.408719438552856,-1.6235908504486098,-0.118130315494538
0.504542701393095,0.245858110427856,-0.608102569198608,-1.11445844049454
0.505148394912174,-0.396007123947144,0.37625045814514196,-1.2821098076820399
0.505754088431254,0.346448930740356,0.0122074893951416,0.760841852474212
0.506359781950333,0.947598833084106,0.5654570011138921,1.79549028997421
0.506965475469413,0.037491411209106505,0.49600143470764196,0.32494829778671197
0.507571168988492,-0.824715620040894,0.462471161270142,-1.00907758111954
0.508176862507571,-0.786395307540894,0.49600143470764196,-0.000774358463287528
0.50878255602665,0.451829790115356,-0.794914092636108,0.770421930599212
0.50938824954573,0.32968379402160597,-0.778148955917358,-0.8486112725257879
0.509993943064809,-0.168480268478394,0.105613251113892,-1.5647221123695398
0.510599636583889,0.21711787605285598,0.105613251113892,0.0734712470054625
0.511205330102968,0.547630571365356,0.31876998939514195,1.80267534856796
0.511811023622047,0.664986528396606,0.919919891738892,0.593190485286712
0.512416717141127,-0.304996381759644,0.6253324893951421,-0.877351506900788
0.513022410660206,-0.932491498947144,0.6684428409576421,-0.170820745182038
0.513628104179285,0.21232783699035598,-0.335070342636108,0.38721880559921196
0.514233797698365,-0.223565717697144,-1.04399612388611,-0.6115043389320379
0.514839491217444,-0.290626264572144,-0.0644331356048584,-1.54556195611954
0.515445184736523,0.334473833084106,-0.0524580379486084,-0.439062932682038
0.516050878255603,1.32122187995911,-0.0476679988861084,1.4721626532554601
0.516656571774682,0.650616411209106,0.469656219863892,1.48174273138046
0.517262265293761,-0.534918256759644,0.752268524551392,-0.700120061588288
0.517867958812841,-1.14325321769714,0.639702606582642,-0.716885198307038
0.51847365233192,-0.513363080978394,-0.541042022323608,0.691386286067962
0.519079345850999,0.0973668994903565,-1.30984329185486,-0.659404729557038
0.519685039370079,-0.20201054191589402,-0.799704131698608,-1.7826688897132899
0.520290732889158,0.25064814949035596,0.414570770645142,-0.41032269830703805
0.520896426408237,0.863773149490356,0.292424774551392,1.60149370794296
0.521502119927317,0.959573930740356,0.364275360488892,1.94877153997421
0.522107813446396,-0.312181440353394,0.893574676895142,-0.11573529596328799
0.522713506965475,-1.1791785106658899,0.680417938613892,-0.9707572686195379
0.523319200484555,-0.704964643478394,-0.0716181941986084,0.782397028255462
0.523924894003634,0.384769243240356,-1.4271992488861098,0.269862848567962
0.524530587522714,0.33926387214660597,-1.0583662410736099,-1.7180033623695399
0.525136281041793,-0.242725873947144,0.309189911270142,-1.38270062799454
0.525741974560872,0.621876176834106,0.215784149551392,1.16560015325546
0.526347668079951,0.681751665115356,0.290029755020142,2.09726275091171
0.526953361599031,-0.249910932540894,0.874414520645142,-0.35284222955703803
0.52755905511811,-0.903751264572144,0.49839645423889195,-1.11445844049454
0.52816474863719,-0.673829389572144,0.42654586830139196,0.962023493099212
0.528770442156269,0.31052363777160596,-0.473981475448608,0.6243257391929621
0.529376135675348,0.37039912605285596,-1.4008540340423599,-1.5264017998695398
0.529981829194428,-0.31936649894714403,-0.0476679988861084,-1.65573285455704
0.530587522713507,0.114132036209106,0.321165008926392,0.49499468450546197
0.531193216232586,1.03860957527161,-0.121913604354858,1.97751177434921
0.531798909751666,-0.113394819259644,0.881599579238892,0.0998164618492125
0.532404603270745,-0.470252729415894,0.733108368301392,-1.1623588311195399
0.533010296789824,-0.558868452072144,0.359485321426392,0.542895075130462
0.533615990308904,-0.304996381759644,-0.145863799667358,0.997948786067962
0.534221683827983,0.0590465869903565,-1.21883254966736,-1.0162626397132901
0.534827377347062,-0.360081830978394,-0.466796416854858,-1.9718754326820398
0.535433070866142,0.185982622146606,0.210994110488892,0.06628618841171251
0.536038764385221,1.11525020027161,0.0337626651763916,2.05415239934921
0.5366444579043,0.518890336990356,0.7666386417388921,0.578820368099212
0.53725015142338,-0.513363080978394,0.7881938175201421,-1.11445844049454
0.537855844942459,-0.951651655197144,0.28763473548889196,0.0351509345054625
0.538461538461538,-0.585213666915894,-0.0069526668548584,1.0578242743492101
0.539067231980618,0.111737016677856,-1.52779006919861,-0.786340764713288
0.539672925499697,-0.213985639572144,-0.957775420761108,-2.2975980889320398
0.540278619018776,0.26980830574035597,0.534321747207642,-0.221116155338288
0.540884312537856,1.13680537605286,0.0289726261138916,2.25054400091171
0.541490006056935,1.01465937995911,0.541506805801392,1.35959673528671
0.542095699576015,-0.43911747550964403,0.929499969863892,-0.800710881900788
0.542701393095094,-1.1145129833221399,0.5870121768951421,-0.36960736627578805
0.543307086614173,-0.805555463790894,0.129563446426392,1.3476216376304602
0.543912780133253,-0.024779096603393502,-1.1110566707611098,-0.20195599908828799
0.544518473652332,0.322498735427856,-1.51102493247986,-2.20658734674454
0.545124167171411,0.20274775886535598,0.0625028995513916,-0.6091093194007879
0.545729860690491,0.626666215896606,0.531926727676392,2.00625200872421
0.54633555420957,0.906883501052856,0.0313676456451416,1.4027070868492102
0.546941247728649,-0.0702844676971435,0.9247099308013921,-0.963572210025788
0.547546941247729,-0.6834094676971441,0.680417938613892,-0.5061234795570381
0.548152634766808,-0.312181440353394,0.32835006752014195,1.28056109075546
0.548758328285887,-0.0175940380096435,0.0577128604888916,0.6434858954429621
0.549364021804967,0.420694536209106,-1.6283808895111098,-1.8808646904945399
0.549969715324046,0.351238969802856,-0.5290669246673579,-1.47371137018204
0.550575408843125,0.341658891677856,0.7067631534576421,0.969208551692962
0.551181102362205,0.885328325271606,-0.359020537948608,2.07091753606796
0.551786795881284,-0.0439392528533935,0.670837860488892,0.442304254817962
0.552392489400363,-0.427142377853394,0.740293426895142,-0.898906682682038
0.552998182919443,0.0279113330841065,0.194228973770142,1.1081196845054602
0.553603876438522,-0.578028608322144,0.431335907363892,1.08895952825546
0.554209569957601,0.00396113777160646,-1.4607295223236099,-1.5168217217445399
0.554815263476681,-0.15171513175964402,-0.684743194198608,-1.69884320611954
0.55542095699576,0.214722856521606,0.551086883926392,0.782397028255462
0.556026650514839,1.0026842823028599,-0.23208450279235798,2.2002485907554603
0.556632344033919,0.171612504959106,0.809748993301392,0.118976618099212
0.557238037552998,-0.779210248947144,0.893574676895142,-0.903696721744538
0.557843731072078,-0.566053510665894,0.340325165176392,0.5476851141929621
0.558449424591157,-0.779210248947144,0.321165008926392,1.0817744696617102
0.559055118110236,-0.154110151290894,-1.24996780357361,-1.2318143975257898
0.559660811629316,0.08060176277160651,-1.32660842857361,-2.4436942803382897
0.560266505148395,0.6146911182403559,0.139143524551392,0.320158258724212
0.560872198667474,1.08411494636536,0.12716842689514202,2.23377886419296
0.561477892186554,0.653011430740356,0.0361576847076416,0.300998102474212
0.562083585705633,-0.807950483322144,0.675627899551392,-1.4329960381507898
0.562689279224712,-1.09295780754089,0.8049589542388921,0.027965875911712502
0.563294972743792,-0.570843549728394,0.218179169082642,1.40510210638046
0.563900666262871,-0.182850385665894,-0.754198760604858,-0.637849553775788
0.56450635978195,0.317708696365356,-1.4607295223236099,-2.56823529596329
0.56511205330103,0.547630571365356,-0.141073760604858,-0.601924260807038
0.565717746820109,0.653011430740356,0.850464325332642,1.68292437200546
0.566323440339188,0.547630571365356,-0.119518584823608,0.897357965755462
0.566929133858268,-0.510968061447144,0.654072723770142,-1.21983929986954
0.567534827377347,-0.566053510665894,0.910339813613892,-0.41271771783828803
0.568140520896426,-0.139740034103394,0.261289520645142,1.75956499700546
0.568746214415506,-0.429537397384644,0.31637496986389196,0.430329157161712
0.569351907934585,0.200352739334106,-1.31702835044861,-2.2640678154945397
0.569957601453664,0.32968379402160597,-0.7494087215423579,-1.2916898858070398
0.570563294972744,0.322498735427856,0.9462651065826421,1.2158955634117101
0.571168988491823,0.942808794021606,-0.26321975669860803,1.2494258368492102
0.571774682010902,-0.242725873947144,0.45768112220764195,-0.927646917057038
0.572380375529982,-0.724124799728394,0.816934051895142,-0.563603948307038
0.572986069049061,-0.0654944286346435,-0.253639678573608,1.4122871649742101
0.57359176256814,-1.01392216300964,0.48642135658264196,0.439909235286712
0.57419745608722,-0.120579877853394,-1.2739179988861098,-2.03654096002579
0.574803149606299,0.32968379402160597,-0.9505903621673579,-1.75153363580704
0.575408843125379,0.823057817459106,0.800168915176392,1.21350054388046
0.576014536644458,0.966758989334106,-0.469191436386108,1.81704546575546
0.576620230163537,-0.0415442333221435,0.280449676895142,-0.6689848076820379
0.577225923682617,-0.824715620040894,0.678022919082642,-0.953992131900788
0.577831617201696,-0.489412885665894,0.270869598770142,1.4506074774742101
0.578437310720775,-1.00434208488464,0.558271942520142,1.03387407903671
0.579043004239855,-0.276256147384644,-1.16374710044861,-1.33240521783829
0.579648697758934,0.300943559646606,-1.40803909263611,-2.17305707330704
0.580254391278013,0.626666215896606,0.105613251113892,0.473439508724212
0.580860084797093,0.882933305740356,0.151118622207642,2.09247271184921
0.581465778316172,0.0925768604278565,0.0529228214263916,0.269862848567962
0.582071471835251,-0.6235339794158941,0.6061723331451421,-1.32282513971329
0.582677165354331,-0.513363080978394,0.28763473548889196,0.641090875911712
0.58328285887341,-0.554078413009644,0.24212936439514202,1.84578570013046
0.583888552392489,-0.479832807540894,-0.45242629966735803,-0.9707572686195379
0.584494245911569,0.0638366260528565,-1.40324905357361,-2.49638471002579
0.585099939430648,0.823057817459106,-0.303935088729858,0.186037164974212
0.585705632949727,0.717676958084106,0.893574676895142,2.2433589423179603
0.586311326468807,0.32010371589660597,-0.0117427059173584,0.133346735286712
0.586917019987886,-0.367266889572144,0.117588348770142,-0.994707463932038
0.587522713506965,-0.297811323165894,0.888784637832642,0.41595903997421196
0.588128407026045,-0.209195600509644,0.105613251113892,1.6805293524742102
0.588734100545124,-0.793580366134644,0.321165008926392,-0.182795842838288
0.589339794064203,0.116527055740356,-1.11584670982361,-2.3670536553382897
0.589945487583283,0.990709184646606,-1.15895706138611,-0.961177190494538
0.590551181102362,0.624271196365356,1.00853561439514,1.6469990790367102
0.591156874621442,0.518890336990356,-0.0213227840423584,1.00273882513046
0.591762568140521,-0.273861127853394,0.10082321205139201,-1.2437894951820399
0.5923682616596,-0.316971479415894,0.910339813613892,-0.204351018619538
0.59297395517868,0.200352739334106,-0.0141377254486084,1.96553667669296
0.593579648697759,-1.01631718254089,0.637307587051392,0.26507280950546197
0.594185342216838,-0.326551557540894,-0.775753936386108,-2.30238812799454
0.594791035735918,0.562000688552856,-1.52300003013611,-1.28929486627579
0.595396729254997,0.882933305740356,0.601382294082642,1.5104829657554601
0.596002422774076,0.698516801834106,0.13195846595764202,1.3907319891929601
0.596608116293156,-0.0870496044158935,0.41696579017639196,-1.0905082451820398
0.597213809812235,-0.750470014572144,0.697183075332642,-0.714490178775788
0.597819503331314,-0.0151990184783935,0.0433427433013916,1.52485308294296
0.598425196850394,-0.834295698165894,0.383435516738892,0.973998590755462
0.599030890369473,-0.700174604415894,-0.9098750301361079,-1.7563236748695399
0.599636583888552,0.621876176834106,-1.6020356746673599,-2.15629193658829
0.600242277407632,1.04579463386536,-0.126703643417358,1.02908403997421
0.600847970926711,0.676961626052856,0.433730926895142,1.68292437200546
0.60145366444579,0.0853918018341065,-0.0380879207611084,-0.702515081119538
0.60205935796487,-0.446302534103394,0.462471161270142,-0.783945745182038
0.602665051483949,-0.460672651290894,0.575037079238892,1.3907319891929601
0.603270745003028,-0.566053510665894,0.373855438613892,1.23026568059921
0.603876438522108,-0.666644330978394,-0.157838897323608,-1.52400678033829
0.604482132041187,0.224302934646606,-1.26673294029236,-2.45806439752579
0.605087825560267,1.14638545417786,-0.806889190292358,0.274652887630462
0.605693519079346,0.576370805740356,0.713948212051392,2.03738726263046
0.606299212598425,-0.027174116134643503,0.33793014564514195,-0.130105413150788
0.606904906117504,-0.415167280197144,0.26607955970764197,-1.19588910455704
0.607510599636584,-0.12776493644714398,0.857649383926392,0.892567926692962
0.608116293155663,0.018331254959106497,0.12716842689514202,1.87692095403671
0.608721986674743,-0.764840131759644,0.30679489173889196,-0.597134221744538
0.609327680193822,-0.266676069259644,-0.586547393417358,-2.4005839287757897
0.609933373712901,1.08171992683411,-1.31463333091736,-0.395952581119538
0.610539067231981,0.870958208084106,0.800168915176392,2.3798750555992103
0.61114476075106,0.150057329177856,0.17746383705139201,0.312973200130462
0.611750454270139,-0.261886030197144,0.08884811439514159,-1.4186259209632899
0.612356147789219,-0.487017866134644,0.953450165176392,0.36805864934921195
0.612961841308298,0.24825312995910598,-0.107543487167358,1.93919146184921
0.613567534827377,-0.968416791915894,0.622937469863892,0.159691950130462
0.614173228346457,-0.733704877853394,-0.45242629966735803,-2.55626019830704
0.614778921865536,0.906883501052856,-1.45114944419861,-1.2054691826820398
0.615384615384615,1.01226436042786,0.32595504798889197,1.46497759466171
0.615990308903695,0.564395708084106,0.31876998939514195,1.07219439153671
0.616596002422774,-0.316971479415894,-0.0165327449798584,-1.0426078545570399
0.617201695941853,-0.38882206535339403,0.582222137832642,-0.635454534244538
0.617807389460933,0.00156611824035646,0.290029755020142,1.8529707587242101
0.618413082980012,-1.1624133739471398,0.354695282363892,0.7847920477867121
0.619018776499091,-0.839085737228394,-0.356625518417358,-2.16826703424454
0.619624470018171,0.535655473709106,-1.43438430747986,-1.83296429986954
0.62023016353725,1.5367736377716101,-0.488351592636108,1.16560015325546
0.620835857056329,0.947598833084106,0.428940887832642,1.6086787665367102
0.621441550575409,-0.460672651290894,0.304399872207642,-1.2174442803382899
0.622047244094488,-0.654669233322144,0.311584930801392,-0.965967229557038
0.622652937613568,-0.14692509269714402,0.46486618080139197,1.70447954778671
0.623258631132647,-0.616348920822144,0.393015594863892,1.0865645087242102
0.623864324651726,-0.970811811447144,-0.169813994979858,-1.84493939752579
0.624470018170806,0.284178422927856,-1.07752639732361,-2.06528119440079
0.625075711689885,1.5152184619903601,-1.08231643638611,0.657856012630462
0.625681405208964,0.722466997146606,0.450496063613892,1.76435503606796
0.626287098728044,-0.37924198722839403,0.5271366886138921,-0.45343304986953803
0.626892792247123,-0.381637006759644,-0.0117427059173584,-1.20307416315079
0.627498485766202,0.07581172370910651,0.776218719863892,1.26858599309921
0.628104179285282,0.219512895584106,0.172673797988892,2.03738726263046
0.628709872804361,-0.915726362228394,0.36667038002014196,-0.953992131900788
0.62931556632344,-0.520548139572144,-0.184184112167358,-2.37423871393204
0.62992125984252,1.4553429737091101,-1.4176191707611099,-0.20195599908828799
0.630526953361599,1.1511754932403602,0.529531708145142,1.9200313055992102
0.631132646880678,0.116527055740356,0.678022919082642,0.0591011298179625
0.631738340399758,-0.479832807540894,-0.100358428573608,-1.6078324639320398
0.632344033918837,-0.518153120040894,0.802563934707642,0.506969782161712
0.632949727437916,0.351238969802856,-0.0524580379486084,2.08289263372421
0.633555420956996,-0.877406049728394,0.08645309486389159,-0.477383245182038
0.634161114476075,-0.987576948165894,-0.107543487167358,-2.43890424127579
0.634766807995154,1.21823604011536,-1.4918647762298598,-0.249856389713288
0.635372501514234,1.4385778369903601,-0.222504424667358,1.5104829657554601
0.635978195033313,0.205142778396606,0.47684127845764196,0.42793413763046195
0.636583888552392,-0.585213666915894,0.0122074893951416,-1.40904584283829
0.637189582071472,-0.446302534103394,0.577432098770142,-0.0247245537757875
0.637795275590551,0.291363481521606,0.40738571205139196,2.4996260321617103
0.638400969109631,-0.824715620040894,0.218179169082642,0.28662798528671196
0.63900666262871,-1.1145129833221399,0.0193925479888916,-2.46285443658829
0.639612356147789,0.882933305740356,-1.3074482723236098,-1.04500287408829
0.640218049666869,1.54156367683411,-0.701508330917358,2.06612749700546
0.640823743185948,0.557210649490356,0.393015594863892,1.0578242743492101
0.641429436705027,-0.515758100509644,0.215784149551392,-1.1455936944007898
0.642035130224107,-0.515758100509644,0.0289726261138916,-0.755205510807038
0.642640823743186,-0.0367541942596435,0.507976532363892,1.79788530950546
0.643246517262265,-0.340921674728394,0.29721481361389196,1.62304888372421
0.643852210781345,-1.01392216300964,0.19183395423889202,-2.0580961358070398
0.644457904300424,-0.0439392528533935,-0.576967315292358,-1.73476849908829
0.645063597819503,1.94392695808411,-1.2427827449798599,0.7847920477867121
0.645669291338583,1.10567012214661,0.206204071426392,1.7236397040367102
0.646274984857662,-0.731309858322144,0.850464325332642,-0.855796331119538
0.646880678376741,-0.484622846603394,0.141538544082642,-1.33480023736954
0.647486371895821,0.214722856521606,0.6684428409576421,1.9128462470054601
0.6480920654149,0.274598344802856,0.503186493301392,1.81225542669296
0.648697758933979,-1.20312870597839,0.108008270645142,-1.41383588190079
0.649303452453059,-0.824715620040894,-0.0548530574798584,-2.25209271783829
0.649909145972138,1.5271935596466102,-1.07752639732361,0.245912653255462
0.650514839491217,1.40983760261536,0.0960331729888916,1.67094927434921
0.651120533010297,-0.024779096603393502,0.678022919082642,-0.29057172174453805
0.651726226529376,-0.472647748947144,0.167883758926392,-1.5527470147132898
0.652331920048455,-0.0654944286346435,0.694788055801392,0.739286676692962
0.652937613567535,0.135687211990356,0.155908661270142,2.3199995673179603
0.653543307086614,-0.843875776290894,0.026577606582641602,-0.762390569400788
0.654149000605693,-1.20312870597839,0.115193329238892,-2.62811078424454
0.654754694124773,1.14878047370911,-1.2140425106048598,-0.0630448662757875
0.655360387643852,1.69244990730286,-0.366205596542358,1.5104829657554601
0.655966081162932,-0.10141972160339399,0.6876029972076421,0.12376665716171201
0.656571774682011,-0.6834094676971441,0.117588348770142,-1.37072553033829
0.65717746820109,-0.242725873947144,0.42654586830139196,0.27704790716171196
0.65778316172017,-0.0415442333221435,0.421755829238892,2.24814898138046
0.658388855239249,-0.815135541915894,-0.107543487167358,-0.118130315494538
0.658994548758328,-1.27018925285339,0.160698700332642,-2.21137738580704
0.659600242277408,0.7943175830841059,-0.859579619979858,-0.7097001397132879
0.660205935796487,2.09002314949036,-0.857184600448608,1.2829561102867102
0.660811629315566,0.571580766677856,0.31876998939514195,0.875802789974212
0.661417322834646,-1.04984745597839,0.220574188613892,-1.65573285455704
0.662023016353725,-0.6426941356658941,-0.0309028621673584,-0.8486112725257879
0.662628709872804,0.401534379959106,0.433730926895142,2.35831987981796
0.663234403391884,-0.31936649894714403,0.26607955970764197,0.720126520442962
0.663840096910963,-1.2989294872283899,0.06489791908264159,-2.3407084404945397
0.664445790430042,0.0494665088653565,-0.43087112388610804,-1.29647992486954
0.665051483949122,1.84573115730286,-1.3840888973236098,1.0745894110679601
0.665657177468201,1.01226436042786,-0.0452729793548584,1.0650093329429602
0.66626287098728,-0.633114057540894,0.7857987979888921,-1.1288285576820398
0.66686856450636,-0.5636584911346441,0.18704391517639202,-1.07134808893204
0.667474258025439,0.322498735427856,0.582222137832642,1.59909868841171
0.668079951544518,0.109341997146606,0.481631317520142,1.8481807196617102
0.668685645063598,-1.16959843254089,0.472051239395142,-1.7180033623695399
0.669291338582677,-0.676224409103394,-0.0309028621673584,-2.03654096002579
0.669897032101756,1.48408320808411,-0.8883198543548579,0.5261299384117121
0.670502725620836,1.62299434089661,-0.203344268417358,1.12009478216171
0.671108419139915,-0.22596073722839402,0.689998016738892,-0.716885198307038
0.671714112658994,-0.815135541915894,0.299609833145142,-1.45215619440079
0.672319806178074,0.0638366260528565,0.06489791908264159,1.21350054388046
0.672925499697153,-0.0894446239471435,0.290029755020142,2.23377886419296
0.673531193216233,-0.817530561447144,-0.100358428573608,-0.942017034244538
0.674136886735312,-0.8821960887908941,0.34751022377014196,-2.45087933893204
0.674742580254391,0.997894243240356,-0.725458526229858,0.018385797786712503
0.675348273773471,1.7164001026153601,-1.0152558895111101,1.4410273993492102
0.67595396729255,-0.163690229415894,0.651677704238892,-0.336077092838288
0.676559660811629,-1.01871220207214,0.199019012832642,-1.63178265924454
0.677165354330709,-0.415167280197144,0.06489791908264159,0.420749079036712
0.677771047849788,-0.14213505363464402,0.709158172988892,2.18587847356796
0.678376741368867,-0.657064252853394,-0.0668281551361084,0.0614961493492125
0.678982434887947,-0.989971967697144,0.110403290176392,-2.4101640069007897
0.679588128407026,0.751207231521606,-0.747013702011108,-0.458223088932038
0.680193821926105,1.74514033699036,-0.979330596542358,1.32846148138046
0.680799515445185,0.33926387214660597,0.175068817520142,0.0902363837242125
0.681405208964264,-0.891776166915894,0.136748505020142,-1.77548383111954
0.682010902483343,-0.510968061447144,0.141538544082642,-0.37200238580703804
0.682616596002423,0.368004106521606,0.579827118301392,2.27209917669296
0.683222289521502,-0.434327436447144,0.371460419082642,0.791977106380462
0.683827983040581,-1.31329960441589,0.26607955970764197,-2.1610819756507897
0.684433676559661,-0.110999799728394,-0.387760772323608,-1.3850956475257898
0.68503937007874,1.87686641120911,-1.07752639732361,1.1344648993492101
0.68564506359782,0.911673540115356,-0.08598831138610841,0.7440767157554621
0.686250757116899,-0.666644330978394,0.689998016738892,-1.32761517877579
0.686856450635978,-0.491807905197144,0.364275360488892,-0.8126859795570379
0.687462144155058,0.15245234870910598,0.213389130020142,2.04217730169296
0.688067837674137,0.0901818408966065,0.40738571205139196,1.4338423407554601
0.688673531193216,-1.0426623973846398,0.431335907363892,-1.66052289361954
0.689279224712296,-0.625928998947144,-0.0165327449798584,-1.56711713190079
0.689884918231375,1.08650996589661,-0.706298369979858,0.930888239192962
0.690490611750454,1.4505529346466102,-0.622472686386108,1.21829058294296
0.691096305269534,-0.22117069816589402,0.462471161270142,-0.7719706475257879
0.691701998788613,-0.956441694259644,0.472051239395142,-1.24618451471329
0.692307692307692,0.181192583084106,0.24212936439514202,0.9835786688804621
0.692913385826772,0.0590465869903565,0.558271942520142,1.99667193059921
0.693519079345851,-0.769630170822144,-0.0428779598236084,-0.815080999088288
0.69412477286493,-1.01392216300964,0.12716842689514202,-2.0413309990882897
0.69473046638401,0.885328325271606,-0.418896026229858,0.32734331731796196
0.695336159903089,1.8145959033966101,-1.02004592857361,1.2661909735679602
0.695941853422168,0.006356157302856461,0.31637496986389196,-0.398347600650788
0.696547546941248,-1.07858769035339,0.33553512611389197,-1.45455121393204
0.697153240460327,-0.396007123947144,-0.09556838951110841,0.729706598567962
0.697758933979406,0.0518615283966065,0.5247416690826421,2.15474321966171
0.698364627498486,-0.628324018478394,0.06968795814514159,-0.585159124088288
0.698970321017565,-1.04505741691589,0.07208297767639159,-2.12994672174454
0.699576014536644,0.559605669021606,-0.45242629966735803,-0.10855023736953799
0.700181708055724,1.8744713916778601,-1.14698196372986,2.01583208684921
0.700787401574803,0.344053911209106,0.290029755020142,0.0974214423179625
0.701393095093882,-1.0426623973846398,0.5247416690826421,-1.28450482721329
0.701998788612962,-0.419957319259644,-0.0093476863861084,0.454279352474212
0.702604482132041,0.272203325271606,0.28523971595764197,2.16192827825546
0.703210175651121,-0.630719038009644,0.153513641738892,0.789582086849212
0.7038158691702,-1.05224247550964,0.469656219863892,-2.2041923272132897
0.704421562689279,-0.0942346630096435,-0.23208450279235798,-0.654614690494538
0.705027256208359,1.61101924324036,-1.01046585044861,1.4170772040367101
0.705632949727438,1.02184443855286,-0.368600616073608,0.403983942317962
0.706238643246517,-0.479832807540894,0.381040497207642,-1.5479569756507898
0.706844336765597,-0.530128217697144,0.551086883926392,-0.594739202213288
0.707450030284676,0.585950883865356,0.26847457923889195,2.35831987981796
0.708055723803755,0.454224809646606,0.44810104408264195,1.23026568059921
0.708661417322835,-1.17678349113464,0.460076141738892,-1.9287650811195398
0.709267110841914,-0.659459272384644,0.10321823158264201,-1.40425580377579
0.709872804360993,1.15357051277161,-0.33267532310485803,1.13685991888046
0.710478497880073,1.3787023487091101,-0.627262725448608,0.854247614192962
0.711084191399152,-0.118184858322144,0.184648895645142,-0.903696721744538
0.711689884918231,-0.764840131759644,0.900759735488892,-0.839031194400788
0.712295578437311,-0.0391492137908935,-0.153048858261108,0.997948786067962
0.71290127195639,-0.134949995040894,0.34751022377014196,1.34043657903671
0.713506965475469,-0.846270795822144,0.292424774551392,-1.20307416315079
0.714112658994549,-0.487017866134644,-0.31351516685485803,-1.83296429986954
0.714718352513628,0.911673540115356,0.0193925479888916,0.44469927434921197
0.715324046032707,1.6469445362091102,-0.840419463729858,1.17518023138046
0.715929739551787,0.245858110427856,0.08166305580139159,-0.618689397525788
0.716535433070866,-1.01392216300964,0.742688446426392,-1.04500287408829
0.717141126589945,-0.475042768478394,0.0457377628326416,0.971603571224212
0.717746820109025,-0.213985639572144,0.361880340957642,1.63262896184921
0.718352513628104,-0.630719038009644,0.33793014564514195,-0.623479436588288
0.718958207147184,-0.812740522384644,-0.234479522323608,-1.7874589287757898
0.719563900666263,0.643431352615356,-0.34225540122985804,0.054311090755462504
0.720169594185342,1.7164001026153601,-1.18530227622986,1.3428315985679602
0.720775287704422,0.130897172927856,0.0217875675201416,-0.189980901432038
0.721380981223501,-1.13846317863464,0.491211395645142,-1.33959027643204
0.72198667474258,-0.5828186473846441,-0.100358428573608,0.36805864934921195
0.72259236826166,0.26980830574035597,0.33553512611389197,2.13079302434921
0.723198061780739,-0.364871870040894,0.07447799720764159,0.459069391536712
0.723803755299818,-0.903751264572144,0.44570602455139197,-2.01498578424454
0.724409448818898,-0.0487292919158935,-0.0237178035736084,-0.41271771783828803
0.725015142337977,1.42181270027161,-0.780543975448608,1.44342241888046
0.725620835857056,0.820662797927856,-0.560202178573608,-0.0199345147132875
0.726226529376136,-0.273861127853394,0.08166305580139159,-1.39467572565079
0.726832222895215,-0.635509077072144,0.778613739395142,-0.28338666315078803
0.727437916414294,0.451829790115356,0.19183395423889202,1.8050703680992102
0.728043609933374,0.396744340896606,0.28523971595764197,0.614745661067962
0.728649303452453,-1.16959843254089,0.709158172988892,-1.9838505303382898
0.729254996971532,-0.264281049728394,-0.191369170761108,-1.0426078545570399
0.729860690490612,1.14878047370911,-0.212924346542358,1.0697993720054602
0.730466384009691,1.34996211433411,-0.23208450279235798,0.851852594661712
0.73107207752877,0.08299678230285651,-0.153048858261108,-0.388767522525788
0.73167777104785,-0.628324018478394,1.12828659095764,0.0375459540367125
0.732283464566929,0.00396113777160646,-0.0811982723236084,1.25182085638046
0.732889158086008,-0.28823124504089404,-0.0045576473236084,1.00034380559921
0.733494851605088,-0.704964643478394,0.598987274551392,-1.1192484795570399
0.734100545124167,-0.240330854415894,-0.5123017879486079,-1.4713163506507898
0.734706238643246,0.698516801834106,0.151118622207642,1.02429400091171
0.735311932162326,1.05058467292786,-0.775753936386108,0.940468317317962
0.735917625681405,-0.010408979415893499,-0.27998489341735805,-0.999497502994538
0.736523319200485,-1.1456482372283898,0.900759735488892,-0.9324369561195379
0.737129012719564,-0.110999799728394,0.0193925479888916,1.13206987981796
0.737734706238643,-0.314576459884644,0.323560028457642,1.6685542548179602
0.738340399757723,-1.02110722160339,0.263684540176392,-0.896511663150788
0.738946093276802,-0.28823124504089404,-0.35183547935485804,-1.74674359674454
0.739551786795881,0.583555864334106,-0.0237178035736084,0.420749079036712
0.740157480314961,1.48408320808411,-0.9505903621673579,0.921308161067962
0.74076317383404,0.0159362354278565,-0.43326614341735803,-0.817476018619538
0.741368867353119,-0.913331342697144,0.313979950332642,-1.1024833428382899
0.741974560872199,-0.372056928634644,0.155908661270142,0.7033613837242121
0.742580254391278,0.13808223152160598,-0.0093476863861084,1.83381060247421
0.743185947910357,-0.400797163009644,-0.0524580379486084,0.051916071224212504
0.743791641429437,-0.934886518478394,0.553481903457642,-1.52400678033829
0.744397334948516,-0.22117069816589402,-0.131493682479858,-0.11573529596328799
0.745003028467595,1.40265254402161,-0.6727680965423579,1.2063154852867102
0.745608721986675,0.765577348709106,-0.543437041854858,-0.36960736627578805
0.746214415505754,-0.350501752853394,-0.0309028621673584,-1.50724164361954
0.746820109024833,-0.46785770988464404,0.752268524551392,0.214777399349212
0.747425802543913,0.305733598709106,0.07208297767639159,1.79549028997421
0.748031496062992,0.0997619190216065,0.0481327823638916,0.42793413763046195
0.748637189582071,-1.15043827629089,0.754663544082642,-1.7778788506507899
0.749242883101151,-0.108604780197144,-0.0093476863861084,-0.47259320611953803
0.74984857662023,0.722466997146606,0.124773407363892,1.3476216376304602
0.75045427013931,1.21823604011536,-0.248849639511108,0.0782612860679625
0.751059963658389,0.538050493240356,-0.538647002792358,-1.10008832330704
0.751665657177468,-0.764840131759644,0.960635223770142,-0.515703557682038
0.752271350696547,-0.130159955978394,-0.0452729793548584,1.02908403997421
0.752877044215627,-0.300206342697144,-0.08598831138610841,0.770421930599212
0.753482737734706,-1.07379765129089,0.553481903457642,-1.26773969049454
0.754088431253786,-0.14692509269714402,-0.538647002792358,-1.03542279596329
0.754694124772865,0.782342485427856,0.41696579017639196,1.13206987981796
0.755299818291944,1.1511754932403602,-0.469191436386108,0.7871870673179621
0.755905511811024,0.435064653396606,-0.545832061386108,-1.0306327569007898
0.756511205330103,-0.889381147384644,0.955845184707642,-0.843821233463288
0.757116898849182,-0.46785770988464404,0.0385527042388916,1.0817744696617102
0.757722592368262,-0.12776493644714398,0.08405807533264159,1.01471392278671
0.758328285887341,-0.745679975509644,0.220574188613892,-0.846216252994538
0.75893397940642,-0.360081830978394,-0.5506221004486079,-0.934831975650788
0.7595396729255,0.540445512771606,-0.0596430965423584,0.681806207942962
0.760145366444579,1.0793249073028601,-0.596127471542358,0.7680269110679621
0.760751059963658,0.118922075271606,-0.684743194198608,-0.937226995182038
0.761356753482738,-0.549288373947144,0.381040497207642,-1.12164349908829
0.761962447001817,-0.45827763175964403,0.414570770645142,1.1129097235679601
0.762568140520896,0.322498735427856,-0.105148467636108,1.6469990790367102
0.763173834039976,-0.472647748947144,0.124773407363892,-0.27141156549453804
0.763779527559055,-0.604373823165894,0.330745087051392,-1.0641630303382899
0.764385221078134,0.169217485427856,-0.306330108261108,0.454279352474212
0.764990914597214,0.897303422927856,-0.16741897544860798,1.1464399970054602
0.765596608116293,0.597925981521606,-0.567387237167358,-0.767180608463288
0.766202301635373,-0.247515913009644,-0.42129104576110804,-1.3850956475257898
0.766807995154452,-0.45827763175964403,0.9031547550201421,0.229147516536712
0.767413688673531,0.0159362354278565,0.0146025089263916,1.26379595403671
0.768019382192611,-0.113394819259644,-0.0237178035736084,0.06628618841171251
0.76862507571169,-0.903751264572144,0.670837860488892,-1.3084550225257898
0.769230769230769,0.00875117683410646,-0.289564971542358,-0.36242230768203804
0.769836462749849,0.391954301834106,0.249314422988892,1.0817744696617102
0.770442156268928,0.645826372146606,-0.138678741073608,-0.249856389713288
0.771047849788007,0.358424028396606,-0.509906768417358,-1.22941937799454
0.771653543307087,-0.733704877853394,1.0205107120513899,-0.213931096744538
0.772259236826166,-0.300206342697144,0.09363815345764159,1.2063154852867102
0.772864930345245,-0.185245405197144,-0.363810577011108,0.241122614192962
0.773470623864325,-0.958836713790894,0.390620575332642,-1.3587504326820399
0.774076317383404,0.21711787605285598,-0.766173858261108,-0.237881292057038
0.774682010902483,0.717676958084106,0.292424774551392,1.00752886419296
0.775287704421563,0.502125200271606,-0.188974151229858,0.40877398138046195
0.775893397940642,0.296153520584106,-1.00807083091736,-1.06655804986954
0.776499091459721,-0.817530561447144,0.792983856582642,-0.154055608463288
0.777104784978801,-0.5037830028533941,0.28523971595764197,1.37875689153671
0.77771047849788,-0.295416303634644,-0.43326614341735803,0.394403864192962
0.778316172016959,-0.599583784103394,0.313979950332642,-1.06655804986954
0.778921865536039,0.26980830574035597,-0.43326614341735803,-0.458223088932038
0.779527559055118,0.466199907302856,-0.117123565292358,1.01231890325546
0.780133252574197,0.456619829177856,-0.0596430965423584,0.126161676692962
0.780738946093277,-0.0032239208221435402,-0.835629424667358,-1.1671488701820398
0.781344639612356,-0.283441205978394,0.110403290176392,-0.5492338311195379
0.781950333131435,-0.024779096603393502,0.340325165176392,0.880592829036712
0.782556026650515,0.37997920417785597,0.10321823158264201,0.892567926692962
0.783161720169594,-0.566053510665894,0.18704391517639202,-0.640244573307038
0.783767413688674,-0.494202924728394,0.26607955970764197,-1.00907758111954
0.784373107207753,0.276993364334106,-0.141073760604858,0.461464411067962
0.784978800726832,0.44943477058410597,-0.100358428573608,0.578820368099212
0.785584494245912,0.638641313552856,-0.524276885604858,-1.11445844049454
0.786190187764991,0.257833208084106,-0.349440459823608,-1.1575687920570399
0.78679588128407,-0.405587202072144,0.800168915176392,0.688991266536712
0.78740157480315,0.00156611824035646,-0.0285078426361084,1.2925361884117101
0.788007268322229,-0.13734501457214401,-0.100358428573608,-0.211536077213288
0.788612961841308,-0.681014448165894,0.809748993301392,-0.702515081119538
0.789218655360388,0.109341997146606,-0.0788032527923584,0.241122614192962
0.789824348879467,0.231487993240356,0.321165008926392,1.20392046575546
0.790430042398546,0.468594926834106,-0.155443877792358,-0.0486747490882875
0.791035735917626,0.684146684646606,-0.737433623886108,-1.09290326471329
0.791641429436705,-0.40798222160339404,0.881599579238892,0.971603571224212
0.792247122955784,-0.350501752853394,0.359485321426392,1.17039019231796
0.792852816474864,-0.400797163009644,-0.16741897544860798,-0.48935834283828805
0.793458509993943,-0.879801069259644,0.49600143470764196,-1.2916898858070398
0.794064203513022,0.45901484870910597,-0.7494087215423579,-0.0702299248695375
0.794669897032102,0.425484575271606,-0.162628936386108,1.05063921575546
0.795275590551181,0.461409868240356,0.27565963783264197,-0.276201604557038
0.79588128407026,0.368004106521606,-0.679953155136108,-0.839031194400788
0.79648697758934,-0.606768842697144,0.637307587051392,0.142926813411712
0.797092671108419,-0.477437788009644,0.6037773136138921,1.1560200751304601
0.797698364627498,-0.599583784103394,-0.560202178573608,-0.163635686588288
0.798304058146578,-0.779210248947144,0.479236297988892,-1.20786420221329
0.798909751665657,0.0734167041778565,-0.22729446372985798,0.111791559505462
0.799515445184736,0.564395708084106,-0.107543487167358,1.0650093329429602
0.800121138703816,0.24346309089660598,0.251709442520142,0.25788775091171195
0.800726832222895,0.0279113330841065,-1.15895706138611,-1.1575687920570399
0.801332525741975,-0.237935834884644,-0.303935088729858,-0.510913518619538
0.801938219261054,-0.125369916915894,0.393015594863892,1.23984575872421
0.802543912780133,0.0494665088653565,-0.124308623886108,0.6243257391929621
0.803149606299213,-0.479832807540894,0.0361576847076416,-1.02105267877579
0.803755299818292,-0.233145795822144,0.0385527042388916,-0.297756780338288
0.804360993337371,0.511705278396606,-0.325490264511108,1.0362690985679601
0.804966686856451,0.00396113777160646,0.151118622207642,0.231542536067962
0.80557238037553,0.178797563552856,-0.251244659042358,-1.0809281670570399
0.806178073894609,0.641036333084106,-0.603312530136108,-0.661799749088288
0.806783767413689,0.111737016677856,0.563061981582642,0.789582086849212
0.807389460932768,-0.0056189403533935395,0.313979950332642,0.815927301692962
0.807995154451847,-0.26907108879089403,-0.129098662948608,-0.927646917057038
0.808600847970927,-0.443907514572144,0.692393036270142,-0.7336503350257879
0.809206541490006,0.358424028396606,-0.0572480770111084,0.9835786688804621
0.809812235009085,0.303338579177856,0.30679489173889196,0.629115778255462
0.810417928528165,0.25064814949035596,0.06968795814514159,-0.618689397525788
0.811023622047244,0.638641313552856,-0.8332344051361079,-0.707305120182038
0.811629315566323,-0.149320112228394,0.551086883926392,0.593190485286712
0.812235009085403,-0.20680058097839402,0.5271366886138921,1.02908403997421
0.812840702604482,-0.556473432540894,-0.318305205917358,-0.858191350650788
0.813446396123562,-0.841480756759644,0.472051239395142,-0.994707463932038
0.814052089642641,0.435064653396606,-0.359020537948608,0.5093648016929619
0.81465778316172,0.626666215896606,-0.0309028621673584,0.681806207942962
0.815263476680799,-0.051124311447143495,0.323560028457642,-0.474988225650788
0.815869170199879,0.396744340896606,-0.847604522323608,-0.939622014713288
0.816474863718958,0.0494665088653565,0.381040497207642,0.34650347356796196
0.817080557238038,-0.613953901290894,0.6444926456451421,0.9835786688804621
0.817686250757117,-0.745679975509644,-0.37339065513610803,-0.657009710025788
0.818291944276196,-0.757655073165894,0.18225387611389202,-1.3467753350257898
0.818897637795276,0.538050493240356,-0.33267532310485803,0.37524370794296197
0.819503331314355,0.830242876052856,-0.186579131698608,1.08895952825546
0.820109024833434,-0.132554975509644,0.517556610488892,-0.288176702213288
0.820714718352514,-0.185245405197144,-0.900294952011108,-1.45215619440079
0.821320411871593,0.032701372146606504,-0.445241241073608,0.140531793880462
0.821926105390672,0.00875117683410646,0.44570602455139197,1.6086787665367102
0.822531798909752,-0.417562299728394,0.06729293861389159,0.0135957587242125
0.823137492428831,-0.776815229415894,-0.0141377254486084,-1.32761517877579
0.82374318594791,-0.0415442333221435,0.110403290176392,0.12376665716171201
0.82434887946699,0.746417192459106,-0.145863799667358,1.3260664618492102
0.824954572986069,-0.108604780197144,0.184648895645142,-0.0654398858070375
0.825560266505148,0.22190791511535599,-0.153048858261108,-1.13840863580704
0.826165960024228,0.657801469802856,-0.636842803573608,-0.465408147525788
0.826771653543307,0.26980830574035597,0.32595504798889197,1.22068560247421
0.827377347062386,0.00875117683410646,0.158303680801392,0.796767145442962
0.827983040581466,-0.530128217697144,0.06968795814514159,-0.934831975650788
0.828588734100545,-0.254700971603394,0.594197235488892,-0.424692815494538
0.829194427619624,0.423089555740356,-0.136283721542358,1.2015254462242102
0.829800121138704,0.473384965896606,0.302004852676392,0.5261299384117121
0.830405814657783,0.006356157302856461,0.232549286270142,-1.1240385186195399
0.831011508176863,0.631456254959106,-0.794914092636108,-0.6138993584632879
0.831617201695942,0.0925768604278565,0.163093719863892,1.00273882513046
0.832222895215021,-0.496597944259644,0.7666386417388921,0.842272516536712
0.8328285887341,-0.618743940353394,-0.0165327449798584,-1.1336185967445398
0.83343428225318,-0.446302534103394,0.189438934707642,-1.06655804986954
0.834039975772259,0.425484575271606,-0.337465362167358,0.849457575130462
0.834645669291339,0.722466997146606,0.13195846595764202,0.7656318915367121
0.835251362810418,-0.28823124504089404,0.651677704238892,-0.800710881900788
0.835857056329497,0.0446764698028565,-0.787729034042358,-0.707305120182038
0.836462749848577,0.037491411209106505,0.07687301673889159,0.930888239192962
0.837068443367656,-0.549288373947144,0.531926727676392,1.39791704778671
0.837674136886735,-0.664249311447144,-0.454821319198608,-0.985127385807038
0.838279830405815,-0.518153120040894,-0.0668281551361084,-1.46413129205704
0.838885523924894,0.6937267627716059,-0.162628936386108,0.916518122005462
0.839491217443973,0.722466997146606,-0.256034698104858,1.1248848212242102
0.840096910963053,-0.367266889572144,0.589407196426392,-0.5731840264320379
0.840702604482132,-0.367266889572144,-0.483561553573608,-1.3036649834632899
0.841308298001211,0.372794145584106,-0.514696807479858,0.0734712470054625
0.841913991520291,-0.051124311447143495,0.27805465736389195,1.21350054388046
0.84251968503937,-0.412772260665894,-0.23687454185485798,-0.316916936588288
0.843125378558449,-0.542103315353394,0.06729293861389159,-1.2389994561195399
0.843731072077529,0.286573442459106,0.119983368301392,0.538105036067962
0.844336765596608,0.839822954177856,-0.39015579185485805,1.4290523016929602
0.844942459115687,-0.436722455978394,0.512766571426392,-0.27141156549453804
0.845548152634767,-0.218775678634644,-0.28237991294860804,-1.4401810967445399
0.846153846153846,0.784737504959106,-0.785334014511108,-0.486963323307038
0.846759539672925,0.353633989334106,0.31637496986389196,1.39312700872421
0.847365233192005,-0.285836225509644,0.222969208145142,0.250702692317962
0.847970926711084,-0.637904096603394,0.30679489173889196,-1.4880814873695398
0.848576620230164,-0.20680058097839402,0.409780731582642,0.0207808173179625
0.849182313749243,0.767972368240356,0.203809051895142,1.4769526923179601
0.849788007268322,0.0925768604278565,0.36667038002014196,0.31776323919296195
0.850393700787402,-0.223565717697144,0.40499069252014197,-1.5910673272132898
0.850999394306481,0.825452836990356,-0.45961135826110805,-0.542048772525788
0.85160508782556,0.475779985427856,0.172673797988892,1.32846148138046
0.85221078134464,-0.187640424728394,0.8073539737701421,1.0817744696617102
0.852816474863719,-0.956441694259644,-0.23687454185485798,-1.3132450615882898
0.853422168382798,-0.16129520988464402,0.0193925479888916,-1.0593729912757899
0.854027861901878,0.882933305740356,0.0505278018951416,1.21829058294296
0.854633555420957,0.494940141677856,0.165488739395142,0.820717340755462
0.855239248940036,-0.460672651290894,0.539111786270142,-1.0426078545570399
0.855844942459116,0.154847368240356,-0.620077666854858,-0.937226995182038
0.856450635978195,0.351238969802856,-0.33028030357360805,1.1129097235679601
0.857056329497274,-0.685804487228394,0.730713348770142,0.677016168880462
0.857662023016354,-0.937281538009644,-0.09317336997985841,-1.3850956475257898
0.858267716535433,-0.424747358322144,-0.08838333091735841,-1.31564008111954
0.858873410054512,0.732047075271606,-0.28237991294860804,1.1296748602867102
0.859479103573592,0.892513383865356,-0.129098662948608,1.3739668524742101
0.860084797092671,-0.494202924728394,0.953450165176392,-1.02344769830704
0.86069049061175,-0.396007123947144,-0.584152373886108,-1.2988749444007899
0.86129618413083,0.473384965896606,-0.5913374324798579,0.533314997005462
0.861901877649909,0.121317094802856,0.443311005020142,1.34043657903671
0.862507571168988,-0.539708295822144,0.0241825870513916,-0.324101995182038
0.863113264688068,-0.853455854415894,0.0601078800201416,-1.25576459283829
0.863718958207147,0.521285356521606,-0.0428779598236084,0.808742243099212
0.864324651726227,1.04579463386536,-0.09796340904235841,1.79788530950546
0.864930345245306,-0.405587202072144,0.7642436222076421,-0.161240667057038
0.865536038764385,-0.364871870040894,-0.09317336997985841,-1.51442670221329
0.866141732283465,0.839822954177856,-0.756593780136108,0.0495210516929625
0.866747425802544,0.839822954177856,-0.0332978816986084,1.55838335638046
0.867353119321623,-0.321761518478394,0.369065399551392,0.07107622747421251
0.867958812840703,-0.726519819259644,0.469656219863892,-1.7060282647132898
0.868564506359782,-0.00801395988464354,0.0625028995513916,-0.170820745182038
0.869170199878861,0.8134777393341059,0.261289520645142,1.48174273138046
0.869775893397941,0.19795771980285598,0.5439018253326421,-0.0702299248695375
0.87038158691702,-0.556473432540894,0.23733932533264201,-1.4066508233070398
0.870987280436099,0.480570024490356,-0.426081084823608,-0.36242230768203804
0.871592973955179,0.720071977615356,-0.0548530574798584,1.2278706610679602
0.872198667474258,-0.364871870040894,0.869624481582642,0.756051813411712
0.872804360993337,-1.21270878410339,0.184648895645142,-1.57430219049454
0.873410054512417,-0.180455366134644,-0.31112014732360804,-1.17433392877579
0.874015748031496,0.942808794021606,0.07208297767639159,1.18236528997421
0.874621441550575,0.815872758865356,0.105613251113892,0.753656793880462
0.875227135069655,-0.487017866134644,0.443311005020142,-1.25576459283829
0.875832828588734,-0.13734501457214401,-0.27279983482360803,-1.01865765924454
0.876438522107813,0.39913936042785597,-0.464401397323608,1.4937178290367101
0.877044215626893,-0.637904096603394,0.505581512832642,0.780002008724212
0.877649909145972,-0.867825971603394,-0.438056182479858,-1.37551556940079
0.878255602665051,-0.245120893478394,-0.454821319198608,-1.20786420221329
0.878861296184131,0.789527544021606,-0.26082473716735805,1.1033296454429602
0.87946698970321,0.770367387771606,-0.165023955917358,1.51766802434921
0.880072683222289,-0.819925580978394,0.709158172988892,-0.7935258233070379
0.880678376741369,-0.546893354415894,-0.5530171199798579,-1.5695121514320398
0.881284070260448,0.542840532302856,-0.725458526229858,0.152506891536712
0.881889763779528,0.18837764167785598,0.330745087051392,1.71405962591171
0.882495457298607,-0.676224409103394,0.10082321205139201,-0.407927678775788
0.883101150817686,-0.875011030197144,0.143933563613892,-1.6078324639320398
0.883706844336766,0.638641313552856,-0.22729446372985798,0.820717340755462
0.884312537855845,0.966758989334106,0.0026274112701416,1.83381060247421
0.884918231374924,-0.475042768478394,0.6852079776763921,-0.510913518619538
0.885523924894004,-0.748074995040894,-0.31112014732360804,-1.4665263115882898
0.886129618413083,0.703306840896606,-0.663188018417358,0.0375459540367125
0.886735311932162,0.945203813552856,-0.24166458091735799,1.49611284856796
0.887341005451242,-0.233145795822144,0.184648895645142,-0.11573529596328799
0.887946698970321,-1.19833866691589,0.43852096595764195,-2.05570111627579
0.8885523924894,0.185982622146606,-0.09796340904235841,-0.0941801201820375
0.88915808600848,0.942808794021606,0.18704391517639202,1.9799067938804602
0.889763779527559,-0.0726794872283935,0.6277275089263921,0.0423359930992125
0.890369473046638,-0.542103315353394,0.282844696426392,-1.6413627373695399
0.890975166565718,0.470989946365356,-0.24166458091735799,-0.35284222955703803
0.891580860084797,1.2493712940216102,-0.497931670761108,1.3572017157554601
0.892186553603876,-0.281046186447144,0.491211395645142,0.44469927434921197
0.892792247122956,-1.27976933097839,0.39780563392639195,-1.87128461236954
0.893397940642035,-0.10141972160339399,-0.5338569637298579,-1.12164349908829
0.894003634161115,1.14878047370911,0.0433427433013916,1.40510210638046
0.894609327680194,0.504520219802856,0.148723602676392,1.00992388372421
0.895215021199273,-0.515758100509644,0.450496063613892,-1.47371137018204
0.895820714718352,0.0303063526153565,-0.0596430965423584,-0.982732366275788
0.896426408237432,0.502125200271606,-0.596127471542358,1.3907319891929601
0.897032101756511,-0.321761518478394,0.44570602455139197,0.871012750911712
0.897637795275591,-1.23186894035339,0.0433427433013916,-1.55035199518204
0.89824348879467,-0.40798222160339404,-0.45242629966735803,-1.3371952569007899
0.898849182313749,0.926043657302856,-0.150653838729858,0.954838434505462
0.899454875832829,0.942808794021606,-0.105148467636108,1.57275347356796
0.900060569351908,-0.6426941356658941,0.352300262832642,-1.11445844049454
0.900666262870987,-0.750470014572144,-0.186579131698608,-1.91678998346329
0.901271956390067,0.497335161209106,-0.861974639511108,0.693781305599212
0.901877649909146,0.265018266677856,0.07208297767639159,1.3572017157554601
0.902483343428225,-0.647484174728394,0.117588348770142,-0.661799749088288
0.903089036947305,-0.757655073165894,-0.0141377254486084,-1.55514203424454
0.903694730466384,0.856588090896606,-0.287169952011108,0.741681696224212
0.904300423985463,0.887723344802856,-0.191369170761108,1.93200640325546
0.904906117504543,-0.685804487228394,0.7043681339263921,-0.805500920963288
0.905511811023622,-0.867825971603394,-0.121913604354858,-2.0245658623695397
0.906117504542701,0.624271196365356,-0.567387237167358,-0.0558598076820375
0.906723198061781,1.12243525886536,-0.299145049667358,1.6637642157554602
0.90732889158086,-0.149320112228394,0.232549286270142,-0.10376019830703799
0.907934585099939,-1.2558191356658899,0.563061981582642,-2.00540570611954
0.908540278619019,0.190772661209106,-0.296750030136108,-0.000774358463287528
0.909145972138098,0.9739440479278559,0.208599090957642,1.84099566106796
0.909751665657177,0.26022822761535597,0.792983856582642,0.056706110286712505
0.910357359176257,-0.633114057540894,0.146328583145142,-1.34917035455704
0.910963052695336,0.13329219245910598,-0.296750030136108,-0.324101995182038
0.911568746214416,1.26374141120911,-0.356625518417358,2.00146196966171
0.912174439733495,-0.17566532707214402,0.47684127845764196,0.849457575130462
0.912780133252574,-1.12169804191589,0.46486618080139197,-1.90960492486954
0.913385826771653,-0.0463342723846435,-0.624867705917358,-0.666589788150788
0.913991520290733,0.976339067459106,0.0026274112701416,1.49132280950546
0.914597213809812,0.473384965896606,0.0625028995513916,1.2542158759117101
0.915202907328892,-0.575633588790894,0.359485321426392,-1.34917035455704
0.915808600847971,-0.295416303634644,0.428940887832642,-0.977942327213288
0.91641429436705,0.518890336990356,-0.454821319198608,1.6350239813804601
0.91701998788613,-0.252305952072144,0.40738571205139196,0.9428633368492121
0.917625681405209,-1.17678349113464,0.151118622207642,-1.64375775690079
0.918231374924288,-0.273861127853394,-0.557807159042358,-1.5216117608070399
0.918837068443368,0.9140685596466059,-0.121913604354858,1.18236528997421
0.919442761962447,0.789527544021606,0.146328583145142,1.49850786809921
0.920048455481526,-1.06182255363464,0.505581512832642,-1.2437894951820399
0.920654149000606,-0.954046674728394,-0.203344268417358,-1.51203168268204
0.921259842519685,0.463804887771606,-0.816469268417358,0.8470625555992121
0.921865536038764,0.344053911209106,-0.102753448104858,1.2063154852867102
0.922471229557844,-0.633114057540894,0.203809051895142,-1.05697797174454
0.923076923076923,-0.731309858322144,0.0289726261138916,-1.7395585381507899
0.923682616596002,0.885328325271606,-0.6104975887298579,0.911728082942962
0.924288310115082,0.856588090896606,-0.09796340904235841,1.9846968329429602
0.924894003634161,-0.424747358322144,0.8648344425201421,-0.604319280338288
0.92549969715324,-1.03547733879089,0.0169975284576416,-1.72039838190079
0.92610539067232,0.612296098709106,-0.639237823104858,0.255492731380462
0.926711084191399,0.849403032302856,-0.555412139511108,1.63262896184921
0.927316777710478,-0.053519330978393495,0.0553178409576416,-0.42948285455703805
0.927922471229558,-0.989971967697144,0.773823700332642,-1.8593095147132899
0.928528164748637,0.6146911182403559,-0.121913604354858,0.205197321224212
0.929133858267717,1.0960900440216101,0.215784149551392,1.7116646063804601
0.929739551786796,-0.233145795822144,0.769033661270142,-0.0127494561195375
0.930345245305875,-0.594793745040894,0.141538544082642,-1.6724979912757898
0.930950938824954,0.08299678230285651,-0.0093476863861084,-0.35284222955703803
0.931556632344034,1.10567012214661,-0.45003128013610805,1.80746538763046
0.932162325863113,-0.180455366134644,0.165488739395142,0.533314997005462
0.932768019382193,-1.1073279247283898,0.833699188613892,-2.09881146783829
0.933373712901272,-0.0223840770721435,-0.639237823104858,-0.886931585025788
0.933979406420351,1.16554561042786,-0.0428779598236084,1.8002803290367102
0.934585099939431,0.288968461990356,0.424150848770142,1.15841509466171
0.93519079345851,-0.585213666915894,0.0481327823638916,-1.13601361627579
0.935796486977589,-0.436722455978394,0.359485321426392,-0.7935258233070379
0.936402180496669,0.660196489334106,-0.258429717636108,1.51287798528671
0.937007874015748,-0.0726794872283935,0.07208297767639159,0.835087457942962
0.937613567534827,-1.28455937004089,0.24212936439514202,-1.59346234674454
0.938219261053907,0.0159362354278565,-0.44045120201110805,-1.25097455377579
0.938824954572986,1.11525020027161,-0.224899444198608,1.39312700872421
0.939430648092065,0.882933305740356,0.239734344863892,1.45779253606796
0.940036341611145,-0.977996870040894,0.558271942520142,-1.3731205498695398
0.940642035130224,-0.886986127853394,-0.0213227840423584,-1.4114408623695398
0.941247728649303,0.509310258865356,-0.679953155136108,0.9835786688804621
0.941853422168383,0.276993364334106,-0.210529327011108,1.73561480169296
0.942459115687462,-0.611558881759644,-0.0069526668548584,-0.659404729557038
0.943064809206541,-0.657064252853394,-0.08838333091735841,-1.62699262018204
0.943670502725621,0.844612993240356,-0.658397979354858,0.9476533759117121
0.9442761962447,0.645826372146606,-0.0764082332611084,1.9727217352867101
0.94488188976378,-0.484622846603394,0.828909149551392,-0.697725042057038
0.945487583282859,-0.992366987228394,0.0193925479888916,-1.6677079522132898
0.946093276801938,0.698516801834106,-0.426081084823608,0.5261299384117121
0.946698970321018,1.18710078620911,-0.562597198104858,1.74279986028671
0.947304663840097,0.0111461963653565,0.08645309486389159,-0.439062932682038
0.947910357359176,-1.2055237255096398,0.821724090957642,-1.8904447686195398
0.948516050878256,0.475779985427856,-0.40213088951110804,0.12376665716171201
0.949121744397335,1.0410045948028601,0.124773407363892,1.84578570013046
0.949727437916414,-0.242725873947144,0.953450165176392,0.0782612860679625
0.950333131435494,-0.726519819259644,0.208599090957642,-1.6413627373695399
0.950938824954573,-0.295416303634644,0.0361576847076416,-0.304941838932038
0.951544518473652,1.0529796924591102,-0.222504424667358,1.69729448919296
0.952150211992732,0.0566515674591065,-0.0572480770111084,0.394403864192962
0.952755905511811,-1.33964481925964,0.749873505020142,-1.94792523736954
0.95336159903089,-0.297811323165894,-0.318305205917358,-0.707305120182038
0.95396729254997,0.988314165115356,0.0313676456451416,1.52006304388046
0.954572986069049,0.487755083084106,0.517556610488892,1.00034380559921
0.955178679588128,-0.400797163009644,-0.0261128231048584,-1.52400678033829
0.955784373107208,-0.376846967697144,0.342720184707642,-0.474988225650788
0.956390066626287,0.470989946365356,0.09124313392639159,1.5751484930992101
0.956995760145366,-0.300206342697144,-0.0668281551361084,0.430329157161712
0.957601453664446,-1.15283329582214,0.311584930801392,-1.51921674127579
0.958207147183525,-0.0487292919158935,-0.579362334823608,-1.01865765924454
0.958812840702604,1.11525020027161,-0.49314163169860803,1.43863237981796
0.959418534221684,0.631456254959106,0.412175751113892,1.38354693059921
0.960024227740763,-0.726519819259644,0.462471161270142,-1.0737431084632898
0.960629921259842,-0.8630359325408941,0.32595504798889197,-1.4234159600257899
0.961235614778922,0.24346309089660598,-0.543437041854858,0.811137262630462
0.961841308298001,0.356029008865356,-0.483561553573608,1.15362505559921
0.962447001817081,-0.712149702072144,0.17746383705139201,-1.02105267877579
0.96305269533616,-0.463067670822144,0.158303680801392,-1.55035199518204
