Time (s),Accel X (m/s^2),Accel Y (m/s^2),Accel Z (m/s^2)
0.0,0.177041434192657,0.23979553012847898,0.0370559105873106
0.000605693519079346,-0.11275592908859301,0.117649534034729,0.0394509301185606
0.00121138703815869,0.153091238880157,-0.014076540184021,0.149621828556061
0.00181708055723804,0.0501053990364075,-0.038026735496521,0.0993264183998106
0.00242277407631738,-0.0864107142448425,-0.145802614402771,0.0562160668373106
0.00302846759539673,0.0764506138801575,-0.083532106590271,0.18554712152481098
0.00363416111447607,-0.0552754603385925,0.031428830909729,0.0298708519935606
0.00423985463355542,-0.10317585096359301,-0.035631715965270996,0.101721437931061
0.00484554815263477,-0.0600654994010925,-0.22723327846527103,0.38912378168106104
0.00545124167171411,0.047710379505157496,-0.018866579246521,0.0370559105873106
0.00605693519079346,0.0884257115364075,0.076934202003479,-0.152150632381439
0.0066626287098728,-0.016955147838592498,0.115254514503479,-0.0587448706626894
0.00726832222895215,-0.117545968151093,-0.023656618309021,0.0586110863685606
0.0078740157480315,-0.004980050182342539,-0.040421755027771,0.113696535587311
0.00847970926711084,-0.18460651502609302,0.096094358253479,0.211892336368561
0.00908540278619019,-0.028930245494842497,0.227820432472229,0.16638696527481098
0.00969109630526953,0.0620804966926575,0.103279416847229,-0.106645261287689
0.0102967898243489,-0.11275592908859301,-0.196098024559021,-0.235976315975189
0.0109024833434282,-0.268432198619843,-0.28950378627777096,0.518454836368561
0.0115081768625076,-0.050485421276092506,-0.15777771205902102,0.209497316837311
0.0121138703815869,-0.004980050182342539,0.060169065284729,0.0011306176185605702
0.0127195639006663,-0.124731026744843,0.218240354347229,0.24542260980606098
0.0133252574197456,0.0237601841926575,-0.093112184715271,0.305298098087311
0.013930950938825,0.00220500841140746,-0.052396852684021,0.353198488712311
0.0145366444579043,-0.016955147838592498,0.067354123878479,0.08495630121231061
0.0151423379769836,-0.00258503065109254,0.043403928565979,-0.0132394995689394
0.015748031496063,-0.045695382213592504,0.163154905128479,-0.0036594214439394303
0.0163537250151423,-0.0624605189323425,0.036218869972229,0.202312258243561
0.0169594185342217,-0.0864107142448425,-0.20807312221527102,0.06340112543106059
0.017565112053301,-0.0241402064323425,0.072144162940979,0.13525171136856098
0.0181708055723804,0.0357352818489075,0.052984006690979,0.142436769962311
0.0187764990914597,-0.25645710096359303,-0.014076540184021,0.08256128168106061
0.0193821926105391,-0.0576704798698425,0.00747863559722901,0.06579614496231061
0.0199878861296184,0.126746024036407,-0.23441833705902101,-0.0252145972251894
0.0205935796486978,-0.0552754603385925,-0.229628297996521,-0.0300046362876894
0.0211992731677771,0.0572904576301575,-0.085927126121521,-0.149755612850189
0.0218049666868564,-0.122336007213593,0.134414670753479,0.168781984806061
0.0224106602059358,-0.170236397838593,-0.059581911277771,0.07537622308731061
0.0230163537250151,-0.0600654994010925,-0.040421755027771,0.013105715274810598
0.0236220472440945,0.117165945911407,0.00268859653472901,0.168781984806061
0.0242277407631738,-0.0121651087760925,-0.014076540184021,0.06340112543106059
0.0248334342822532,-0.0864107142448425,0.031428830909729,0.36038354730606104
0.0254391278013325,0.143511160755157,-0.057186891746521,0.22626245355606098
0.0260448213204119,0.102795828723907,-0.109877321434021,0.025080812931060598
0.0266505148394912,-0.004980050182342539,-0.12903747768402102,0.149621828556061
0.0272562083585706,-0.10317585096359301,0.09848937778472901,0.16638696527481098
0.0278619018776499,-0.07204059705734249,0.033823850440979,0.142436769962311
0.0284675953967293,-0.10557087049484301,-0.057186891746521,0.09214135980606061
0.0290732889158086,0.0788456334114075,-0.018866579246521,0.207102297306061
0.0296789824348879,0.157881277942657,0.057774045753479004,0.149621828556061
0.0302846759539673,-0.167841378307343,0.062564084815979,0.211892336368561
0.0308903694730466,-0.00258503065109254,0.081724241065979,0.159201906681061
0.031496062992126,0.0764506138801575,-0.045211794090271,-0.0539548316001894
0.0321017565112053,-0.07922565565109249,-0.196098024559021,0.43941919183731104
0.0327074500302847,-0.07443561658859249,-0.172147829246521,0.149621828556061
0.033313143549364,-0.227716866588593,-0.16735779018402103,0.008315676212310571
0.0339188370684434,-0.07683063611984249,0.22542541294097898,0.204707277774811
0.0345245305875227,0.026155203723907502,0.23021545200347898,0.295718019962311
0.0351302241066021,-0.124731026744843,-0.124247438621521,0.0993264183998106
0.0357359176256814,-0.0217451869010925,-0.085927126121521,0.0993264183998106
0.0363416111447607,0.045315359973907496,0.079329221534729,0.257397707462311
0.0369473046638401,0.16985637559890698,0.10088439731597901,0.159201906681061
0.0375529981829194,0.16506633653640698,0.108069455909729,0.27176782464981103
0.0381586917019988,0.0213651646614075,-0.155382692527771,0.152016848087311
0.0387643852210781,-0.19897663221359302,-0.24878845424652102,0.255002687931061
0.0393700787401575,0.09800578966140751,-0.071557008934021,0.207102297306061
0.0399757722592368,-0.0145601283073425,0.16075988559722898,0.149621828556061
0.0405814657783162,-0.165446358776093,0.069749143409729,-0.0707199683189394
0.0411871592973955,0.131536063098907,-0.164962770652771,0.396308840274811
0.0417928528164749,0.0213651646614075,-0.026051637840270998,0.156806887149811
0.0423985463355542,-0.0983858119010925,0.120044553565979,-0.0635349097251894
0.0430042398546336,-0.0864107142448425,0.120044553565979,0.255002687931061
0.0436099333737129,0.0189701451301575,0.086514280128479,-0.0659299292564394
0.0442156268927922,-0.177421456432343,-0.059581911277771,-0.0611398901939394
0.0448213204118716,-0.0313252650260925,-0.17454284877777101,-0.00605444097518943
0.0454270139309509,-0.0409053431510925,-0.040421755027771,0.013105715274810598
0.0460327074500303,0.00939006700515746,-0.042816774559021,0.08016626214981061
0.0466384009691096,0.136326102161407,-0.097902223777771,0.25979272699356104
0.047244094488189,-0.0265352259635925,-0.141012575340271,0.168781984806061
0.0478497880072683,0.153091238880157,-0.16735779018402103,0.11848657464981101
0.0484554815263477,-0.050485421276092506,-0.045211794090271,0.08735132074356061
0.049061175045427,-0.048090401744842505,0.096094358253479,0.0969313988685606
0.0496668685645064,-0.0265352259635925,0.088909299659729,0.168781984806061
0.0502725620835857,-0.07683063611984249,-0.131432497215271,0.108906496524811
0.050878255602665,0.162671317005157,-0.014076540184021,0.0370559105873106
0.0514839491217444,-0.0241402064323425,0.153574827003479,0.31008813714981104
0.0520896426408237,-0.136706124401093,0.108069455909729,0.147226809024811
0.0526953361599031,-0.0361153040885925,-0.052396852684021,-0.00126440191268943
0.0533010296789824,-0.00258503065109254,-0.021261598777771,0.111301516056061
0.0539067231980618,0.030945242786407503,-0.18891296596527102,0.168781984806061
0.0545124167171411,0.0548954380989075,-0.042816774559021,0.355593508243561
0.0551181102362205,0.0165751255989075,0.048193967628479,0.298113039493561
0.0557238037552998,0.121955984973907,-0.14819763393402102,0.111301516056061
0.0563294972743792,0.129141043567657,-0.196098024559021,0.216682375431061
0.0569351907934585,-0.218136788463593,-0.150592653465271,0.26937280511856104
0.0575408843125379,-0.242086983776093,-0.112272340965271,0.197522219181061
0.0581465778316172,-0.06725055799484249,-0.107482301902771,0.178362062931061
0.0587522713506965,0.0525004185676575,0.139204709815979,0.101721437931061
0.0593579648697759,-0.10796589002609301,-0.150592653465271,0.0418459496498106
0.0599636583888552,-0.0337202845573425,-0.100297243309021,0.307693117618561
0.0605693519079346,-0.07204059705734249,0.124834592628479,0.250212648868561
0.0611750454270139,-0.251667061901093,-0.00689148159027099,0.197522219181061
0.0617807389460933,-0.0624605189323425,0.127229612159729,0.348408449649811
0.0623864324651726,0.014180106067657499,-0.236813356590271,0.357988527774811
0.062992125984252,0.0548954380989075,-0.181727907371521,-0.0443747534751894
0.0635978195033313,0.162671317005157,-0.12903747768402102,-0.0850900855064394
0.0642035130224107,-0.06964557752609249,-0.253578493309021,0.403493898868561
0.06480920654149,-0.299567452526093,-0.155382692527771,0.027475832462310598
0.0654149000605694,-0.0409053431510925,-0.17933288784027102,0.113696535587311
0.0660205935796487,-0.000190011119842542,0.041008909034729,0.16638696527481098
0.066626287098728,-0.10796589002609301,-0.095507204246521,0.142436769962311
0.0672319806178074,-0.0217451869010925,-0.083532106590271,-0.144965573787689
0.0678376741368867,-0.0912007533073425,-0.047606813621521,0.0514260277748106
0.0684433676559661,0.0812406529426575,0.120044553565979,0.403493898868561
0.0690490611750454,0.12435100450515699,-0.00449646205902099,0.243027590274811
0.0696547546941248,-0.131916085338593,-0.191307985496521,0.396308840274811
0.0702604482132041,-0.12952106580734302,0.00508361606597901,0.257397707462311
0.0708661417322835,-0.028930245494842497,-0.016471559715271,0.736401613712311
0.0714718352513628,0.09561077013015751,0.00747863559722901,0.8944729027748111
0.0720775287704422,0.21536174669265698,-0.00928650112152099,0.324458254337311
0.0726832222895215,-0.0241402064323425,-0.131432497215271,0.34122339105606103
0.0732889158086008,-0.06725055799484249,-0.105087282371521,0.216682375431061
0.0738946093276802,-0.050485421276092506,-0.088322145652771,0.223867434024811
0.0745003028467595,-0.232506905651093,0.13680969028472897,0.18554712152481098
0.0751059963658389,-0.0624605189323425,-0.040421755027771,-0.0276096167564394
0.0757116898849182,-0.131916085338593,-0.291898805809021,0.015500734806060599
0.0763173834039976,-0.175026436901093,-0.040421755027771,0.0322658715248106
0.0769230769230769,-0.122336007213593,0.16075988559722898,0.0993264183998106
0.0775287704421563,0.0908207310676575,0.124834592628479,0.187942141056061
0.0781344639612356,-0.11275592908859301,-0.121852419090271,0.14004175043106099
0.078740157480315,-0.0528804408073425,0.024243772315979,-0.018029538631439402
0.0793458509993943,-0.0361153040885925,-0.119457399559021,0.202312258243561
0.0799515445184737,0.133931082630157,-0.15777771205902102,0.346013430118561
0.080557238037553,0.0764506138801575,-0.00689148159027099,0.19033716058731098
0.0811629315566323,-0.0217451869010925,-0.176937868309021,0.137646730899811
0.0817686250757117,0.0333402623176575,-0.164962770652771,0.276557863712311
0.082374318594791,-0.175026436901093,0.00747863559722901,0.192732180118561
0.0829800121138704,-0.191791573619843,0.084119260597229,0.159201906681061
0.0835857056329497,-0.20376667127609302,0.10088439731597901,0.17117700433731098
0.0841913991520291,-0.0600654994010925,0.14638976840972898,0.0945363793373106
0.0847970926711084,-0.0888057337760925,0.069749143409729,0.36038354730606104
0.0854027861901878,0.0333402623176575,0.074539182472229,0.28134790277481103
0.0860084797092671,-0.0624605189323425,0.036218869972229,0.0993264183998106
0.0866141732283465,0.026155203723907502,0.074539182472229,-0.0132394995689394
0.0872198667474258,0.0237601841926575,-0.018866579246521,0.0178957543373106
0.0878255602665051,-0.043300362682342504,-0.114667360496521,0.12088159418106101
0.0884312537855845,0.0596854771614075,-0.059581911277771,0.14004175043106099
0.0890369473046638,-0.00977008924484254,0.074539182472229,0.262187746524811
0.0896426408237432,-0.0313252650260925,0.050588987159729,0.111301516056061
0.0902483343428225,-0.0600654994010925,-0.13861755580902102,0.0226857933998106
0.0908540278619019,0.107585867786407,-0.033236696434020996,0.128066652774811
0.0914597213809812,0.0836356724739075,-0.057186891746521,0.101721437931061
0.0920654149000606,-0.048090401744842505,0.105674436378479,0.211892336368561
0.0926711084191399,-0.050485421276092506,0.062564084815979,0.17117700433731098
0.0932768019382193,0.00699504747390746,-0.224838258934021,0.0945363793373106
0.0938824954572986,0.126746024036407,-0.270343630027771,-0.101855222225189
0.094488188976378,0.0788456334114075,-0.20328308315277102,0.0442409691810606
0.0950938824954573,-0.045695382213592504,-0.076347047996521,0.192732180118561
0.0956995760145366,0.131536063098907,0.086514280128479,0.07058618402481061
0.096305269533616,0.157881277942657,0.134414670753479,0.108906496524811
0.0969109630526953,-0.11036090955734301,-0.205678102684021,0.113696535587311
0.0975166565717747,0.0716605748176575,-0.13382751674652102,0.0538210473060606
0.098122350090854,-0.0528804408073425,0.033823850440979,0.142436769962311
0.0987280436099334,0.0788456334114075,0.158364866065979,-0.0539548316001894
0.0993337371290127,0.181831473255157,0.139204709815979,0.484924562931061
0.0999394306480921,0.00699504747390746,-0.040421755027771,0.18554712152481098
0.100545124167171,-0.146286202526093,-0.042816774559021,-0.568884030818939
0.101150817686251,-0.11036090955734301,-0.097902223777771,0.678921144962311
0.10175651120533,-0.07683063611984249,-0.038026735496521,0.427444094181061
0.102362204724409,-0.119940987682343,-0.00928650112152099,0.06819116449356061
0.102967898243489,-0.23969196424484301,-0.27752868862152097,0.233447512149811
0.103573591762568,-0.251667061901093,-0.12903747768402102,0.0178957543373106
0.104179285281647,-0.117545968151093,0.120044553565979,0.255002687931061
0.104784978800727,-0.278012276744843,-0.038026735496521,0.41067895746231103
0.105390672319806,-0.0337202845573425,-0.054791872215271,0.113696535587311
0.105996365838886,0.030945242786407503,-0.042816774559021,0.214287355899811
0.106602059357965,0.114770926380157,-0.131432497215271,0.302903078556061
0.107207752877044,0.0788456334114075,0.13201965122222897,0.209497316837311
0.107813446396124,0.145906180286407,0.112859494972229,0.125671633243561
0.108419139915203,0.133931082630157,-0.13382751674652102,0.025080812931060598
0.109024833434282,-0.016955147838592498,-0.011681520652771001,0.11609155511856101
0.109630526953362,0.0189701451301575,-0.016471559715271,0.142436769962311
0.110236220472441,-0.0265352259635925,-0.08113708705902099,0.317273195743561
0.11084191399152,-0.0864107142448425,0.213450315284729,0.357988527774811
0.1114476075106,-0.0912007533073425,0.17033996372222898,0.192732180118561
0.112053301029679,0.0932157505989075,0.16554992465972898,0.101721437931061
0.112658994548758,-0.10317585096359301,-0.047606813621521,0.357988527774811
0.113264688067838,-0.196581612682343,-0.141012575340271,0.25260766839981097
0.113870381586917,-0.0409053431510925,0.18471008090972899,0.255002687931061
0.114476075105996,-0.043300362682342504,-0.014076540184021,0.228657473087311
0.115081768625076,-0.119940987682343,-0.059581911277771,0.324458254337311
0.115687462144155,-0.0337202845573425,0.050588987159729,0.159201906681061
0.116293155663234,-0.275617257213593,0.086514280128479,0.0466359887123106
0.116898849182314,-0.237296944713593,-0.085927126121521,0.08974634027481061
0.117504542701393,0.112375906848907,0.055379026222229004,0.298113039493561
0.118110236220472,0.16985637559890698,-0.018866579246521,0.223867434024811
0.118715929739552,0.00699504747390746,-0.114667360496521,-0.041979733943939404
0.119321623258631,0.105190848255157,-0.16256775112152103,0.049031008243560596
0.11992731677771,-0.0888057337760925,-0.028446657371520998,0.08735132074356061
0.12053301029679,-0.285197335338593,0.017058713722229002,0.286137941837311
0.121138703815869,0.030945242786407503,-0.114667360496521,0.18554712152481098
0.121744397334949,-0.0361153040885925,-0.047606813621521,0.288532961368561
0.122350090854028,-0.0576704798698425,-0.00449646205902099,0.106511476993561
0.122955784373107,0.047710379505157496,-0.13382751674652102,0.243027590274811
0.123561477892187,0.030945242786407503,0.021848752784729,0.16159692621231098
0.124167171411266,-0.151076241588593,0.105674436378479,0.0226857933998106
0.124772864930345,-0.08401569471359249,-0.22244323940277103,0.298113039493561
0.125378558449425,-0.10796589002609301,-0.13382751674652102,0.111301516056061
0.125984251968504,-0.11275592908859301,-0.205678102684021,0.12327661371231101
0.126589945487583,0.0165751255989075,-0.00928650112152099,0.33164331293106103
0.127195639006663,0.200991629505157,-0.085927126121521,0.156806887149811
0.127801332525742,-0.175026436901093,-0.136222536277771,0.295718019962311
0.128407026044821,-0.227716866588593,0.124834592628479,0.12088159418106101
0.129012719563901,0.196201590442657,-0.14340759487152102,0.025080812931060598
0.12961841308298,-0.18460651502609302,-0.085927126121521,0.578330324649811
0.130224106602059,0.09800578966140751,-0.07874206752777099,0.156806887149811
0.130829800121139,0.0764506138801575,-0.12903747768402102,0.013105715274810598
0.131435493640218,-0.206161690807343,0.041008909034729,0.07777124261856061
0.132041187159297,-0.0912007533073425,0.139204709815979,0.0011306176185605702
0.132646880678377,-0.0552754603385925,0.163154905128479,0.334038332462311
0.133252574197456,-0.0241402064323425,-0.045211794090271,-0.0036594214439394303
0.133858267716535,0.0357352818489075,-0.332614137840271,0.18075708246231098
0.134463961235615,-0.141496163463593,-0.126642458152771,0.336433351993561
0.135069654754694,-0.0552754603385925,-0.028446657371520998,0.015500734806060599
0.135675348273773,0.0908207310676575,-0.00449646205902099,0.144831789493561
0.136281041792853,-0.158261300182343,0.194290159034729,-0.00844946050643943
0.136886735311932,-0.043300362682342504,-0.033236696434020996,0.0610061058998106
0.137492428831012,-0.14389118299484302,-0.126642458152771,0.238237551212311
0.138098122350091,-0.177421456432343,-0.085927126121521,0.276557863712311
0.13870381586917,0.0381303013801575,0.10088439731597901,0.08256128168106061
0.13930950938825,0.265657156848907,0.043403928565979,-0.00126440191268943
0.139915202907329,-0.299567452526093,-0.155382692527771,0.154411867618561
0.140520896426408,-0.220531807994843,-0.291898805809021,-0.12101537847518899
0.141126589945488,0.0117850865364075,-0.176937868309021,-0.08988012456893939
0.141732283464567,-0.06725055799484249,0.120044553565979,0.216682375431061
0.142337976983646,0.00699504747390746,0.086514280128479,0.257397707462311
0.142943670502726,-0.170236397838593,-0.016471559715271,0.0945363793373106
0.143549364021805,0.121955984973907,0.00987365512847901,0.19512719964981098
0.144155057540884,-0.292382393932343,-0.246393434715271,0.204707277774811
0.144760751059964,-0.06725055799484249,0.143994748878479,-0.0611398901939394
0.145366444579043,-0.00258503065109254,-0.00689148159027099,0.152016848087311
0.145972138098122,-0.160656319713593,-0.279923708152771,0.08495630121231061
0.146577831617202,-0.122336007213593,0.041008909034729,0.008315676212310571
0.147183525136281,-0.218136788463593,0.14159972934722898,-0.08748510503768939
0.14778921865536,0.143511160755157,0.017058713722229002,0.214287355899811
0.14839491217444,-0.227716866588593,0.067354123878479,0.381938723087311
0.149000605693519,-0.167841378307343,0.055379026222229004,-0.161730710506439
0.149606299212598,-0.0265352259635925,-0.323034059715271,0.31966821527481104
0.150211992731678,0.22015178575515698,0.081724241065979,-0.0850900855064394
0.150817686250757,0.0525004185676575,-0.306268922996521,0.12327661371231101
0.151423379769836,-0.222926827526093,0.376311643409729,0.00352563714981057
0.152029073288916,0.0908207310676575,0.105674436378479,-0.0635349097251894
0.152634766807995,-0.11036090955734301,-0.593671266746521,0.0945363793373106
0.153240460327075,-0.14389118299484302,0.232610471534729,-0.271901608943939
0.153846153846154,-0.00737506971359254,-0.21765320034027102,0.542405031681061
0.154451847365233,0.0932157505989075,0.15596984653472898,-0.180890866756439
0.155057540884313,0.0812406529426575,-0.097902223777771,0.13046167230606098
0.155663234403392,-0.10317585096359301,-0.6846820089340211,0.25979272699356104
0.156268927922471,-0.170236397838593,0.462532346534729,-0.0443747534751894
0.156874621441551,0.045315359973907496,0.21584533481597898,0.511269777774811
0.15748031496063,-0.182211495494843,-0.500265505027771,-0.15933569097518901
0.158086008479709,0.09800578966140751,-0.14819763393402102,0.453789309024811
0.158691701998789,0.145906180286407,0.13201965122222897,0.013105715274810598
0.159297395517868,0.0572904576301575,-0.014076540184021,0.336433351993561
0.159903089036947,0.0620804966926575,-0.038026735496521,0.00352563714981057
0.160508782556027,0.0572904576301575,-0.756532594871521,-0.425182858943939
0.161114476075106,-0.0409053431510925,0.093699338722229,0.307693117618561
0.161720169594185,0.09561077013015751,0.6924542215347289,0.475344484806061
0.162325863113265,0.251287039661407,-0.881073610496521,0.745981691837311
0.162931556632344,-0.222926827526093,-0.026051637840270998,-0.566489011287689
0.163537250151423,0.33990276231765804,0.31164611606597903,0.111301516056061
0.164142943670503,0.0596854771614075,-0.32782409877777097,0.22626245355606098
0.164748637189582,0.0908207310676575,0.558333127784729,-0.473083249568939
0.165354330708661,-0.270827218151093,-0.7086322042465211,0.262187746524811
0.165960024227741,0.373433035755158,-0.356564333152771,-0.00126440191268943
0.16656571774682,0.17464641466140698,1.11158263950348,-0.195260983943939
0.167171411265899,-0.225321847057343,-0.272738649559021,-0.829941159725189
0.167777104784979,0.318347586536408,-1.12057556362152,0.6741311058998111
0.168382798304058,-0.222926827526093,0.43139709262847903,-0.18807592535018902
0.168988491823137,0.042920340442657495,0.361941526222229,-0.619179440975189
0.169594185342217,-0.0217451869010925,0.024243772315979,0.8130422387123111
0.170199878861296,0.445283621692658,0.072144162940979,-0.171310788631439
0.170805572380376,-0.352257882213592,-1.5564691183090198,0.06819116449356061
0.171411265899455,-0.574994698619843,1.55226623325348,-0.11622533941268899
0.172016959418534,0.284817313098907,0.979856565284729,1.34952661371231
0.172622652937614,-0.548649483776093,-1.77681091518402,-1.13410864019394
0.173228346456693,0.335112723255158,0.582283323097229,-1.16045385503769
0.173834039975772,-0.436083565807342,-0.093112184715271,1.19145532464981
0.174439733494852,0.258472098255157,0.7858599832534789,-1.12692358160019
0.175045427013931,-0.00977008924484254,-0.083532106590271,0.978298586368561
0.17565112053301,-0.32830768690109197,-2.1983343526840198,-0.6215744605064389
0.17625681405209,1.0392484654426601,0.936746213722229,0.353198488712311
0.176862507571169,-0.8001265345573431,2.34741271762848,0.11848657464981101
0.177468201090248,0.404568289661408,-1.85824157924652,-0.6024143042564389
0.178073894609328,-0.517514229869843,-1.29780700893402,1.6249538598060602
0.178679588128407,0.497974051380158,2.61086486606598,-2.1879172339439403
0.179285281647486,0.126746024036407,-1.5852093526840199,1.5531032738685602
0.179890975166566,-0.294777413463593,1.5498712137222301,-1.14847875738144
0.180496668685645,0.356667899036408,-2.1743841573715197,0.506479738712311
0.181102362204724,-0.850421944713593,-1.07028015346527,-0.0779050269126894
0.181708055723804,0.9961381138801569,4.77356750278473,0.25260766839981097
0.182313749242883,-0.32830768690109197,-2.4905267354965197,1.06451928949356
0.182919442761962,-0.167841378307343,-1.4534832784652698,-2.6669211401939403
0.183525136281042,0.303977469348907,0.9080059793472289,2.36501489496231
0.184130829800121,-0.34986286268234196,0.522407834815979,-1.06704809331894
0.1847365233192,0.38061809434890803,0.8313653543472289,0.825017336368561
0.18534221683828,-0.424108468151092,-1.10860046596527,0.0562160668373106
0.185947910357359,-0.0121651087760925,-2.03068298549652,-1.2730197730064399
0.186553603876439,-0.313937569713592,2.9509576395034802,1.3231813988685601
0.187159297395518,0.483603934192658,1.03494201450348,-0.0683249487876894
0.187764990914597,-0.6612154017448431,-3.44374450893402,0.5735402855873111
0.188370684433677,-0.0888057337760925,1.7726080301284801,-1.3855856909751898
0.188976377952756,0.318347586536408,-0.109877321434021,1.01901391839981
0.189582071471835,-0.345072823619842,0.773884885597229,-0.152150632381439
0.190187764990915,0.471628836536408,0.7259844949722289,-0.588044187068939
0.190793458509994,-0.745041085338593,-4.08321472377777,0.0466359887123106
0.191399152029073,0.926682547473907,2.64918517856598,0.585515383243561
0.192004845548153,-0.0265352259635925,2.9844879129409803,1.23456567621231
0.192610539067232,-0.747436104869843,-3.57068054409027,-1.7999240698814398
0.193216232586311,0.105190848255157,-1.45827331752777,1.8309255394935602
0.193821926105391,-0.0648555384635925,2.74259094028473,-0.999987546443939
0.19442761962447,0.325532645130158,-0.270343630027771,0.698081301212311
0.195033313143549,-0.0552754603385925,1.22175353794098,-0.09227514410018939
0.195639006662629,-0.048090401744842505,-3.59463073940277,-1.27062475347519
0.196244700181708,-0.10796589002609301,-1.3936077901840198,0.860942629337311
0.196850393700787,0.605749930286407,7.7697369363784805,0.293323000431061
0.197456087219867,-0.687560616588593,-4.19578064174652,1.5243630394935601
0.198061780738946,-0.10557087049484301,-3.17071228237152,-2.61902074956894
0.198667474258025,0.660835379505157,3.05633849887848,0.999853762149811
0.199273167777105,-0.656425362682343,-0.814013063621521,0.616650637149811
0.199878861296184,0.30876750841140804,2.57493957309723,-0.5018234839439389
0.200484554815263,-0.792941475963593,-2.8833099386215197,0.23584253168106098
0.201090248334343,0.102795828723907,-3.35991882534027,-1.8550095191001899
0.201695941853422,0.35906291856765804,6.7183233621597305,2.5661965355873098
0.202301635372502,-0.00977008924484254,-0.631991579246521,-1.1365036597251899
0.202907328891581,-0.0552754603385925,-5.68548279018402,-0.976037351131439
0.20351302241066,-0.0361153040885925,2.99167297153473,1.08128442621231
0.20411871592974,0.373433035755158,0.464927366065979,-0.511403562068939
0.204724409448819,-0.507934151744842,0.347571409034729,1.35910669183731
0.205330102967898,-0.124731026744843,0.8122051980972289,-1.3089450659751898
0.205935796486978,-0.567809640026093,-6.11179626674652,0.06340112543106059
0.206541490006057,0.198596609973907,4.85260314731598,0.686106203556061
0.207147183525136,0.828486746692657,3.58084777622223,1.11002466058731
0.207752877044216,-1.25039020643234,-6.31776794643402,-1.23230444097519
0.208358570563295,0.584194754505157,1.1211627176284802,-0.5425388159751889
0.208964264082374,0.157881277942657,1.01338683872223,1.0860744652748102
0.209569957601454,-0.416923409557342,0.714009397315979,-0.324592038631439
0.210175651120533,0.23452190294265698,1.55945129184723,0.623835695743561
0.210781344639612,-0.917482491588593,-5.84834411830902,-1.7352585425376899
0.211387038158692,0.653650320911407,0.364336545753479,0.9950637230873111
0.211992731677771,0.761426199817657,8.16731017856598,1.58902856683731
0.21259842519685,-1.37493122205734,-5.08912292690277,-0.880236569881439
0.21320411871593,-0.050485421276092506,-3.6018157979965197,-0.410812741756439
0.213809812235009,0.553059500598907,3.6335382059097303,-0.0515598120689394
0.214415505754088,-0.289987374401093,-0.857123415184021,1.1603200707435601
0.215021199273168,0.406963309192658,3.2144097879409803,-0.00126440191268943
0.215626892792247,-0.634870186901093,-4.1790155050277695,-1.54605199956894
0.216232586311326,0.189016531848907,-4.30355652065277,-0.135385495662689
0.216838279830406,0.962607840442657,10.217446897316,2.0177370629310603
0.217443973349485,-1.16895954236984,-1.98038757534027,-0.020424558162689403
0.218049666868565,-0.574994698619843,-7.26619568080902,-1.9076999487876898
0.218655360387644,0.921892508411407,4.48377013950348,0.705266359806061
0.219261053906723,-0.19897663221359302,0.062564084815979,0.137646730899811
0.219866747425803,0.37103801622390803,1.97139465122223,0.772326906681061
0.220472440944882,-0.153471261119843,-0.512240602684021,-1.2945749487876899
0.221078134463961,-0.299567452526093,-7.82184021205902,-0.611994382381439
0.221683827983041,0.392593192005158,8.37807189731598,2.90628930902481
0.22228952150212,-0.452848702526092,3.3772711160659803,-0.22879125738143902
0.222895215021199,-0.45763874158859197,-9.58457458705902,-1.6634079566001898
0.223500908540279,0.605749930286407,3.31979064731598,0.19033716058731098
0.224106602059358,0.143511160755157,1.03494201450348,0.42025903558731104
0.224712295578437,-0.376208077526092,0.23500549106597898,0.738796633243561
0.225317989097517,-0.158261300182343,2.7018756082534803,0.00352563714981057
0.225923682616596,-0.273222237682343,-8.43496521205902,-1.6418527808189398
0.226529376135675,0.133931082630157,3.4802569559097303,0.659760988712311
0.227135069654755,1.17097453966141,8.20084045200348,1.7710500512123102
0.227740763173834,-1.14021930799484,-8.48526062221527,-1.2179343237876898
0.228346456692913,-0.0145601283073425,-0.335009157371521,-1.38798071050644
0.228952150211993,0.826091727161407,2.6252349832534803,0.8944729027748111
0.229557843731072,-0.440873604869842,-1.16368591518402,0.156806887149811
0.230163537250151,0.615330008411407,4.40712951450348,-0.130595456600189
0.230769230769231,-0.9797529994010931,-7.17518493862152,-1.32331518316269
0.23137492428831,1.10630901231766,-2.23186462612152,-0.21921117925643901
0.231980617807389,0.782981375598907,11.450881955909699,1.8836159691810601
0.232586311326469,-1.51623737440109,-4.33469177455902,-1.4191159644126898
0.233192004845548,-0.46721881971359197,-6.73210632534027,0.757956789493561
0.233797698364627,0.29200237169265697,5.70523010044098,-0.42757787847518897
0.234403391883707,0.129141043567657,-1.3672625753402698,0.434629152774811
0.235009085402786,-0.0576704798698425,3.0108331277847302,0.908843019962311
0.235614778921866,-0.06725055799484249,-2.03547302455902,-1.43348608160019
0.236220472440945,-0.584574776744843,-9.36662780971527,-0.406022702693939
0.236826165960024,0.668020438098907,12.768142698097199,1.9434914574623101
0.237431859479104,-0.752226143932343,1.98815978794098,2.15185815668106
0.238037552998183,-1.19051471815109,-11.8430780050278,-3.96981176519394
0.238643246517262,1.4416117466926601,5.05857482700348,0.563960207462311
0.239248940036342,-0.869582100963593,1.1091876199722301,1.2273806176185602
0.239854633555421,0.495579031848908,1.1810382059097302,-0.216816159725189
0.2404603270745,-0.170236397838593,2.08156554965973,0.324458254337311
0.24106602059358,-0.812101632213593,-10.501867067527801,-3.02138403081894
0.241671714112659,0.548269461536407,6.46684631137848,2.65002221918106
0.242277407631738,-0.534279366588593,8.63433898715973,0.657365969181061
0.242883101150818,0.280027274036407,-12.104135133934,-1.86937963628769
0.243488794669897,0.0908207310676575,1.6983624246597302,0.669341066837311
0.244094488188976,0.811721609973907,4.62747131137848,-0.671869870662689
0.244700181708056,-0.41931842908859196,-3.31680847377777,1.77344507074356
0.245305875227135,-0.44805866346359197,5.89443664340973,-0.892211667537689
0.245911568746214,-0.371418038463592,-8.88522888393402,-0.918556882381439
0.246517262265294,-0.208556710338593,-1.02237976284027,0.104116457462311
0.247122955784373,1.8224198521614101,13.254331662941,2.34106469964981
0.247728649303452,-1.44917682752609,-8.73673767299652,-1.1317136206626899
0.248334342822532,-0.215741768932343,-3.48924988002777,-2.00829076910019
0.248940036341611,0.383013113880158,5.48009826450348,2.58056665277481
0.24954572986069,-1.0037031947135902,-2.36838073940277,-0.944902097225189
0.25015142337977,0.7566361607551569,4.59394103794098,1.21301050043106
0.250757116898849,-0.759411202526093,-4.1790155050277695,-0.817966062068939
0.251362810417929,0.7757963170051569,-7.34762634487152,-0.9808273901939389
0.251968503937008,0.8165116490364069,13.496228635597198,2.61649194574356
0.252574197456087,-0.864792061901093,-0.7709027120590211,-0.415602780818939
0.253179890975167,-1.08034381971359,-11.1341522237778,-0.846706296443939
0.253785584494246,1.00332317247391,7.34821349887848,-1.41193090581894
0.254391278013325,-0.06964557752609249,-1.71693542690277,1.9171462426185601
0.254996971532405,0.0548954380989075,2.5222491434097303,-0.324592038631439
0.255602665051484,-0.07683063611984249,1.4420953348159802,-0.516193601131439
0.256208358570563,-1.3988814173698398,-12.4657830831528,-1.9076999487876898
0.256814052089643,1.89187541856766,11.4460919168472,2.4895559105873097
0.257419745608722,-0.460033761119842,6.49798156528473,2.7721682152748097
0.258025439127801,-1.14979938611984,-14.499154665184,-5.3158127417564405
0.258631132646881,1.20929485216141,3.5066021707534802,2.42728540277481
0.25923682616596,0.0165751255989075,4.91487365512848,-0.7820407691001889
0.259842519685039,0.600959891223907,-2.55998230190277,1.14834497308731
0.260448213204119,-0.19418659315109302,5.4944683816909805,-0.0850900855064394
0.261053906723198,-0.723485909557343,-10.9665008565903,-3.0022238745689402
0.261659600242277,0.521924246692657,1.5666363504409802,2.86317895746231
0.262265293761357,-0.050485421276092506,15.1008917215347,0.590305422306061
0.262870987280436,-0.594154854869843,-14.144691774559,-0.913766843318939
0.263476680799515,0.148301199817657,-1.3169671651840198,-1.34487035894394
0.264082374318595,0.658440359973907,8.28227111606598,0.990273684024811
0.264688067837674,-0.371418038463592,-5.37173523159027,0.947163332462311
0.265293761356753,0.236916922473907,6.53390685825348,0.106511476993561
0.265899454875833,-0.836051827526093,-6.13814148159027,-0.604809323787689
0.266505148394912,0.0189701451301575,-6.14772155971527,-1.24667455816269
0.267110841913992,1.4200565709114101,15.208667600441,3.63437524652481
0.267716535433071,-0.922272530651093,-5.61123718471527,-1.41193090581894
0.26832222895215,-0.242086983776093,-8.52358093471527,-1.26822973394394
0.26892792247123,0.30876750841140804,8.52895812778473,1.5914235863685602
0.269533615990309,-0.464823800182342,-3.44374450893402,-0.746115476131439
0.270139309509388,0.39019817247390803,2.64679015903473,1.1459499535560602
0.270745003028468,-0.361837960338592,0.723589475440979,-1.28020483160019
0.271350696547547,-0.361837960338592,-12.0897650167465,-0.959272214412689
0.271956390066626,1.33623088731766,13.398032834816,2.25484399652481
0.272562083585706,-0.342677804088592,4.16523254184723,0.757956789493561
0.273167777104785,-1.62880329236984,-14.9158880636215,-2.0609811987876903
0.273773470623864,1.04643352403641,6.77580383090973,0.372358644962311
0.274379164142944,-0.201371651744843,1.26486388950348,0.760351809024811
0.274984857662023,0.28242229356765697,-1.19003113002777,0.113696535587311
0.275590551181102,-0.0600654994010925,5.19748595981598,-0.305431882381439
0.276196244700182,-1.45636188611984,-13.6489227315903,-2.7267966284751903
0.276801938219261,2.06910686388016,6.52672179965973,2.9014992699623097
0.27740763173834,-0.749831124401093,14.413521116066,2.31471948480606
0.27801332525742,-1.44438678846359,-17.037875368309,-3.7638400855064402
0.278619018776499,1.70506389513016,-0.109877321434021,0.298113039493561
0.279224712295578,-0.287592354869843,8.75169494419098,0.132856691837311
0.279830405814658,0.612934988880157,-5.74535827846527,1.29444116449356
0.280436099333737,-0.261247140026093,6.9913555887222305,0.132856691837311
0.281041792852816,-1.1929097376823399,-8.87325378627777,-1.3688205542564398
0.281647486371896,0.830881766223907,-3.53475525112152,0.7340065941810611
0.282253179890975,-0.749831124401093,18.137776487159698,1.60579370355606
0.282858873410055,0.09561077013015751,-11.5149603292465,-0.892211667537689
0.283464566929134,0.706340750598907,-6.08305603237152,-2.07056127691269
0.284070260448213,0.040525320911407495,11.2688604715347,1.1555300316810602
0.284675953967293,0.0692655552864075,-5.88666443080902,0.0466359887123106
0.285281647486372,0.028550223255157502,3.82753478794098,0.825017336368561
0.285887341005451,-0.615710030651093,-1.1445257589340199,-0.956877194881439
0.286493034524531,-0.222926827526093,-10.731788942527801,-1.57479223394394
0.28709872804361,1.0943339146614102,15.651746213722198,3.25596216058731
0.287704421562689,-0.191791573619843,-0.514635622215271,-0.635944577693939
0.288310115081769,-0.764201241588593,-13.387865602684,-2.60465063238144
0.288915808600848,0.00220500841140746,9.29057433872223,1.8476906762123102
0.289521502119927,-0.416923409557342,-1.2810418722152699,-0.130595456600189
0.290127195639007,0.414148367786408,-0.612831422996521,0.726821535587311
0.290732889158086,0.191411551380157,4.63465636997223,-0.530563718318939
0.291338582677165,-0.452848702526092,-13.119623415184,-2.19270727300644
0.291944276196245,0.840461844348907,8.85947082309723,2.46800073480606
0.292549969715324,-0.371418038463592,10.7802764871597,1.9770217308998101
0.293155663234403,-1.5186323939323398,-16.9684198019028,-1.96518041753769
0.293761356753483,1.13025920763016,4.09577697544098,-1.3640305151939398
0.294367050272562,-0.285197335338593,4.84062804965973,1.0908645043373102
0.294972743791641,0.404568289661408,-4.46641784877777,0.214287355899811
0.295578437310721,0.16506633653640698,7.41287902622223,-0.13778051519393902
0.2961841308298,-2.11020221815109,-11.6035760519028,-2.49447973394394
0.296789824348879,2.31818889513016,0.8696856668472289,1.99618188714981
0.297395517867959,-0.531884347057343,18.032395627784698,3.2415920433998098
0.298001211387038,-1.4324116908073399,-15.4140521261215,-3.69677953863144
0.298606904906118,1.47035198106766,-5.06038269252777,0.24063257074356098
0.299212598425197,-0.400158272838592,12.545405881691,0.906448000431061
0.299818291944276,0.644070242786407,-6.32255798549652,0.544800051212311
0.300423985463356,0.0357352818489075,5.08731506137848,0.147226809024811
0.301029678982435,-0.644450265026093,-4.6580194112777695,-1.85261449956894
0.301635372501514,0.275237234973907,-8.27449890346527,0.283742922306061
0.302241066020594,-0.795336495494843,18.7700616434097,3.00927514886856
0.302846759539673,0.0692655552864075,-6.15011657924652,-0.827546140193939
0.303452453058752,0.883572195911407,-12.0011492940903,-2.75553686285019
0.304058146577832,0.172251395130157,12.5310357645035,1.6225588402748101
0.304663840096911,-0.117545968151093,-3.15873718471527,-0.214421140193939
0.30526953361599,0.22494182481765698,0.639763791847229,0.288532961368561
0.30587522713507,-0.704325753307343,3.09226379184723,-0.176100827693939
0.306480920654149,-0.196581612682343,-12.8082708761215,-1.9699704566001899
0.307086614173228,0.802141531848907,12.3011138895035,2.73384790277481
0.307692307692308,0.315952567005158,5.62379943637848,-0.42757787847518897
0.308298001211387,-0.08162067518234249,-16.336134645652802,-1.8214792456626898
0.308903694730466,-0.402553292369842,8.24874084262848,0.7938820824623111
0.309509388249546,-0.596549874401093,2.06240539340973,-0.0228195776939394
0.310115081768625,0.344692801380158,-4.55024353237152,0.848967531681061
0.310720775287704,0.46923381700515804,7.29791808872223,-0.714980222225189
0.311326468806784,-0.996518136119843,-12.305316774559,-1.1532687964439399
0.311932162325863,1.12786418809891,4.34485900669098,1.51238794183731
0.312537855844942,0.332717703723908,15.2038775613785,3.03083032464981
0.313143549364022,-1.80363971815109,-15.9816717550278,-2.85133764410019
0.313749242883101,1.58770793809891,-0.8834686300277711,-0.535353757381439
0.31435493640218,-0.500749093151092,8.62236388950348,0.9136330590248111
0.31496062992126,0.383013113880158,-5.48909118862152,-0.635944577693939
0.315566323440339,0.41893840684890804,6.13633361606598,1.00464380121231
0.316172016959419,-1.8395650111198398,-7.62305359096527,-2.96390356206894
0.316777710478498,2.2367582310676597,-4.52629333705902,1.5962136254310602
0.317383403997577,-1.57132282361984,19.7639947488785,2.2069436058998098
0.317989097516657,-0.486378975963592,-10.6838885519028,-1.87416967535019
0.318594791035736,1.73859416856766,-10.674308473777801,-0.6215744605064389
0.319200484554815,-0.651635323619843,14.085403440284699,-0.26711156988143897
0.319806178073895,0.392593192005158,-5.01487732143402,1.9171462426185601
0.320411871592974,0.196201590442657,2.93179748325348,-1.02393774175644
0.321017565112053,-0.364232979869842,-0.852333376121521,-1.04549291753769
0.321623258631133,0.0501053990364075,-11.462269899559,-0.918556882381439
0.322228952150212,-0.790546456432343,16.894761350441,2.53745630121231
0.322834645669291,0.112375906848907,-0.737372438621521,0.551985109806061
0.323440339188371,1.36736614122391,-15.3853118917465,-3.86203588628769
0.32404603270745,-0.294777413463593,10.8736822488785,2.3195095238685597
0.324651726226529,-0.282802315807343,0.357151487159729,-0.810781003475189
0.325257419745609,0.09800578966140751,-3.17550232143402,0.9327932152748111
0.325863113264688,-0.558229561901093,5.88964660434723,-0.207236081600189
0.326468806783767,-0.000190011119842542,-12.6142742940903,-1.90530492925644
0.327074500302847,0.280027274036407,7.42724914340973,2.40812524652481
0.327680193821926,0.248892020130157,11.024568479347199,-0.0252145972251894
0.328285887341005,0.030945242786407503,-17.066615602684,-1.2945749487876899
0.328891580860085,-0.345072823619842,4.88852844028473,-0.544933835506439
0.329497274379164,-0.613315011119843,5.46812316684723,0.851362551212311
0.330102967898244,0.129141043567657,-6.38722351284027,0.08256128168106061
0.330708661417323,0.991348074817657,7.78889709262848,-0.18328588628768902
0.331314354936402,-1.0084932337760901,-10.2408099386215,-1.4023508276939398
0.331920048455482,0.7159208287239069,-0.385304567527771,0.09214135980606061
0.332525741974561,-0.0576704798698425,17.0719927957535,4.17804468011856
0.33313143549364,-1.4922871790885899,-12.781925661277802,-3.46206762456894
0.33373712901272,1.34102092638016,-5.49148620815277,-0.604809323787689
0.334342822531799,-0.903112374401093,10.7012408426285,1.01901391839981
0.334948516050878,0.325532645130158,-5.05798767299652,-0.343752194881439
0.335554209569958,0.926682547473907,4.15804748325348,1.15792505121231
0.336159903089037,-1.51144733533859,-3.95867370815277,-2.86331274175644
0.336765596608116,1.58052287950516,-8.22899353237152,1.27767602777481
0.337371290127196,-1.03244342908859,19.1891900613785,2.3434597191810598
0.337976983646275,-1.10189899549484,-6.08545105190277,-0.997592526912689
0.338582677165354,1.32665080919266,-13.9578802511215,-2.40586401128769
0.339188370684434,-0.289987374401093,13.1154205301285,1.07649438714981
0.339794064203513,-0.215741768932343,-2.08337341518402,1.29444116449356
0.340399757722592,0.531504324817657,0.37152160434722903,-0.635944577693939
0.341005451241672,-0.172631417369843,1.46604553012848,0.405888918399811
0.341611144760751,-0.0241402064323425,-11.7233270284653,-1.07902319097519
0.34221683827983,-1.2743404017448399,13.5201788309097,3.4044533715248098
0.34282253179891,-0.642055245494843,3.70778381137848,0.288532961368561
0.343428225317989,2.4259647740364096,-17.0714056417465,-2.9854587378501902
0.344033918837068,-0.46721881971359197,8.94329650669098,1.03338403558731
0.344639612356148,-0.757016182994843,3.24315002231598,-0.37967748785018895
0.345245305875227,0.500369070911408,-4.94542175502777,1.30402124261856
0.345850999394306,-0.536674386119843,6.47163635044098,-0.595229245662689
0.346456692913386,-0.12952106580734302,-11.143732301902801,-1.6634079566001898
0.347062386432465,0.22015178575515698,4.39275939731598,1.6345339379310602
0.347668079951545,0.028550223255157502,12.806463010597199,1.01901391839981
0.348273773470624,0.375828055286408,-15.6319989034653,-1.5987424292564398
0.348879466989703,0.172251395130157,1.80853332309723,-0.216816159725189
0.349485160508783,-1.23841510877609,7.1973272684097305,1.13636987543106
0.350090854027862,0.0525004185676575,-6.67223083705902,-0.0300046362876894
0.350696547546941,1.0105082310676599,6.27524474887848,0.152016848087311
0.351302241066021,-0.962987862682343,-7.37636657924652,-2.08014135503769
0.3519079345851,0.684785574817657,-3.35991882534027,0.959138430118561
0.352513628104179,-0.287592354869843,17.3522100809097,3.3373928246498097
0.353119321623259,-0.836051827526093,-9.44326843471527,-2.8465476050376903
0.353725015142338,1.32665080919266,-8.473285524559019,-0.607204343318939
0.354330708661417,-0.666005440807343,10.770696409034699,0.712451418399811
0.354936402180497,-0.19897663221359302,-4.15267029018402,0.08735132074356061
0.355542095699576,1.0105082310676599,2.80007140903473,0.525639894962311
0.356147789218655,-0.5414644251823431,-2.23186462612152,-1.92686010503769
0.356753482737735,1.2188749302864101,-9.22292663784027,0.336433351993561
0.357359176256814,-1.42522663221359,17.5342315652847,2.22849878168106
0.357964869775893,-1.5186323939323398,-2.46178650112152,0.0514260277748106
0.358570563294973,2.3397440709114097,-15.052404176902801,-2.3507785620689403
0.359176256814052,-0.443268624401092,10.6916607645035,0.578330324649811
0.359781950333131,-0.421713448619842,-0.038026735496521,0.966323488712311
0.360387643852211,0.452468680286408,-1.0511199972152698,-0.09706518316268939
0.36099333737129,-0.141496163463593,2.22766174106598,-0.152150632381439
0.361599030890369,0.30876750841140804,-11.0431414815903,-1.7400485816001898
0.362204724409449,-1.54497760877609,10.332407834816,2.46560571527481
0.362810417928528,-0.5031441126823419,6.74706359653473,0.860942629337311
0.363416111447607,2.0906620396614097,-16.0247821065903,-2.97827367925644
0.364021804966687,0.121955984973907,5.87767150669098,0.125671633243561
0.364627498485766,-0.9198775111198431,4.93163879184723,0.779511965274811
0.365233192004846,-0.07443561658859249,-4.66520446987152,0.312483156681061
0.365838885523925,-0.31872760877609196,5.42022277622223,-0.125805417537689
0.366444579043004,0.313557547473908,-9.45763855190277,-1.53168188238144
0.367050272562084,-0.13910114393234302,2.1366509988784803,0.810647219181061
0.367655966081163,-0.639660225963593,13.2878619363785,1.5195730004310601
0.368261659600242,0.943447684192657,-12.8465911886215,-1.3760056128501899
0.368867353119322,0.505159109973908,-1.05830505580902,-0.5233786597251889
0.369473046638401,-1.1929097376823399,7.8559576395034805,0.611860598087311
0.37007874015748,-0.548649483776093,-5.71422302455902,0.0442409691810606
0.37068443367656,1.25959026231766,5.10408019809723,-0.26950658941268896
0.371290127195639,-0.33788776502609197,-5.90342956752777,-1.17242895269394
0.371895820714718,0.713525809192657,-4.59095886440277,0.432234133243561
0.372501514233798,-0.694745675182343,15.764312131691,3.6271901879310597
0.373107207752877,-1.43480671033859,-6.05671081752777,-2.29808813238144
0.373712901271956,1.8607401646614101,-9.21574157924652,-1.01196264410019
0.374318594791036,-0.630080147838593,8.80678039340973,1.01182885980606
0.374924288310115,-0.292382393932343,-2.23186462612152,-0.23837133550643902
0.375529981829194,0.926682547473907,1.4468853738784802,1.2417507348060601
0.376135675348274,-0.18939655408859302,-1.3241522237777699,-1.5939523901939399
0.376741368867353,1.1374442662239101,-8.79900818080902,-0.11622533941268899
0.377347062386432,-1.50905231580734,14.202759397316001,1.79021020746231
0.377952755905512,-1.14500934705734,0.8098101785659789,0.9351882348060611
0.378558449424591,1.79846965684891,-14.1422967550278,-2.5663303198814402
0.379164142943671,0.5961698521614069,7.41287902622223,-0.35812231206893896
0.37976983646275,-0.8408418665885931,1.92828429965973,1.3447365746498101
0.380375529981829,0.397383231067658,-0.464340212059021,-0.611994382381439
0.380981223500909,0.397383231067658,1.53550109653473,0.187942141056061
0.381586917019988,0.0884257115364075,-9.77138611049652,-2.22863256597519
0.382192610539067,-1.12584919080734,8.21042053012848,2.65002221918106
0.382798304058147,-1.74615924940109,7.55418517856598,1.00224878168106
0.383403997577226,2.81156291856766,-13.6345526144028,-2.72919164800644
0.384009691096305,1.01290325059891,2.62283996372223,0.293323000431061
0.384615384615385,-1.52342243299484,5.64774963169098,-0.554513913631439
0.385221078134464,-0.278012276744843,-3.72875183315277,1.5914235863685602
0.385826771653543,-0.234901925182343,4.51251037387848,-0.295851804256439
0.386432465172623,0.406963309192658,-7.94398620815277,-1.3927707495689399
0.387038158691702,-0.371418038463592,0.5894683816909789,0.583120363712311
0.387643852210781,-0.663610421276093,12.166992795753501,1.3615017113685601
0.388249545729861,1.13983928575516,-9.93424743862152,-0.7221652808189389
0.38885523924894,0.792561453723907,-2.08576843471527,-1.3472653784751898
0.389460932768019,-1.54497760877609,5.98784240512848,0.880102785587311
0.390066626287099,-0.891137276744843,-3.59463073940277,-0.250346433162689
0.390672319806178,1.21647991075516,4.02632140903473,-0.25992651128768895
0.391278013325257,0.114770926380157,-4.96697693080902,-1.51970678472519
0.391883706844337,0.828486746692657,-4.28679138393402,0.24063257074356098
0.392489400363416,-1.36535114393234,12.6292315652847,3.01646020746231
0.393095093882495,-0.613315011119843,-2.86175476284027,-1.49815160894394
0.393700787401575,1.59728801622391,-8.86367370815277,-0.482663327693939
0.394306480920654,-0.41931842908859196,5.93036193637848,-0.509008542537689
0.394912174439733,-0.699535714244843,-0.560140993309021,0.817832277774811
0.395517867958813,0.210571707630157,1.74865783481598,0.367568605899811
0.396123561477892,0.823696707630157,-2.1743841573715197,-1.23230444097519
0.396729254996972,0.531504324817657,-7.58712829799652,-0.947297116756439
0.397334948516051,-1.53779255018234,12.2843487527847,0.877707766056061
0.39794064203513,-2.04553669080734,1.4037750223159802,1.9291213402748102
0.39854633555421,1.71703899278641,-11.1485223409653,-2.9495334448814403
0.399152029073289,1.26677532091141,3.71736388950348,0.556775148868561
0.399757722592368,-1.29829059705734,2.84557678012848,0.690896242618561
0.400363416111448,-0.0217451869010925,0.881660764503479,-0.13299047613143902
0.400969109630527,0.27284221544265697,-0.205678102684021,0.765141848087311
0.401574803149606,0.277632254505157,-7.7715448019027695,-1.33529028081894
0.402180496668686,-1.33182087049484,6.56983215122223,3.0715456566810597
0.402786190187765,-2.6993770228385903,6.93627013950348,0.437024172306061
0.403391883706844,2.79958782091141,-9.96777771205902,-2.1280417456626903
0.403997577225924,1.7625443638801601,0.412236936378479,0.111301516056061
0.404603270745003,-1.3390059290885898,4.51251037387848,-0.566489011287689
0.405208964264082,-0.792941475963593,-1.18045105190277,1.59860864496231
0.405814657783162,-0.172631417369843,2.90545226840973,-0.717375241756439
0.406420351302241,0.864412039661407,-7.1129144308090195,-0.8012009253501889
0.40702604482132,-0.558229561901093,1.0445220926284802,0.28134790277481103
0.4076317383404,-1.2192549525260898,9.83424377231598,1.41898218011856
0.408237431859479,0.7566361607551569,-6.9596331808090195,-0.0300046362876894
0.408843125378558,1.54459758653641,-2.63901794643402,-1.69454321050644
0.409448818897638,-1.2360200892448399,3.18327453403473,0.801067141056061
0.410054512416717,-1.37493122205734,-0.773297731590271,-0.444343015193939
0.410660205935796,1.0105082310676599,2.93419250278473,0.504084719181061
0.411265899454876,0.699155692005157,-5.20887390346527,-1.5173117651939398
0.411871592973955,0.749451102161407,-2.69649841518402,0.42025903558731104
0.412477286493035,-1.5737178431510899,10.4737139871597,2.77935327386856
0.413082980012114,-1.0084932337760901,-1.97320251674652,-1.23709448003769
0.413688673531193,1.36497112169266,-7.08177917690277,-0.276691648006439
0.414294367050273,-0.213346749401093,3.02041320590973,-0.976037351131439
0.414900060569352,-0.6803755579948431,0.579888303565979,1.0788894066810601
0.415505754088431,0.102795828723907,2.63481506137848,0.33882837152481105
0.416111447607511,0.9961381138801569,-3.71677673549652,-0.988012448787689
0.41671714112659,0.9961381138801569,-5.66871765346527,-0.17849584722518902
0.417322834645669,-1.4204365931510898,10.399468381691,0.772326906681061
0.417928528164749,-2.83110309705734,1.25528381137848,2.04408227777481
0.418534221683828,1.7625443638801601,-7.86974060268402,-2.11367162847519
0.419139915202907,2.2271781529426598,0.584678342628479,-0.394047605037689
0.419745608721987,-1.32463581190109,2.7354058816909803,-0.559303952693939
0.420351302241066,-0.117545968151093,2.7880963113784802,0.748376711368561
0.420956995760145,0.588984793567657,-2.02349792690277,0.559170168399811
0.421562689279225,0.653650320911407,-6.25310241909027,-1.75920873785019
0.422168382798304,-1.26955036268234,5.93515197544098,2.2428688988685597
0.422774076317383,-2.7999678431510904,5.57110900669098,0.266977785587311
0.423379769836463,2.82114299669266,-7.19434509487152,-0.669474851131439
0.423985463355542,1.98767619981766,-0.871493532371521,-1.03591283941269
0.424591156874621,-0.991728097057343,2.99885803012848,-0.0323996558189394
0.425196850393701,-1.1545894251823399,1.5570562723159802,0.999853762149811
0.42580254391278,-0.402553292369842,0.682874143409729,-0.626364499568939
0.426408237431859,1.45598186388016,-6.43033386440277,-0.018029538631439402
0.427013930950939,-0.285197335338593,2.28514220981598,-0.40841772222518896
0.427619624470018,-1.6335933314323399,6.85244445590973,1.41419214105606
0.428225317989098,0.830881766223907,-4.08081970424652,0.197522219181061
0.428831011508177,2.03078655138016,-2.46657654018402,-1.2658347144126898
0.429436705027256,-0.905507393932343,1.0397320535659802,0.362778566837311
0.430042398546336,-1.86112018690109,1.2936041238784801,-0.101855222225189
0.430648092065415,0.612934988880157,1.17864318637848,-0.0371896948814394
0.431253785584494,1.24282512559891,-5.39568542690277,-0.846706296443939
0.431859479103574,0.871597098255157,-0.021261598777771,0.504084719181061
0.432465172622653,-1.32463581190109,7.16379699497223,2.21412866449356
0.433070866141732,-1.62161823377609,-1.5804193136215199,-0.616784421443939
0.433676559660812,1.7026688755989101,-3.92993347377777,-0.475478269100189
0.434282253179891,0.5362943638801569,-0.375724489402771,-0.334172116756439
0.43488794669897,-1.03004840955734,1.94983947544098,-0.0347946753501894
0.43549364021805,-0.40734333143234197,3.5497125223159802,0.211892336368561
0.436099333737129,1.35778606309891,-5.83157898159027,-0.937717038631439
0.436705027256208,1.0560136021614102,-2.83780456752777,-0.7413254370689389
0.437310720775288,-1.7365791712760899,8.01402892856598,1.57226343011856
0.437916414294367,-2.7329072962760903,1.36305969028473,1.53394311761856
0.438522107813446,1.35060100450516,-4.92147155971527,-1.43827612066269
0.439127801332526,2.40440959825516,-2.42586120815277,-1.1891940894126898
0.439733494851605,-0.792941475963593,2.55338439731598,-0.28866674566268896
0.440339188370684,-0.967777901744843,4.58675597934723,0.961533449649811
0.440944881889764,0.677600516223907,-3.39344909877777,-0.15933569097518901
0.441550575408843,1.10870403184891,-5.41484558315277,-1.13410864019394
0.442156268927922,-1.03244342908859,5.51123351840973,1.2752810082435602
0.442761962447002,-3.0059395228385903,3.17608947544098,0.877707766056061
0.443367655966081,1.84637004747391,-4.27960632534027,-0.846706296443939
0.44397334948516,3.17560588731766,-2.08576843471527,-0.746115476131439
0.44457904300424,-1.12345417127609,1.6313018777847301,-0.204841062068939
0.445184736523319,-1.49468219861984,3.65509338169098,0.916028078556061
0.445790430042399,-0.31872760877609196,-0.732582399559021,-0.252741452693939
0.446396123561478,1.34102092638016,-5.71661804409027,-1.0718381323814399
0.447001817080557,0.256077078723907,2.17497131137848,0.5543801293373111
0.447607510599637,-1.80842975721359,5.64774963169098,1.0956545433998102
0.448213204118716,0.404568289661408,-2.21030945034027,0.07537622308731061
0.448818897637795,2.02360149278641,-3.22819275112152,-1.2275144019126898
0.449424591156875,-0.613315011119843,-0.284713747215271,-0.195260983943939
0.450030284675954,-2.21797809705734,2.92940246372223,0.750771730899811
0.450635978195033,0.442888602161408,1.68399230747223,0.08495630121231061
0.451241671714113,1.48232707872391,-5.66153259487152,-1.21074926519394
0.451847365233192,1.18773967638016,-0.236813356590271,-0.22879125738143902
0.452453058752271,-1.88267536268234,5.89683166294098,1.84529565668106
0.453058752271351,-1.85872516736984,0.6517388895034789,0.22147241449356098
0.45366444579043,1.4416117466926601,-3.29525329799652,-0.0635349097251894
0.454270139309509,0.588984793567657,-2.11690368862152,-1.24667455816269
0.454875832828589,-0.974962960338593,2.11749084262848,0.223867434024811
0.455481526347668,-1.02765339002609,3.6862286355972302,0.128066652774811
0.456087219866747,1.47035198106766,-5.27832946987152,-0.382072507381439
0.456692913385827,1.03685344591141,-2.97911071987152,-0.49942846441268895
0.457298606904906,-0.855211983776093,7.26917785434723,0.956743410587311
0.457904300423985,-3.3412422572135902,1.2576788309097302,2.23568384027481
0.458509993943065,0.739871024036407,-3.4485345479965197,-1.8597995581626898
0.459115687462144,3.20674114122391,-3.7814422628402697,-0.350937253475189
0.459721380981224,-0.998913155651093,2.19413146762848,-0.609599362850189
0.460327074500303,-1.09231891736984,5.81540099887848,1.3471315941810602
0.460932768019382,0.37103801622390803,-4.30595154018402,0.13046167230606098
0.461538461538462,1.2236649693489101,-4.92865661830902,-1.99871069097519
0.462144155057541,-0.618105050182343,4.99869933872223,2.34824975824356
0.46274984857662,-3.61666950330734,2.96053771762848,-0.018029538631439402
0.4633555420957,1.50867229356766,-2.26299988002777,0.0107106957435606
0.463961235614779,3.4941434849739097,-2.77553405971527,-0.865866452693939
0.464566929133858,-0.558229561901093,0.017058713722229002,-1.3544504370689399
0.465172622652938,-2.00721637830734,4.63705138950348,1.8093703637123102
0.465778316172017,-1.0084932337760901,-0.200888063621521,-1.00717260503769
0.466384009691096,1.64039836778641,-5.89863952846527,0.250212648868561
0.466989703210176,0.557849539661407,2.74977599887848,0.422654055118561
0.467595396729255,-2.04553669080734,3.6862286355972302,0.283742922306061
0.468201090248334,-0.630080147838593,-1.48940857143402,0.5136647973060611
0.468806783767414,2.5433207310676598,-1.3888177511215198,-0.6239694800376889
0.469412477286493,-0.10317585096359301,-2.34922058315277,0.025080812931060598
0.470018170805572,-2.5532808314323403,3.65269836215973,-0.212026120662689
0.470623864324652,-0.07922565565109249,1.50915588169098,0.5136647973060611
0.471229557843731,1.41766155138016,-6.35608825893402,-1.23230444097519
0.47183525136281,1.79128459825516,0.6732940652847289,0.348408449649811
0.47244094488189,-1.87070026502609,5.1615606668472305,1.4644875512123101
0.473046638400969,-2.0838570033073402,0.24458556919097899,0.19991723871231099
0.473652331920048,1.49190715684891,-1.89895691127777,0.798672121524811
0.474258025439128,0.998533133411407,-3.27130310268402,-1.98913061285019
0.474863718958207,-0.879162179088593,1.15708801059723,0.662156008243561
0.475469412477286,-1.13063922986984,5.36513732700348,0.0322658715248106
0.476075105996366,1.28593547716141,-6.01360046596527,-0.532958737850189
0.476680799515445,1.5134623326301602,-2.61267273159027,-0.13778051519393902
0.477286493034525,-0.361837960338592,6.95543029575348,0.7555617699623111
0.477892186553604,-3.77953083143234,-0.145802614402771,1.8405056176185601
0.478497880072683,0.502764090442658,-0.818803102684021,-1.43348608160019
0.479103573591763,3.44863811388016,-4.1191400167465195,-0.26711156988143897
0.479709267110842,-0.273222237682343,0.115254514503479,-1.41193090581894
0.480314960629921,-1.50426227674484,7.15900695590973,1.4980178246498101
0.480920654149001,0.09561077013015751,-4.31553161830902,-0.209631101131439
0.48152634766808,1.84397502794266,-5.20647888393402,-1.4742014136314399
0.482132041187159,-0.871977120494843,5.57350402622223,1.8357155785560602
0.482737734706239,-3.17119587049484,1.48281066684723,0.33164331293106103
0.483343428225318,0.342297781848908,-1.4055828878402699,0.36038354730606104
0.483949121744397,3.96835735216141,-1.73849060268402,-0.9808273901939389
0.484554815263477,0.284817313098907,-2.20551941127777,-0.894606687068939
0.485160508782556,-2.6131563197135903,5.94233703403473,0.9327932152748111
0.485766202301635,-0.713905831432343,0.055379026222229004,-0.240766355037689
0.486371895820715,1.1757645787239102,-6.93089294643402,-0.312616940975189
0.486977589339794,1.4200565709114101,3.4970220926284803,0.266977785587311
0.487583282858873,-2.09822712049484,3.27907531528473,0.820227297306061
0.488188976377953,-1.31505573377609,-0.952924196434021,0.24063257074356098
0.488794669897032,2.9720292271614097,-0.500265505027771,-0.413207761287689
0.489400363416111,0.22015178575515698,-3.86287292690277,-0.5425388159751889
0.490006056935191,-2.3736543665885903,3.39164123325348,0.06340112543106059
0.49061175045427,-1.13542926893234,2.74977599887848,0.8345974144935611
0.491217443973349,1.50867229356766,-6.46386413784027,-1.7879489722251898
0.491823137492429,2.20801799669266,0.397866819190979,0.456184328556061
0.492428831011508,-1.66233356580734,4.85260314731598,0.748376711368561
0.493034524530587,-2.59878620252609,-0.35895935268402096,0.346013430118561
0.493640218049667,0.953027762317657,0.014663694190979,0.302903078556061
0.494245911568746,2.1170072545051597,-3.89400818080902,-1.5292868628501899
0.494851605087826,-1.15698444471359,-0.047606813621521,0.0993264183998106
0.495457298606905,-1.81561481580734,6.68479308872223,-0.420392819881439
0.496062992125984,1.41287151231766,-6.76324157924652,0.27176782464981103
0.496668685645064,1.88708537950516,-1.95643738002777,-1.2490695776939398
0.497274379164143,-0.658820382213593,7.00812072544098,1.2968361840248102
0.497880072683222,-3.94478717908859,-1.2690667745590198,1.8572707543373101
0.498485766202302,0.581799734973907,0.577493284034729,-0.779645749568939
0.499091459721381,3.08938518419266,-3.7550970479965198,-0.758090573787689
0.49969715324046,0.598564871692657,-2.06660827846527,-1.73286352300644
0.50030284675954,-1.53779255018234,8.28227111606598,2.61649194574356
0.500908540278619,-0.565414620494843,-3.17550232143402,-1.2514645972251899
0.501514233797698,2.19125285997391,-6.8398822042465195,-0.753300534725189
0.502119927316778,-0.11515094861984301,6.22973937778473,2.25723901605606
0.502725620835857,-3.4681782923698403,1.00141174106598,-0.149755612850189
0.503331314354936,-1.03004840955734,-1.1373407003402698,0.968718508243561
0.503937007874016,4.27491985216141,0.158364866065979,-1.73286352300644
0.504542701393095,1.55896770372391,-4.71549988002777,-0.877841550350189
0.505148394912174,-3.08976520643234,6.57462219028473,0.750771730899811
0.505754088431254,-1.53779255018234,1.07326232700348,0.286137941837311
0.506359781950333,1.95175090684891,-7.72364441127777,-0.47787328863143896
0.506965475469413,1.22126994981766,4.61549621372223,0.0418459496498106
0.507571168988492,-1.6767036829948399,1.9091241434097301,0.465764406681061
0.508176862507571,-1.4970772181510899,-1.72891052455902,0.0298708519935606
0.50878255602665,2.6989970005989097,1.59058654575348,0.144831789493561
0.50938824954573,1.19252971544266,-4.74903015346527,-0.576069089412689
0.509993943064809,-2.24911335096359,2.92221740512848,-0.0515598120689394
0.510599636583889,-1.27673542127609,3.95447082309723,0.944768312931061
0.511205330102968,1.43442668809891,-7.90327087612152,-1.39037573003769
0.511811023622047,2.6654667271614096,1.0493121316909801,0.264582766056061
0.512416717141127,-1.32703083143234,5.30526183872223,0.8537575707435611
0.513022410660206,-2.85026325330734,-1.87740173549652,0.645390871524811
0.513628104179285,0.885967215442657,1.7726080301284801,0.865732668399811
0.514233797698365,1.92301067247391,-3.7646771261215197,-2.46573949956894
0.514839491217444,-0.412133370494842,-2.35640564174652,0.09214135980606061
0.515445184736523,-1.9114155970573399,8.42357726840973,0.35080346918106103
0.516050878255603,0.507554129505158,-6.09982116909027,-0.714980222225189
0.516656571774682,1.9972562779426601,-3.82215759487152,-0.362912351131439
0.517262265293761,0.438098563098908,7.85835265903473,1.6896193871498102
0.517867958812841,-4.1411787806510905,-2.01631286830902,1.02859399652481
0.51847365233192,-1.44917682752609,0.9056109598159789,-0.475478269100189
0.519079345850999,3.6474247349739097,-1.80555114955902,0.0945363793373106
0.519685039370079,1.42484660997391,-4.32032165737152,-1.70412328863144
0.520290732889158,-2.0335615931510898,8.74929992465973,1.8093703637123102
0.520896426408237,-0.912692452526093,-2.0115228292465197,-0.9616672339439389
0.521502119927317,2.3038187779426598,-7.97033142299652,-1.17721899175644
0.522107813446396,0.117165945911407,7.64280090122223,1.5531032738685602
0.522713506965475,-3.53523883924484,-0.00449646205902099,0.42983911371231104
0.523319200484555,-1.6000630579948398,-1.5037786886215199,0.44899926996231104
0.523924894003634,4.23899455919266,2.07438049106598,-0.827546140193939
0.524530587522714,2.13856243028641,-6.35369323940277,-1.14368871831894
0.525136281041793,-2.85744831190109,5.81061095981598,1.0788894066810601
0.525741974560872,-2.04793171033859,3.4371466043472303,0.243027590274811
0.526347668079951,0.8763871373176569,-9.79533630580902,-1.3424753394126898
0.526953361599031,1.95175090684891,4.43826476840973,0.45857934808731105
0.52755905511811,-1.62880329236984,3.32937072544098,0.453789309024811
0.52816474863719,-2.66824176893234,-3.0030609151840197,-0.413207761287689
0.528770442156269,2.6654667271614096,3.58803283481598,0.276557863712311
0.529376135675348,1.7745194615364102,-5.42682068080902,-0.41799780035018896
0.529981829194428,-2.35928424940109,1.16187804965973,-0.5425388159751889
0.530587522713507,-2.14852253065109,6.23213439731598,1.1339748558998102
0.531193216232586,1.25001018419266,-8.95468445034027,-1.28020483160019
0.531798909751666,3.0079545201301596,0.167944944190979,0.156806887149811
0.532404603270745,-0.704325753307343,6.95543029575348,0.7148464379310611
0.533010296789824,-3.30771198377609,-3.4389544698715198,0.604675539493561
0.533615990308904,0.0333402623176575,2.76654113559723,0.34122339105606103
0.534221683827983,2.85467327013016,-2.47136657924652,-1.31852514410019
0.534827377347062,-0.043300362682342504,-4.62688415737152,-0.190470944881439
0.535433070866142,-2.24192829236984,9.53486633090973,0.353198488712311
0.536038764385221,0.35906291856765804,-5.48669616909027,-0.772460690975189
0.5366444579043,2.4858402623176596,-5.75493835659027,-0.853891355037689
0.53725015142338,0.902732352161407,9.86058898715973,2.42728540277481
0.537855844942459,-4.43576618299484,-3.47966980190277,0.7148464379310611
0.538461538461538,-1.3174507533073399,0.383496702003479,-0.976037351131439
0.539067231980618,3.35283733263016,1.00620178012848,0.432234133243561
0.539672925499697,2.3301639927864097,-6.74887146205902,-1.9795505347251898
0.540278619018776,-1.29350055799484,8.26311095981598,1.83811059808731
0.540884312537856,-1.69107380018234,0.536777952003479,-1.0933933081626899
0.541490006056935,2.4762601841926597,-9.98454284877777,-1.15566381597519
0.542095699576015,0.521924246692657,8.16491515903473,1.8309255394935602
0.542701393095094,-3.2190962611198404,0.6708990457534789,-0.24316137456893902
0.543307086614173,-2.21318805799484,-3.6952215597152698,0.444209230899811
0.543912780133253,3.8605814732551598,4.61310119419098,-0.688635007381439
0.544518473652332,3.5468339146614096,-7.03148376674652,-0.705400144100189
0.545124167171411,-3.2023311244010904,4.30174865512848,0.197522219181061
0.545729860690491,-2.34970417127609,5.34837219028473,0.563960207462311
0.54633555420957,0.842856863880157,-10.583297731590301,-1.00477758550644
0.546941247728649,2.1696976841926596,4.66818664340973,0.353198488712311
0.547546941247729,-0.977357979869843,3.59282287387848,1.08846948480606
0.548152634766808,-3.19035602674484,-5.30706970424652,-0.492243405818939
0.548758328285887,2.60798625841141,5.51602355747223,0.705266359806061
0.549364021804967,2.0499467076301596,-4.71310486049652,-1.1245285620689398
0.549969715324046,-1.23841510877609,-1.08704529018402,-0.413207761287689
0.550575408843125,-2.63710651502609,7.77452697544098,1.65369409418106
0.551181102362205,0.727895926380157,-8.62417175502777,-1.79273901128769
0.551786795881284,3.41989787950516,-1.41755798549652,1.5531032738685602
0.552392489400363,-0.766596261119843,8.46189758090973,0.42025903558731104
0.552998182919443,-3.35561237440109,-4.62209411830902,0.31008813714981104
0.553603876438522,-0.776176339244843,2.68750549106598,1.1507399926185602
0.554209569957601,3.2115311802864097,-0.641571657371521,-1.55323705816269
0.554815263476681,0.830881766223907,-6.84467224330902,-0.5616989722251889
0.55542095699576,-2.25629840955734,10.2485821512222,-0.11622533941268899
0.556026650514839,-0.567809640026093,-4.52389831752777,0.19033716058731098
0.556632344033919,2.4762601841926597,-6.38722351284027,-1.6107175269126899
0.557238037552998,1.6380033482551601,10.1551763895035,2.7386379418373097
0.557843731072078,-4.44295124158859,-3.40781921596527,-0.353332273006439
0.558449424591157,-2.07667194471359,-0.6056463644027711,-0.9832224097251889
0.559055118110236,3.44624309434891,2.98927795200348,1.05972925043106
0.559660811629316,2.44033489122391,-7.48653747768402,-3.01419897222519
0.560266505148395,-1.5138423548698399,6.53630187778473,2.67636743402481
0.560872198667474,-2.15331256971359,2.83360168247223,-1.43827612066269
0.561477892186554,2.23436321153641,-11.261088258934,-0.729350339412689
0.562083585705633,1.09672893419266,8.54572326450348,1.84529565668106
0.562689279224712,-3.1185054408073403,1.91870422153473,-0.616784421443939
0.563294972743792,-2.8622383509635902,-6.08066101284027,1.30641626214981
0.563900666262871,3.3672074498176596,7.00333068637848,-1.12692358160019
0.56450635978195,3.97554241075516,-7.4122918722152695,-0.940112058162689
0.56511205330103,-2.11259723768234,1.8660137918472302,-0.25513647222518904
0.565717746820109,-3.0322847376823403,8.35891174106598,1.19624536371231
0.566323440339188,0.17943645372390699,-11.893373415184,-0.928136960506439
0.566929133858268,2.79000774278641,2.9677227762222302,0.36996362543106104
0.567534827377347,-0.886347237682343,6.36386047153473,1.04296411371231
0.568140520896426,-3.4346480189323403,-6.28663269252777,-1.3328952612876899
0.568746214415506,1.5996830357551601,4.88134338169098,1.54591821527481
0.569351907934585,2.84988323106766,-2.8665448019027697,-1.0981833472251898
0.569957601453664,-1.24799518690109,-3.81257751674652,-0.41799780035018896
0.570563294972744,-3.15682575330734,9.37919006137848,0.789092043399811
0.571168988491823,0.727895926380157,-8.00386169643402,-1.34008031988144
0.571774682010902,3.6833500279426596,-3.64732116909027,0.0514260277748106
0.572380375529982,0.366247977161408,10.725191037941,0.561565187931061
0.572986069049061,-3.9304170619010903,-5.71901306362152,0.858547609806061
0.57359176256814,-0.831261788463593,1.9378643777847302,-0.0443747534751894
0.57419745608722,2.9289188755989097,2.21089660434723,-0.492243405818939
0.574803149606299,1.03685344591141,-8.15714294643402,-0.829941159725189
0.575408843125379,-1.56174274549484,9.32170959262848,1.0693093285560602
0.576014536644458,-1.28871051893234,-2.3540106222152697,-0.853891355037689
0.576620230163537,3.06064494981766,-9.03851013393402,-1.16045385503769
0.577225923682617,1.70985393419266,11.2976007059097,2.83922876214981
0.577831617201696,-4.335175362682341,-2.19593933315277,-1.4239060034751898
0.578437310720775,-2.12936237440109,-3.21861267299652,0.41067895746231103
0.579043004239855,2.02360149278641,5.76989562778473,0.44899926996231104
0.579648697758934,4.27252483263016,-8.59782654018402,-2.71242651128769
0.580254391278013,-1.2575752650260899,4.74482726840973,1.49083276605606
0.580860084797093,-3.20712116346359,5.84893127231598,-1.8717746558189399
0.581465778316172,2.5624808873176597,-13.083698122215301,0.334038332462311
0.582071471835251,0.965002859973907,8.24634582309723,1.15792505121231
0.582677165354331,-2.23234821424484,3.07310363559723,0.551985109806061
0.58328285887341,-3.38674762830734,-7.80268005580902,0.24063257074356098
0.583888552392489,2.3900394810676597,8.28706115512848,-0.832336179256439
0.584494245911569,5.00300578966141,-6.3944085714340195,-0.360517331600189
0.585099939430648,-1.54976764783859,-0.21765320034027102,-0.918556882381439
0.585705632949727,-3.66935993299484,9.30015441684723,1.6728542504310602
0.586311326468807,0.200991629505157,-10.8467498800278,-1.97236547613144
0.586917019987886,2.9384989537239097,1.9977398660659802,0.8753127465248111
0.587522713506965,-0.0864107142448425,7.29791808872223,1.4764626488685602
0.588128407026045,-3.59032428846359,-8.24096863002777,-1.3688205542564398
0.588734100545124,0.991348074817657,5.59984924106598,1.22259057855606
0.589339794064203,3.1516556920051597,-1.08225525112152,-0.595229245662689
0.589945487583283,-0.366627999401092,-5.46753601284027,-0.885026608943939
0.590551181102362,-3.0921602259635903,10.0042901590347,1.1507399926185602
0.591156874621442,-0.0337202845573425,-7.70687927455902,-1.3041550269126898
0.591762568140521,3.91566692247391,-4.44965271205902,-0.10904028081893899
0.5923682616596,0.639280203723907,11.958626096534699,1.0405690941810601
0.59297395517868,-3.59271930799484,-6.12856140346527,-0.226396237850189
0.593579648697759,-1.36535114393234,0.860105588722229,0.173572023868561
0.594185342216838,2.67983684434891,3.71496886997223,-0.0755100073814394
0.594791035735918,1.8224198521614101,-8.96426452846527,-0.966457273006439
0.595396729254997,-1.81082477674484,8.12659484653473,1.1722951683998102
0.596002422774076,-1.70065387830734,-0.402069704246521,-1.2275144019126898
0.596608116293156,2.4834452427864098,-10.2312298604965,-1.3688205542564398
0.597213809812235,2.35171916856766,11.6688287332535,3.04759546136856
0.597819503331314,-3.9831074915885902,-1.73370056362152,-0.8012009253501889
0.598425196850394,-2.79757282361984,-5.28551452846527,-0.12341039800643899
0.599030890369473,2.1505375279426597,8.20563049106598,1.1890603051185602
0.599636583888552,3.45821819200516,-8.25054870815277,-2.27653295660019
0.600242277407632,-0.416923409557342,2.44800353794098,0.528034914493561
0.600847970926711,-3.17359089002609,7.19253722934723,-0.5425388159751889
0.60145366444579,1.8343949498176602,-12.968737184715302,-0.221606198787689
0.60205935796487,1.36976116075516,7.56616027622223,1.39742700433731
0.602665051483949,-2.64429157361984,4.62986633090973,0.353198488712311
0.603270745003028,-3.03707477674484,-9.88155700893402,-0.221606198787689
0.603876438522108,1.1374442662239101,8.48824279575348,-0.0323996558189394
0.604482132041187,5.46763957872391,-4.48318298549652,-0.544933835506439
0.605087825560267,-0.572599679088593,-2.94079040737152,-0.885026608943939
0.605693519079346,-3.7603706751823402,10.6078350809097,1.2537258324623102
0.606299212598425,-0.182211495494843,-10.5377923604965,-1.20356420660019
0.606904906117504,2.55769084825516,0.19189513950347897,0.49929468011856104
0.607510599636584,0.27284221544265697,9.23788390903473,1.8357155785560602
0.608116293155663,-3.4609932337760902,-8.22659851284027,-1.8118991675376899
0.608721986674743,0.287212332630157,4.56041076450348,0.858547609806061
0.609327680193822,3.16363078966141,0.246980588722229,-0.350937253475189
0.609933373712901,0.145906180286407,-7.18476501674652,-1.14368871831894
0.610539067231981,-3.38674762830734,9.80310851840973,1.5866335473060602
0.61114476075106,-0.630080147838593,-6.00881042690277,-0.820361081600189
0.611750454270139,3.67137493028641,-5.90821960659027,0.09214135980606061
0.612356147789219,1.29312053575516,12.737007444191,1.0740993676185602
0.612961841308298,-3.78911090955734,-6.52134460659027,0.374753664493561
0.613567534827377,-1.98566120252609,-0.5266107198715211,-0.5832541480064389
0.614173228346457,2.32537395372391,5.99023742465973,0.348408449649811
0.614778921865536,2.2199930943489097,-9.27801208705902,-0.791620847225189
0.615384615384615,-1.21685993299484,6.71113830356598,0.288532961368561
0.615990308903695,-2.22995319471359,0.5271978738784789,-0.434762937068939
0.616596002422774,2.51458049669266,-10.657543337059,-0.868261472225189
0.617201695941853,2.44751994981766,11.6424835184097,3.17213647699356
0.617807389460933,-3.8537764369010903,-0.663126833152771,-0.815571042537689
0.618413082980012,-2.99156940565109,-6.96442321987152,-0.235976315975189
0.619018776499091,1.39131633653641,8.48584777622223,1.7494948754310602
0.619624470018171,4.25815471544266,-7.12967956752777,-2.5902805151939403
0.62023016353725,0.0525004185676575,0.7475396707534789,0.561565187931061
0.620835857056329,-3.41309284315109,8.51937804965973,-0.125805417537689
0.621441550575409,1.79128459825516,-12.8178509542465,-0.865866452693939
0.622047244094488,1.46795696153641,6.1530987527847305,1.3734768090248102
0.622652937613568,-1.98087116346359,5.98784240512848,0.302903078556061
0.623258631132647,-3.11371540174484,-11.4263446065903,-0.09467016363143939
0.623864324651726,0.550664481067657,8.770855100440981,0.322063234806061
0.624470018170806,5.41973918809891,-2.33006042690277,-0.37967748785018895
0.625075711689885,0.423728445911408,-5.48909118862152,-1.31373510503769
0.625681405208964,-4.062143136119841,10.7084259012222,1.01182885980606
0.626287098728044,-1.28631549940109,-9.11515075893402,-1.5268918433189398
0.626892792247123,2.97921428575516,-1.02716980190277,0.437024172306061
0.627498485766202,0.694365652942657,10.3683331277847,2.10156274652481
0.628104179285282,-3.1089253626823403,-8.96186950893402,-2.56154028081894
0.628709872804361,-0.170236397838593,3.05633849887848,0.858547609806061
0.62931556632344,3.25703655138016,3.0443634012222303,0.214287355899811
0.62992125984252,0.780586356067657,-8.36311462612152,-1.0981833472251898
0.630526953361599,-3.41548786268234,8.94090148715973,0.844177492618561
0.631132646880678,-1.05399860486984,-3.6353460714340198,-1.99871069097519
0.631738340399758,3.68574504747391,-7.43145202846527,0.06819116449356061
0.632344033918837,1.85355510606766,12.1095123270035,1.5866335473060602
0.632949727437916,-3.71486530408859,-5.31425476284027,-0.0635349097251894
0.633555420956996,-2.1173872767448403,-1.66424499721527,0.08495630121231061
0.634161114476075,2.0379716099739102,7.02488586215973,0.173572023868561
0.634766807995154,2.56487590684891,-8.94031433315277,-1.1915891089439399
0.635372501514234,-0.733065987682343,4.81907287387848,0.616650637149811
0.635978195033313,-2.9125337611198403,1.92828429965973,-1.0981833472251898
0.636583888552392,2.51218547716141,-10.7964544698715,-0.846706296443939
0.637189582071472,2.85706828966141,11.0580987527847,2.65002221918106
0.637795275590551,-2.99396442518234,0.5056426980972291,-0.889816648006439
0.638400969109631,-3.16401081190109,-8.45891540737152,-0.370097409725189
0.63900666262871,0.129141043567657,9.33128967075348,1.20822046136856
0.639612356147789,4.50963176622391,-5.62321228237152,-1.3424753394126898
0.640218049666869,0.711130789661407,-1.38642273159027,0.187942141056061
0.640823743185948,-3.60948444471359,9.00796203403473,-0.614389401912689
0.641429436705027,1.04882854356766,-12.1209002706528,0.348408449649811
0.642035130224107,2.18885784044266,4.93163879184723,1.47406762933731
0.642640823743186,-1.50186725721359,7.17816711215973,0.482529543399811
0.643246517262265,-3.36758747205734,-11.5245404073715,-0.0826950659751894
0.643852210781345,0.0740555943489075,8.00923888950348,-0.125805417537689
0.644457904300424,4.86888469591141,-0.8643084737777711,-0.0635349097251894
0.645063597819503,1.4966971959114101,-6.15969665737152,-1.45025121831894
0.645669291338583,-4.07411823377609,10.169546506691,1.0261989769935602
0.646274984857662,-1.48510212049484,-7.72603943080902,-1.5005466284751898
0.646880678376741,2.8618583287239097,-2.74918884487152,0.475344484806061
0.647486371895821,1.09193889513016,11.460462034034698,1.65848413324356
0.6480920654149,-2.9221138392448402,-8.53795105190277,-1.96518041753769
0.648697758933979,-1.44678180799484,1.0157818582534799,0.700476320743561
0.649303452453059,3.0654349888801598,5.08013000278473,0.152016848087311
0.649909145972138,1.52543743028641,-8.74871277065277,-0.6814499487876889
0.650514839491217,-3.31968708143234,7.98049865512848,0.178362062931061
0.651120533010297,-1.7581343470573398,-2.21270446987152,-1.15087377691269
0.651726226529376,3.11573039903641,-9.15826111049652,-0.8227561011314389
0.652331920048455,2.6055912388801596,12.612466428566,1.6728542504310602
0.652937613567535,-3.26699665174484,-2.9862957784652697,0.372358644962311
0.653543307086614,-2.35209919080734,-4.75142517299652,-0.695820065975189
0.654149000605693,1.5829178990364101,8.04755920200348,0.9327932152748111
0.654754694124773,2.18885784044266,-7.54162292690277,-0.7820407691001889
0.655360387643852,0.12435100450515699,2.61086486606598,0.324458254337311
0.655966081162932,-3.42746296033859,3.74370910434723,-0.7437204566001889
0.656571774682011,1.92780071153641,-11.462269899559,-1.21074926519394
0.65717746820109,3.2881718052864097,9.70012267856598,2.35543481683731
0.65778316172017,-2.93408893690109,2.72582580356598,-0.293456784725189
0.658388855239249,-2.9987544642448403,-10.4443865987778,-0.185680905818939
0.658994548758328,-0.654030343151093,9.24506896762848,0.844177492618561
0.659600242277408,4.0881083287239095,-3.12760193080902,-1.01675268316269
0.660205935796487,2.1074271763801598,-3.44134948940277,-0.607204343318939
0.660811629315566,-3.39393268690109,9.29536437778473,-0.729350339412689
0.661417322834646,0.687180594348907,-10.7198138448715,-0.29824682378768896
0.662023016353725,2.1170072545051597,3.18806457309723,0.367568605899811
0.662628709872804,-1.06597370252609,8.70379455356598,1.2704909691810602
0.663234403391884,-3.2214912806510902,-11.8119427511215,-0.956877194881439
0.663840096910963,-1.42762165174484,5.96868224887848,-0.09706518316268939
0.664445790430042,4.63417278184891,1.83727355747223,0.5950954613685611
0.665051483949122,2.56727092638016,-6.86383239955902,-1.61311254644394
0.665657177468201,-3.83222126111984,8.950481565284731,1.21780053949356
0.66626287098728,-2.21797809705734,-5.82439392299652,-1.32810522222519
0.66686856450636,2.5960111607551597,-3.6018157979965197,0.482529543399811
0.667474258025439,1.36257610216141,11.4269317605972,2.2763991723060597
0.668079951544518,-2.52454059705734,-7.63263366909027,-2.85852270269394
0.668685645063598,-1.20488483533859,-0.5840911886215211,1.2154055199623102
0.669291338582677,2.48823528184891,6.97938049106598,0.343618410587311
0.669897032101756,2.14574748888016,-8.48047058315277,-1.0263327612876898
0.670502725620836,-2.82870807752609,5.75073547153473,0.286137941837311
0.671108419139915,-2.13654743299484,-0.617621462059021,-0.592834226131439
0.671714112658994,2.45230998888016,-9.08641052455902,-0.130595456600189
0.672319806178074,3.0582499302864097,11.434116819191,1.1124196801185602
0.672925499697153,-2.30898883924484,-2.65099304409027,0.786697023868561
0.673531193216233,-2.9125337611198403,-4.91428650112152,-0.829941159725189
0.674136886735312,1.10870403184891,7.84877258090973,1.4429323754310601
0.674742580254391,2.4666801060676598,-6.75126648159027,-1.10536840581894
0.675348273773471,0.747056082630157,1.39658996372223,-0.36770239019393897
0.67595396729255,-3.13287555799484,3.58563781528473,-0.600019284725189
0.676559660811629,1.4631669224739101,-10.5282122823715,-0.9832224097251889
0.677165354330709,3.0678300084114096,8.84031066684723,2.34585473871231
0.677771047849788,-2.00961139783859,3.6862286355972302,-0.276691648006439
0.678376741368867,-3.2622066126823404,-10.609642946434,-0.21921117925643901
0.678982434887947,-0.977357979869843,8.83791564731598,0.362778566837311
0.679588128407026,3.89411174669266,-2.2414447042465198,-0.11383031988143899
0.680193821926105,2.4091996373176596,-3.72875183315277,-1.15566381597519
0.680799515445185,-2.99635944471359,7.94217834262848,-0.0755100073814394
0.681405208964264,-0.10796589002609301,-9.56301941127777,-0.628759519100189
0.682010902483343,2.01881145372391,2.39052306919098,0.899262941837311
0.682616596002423,-0.555834542369843,9.20195861606598,1.9458864769935602
0.683222289521502,-3.08976520643234,-10.8156146261215,-1.86937963628769
0.683827983040581,-1.43480671033859,4.30653869419098,0.183152101993561
0.684433676559661,4.047392996692659,3.49941711215973,1.00224878168106
0.68503937007874,3.1684208287239097,-7.50330261440277,-1.44785619878769
0.68564506359782,-3.28615680799484,7.64519592075348,0.408283937931061
0.686250757116899,-3.17119587049484,-4.54305847377777,-0.650314694881439
0.686856450635978,2.4259647740364096,-4.5646136495590195,0.599885500431061
0.687462144155058,1.60686809434891,11.156294553566001,1.90277612543106
0.688067837674137,-1.7796895228385898,-6.11419128627777,-1.86219457769394
0.688673531193216,-1.96171100721359,-1.86542663784027,0.877707766056061
0.689279224712296,1.84397502794266,7.20690734653473,-0.149755612850189
0.689884918231375,2.7325272740364097,-7.96793640346527,-0.09467016363143939
0.690490611750454,-2.43113483533859,4.91487365512848,-0.16412573003768902
0.691096305269534,-2.45269001111984,0.347571409034729,-1.2442795386314398
0.691701998788613,1.4368217076301601,-8.97384460659027,-0.714980222225189
0.692307692307692,4.04499797716141,10.543169553566,1.9937868676185602
0.692913385826772,-2.21797809705734,-1.38642273159027,0.504084719181061
0.693519079345851,-3.25981159315109,-5.83876404018402,-1.4406711401939398
0.69412477286493,0.627305106067657,7.03207092075348,2.04647729730606
0.69473046638401,2.1002421177864097,-4.31792663784027,-1.9915256323814399
0.695336159903089,1.2236649693489101,0.510432737159729,0.0298708519935606
0.695941853422168,-3.75318561658859,3.19285461215973,-0.813176023006439
0.696547546941248,1.6811136998176601,-9.95580261440277,-0.9832224097251889
0.697153240460327,2.94328899278641,7.28354797153473,1.9171462426185601
0.697758933979406,-1.68628376111984,4.9819342020034805,-0.853891355037689
0.698364627498486,-2.79038776502609,-11.1485223409653,1.1651101098060601
0.698970321017565,-1.37972126111984,7.97091857700348,-1.00717260503769
0.699576014536644,3.0750150670051597,-0.576906130027771,0.896867922306061
0.700181708055724,3.0678300084114096,-4.16943542690277,-0.465898190975189
0.700787401574803,-2.29461872205734,7.00572570590973,-0.600019284725189
0.701393095093882,-1.29350055799484,-8.31760925502777,0.0993264183998106
0.701998788612962,2.0834769810676597,2.00731994419098,0.911238039493561
0.702604482132041,-0.10796589002609301,8.09306457309723,2.99730005121231
0.703210175651121,-2.94845905408859,-9.30196228237152,-2.70763647222519
0.7038158691702,-1.64796344861984,2.3522027566909802,0.698081301212311
0.704421562689279,2.93610393419266,4.28498351840973,0.427444094181061
0.705027256208359,3.61868450059891,-6.29621277065277,-1.0933933081626899
0.705632949727438,-3.0658150111198403,5.82737609653473,0.403493898868561
0.706238643246517,-3.07060505018234,-3.77186218471527,-1.77597387456894
0.706844336765597,2.20801799669266,-4.0592645284652695,1.12439477777481
0.707450030284676,1.53741252794266,10.9910382059097,0.968718508243561
0.708055723803755,-1.41325153455734,-6.47823425502777,-0.482663327693939
0.708661417322835,-2.26827350721359,-2.1049285909652697,0.22147241449356098
0.709267110841914,1.3218607701301601,6.97219543247223,0.274162844181061
0.709872804360993,2.4594950474739097,-6.69857605190277,-0.382072507381439
0.710478497880073,-0.982148018932343,3.93052062778473,-0.0467697730064394
0.711084191399152,-3.29094684705734,-0.08113708705902099,-0.712585202693939
0.711689884918231,0.991348074817657,-8.41101501674652,-1.16524389410019
0.712295578437311,3.76478069200516,9.99231506137848,2.47997583246231
0.71290127195639,-1.64077839002609,-0.6272015401840211,-0.571279050350189
0.713506965475469,-2.88858356580734,-6.67223083705902,-0.865866452693939
0.714112658994549,-0.38818317518234197,7.59969054965973,1.65848413324356
0.714718352513628,2.53853069200516,-4.01136413784027,-0.633549558162689
0.715324046032707,1.63081828966141,-0.636781618309021,-0.147360593318939
0.715929739551787,-3.0155196009635903,3.8826202371597303,-1.44785619878769
0.716535433070866,0.337507742786408,-9.75701599330902,-0.619179440975189
0.717141126589945,2.8091678990364097,7.11589660434723,1.61537378168106
0.717746820109025,-0.567809640026093,5.43698791294098,0.525639894962311
0.718352513628104,-3.24065143690109,-10.971290895652801,-0.144965573787689
0.718958207147184,-1.4922871790885899,6.55067199497223,0.0514260277748106
0.719563900666263,2.6989970005989097,0.603838498878479,1.4764626488685602
0.720169594185342,3.1085453404426597,-4.02333923549652,-1.6586179175376898
0.720775287704422,-1.54497760877609,5.2549664285659805,-0.274296628475189
0.721380981223501,-1.40127643690109,-7.56796814174652,-0.640734616756439
0.72198667474258,2.0212064732551602,1.7462628152847302,0.602280519962311
0.72259236826166,0.172251395130157,8.950481565284731,2.7458230004310598
0.723198061780739,-2.71853717908859,-9.27322204799652,-1.95081030035019
0.723803755299818,-1.76771442518234,1.44928039340973,0.609465578556061
0.724409448818898,2.0499467076301596,5.02264953403473,0.609465578556061
0.725015142337977,4.30845012559891,-5.50825134487152,-1.26343969488144
0.725620835857056,-1.56653278455734,4.69213683872223,0.628625734806061
0.726226529376136,-3.6214595423698404,-3.1563421651840198,-1.4358811011314399
0.726832222895215,1.50388225450516,-4.18141052455902,0.939978273868561
0.727437916414294,1.49430217638016,10.4425787332535,1.11960473871231
0.728043609933374,-0.689955636119843,-5.29988464565277,-0.425182858943939
0.728649303452453,-2.15570758924484,-2.83780456752777,-0.18807592535018902
0.729254996971532,0.8356718052864069,7.18774719028473,-0.32698705816268897
0.729860690490612,3.0845951451301596,-6.27705261440277,0.805857180118561
0.730466384009691,-0.895927315807343,3.3605059793472303,-0.719770261287689
0.73107207752877,-3.1688008509635903,-0.339799196434021,-0.0323996558189394
0.73167777104785,0.519529227161407,-7.57994323940277,-0.748510495662689
0.732283464566929,3.93722209825516,9.40074523715973,2.51350610589981
0.732889158086008,-0.936642647838593,-0.464340212059021,0.015500734806060599
0.733494851605088,-3.42267292127609,-6.35129821987152,-1.67298803472519
0.734100545124167,-0.445663643932342,5.96628722934723,2.47518579339981
0.734706238643246,1.93977580919266,-2.16719909877777,-1.85261449956894
0.735311932162326,1.62842327013016,-0.100297243309021,0.255002687931061
0.735917625681405,-2.53412067518234,3.11142394809723,-1.0550729956626899
0.736523319200485,-0.127126046276093,-9.58457458705902,-1.20356420660019
0.737129012719564,2.84988323106766,6.22973937778473,2.20454858636856
0.737734706238643,-0.675585518932343,5.9135967996597305,0.305298098087311
0.738340399757723,-2.98438434705734,-11.0263763448715,0.298113039493561
0.738946093276802,-1.3605611048698398,5.80582092075348,-0.870656491756439
0.739551786795881,1.80804973497391,1.2672589090347302,1.1435549340248101
0.740157480314961,3.75759563341141,-3.32159851284027,-0.652709714412689
0.74076317383404,-1.15698444471359,5.21904113559723,-0.652709714412689
0.741368867353119,-2.05511676893234,-7.6781390401840195,-1.01435766363144
0.741974560872199,1.81523479356766,1.73189269809723,0.302903078556061
0.742580254391278,0.177041434192657,8.54093322544098,2.59972680902481
0.743185947910357,-1.96889606580734,-9.131915895652769,-1.9963156714439398
0.743791641429437,-1.6503584681510899,0.864895627784729,0.07777124261856061
0.744397334948516,1.15181438341141,5.01067443637848,0.642995851993561
0.745003028467595,4.01146770372391,-4.31313659877777,-1.01675268316269
0.745608721986675,-1.08752887830734,4.03829650669098,-0.0587448706626894
0.746214415505754,-3.54721393690109,-3.59702575893402,-1.4095358862876899
0.746820109024833,1.09672893419266,-3.77186218471527,0.48971460199356104
0.747425802543913,1.68829875841141,9.66419738559723,1.3902419457435602
0.748031496062992,-0.5031441126823419,-4.85201599330902,-0.09946020269393939
0.748637189582071,-2.4431099329948402,-3.4485345479965197,-0.171310788631439
0.749242883101151,0.153091238880157,6.35667541294098,-0.0108444800376894
0.74984857662023,2.61756633653641,-4.76579529018402,0.207102297306061
0.75045427013931,0.16506633653640698,3.0108331277847302,-0.370097409725189
0.751059963658389,-3.5017085658073404,-0.090717165184021,-0.8012009253501889
0.751665657177468,0.210571707630157,-7.56557312221527,-0.305431882381439
0.752271350696547,3.36241741075516,8.830730588722231,1.5914235863685602
0.752877044215627,-0.340282784557342,0.704429319190979,-0.350937253475189
0.753482737734706,-2.57483600721359,-6.41117370815277,0.0562160668373106
0.754088431253786,-1.3509810267448399,5.84893127231598,1.01901391839981
0.754694124772865,2.63672649278641,-2.42825622768402,-0.482663327693939
0.755299818291944,1.4966971959114101,0.062564084815979,-0.38686254644393897
0.755905511811024,-1.86351520643234,2.88389709262848,-0.779645749568939
0.756511205330103,-0.364232979869842,-9.29477722377777,-0.748510495662689
0.757116898849182,2.47865520372391,5.9734722879409805,0.968718508243561
0.757722592368262,0.545874442005157,5.47530822544098,1.5052028832435602
0.758328285887341,-3.3148970423698403,-9.67319030971527,-0.844311276912689
0.75893397940642,-1.2958955775260899,3.9927911355972303,0.0514260277748106
0.7595396729255,1.1158890904426602,1.69596740512848,0.7747219262123111
0.760145366444579,3.43187297716141,-1.92530212612152,-0.9209519019126889
0.760751059963658,0.112375906848907,3.45630676059723,0.219077394962311
0.761356753482738,-2.49819538221359,-6.76324157924652,-2.7363767066001903
0.761962447001817,1.90864055528641,0.9870416238784789,2.06084741449356
0.762568140520896,0.533899344348907,8.94569152622223,2.50153100824356
0.763173834039976,-2.73530231580734,-7.75717468471527,-2.05379614019394
0.763779527559055,-1.72220905408859,-0.6248065206527711,0.556775148868561
0.764385221078134,0.632095145130157,5.02743957309723,-0.415602780818939
0.764990914597214,3.79591594591141,-3.87005798549652,0.324458254337311
0.765596608116293,-0.00977008924484254,3.75089416294098,-0.291061765193939
0.766202301635373,-3.67894001111984,-3.65929626674652,-1.51970678472519
0.766807995154452,0.150696219348907,-3.39823913784027,0.365173586368561
0.767413688673531,1.81044475450516,9.09657775669098,1.5650783715248102
0.768019382192611,-0.345072823619842,-3.9443035909652697,0.106511476993561
0.76862507571169,-1.96889606580734,-2.85456970424652,-0.978432370662689
0.769230769230769,-0.146286202526093,5.26454650669098,0.276557863712311
0.769836462749849,2.19125285997391,-3.79341736049652,0.0993264183998106
0.770442156268928,0.897942313098907,2.17018127231598,0.06340112543106059
0.771047849788007,-3.25741657361984,-0.459550172996521,-0.676659909725189
0.771653543307087,-0.6013399134635931,-6.52373962612152,-1.08860326910019
0.772259236826166,3.41510784044266,7.40808898715973,2.10156274652481
0.772864930345245,0.227336844348907,1.1738531473159801,-0.719770261287689
0.773470623864325,-2.61794635877609,-6.03036560268402,0.0370559105873106
0.774076317383404,-1.29829059705734,5.12324035434723,1.0453591332435601
0.774682010902483,1.87032024278641,-1.52772888393402,-0.47787328863143896
0.775287704421563,2.46189006700516,-0.433204958152771,0.163991945743561
0.775893397940642,-2.25869342908859,2.2061065652847303,-1.54605199956894
0.776499091459721,-0.771386300182343,-7.78112488002777,-0.216816159725189
0.777104784978801,2.49063030138016,5.69325500278473,1.01182885980606
0.77771047849788,0.354272879505158,4.38796935825348,0.472949465274811
0.778316172016959,-2.23953327283859,-8.07571228237152,-0.334172116756439
0.778921865536039,-1.92339069471359,3.53055236606598,-0.214421140193939
0.779527559055118,0.974582938098907,0.881660764503479,1.0573342308998102
0.780133252574197,2.6055912388801596,-0.7469525167465211,-0.552118894100189
0.780738946093277,0.184226492786407,2.19173644809723,-0.8012009253501889
0.781344639612356,-1.88267536268234,-5.81481384487152,-1.54605199956894
0.781950333131435,0.47881389513015804,2.32106750278473,0.731611574649811
0.782556026650515,0.979372977161407,5.96868224887848,1.8476906762123102
0.783161720169594,-1.83237995252609,-5.89145446987152,-0.805990964412689
0.783767413688674,-1.98326618299484,0.402656858253479,-0.13299047613143902
0.784373107207753,0.524319266223907,2.56296447544098,0.243027590274811
0.784978800726832,3.54922893419266,-1.34810241909027,-0.293456784725189
0.785584494245912,0.648860281848907,2.2492169168472302,-0.0755100073814394
0.786190187764991,-3.3053169642448403,-3.72635681362152,-2.00589574956894
0.78679588128407,-0.330702706432342,-1.7911810323715198,0.762746828556061
0.78740157480315,1.97809612169266,6.86202453403473,1.14834497308731
0.788007268322229,-0.048090401744842505,-2.67494323940277,0.17596704339981098
0.788612961841308,-1.89704547986984,-2.6102777120590197,-0.324592038631439
0.789218655360388,-0.08162067518234249,3.5233673074722303,-0.731745358943939
0.789824348879467,1.61405315294266,-2.36359070034027,1.2489357933998102
0.790430042398546,1.45119182481766,2.20371154575348,-0.37728246831893897
0.791035735917626,-2.88139850721359,-1.64747986049652,0.18554712152481098
0.791641429436705,-0.733065987682343,-4.73466003627777,-0.252741452693939
0.792247122955784,3.14926067247391,5.63577453403473,1.94109643793106
0.792852816474864,0.270447195911407,1.83727355747223,-0.48745336675643897
0.793458509993943,-2.40957965955734,-4.72268493862152,0.125671633243561
0.794064203513022,-1.73897419080734,2.93658752231598,0.748376711368561
0.794669897032102,1.24522014513016,-0.44757507534027097,-0.645524655818939
0.795275590551181,2.08826702013016,-0.263158571434021,-0.0036594214439394303
0.79588128407026,-1.14979938611984,1.48760070590973,-1.3544504370689399
0.79648697758934,-1.4204365931510898,-7.21350525112152,-1.01196264410019
0.797092671108419,2.4427299107551597,4.72087707309723,0.798672121524811
0.797698364627498,0.375828055286408,5.62619445590973,1.8692458519935602
0.798304058146578,-2.6634517298698404,-7.49132751674652,-0.9017917456626889
0.798909751665657,-0.962987862682343,1.6265118387222302,-0.281481687068939
0.799515445184736,0.114770926380157,2.27556213169098,0.628625734806061
0.800121138703816,3.13249553575516,-0.517030641746521,-0.11622533941268899
0.800726832222895,0.897942313098907,2.3522027566909802,-0.195260983943939
0.801332525741975,-2.6203413783073404,-6.68181091518402,-2.23821264410019
0.801938219261054,1.05840862169266,1.46125549106598,0.829807375431061
0.802543912780133,0.335112723255158,7.88469787387848,2.11593286371231
0.803149606299213,-1.47312702283859,-6.09742614955902,-1.5005466284751898
0.803755299818292,-1.4156465540885899,-1.27625183315277,0.563960207462311
0.804360993337371,-0.146286202526093,3.74131408481598,-0.22879125738143902
0.804966686856451,3.39834270372391,-1.53730896205902,0.365173586368561
0.80557238037553,1.05840862169266,2.9078472879409802,-0.104250241756439
0.806178073894609,-2.63710651502609,-4.18620056362152,-1.3975607886314398
0.806783767413689,-0.673190499401093,-2.75876892299652,0.8345974144935611
0.807389460932768,1.4799320591926601,8.63912902622223,0.559170168399811
0.807995154451847,0.268052176380157,-3.20424255580902,0.836992434024811
0.808600847970927,-1.68867878065109,-2.89528503627777,-1.11255346441269
0.809206541490006,-0.426503487682342,3.88980529575348,-0.0036594214439394303
0.809812235009085,1.72182903184891,-2.67973327846527,0.731611574649811
0.810417928528165,1.7529642857551602,2.7018756082534803,-0.420392819881439
0.811023622047244,-2.47185016736984,-1.63550476284027,-0.324592038631439
0.811629315566323,-1.29829059705734,-5.79325866909027,-1.54126196050644
0.812235009085403,2.2463383091926596,6.50516662387848,1.99139184808731
0.812840702604482,0.897942313098907,2.0600103738784803,-0.149755612850189
0.813446396123562,-1.9928462611198399,-5.07954284877777,-0.453923093318939
0.814052089642641,-1.73897419080734,2.99646301059723,0.441814211368561
0.81465778316172,1.2236649693489101,-0.6272015401840211,-0.166520749568939
0.815263476680799,1.7745194615364102,0.263745725440979,0.26937280511856104
0.815869170199879,-0.357047921276092,1.4373052957534802,-0.873051511287689
0.816474863718958,-1.33661090955734,-7.75477966518402,-0.978432370662689
0.817080557238038,2.03318157091141,4.57957092075348,0.729216555118561
0.817686250757117,0.893152274036407,5.67648986606598,1.72314966058731
0.818291944276196,-2.61794635877609,-7.60628845424652,-0.5640939917564389
0.818897637795276,-1.14261432752609,1.6600421121597302,-0.149755612850189
0.819503331314355,-0.481588936901092,1.8779888895034802,0.255002687931061
0.820109024833434,2.5888261021614096,-0.251183473777771,0.183152101993561
0.820714718352514,1.46077190294266,2.5653594949722303,0.255002687931061
0.821320411871593,-2.52214557752609,-6.61235534877777,-3.03096410894394
0.821926105390672,0.629700125598907,0.757119748878479,1.9554665551185602
0.822531798909752,0.608144949817657,8.40920715122223,2.5159011254310597
0.823137492428831,-1.57611286268234,-5.81002380580902,-1.66580297613144
0.82374318594791,-1.1761446009635899,-2.01631286830902,0.42025903558731104
0.82434887946699,-0.048090401744842505,3.96165588169098,-0.300641843318939
0.824954572986069,2.52416057481766,-2.03786804409027,0.36996362543106104
0.825560266505148,2.0643168248176598,3.36290099887848,-0.331777097225189
0.826165960024228,-2.38562946424484,-4.00657409877777,-1.07423315191269
0.826771653543307,-1.32224079236984,-2.95755554409027,-0.0850900855064394
0.827377347062386,1.49909221544266,8.36849181919098,1.6680642113685602
0.827983040581466,0.22015178575515698,-2.75876892299652,-0.08748510503768939
0.828588734100545,-1.03004840955734,-3.42458435268402,-0.868261472225189
0.829194427619624,-0.646845284557343,3.93052062778473,0.542405031681061
0.829800121138704,1.29072551622391,-2.27736999721527,-0.235976315975189
0.830405814657783,2.3565092076301597,1.90672912387848,-0.00126440191268943
0.831011508176863,-2.02637653455734,-1.3552874776840198,-0.5233786597251889
0.831617201695942,-1.31505573377609,-6.10700622768402,-1.01196264410019
0.832222895215021,1.8607401646614101,6.68239806919098,1.6560891137123102
0.8328285887341,0.749451102161407,2.32346252231598,0.156806887149811
0.83343428225318,-1.61922321424484,-5.43879577846527,-0.27908666753768896
0.834039975772259,-1.3988814173698398,2.9246124246597303,-0.00605444097518943
0.834645669291339,0.526714285755157,-0.7469525167465211,0.08974634027481061
0.835251362810418,1.91822063341141,0.618208616065979,-0.291061765193939
0.835857056329497,0.232126883411407,1.6049566629409802,-0.7413254370689389
0.836462749848577,-1.9162056361198399,-7.79070495815277,-1.58437231206894
0.837068443367656,1.84637004747391,4.02632140903473,1.1555300316810602
0.837674136886735,0.998533133411407,6.16746886997223,1.84290063714981
0.838279830405815,-2.3808394251823404,-7.11051941127777,-1.69454321050644
0.838885523924894,-0.951012765026093,1.17864318637848,0.415468996524811
0.839491217443973,-0.531884347057343,1.7414727762222302,0.39151880121231103
0.840096910963053,2.4068046177864098,-0.282318727684021,0.125671633243561
0.840702604482132,1.40089641466141,2.6683453348159802,-0.415602780818939
0.841308298001211,-2.16289264783859,-6.74887146205902,-2.05619115972519
0.841913991520291,0.749451102161407,1.75584289340973,1.68722436761856
0.84251968503937,-0.06964557752609249,6.96261535434723,1.34234155511856
0.843125378558449,-0.697140694713593,-6.45188904018402,-1.1293186011314398
0.843731072077529,-1.20488483533859,-1.05830505580902,0.698081301212311
0.844336765596608,-0.301962472057343,3.56887267856598,-0.465898190975189
0.844942459115687,2.20801799669266,-1.79357605190277,1.12439477777481
0.845548152634767,1.5398075474739101,3.80837463169098,-0.350937253475189
0.846153846153846,-1.89225544080734,-5.1370233175277695,-1.39995580816269
0.846759539672925,-2.1341524134635903,-2.93839538784027,-0.235976315975189
0.847365233192005,1.58531291856766,8.10503967075348,2.03210718011856
0.847970926711084,0.0572904576301575,-2.7036834737777697,-0.12820043706893902
0.848576620230164,-1.26236530408859,-2.2941351339340197,-1.21074926519394
0.849182313749243,-0.673190499401093,2.32825256137848,1.11481469964981
0.849788007268322,0.555454520130157,-1.97799255580902,-0.894606687068939
0.850393700787402,2.11221721544266,1.9761846902847302,0.956743410587311
0.850999394306481,-1.67909870252609,-1.0630950948715199,-1.03591283941269
0.85160508782556,-1.51623737440109,-5.80762878627777,-1.3760056128501899
0.85221078134464,1.92780071153641,5.99263244419098,1.5315480980873102
0.852816474863719,0.747056082630157,2.20371154575348,0.312483156681061
0.853422168382798,-1.79884967908859,-5.36934021205902,0.19033716058731098
0.854027861901878,-1.4922871790885899,3.54492248325348,-0.506613523006439
0.854633555420957,0.462048758411408,-1.21158630580902,0.769931887149811
0.855239248940036,1.8343949498176602,0.982251584815979,-0.6024143042564389
0.855844942459116,0.117165945911407,1.7079425027847301,-0.32698705816268897
0.856450635978195,-1.7916646204948399,-8.37029968471527,-0.954482175350189
0.857056329497274,1.66913860216141,4.85020812778473,0.33164331293106103
0.857662023016354,1.00332317247391,5.77708068637848,2.65960229730606
0.858267716535433,-2.25629840955734,-7.00513855190277,-1.75441869878769
0.858873410054512,-0.895927315807343,0.903215940284729,0.762746828556061
0.859479103573592,-0.534279366588593,2.1127008035659802,-0.350937253475189
0.860084797092671,2.23915325059891,-0.32782409877777097,0.24542260980606098
0.86069049061175,1.90385051622391,3.12818908481598,0.07777124261856061
0.86129618413083,-1.3773262415885899,-7.08417419643402,-2.8297824683189403
0.861901877649909,-0.275617257213593,-0.25597351284027103,1.96504663324356
0.862507571168988,0.593774832630157,9.369609983253481,1.5028078637123101
0.863113264688068,-0.828866768932343,-6.56445495815277,0.08016626214981061
0.863718958207147,-1.2527852259635899,-1.30020202846527,-0.880236569881439
0.864324651726227,-0.201371651744843,3.4371466043472303,0.247817629337311
0.864930345245306,1.48951213731766,-2.30611023159027,0.0202907738685606
0.865536038764385,2.5624808873176597,4.17960265903473,-0.693425046443939
0.866141732283465,-1.99524128065109,-5.00529724330902,-1.1101584448814399
0.866747425802544,-1.5401875697135898,-3.24495788784027,-0.611994382381439
0.867353119321623,1.63560832872391,8.98161681919098,2.61409692621231
0.867958812840703,-0.330702706432342,-2.83540954799652,-0.887421628475189
0.868564506359782,-0.850421944713593,-3.6880365011215197,-0.315011960506439
0.869170199878861,-0.757016182994843,4.26821838169098,0.784302004337311
0.869775893397941,0.509949149036408,-2.45220642299652,-0.592834226131439
0.87038158691702,2.08587200059891,2.29711730747223,0.0610061058998106
0.870987280436099,-1.4108565150260899,-0.782877809715271,-1.0933933081626899
0.871592973955179,-1.4372017298698399,-7.30212097377777,-0.952087155818939
0.872198667474258,1.4631669224739101,7.22127746372223,1.49083276605606
0.872804360993337,1.2571952427864101,2.64918517856598,0.563960207462311
0.873410054512417,-1.50665729627609,-6.53092468471527,-0.161730710506439
0.874015748031496,-1.08513385877609,4.28977355747223,-0.36770239019393897
0.874621441550575,0.107585867786407,-1.58281433315277,0.348408449649811
0.875227135069655,1.6763236607551601,0.13201965122222897,-0.0252145972251894
0.875832828588734,0.553059500598907,2.54380431919098,0.453789309024811
0.876438522107813,-2.00721637830734,-7.90806091518402,-2.5902805151939403
0.877044215626893,1.36257610216141,3.86825011997223,0.923213137149811
0.877649909145972,1.0991239537239101,5.94473205356598,2.70989770746231
0.878255602665051,-1.62880329236984,-7.03148376674652,-2.01308080816269
0.878861296184131,-1.2791304408073398,1.5067608621597302,0.496899660587311
0.87946698970321,-0.47919391736984196,2.11030578403473,0.16638696527481098
0.880072683222289,2.2702885045051597,-1.1277606222152698,0.549590090274811
0.880678376741369,1.6547684849739102,3.69580871372223,-0.611994382381439
0.881284070260448,-1.17374958143234,-6.94047302455902,-1.95560033941269
0.881889763779528,-0.187001534557343,-0.502660524559021,1.84529565668106
0.882495457298607,0.725500906848907,9.03909728794098,1.7207546410560601
0.883101150817686,-0.783361397838593,-5.72859314174652,0.0011306176185605702
0.883706844336766,-1.45636188611984,-2.16001404018402,-0.240766355037689
0.884312537855845,0.177041434192657,3.60719299106598,-0.202446042537689
0.884918231374924,1.1757645787239102,-2.38514587612152,0.46097436761856103
0.885523924894004,2.4666801060676598,4.46940002231598,-0.633549558162689
0.886129618413083,-1.37493122205734,-4.33229675502777,-0.520983640193939
0.886735311932162,-1.87549030408859,-3.3958441183090198,-1.44306615972519
0.887341005451242,1.3937113560676602,8.59601867465973,2.25244897699356
0.887946698970321,-0.016955147838592498,-2.31569030971527,0.0322658715248106
0.8885523924894,-0.287592354869843,-3.1228118917465197,-1.01914770269394
0.88915808600848,-0.958197823619843,3.2407550027847303,0.971113527774811
0.889763779527559,0.591379813098907,-2.0019427511215198,-0.786830808162689
0.890369473046638,2.14814250841141,2.17497131137848,0.678921144962311
0.890975166565718,-0.745041085338593,-0.22244323940277103,-1.00717260503769
0.891580860084797,-1.41325153455734,-7.10333435268402,-1.3041550269126898
0.892186553603876,1.01290325059891,5.83456115512848,0.997458742618561
0.892792247122956,1.50627727403641,3.10663390903473,0.911238039493561
0.893397940642035,-1.37014118299484,-5.4962762472152695,0.0442409691810606
0.894003634161115,-1.4539668665885899,2.64679015903473,-0.0323996558189394
0.894609327680194,-0.14389118299484302,-0.8068280050277711,0.266977785587311
0.895215021199273,1.48472209825516,0.103279416847229,-0.355727292537689
0.895820714718352,1.07277873888016,2.13425597934723,-0.291061765193939
0.896426408237432,-1.98566120252609,-7.1991351339340195,-2.3076682105064403
0.897032101756511,1.1757645787239102,2.73061584262848,0.968718508243561
0.897637795275591,1.39610637559891,6.42613097934723,2.50871606683731
0.89824348879467,-2.00242633924484,-6.13335144252777,-1.87895971441269
0.898849182313749,-1.1162691126823399,0.26135070590972903,0.789092043399811
0.899454875832829,-0.555834542369843,2.33064758090973,0.027475832462310598
0.900060569351908,2.02599651231766,-0.5242157003402711,-0.0323996558189394
0.900666262870987,1.78649455919266,3.01322814731598,0.27895288324356105
0.901271956390067,-0.831261788463593,-6.1549066183090195,-2.44897436285019
0.901877649909146,-0.431293526744842,-0.955319215965271,1.13157983636856
0.902483343428225,0.335112723255158,8.88342101840973,1.34952661371231
0.903089036947305,-0.548649483776093,-4.73945007534027,-0.276691648006439
0.903694730466384,-1.14500934705734,-2.5072918722152697,-0.19765600347518902
0.904300423985463,-0.170236397838593,3.35332092075348,-0.286271726131439
0.904906117504543,1.18294963731766,-1.7600457784652699,0.530429934024811
0.905511811023622,2.39243450059891,4.03590148715973,-0.509008542537689
0.906117504542701,-1.25518024549484,-3.54673034877777,-0.6838449683189389
0.906723198061781,-2.01200641736984,-4.66280945034027,-0.734140378475189
0.90732889158086,1.3386259068489101,7.68112121372223,1.96265161371231
0.907934585099939,0.531504324817657,-0.34698425502777097,0.142436769962311
0.908540278619019,-0.45763874158859197,-3.81976257534027,-0.571279050350189
0.909145972138098,-1.17374958143234,3.11381896762848,0.149621828556061
0.909751665657177,0.212966727161407,-1.91332702846527,0.0298708519935606
0.910357359176257,2.13137737169266,1.6384869363784802,0.33882837152481105
0.910963052695336,-0.802521554088593,0.694849241065979,-1.3257102026939398
0.911568746214416,-1.79405964002609,-7.1392596456527695,-0.365307370662689
0.912174439733495,1.70745891466141,5.59745422153473,0.7531667504310611
0.912780133252574,0.945842703723907,3.50420715122223,0.906448000431061
0.913385826771653,-1.04441852674484,-5.49388122768402,-0.382072507381439
0.913991520290733,-1.44678180799484,2.64679015903473,0.29092798089981103
0.914597213809812,-0.11515094861984301,-0.330219118309021,0.669341066837311
0.915202907328892,2.0116263951301603,-0.016471559715271,0.163991945743561
0.915808600847971,0.41893840684890804,2.46476867465973,-0.825151120662689
0.91641429436705,-1.54258258924484,-7.09614929409027,-1.9795505347251898
0.91701998788613,1.0105082310676599,2.50069396762848,1.14115991449356
0.917625681405209,0.960212820911407,6.71592834262848,1.7375197777748101
0.918231374924288,-1.26236530408859,-5.90342956752777,-1.0383078589439398
0.918837068443368,-1.6982588587760898,-0.176937868309021,0.465764406681061
0.919442761962447,-0.7402510462760931,1.8276934793472301,0.19991723871231099
0.920048455481526,2.1170072545051597,-0.5864862081527711,0.415468996524811
0.920654149000606,1.72422405138016,3.4970220926284803,-0.23837133550643902
0.921259842519685,-0.833656807994843,-5.7956536886215195,-2.45615942144394
0.921865536038764,-0.986938057994843,-1.6402948019027699,0.686106203556061
0.922471229557844,0.804536551380157,8.99838195590973,1.55070825433731
0.923076923076923,-0.857607003307343,-4.70591980190277,0.353198488712311
0.923682616596002,-1.1761446009635899,-2.27976501674652,-0.8634714331626889
0.924288310115082,-0.0935957728385925,3.41559142856598,0.381938723087311
0.924894003634161,0.8356718052864069,-2.1312738058090197,0.26937280511856104
0.92549969715324,2.71097209825516,3.51857726840973,-0.365307370662689
0.92610539067232,-1.1162691126823399,-3.2760931417465198,-0.758090573787689
0.926711084191399,-2.21797809705734,-3.95627868862152,-1.71130834722519
0.927316777710478,1.15181438341141,7.87751281528473,2.50153100824356
0.927922471229558,0.23931194200515699,-1.0463299581527699,0.125671633243561
0.928528164748637,-0.18939655408859302,-4.32750671596527,-1.22511938238144
0.929133858267717,-1.02765339002609,3.65030334262848,0.492109621524811
0.929739551786796,0.191411551380157,-1.68101013393402,0.08974634027481061
0.930345245305875,2.19125285997391,1.89714904575348,0.317273195743561
0.930950938824954,-1.2192549525260898,0.177525022315979,-0.592834226131439
0.931556632344034,-1.40846149549484,-6.95723816127777,-1.1460837378501898
0.932162325863113,0.725500906848907,5.24778136997223,0.28134790277481103
0.932768019382193,1.74817424669266,3.7628692605972303,1.6465090355873102
0.933373712901272,-0.986938057994843,-5.50106628627777,0.437024172306061
0.933979406420351,-1.72460407361984,3.12818908481598,-1.3712155737876899
0.934585099939431,-0.119940987682343,-0.9265789815902711,0.9950637230873111
0.93519079345851,1.95654094591141,-0.107482301902771,-0.420392819881439
0.935796486977589,0.967397879505157,2.48153381137848,-0.041979733943939404
0.936402180496669,-2.26827350721359,-7.00513855190277,-2.14001684331894
0.937007874015748,1.3553910435676602,2.61086486606598,0.592700441837311
0.937613567534827,1.06798869981766,6.12196349887848,2.42489038324356
0.938219261053907,-1.81082477674484,-5.82678894252777,-2.5663303198814402
0.938824954572986,-1.38211628065109,-0.476315309715271,1.4596975121498101
0.939430648092065,-0.47919391736984196,2.90305724887848,-0.315011960506439
0.940036341611145,1.60926311388016,-1.2044012472152699,0.19033716058731098
0.940642035130224,2.2535233677864097,3.2503350809097302,0.556775148868561
0.941247728649303,-0.8408418665885931,-5.98965027065277,-1.1915891089439399
0.941853422168383,-1.02765339002609,-1.40797790737152,0.437024172306061
0.942459115687462,0.433308524036408,8.54572326450348,1.7423098168373101
0.943064809206541,-0.491169015026092,-4.4185174581527695,0.27895288324356105
0.943670502725621,-1.52581745252609,-2.05702820034027,-1.11734350347519
0.9442761962447,-0.0361153040885925,3.1042388895034803,0.393913820743561
0.94488188976378,0.854831961536407,-1.90853698940277,0.16638696527481098
0.945487583282859,2.34453410997391,4.51969543247223,-0.19765600347518902
0.946093276801938,-0.970172921276093,-3.2760931417465198,-0.21921117925643901
0.946698970321018,-2.62513141736984,-4.19099060268402,-1.45504125738144
0.947304663840097,1.4032914341926601,7.44880431919098,2.9949050316810597
0.947910357359176,-0.10317585096359301,-0.936159059715271,-0.8419162573814389
0.948516050878256,-0.242086983776093,-3.74551696987152,-0.456318112850189
0.949121744397335,-1.14979938611984,3.37966613559723,0.645390871524811
0.949727437916414,-0.280407296276093,-1.20200622768402,-1.2873898901939398
0.950333131435494,2.48823528184891,0.714009397315979,1.3016262230873101
0.950938824954573,-0.443268624401092,0.6661090066909789,-1.50773168706894
0.951544518473652,-1.69586383924484,-7.09854431362152,-0.489848386287689
0.952150211992732,0.854831961536407,5.05857482700348,0.858547609806061
0.952755905511811,1.41047649278641,4.27779845981598,1.3303664574623102
0.95336159903089,-1.12345417127609,-5.86031921596527,-0.365307370662689
0.95396729254997,-1.29350055799484,2.51027404575348,-0.724560300350189
0.954572986069049,-0.687560616588593,-0.272738649559021,0.803462160587311
0.955178679588128,2.1505375279426597,-0.145802614402771,-0.391652585506439
0.955784373107208,1.34820598497391,2.45039855747223,-0.0300046362876894
0.956390066626287,-2.51496051893234,-6.6339105245590195,-2.4202341284751903
0.956995760145366,1.6164481724739101,1.4420953348159802,1.51717798089981
0.957601453664446,1.0392484654426601,7.14463683872223,1.84290063714981
0.958207147183525,-1.05399860486984,-5.27593445034027,-1.98913061285019
0.958812840702604,-1.3509810267448399,-1.0678851339340198,1.4165871605873102
0.959418534221684,-0.737856026744843,3.34853088169098,-0.659894773006439
0.960024227740763,1.8990604771614101,-1.75765075893402,1.03338403558731
0.960629921259842,1.38413127794266,3.7365240457534803,-0.331777097225189
0.961235614778922,0.0716605748176575,-5.32622986049652,-1.8286643042564399
0.961841308298001,-1.27194538221359,-2.65099304409027,0.07777124261856061
0.962447001817081,0.45007366075515803,9.46062072544098,1.6129787621498102
0.96305269533616,-0.606129952526093,-3.90837829799652,1.05493921136856
0.963658388855239,-1.39169635877609,-2.99348083705902,-1.5436569800376898
0.964264082374319,0.042920340442657495,3.26470519809723,0.528034914493561
0.964869775893398,0.605749930286407,-1.5636541769027699,-0.0108444800376894
0.965475469412477,2.92412883653641,3.64072326450348,0.07298120355606061
0.966081162931557,-0.977357979869843,-2.02589294643402,-0.9209519019126889
0.966686856450636,-2.51735553846359,-5.63039734096527,-1.32810522222519
0.967292549969715,1.07038371934891,7.13984679965973,2.4224953637123097
0.967898243488795,0.0548954380989075,1.2073834207534802,-0.511403562068939
0.968503937007874,-0.416923409557342,-4.96697693080902,0.152016848087311
0.969109630526953,-0.723485909557343,3.0778936746597303,0.650180910587311
0.969715324046033,0.0213651646614075,-1.2139813253402698,-0.647919675350189
0.970321017565112,2.1241923130989098,0.697244260597229,1.2034304223060601
0.970926711084191,-0.330702706432342,1.40138000278473,-0.235976315975189
0.971532404603271,-2.31856891736984,-7.09854431362152,-0.973642331600189
0.97213809812235,0.627305106067657,4.06464172153473,0.477739504337311
0.972743791641429,1.70027385606766,5.08731506137848,1.76146997308731
0.973349485160509,-1.01328327283859,-5.74535827846527,-0.873051511287689
0.973955178679588,-1.08273883924484,1.2337286355972301,-0.573674069881439
0.974560872198667,-1.22883503065109,0.405051877784729,0.159201906681061
0.975166565717747,1.79846965684891,-0.639176637840271,-0.360517331600189
0.975772259236826,0.914707449817657,2.44800353794098,-0.944902097225189
0.976377952755905,-2.1078071986198403,-6.87101745815277,-2.65734106206894
0.976983646274985,1.61165813341141,0.694849241065979,2.1303029808998097
0.977589339794064,0.871597098255157,8.37328185825348,1.20103540277481
0.978195033313144,-1.03244342908859,-5.88426941127777,-0.954482175350189
0.978800726832223,-1.38930133924484,-1.3073870870590198,0.836992434024811
0.979406420351302,-0.871977120494843,3.5568975809097303,-0.595229245662689
0.980012113870382,2.04755168809891,-1.97799255580902,1.15792505121231
0.980617807389461,1.78409953966141,4.21792297153473,-0.394047605037689
0.98122350090854,-0.704325753307343,-5.23282409877777,-1.60592748785019
0.98182919442762,-0.768991280651093,-3.38147400112152,-0.262321530818939
0.982434887946699,0.553059500598907,9.47020080356598,1.7327297387123102
0.983040581465778,-0.436083565807342,-3.49643493862152,0.690896242618561
0.983646274984858,-1.23362506971359,-3.6449261495590197,-1.30655004644394
0.984251968503937,-0.0648555384635925,3.93531066684723,0.942373293399811
0.984857662023016,0.610539969348907,-1.3409173604965199,0.18075708246231098
