Time (s),Accel X (m/s^2),Accel Y (m/s^2),Accel Z (m/s^2)
0.0,0.25200086774825997,-0.033025728893279996,-0.343362442874908
0.000605693519079346,0.13224989118576,0.08912026720046999,-0.393657853031158
0.00121138703815869,0.18015028181075998,0.00529458360671997,-0.26911683740615805
0.00181708055723804,0.17057020368575998,-0.14080160779953,-0.33138734521865804
0.00242277407631738,0.0723744029045105,-0.15517172498703,-0.403237931156158
0.00302846759539673,0.0244740122795105,0.000504544544219973,-0.276301895999908
0.00363416111447607,0.30948133649826004,0.01966470079422,-0.42000306787490804
0.00423985463355542,0.27355604352951,-0.07374106092453,-0.343362442874908
0.00484554815263477,0.0460291880607605,-0.20307211561202998,-0.23558656396865799
0.00545124167171411,0.31666639509201,-0.18151693983078,-0.218821427249908
0.00605693519079346,0.0771644419670105,-0.16235678358077998,-0.446348282718658
0.0066626287098728,0.21847059431076,-0.16475180311203,-0.36970765771865804
0.00726832222895215,0.29271619977951,-0.02584067029953,-0.194871231937408
0.0078740157480315,0.13943494977951,-0.03063070936203,-0.326597306156158
0.00847970926711084,0.23284071149826,-0.04979086561203,-0.17092103662490798
0.00908540278619019,0.20410047712326,-0.02344565076828,0.142826521968842
0.00969109630526953,0.19931043806076,-0.00907553358078003,0.291317732906342
0.0102967898243489,0.0196839732170105,0.01487466173172,0.008705428218841639
0.0109024833434282,0.32624647321701,-0.12643149061203002,-0.295462052249908
0.0115081768625076,0.060399305248260496,0.11786050157547,-0.23558656396865799
0.0121138703815869,0.0699793833732605,0.08912026720046999,-0.30983216943740804
0.0127195639006663,0.26876600446701004,-0.07374106092453,-0.484668595218658
0.0133252574197456,0.22326063337326,0.10588540391922,-0.37928773584365805
0.013930950938825,0.16338514509201,-0.17672690076828,-0.178106095218658
0.0145366444579043,0.0795594614982605,-0.16475180311203,-0.190081192874908
0.0151423379769836,0.23763075056076,-0.02584067029953,-0.285881974124908
0.015748031496063,0.36935682477951004,-0.07613608045578,-0.28827699365615805
0.0163537250151423,0.22326063337326,-0.13122152967453,-0.173316056156158
0.0169594185342217,-0.0785118275642395,-0.11685141248703,-0.252351700687408
0.017565112053301,0.14901502790451,0.055589993762970004,-0.233191544437408
0.0181708055723804,0.26876600446701004,-0.01626059217453,-0.254746720218658
0.0187764990914597,0.23523573102950998,0.09870034532547,-0.443953263187408
0.0193821926105391,0.0987196177482605,-0.0018904749870300298,-0.226006485843658
0.0199878861296184,0.14422498884201,-0.10248129529953,-0.384077774906158
0.0205935796486978,0.22805067243576,-0.04500082654953,-0.42239808740615803
0.0211992731677771,0.0244740122795105,-0.17433188123703,-0.32899232568740805
0.0218049666868564,0.10590467634201,-0.07613608045578,-0.223611466312408
0.0224106602059358,0.22086561384201,-0.17672690076828,-0.27151185693740804
0.0230163537250151,0.16578016462325998,-0.07374106092453,-0.386472794437408
0.0236220472440945,0.11069471540451001,0.08193520860672,-0.276301895999908
0.0242277407631738,0.25200086774825997,0.04361489610672,-0.396052872562408
0.0248334342822532,0.0867445200920105,-0.07613608045578,-0.233191544437408
0.0254391278013325,0.050819227123260494,-0.02823568983078,-0.46790345849990805
0.0260448213204119,0.39570203962326,-0.21025717420578,-0.534964005374908
0.0266505148394912,0.28553114118576,-0.06416098279953,-0.501433731937408
0.0272562083585706,0.41725721540451,0.09870034532547,-0.345757462406158
0.0278619018776499,0.38612196149826,-0.01147055311203,-0.101465470218658
0.0284675953967293,0.31666639509201,-0.10727133436203,-0.120625626468658
0.0290732889158086,0.20170545759201,-0.05218588514327999,-0.38886781396865805
0.0296789824348879,0.16578016462325998,0.000504544544219973,-0.34096742334365804
0.0302846759539673,0.33822157087326005,-0.20786215467452998,-0.40802797021865805
0.0308903694730466,0.24481580915450998,-0.10008627576828,-0.475088517093658
0.031496062992126,0.10350965681076,-0.13840658826827998,-0.43916322412490805
0.0321017565112053,0.16578016462325998,-0.04260580701828,-0.40802797021865805
0.0327074500302847,0.0101038950920105,0.02924477891922,-0.36252259912490803
0.033313143549364,0.0699793833732605,-0.04260580701828,-0.36970765771865804
0.0339188370684434,0.33582655134201,-0.27731772108078,-0.115835587406158
0.0345245305875227,0.26876600446701004,-0.02584067029953,-0.367312638187408
0.0351302241066021,0.0651893443107605,-0.02823568983078,-0.333782364749908
0.0357359176256814,0.28313612165451,-0.18630697889328,-0.424793106937408
0.0363416111447607,0.0771644419670105,-0.02344565076828,-0.36252259912490803
0.0369473046638401,-0.0234263783454895,-0.14559164686203,-0.336177384281158
0.0375529981829194,0.0675843638420105,-0.08332113904953001,-0.352942520999908
0.0381586917019988,-0.11922715959548999,0.08912026720046999,-0.264326798343658
0.0387643852210781,0.0771644419670105,-0.04021078748703,-0.0870953530311584
0.0393700787401575,0.41007215681076004,0.00289956407546997,-0.544544083499908
0.0399757722592368,0.28792616071701,0.05319497423172,0.0709759360313416
0.0405814657783162,0.23523573102950998,-0.08332113904953001,0.43980894384384195
0.0411871592973955,0.27116102399826003,-0.15996176404953,-0.42000306787490804
0.0417928528164749,0.23523573102950998,-0.08571615858078001,-0.376892716312408
0.0423985463355542,0.42923231306076004,0.07714516954422,-0.45113832178115804
0.0430042398546336,0.0005238169670104789,-0.033025728893279996,-0.37928773584365805
0.0436099333737129,0.28074110212326003,0.08912026720046999,-0.25953675928115805
0.0442156268927922,0.21607557477951,-0.00428549451828003,-0.36252259912490803
0.0448213204118716,0.16817518415451,-0.14319662733077998,-0.506223770999908
0.0454270139309509,0.26876600446701004,-0.00428549451828003,-0.214031388187408
0.0460327074500303,-0.061746690845489505,0.04600991563797,-0.446348282718658
0.0466384009691096,0.0484242075920105,0.02445473985672,-0.211636368656158
0.047244094488189,0.0771644419670105,-0.23181234998703,0.0134954672813416
0.0478497880072683,0.12506483259201,-0.09290121717453001,-0.532568985843658
0.0484554815263477,0.16099012556076,-0.04021078748703,-0.209241349124908
0.049061175045427,0.12506483259201,-0.14319662733077998,-0.216426407718658
0.0496668685645064,0.27595106306076,-0.061765963268279996,-0.367312638187408
0.0502725620835857,0.40288709821701,-0.10487631483078,-0.355337540531158
0.050878255602665,0.49868787946701004,-0.17912192029953,-0.33138734521865804
0.0514839491217444,0.11308973493576001,-0.14080160779953,-0.427188126468658
0.0520896426408237,0.055609266185760495,-0.0066805140495300305,-0.463113419437408
0.0526953361599031,0.31187635602951,-0.03063070936203,-0.36012757959365804
0.0533010296789824,0.0364491099357605,-0.17433188123703,-0.146970841312408
0.0539067231980618,0.16578016462325998,-0.08811117811203001,-0.166130997562408
0.0545124167171411,0.14662000837326,-0.07613608045578,-0.412818009281158
0.0551181102362205,0.15859510602951,-0.24378744764328,-0.29067201318740804
0.0557238037552998,0.10350965681076,-0.06416098279953,-0.5780743569374079
0.0563294972743792,0.19931043806076,-0.00428549451828003,-0.34815248193740805
0.0569351907934585,0.37414686384201,-0.15756674451827998,0.0374456625938416
0.0575408843125379,0.050819227123260494,-0.11924643201828,-0.168526017093658
0.0581465778316172,0.14662000837326,0.012479642200469999,-0.333782364749908
0.0587522713506965,0.27355604352951,-0.02105063123703,-0.254746720218658
0.0593579648697759,0.11787977399826001,0.01487466173172,-0.173316056156158
0.0599636583888552,0.14422498884201,-0.056975924205779994,-0.31941224756240805
0.0605693519079346,0.0460291880607605,-0.23660238904953,-0.163735978031158
0.0611750454270139,0.27355604352951,0.10109536485672,-0.28109193506240804
0.0617807389460933,0.36935682477951004,-0.10487631483078,-0.324202286624908
0.0623864324651726,0.28074110212326003,-0.21504721326828,-0.27151185693740804
0.062992125984252,0.24002577009200998,-0.12882651014327998,-0.566099259281158
0.0635978195033313,0.17536024274825998,-0.0066805140495300305,-0.355337540531158
0.0642035130224107,0.17296522321701,-0.06655600233078,-0.295462052249908
0.06480920654149,0.36696180524826,-0.09290121717453001,-0.132600724124908
0.0654149000605694,0.31427137556076,-0.05218588514327999,-0.142180802249908
0.0660205935796487,0.26158094587326003,-0.20307211561202998,-0.214031388187408
0.066626287098728,0.26397596540451,-0.04260580701828,-0.209241349124908
0.0672319806178074,0.12506483259201,-0.13122152967453,-0.35054750146865804
0.0678376741368867,0.32145643415451003,-0.24139242811203,-0.37928773584365805
0.0684433676559661,0.14182996931076,-0.17912192029953,-0.515803849124908
0.0690490611750454,0.0005238169670104789,0.06277505235672,-0.151760880374908
0.0696547546941248,0.32624647321701,0.13941567735672,-0.242771622562408
0.0702604482132041,0.28792616071701,-0.07134604139328,0.178751814937592
0.0708661417322835,0.23284071149826,-0.34916830701828,-0.38886781396865805
0.0714718352513628,0.27116102399826003,-0.15996176404953,-0.712195450687408
0.0720775287704422,0.17536024274825998,0.05079995470047,-0.221216446781158
0.0726832222895215,0.10350965681076,-0.07134604139328,-0.285881974124908
0.0732889158086008,0.0172889536857605,-0.11206137342453,-0.106255509281158
0.0738946093276802,0.22326063337326,0.01726968126297,-0.161340958499908
0.0745003028467595,0.28792616071701,0.08672524766921999,-0.326597306156158
0.0751059963658389,0.23284071149826,-0.09769125623703,-0.573284317874908
0.0757116898849182,0.13464491071700999,-0.17433188123703,-0.27151185693740804
0.0763173834039976,0.31666639509201,-0.22223227186202998,-0.194871231937408
0.0769230769230769,0.38612196149826,-0.07613608045578,-0.36012757959365804
0.0775287704421563,0.0412391489982605,-0.09769125623703,-0.101465470218658
0.0781344639612356,0.11548475446701001,-0.17433188123703,-0.0607501381874084
0.078740157480315,0.32864149274826004,-0.15517172498703,-0.46071839990615804
0.0793458509993943,0.33343153181076,-0.15517172498703,-0.211636368656158
0.0799515445184737,0.35259168806076,0.17294595079422,0.181146834468842
0.080557238037553,0.0867445200920105,-0.0066805140495300305,-0.166130997562408
0.0811629315566323,0.0843495005607605,-0.0066805140495300305,-0.31222718896865803
0.0817686250757117,0.40528211774826,-0.14319662733077998,-0.166130997562408
0.082374318594791,0.40528211774826,-0.08571615858078001,-0.242771622562408
0.0829800121138704,0.24481580915450998,-0.09050619764328001,-0.405632950687408
0.0835857056329497,0.21607557477951,-0.12164145154953,-0.194871231937408
0.0841913991520291,0.0771644419670105,0.057985013294220004,-0.168526017093658
0.0847970926711084,0.26158094587326003,-0.11924643201828,-0.333782364749908
0.0854027861901878,0.19212537946701,-0.07853109998703,-0.142180802249908
0.0860084797092671,0.12745985212326,-0.02823568983078,-0.192476212406158
0.0866141732283465,0.19691541852951,-0.04979086561203,-0.0799102944374084
0.0872198667474258,0.14901502790451,-0.20546713514328,-0.38168275537490803
0.0878255602665051,0.27116102399826003,0.02445473985672,-0.36970765771865804
0.0884312537855845,0.14182996931076,-0.06416098279953,-0.30983216943740804
0.0890369473046638,0.41246717634201,-0.09529623670578001,-0.36012757959365804
0.0896426408237432,0.18254530134201,0.09630532579421999,-0.178106095218658
0.0902483343428225,0.13464491071700999,-0.09050619764328001,-0.30264711084365803
0.0908540278619019,0.28074110212326003,-0.06655600233078,-0.264326798343658
0.0914597213809812,0.0795594614982605,-0.056975924205779994,-0.393657853031158
0.0920654149000606,0.0675843638420105,-0.07374106092453,-0.396052872562408
0.0926711084191399,0.39330702009201,-0.18870199842452998,-0.223611466312408
0.0932768019382193,0.25200086774825997,-0.054580904674529994,-0.453533341312408
0.0938824954572986,0.31427137556076,-0.00907553358078003,-0.376892716312408
0.094488188976378,0.35259168806076,-0.14080160779953,-0.123020645999908
0.0950938824954573,0.26876600446701004,-0.08811117811203001,-0.182896134281158
0.0956995760145366,0.19931043806076,0.02205972032547,-0.45832338037490805
0.096305269533616,0.15620008649826,0.06277505235672,-0.247561661624908
0.0969109630526953,0.15141004743576,-0.10008627576828,-0.324202286624908
0.0975166565717747,0.0172889536857605,-0.04739584608078,-0.556519181156158
0.098122350090854,0.37175184431076,-0.02584067029953,-0.317017228031158
0.0987280436099334,0.31187635602951,-0.02823568983078,-0.206846329593658
0.0993337371290127,0.17057020368575998,-0.10727133436203,0.166776717281342
0.0999394306480921,0.10829969587326001,-0.09769125623703,-0.26911683740615805
0.100545124167171,0.21847059431076,0.01966470079422,0.322452986812592
0.101150817686251,0.18973035993575998,0.08672524766921999,-0.146970841312408
0.10175651120533,0.22086561384201,-0.059370943737029995,-0.506223770999908
0.102362204724409,0.22326063337326,-0.17433188123703,0.0877410727500916
0.102967898243489,-0.0306114369392395,-0.061765963268279996,-0.26911683740615805
0.103573591762568,0.26637098493576,-0.16235678358077998,-0.185291153812408
0.104179285281647,0.23523573102950998,0.02924477891922,-0.41042298974990804
0.104784978800727,0.13224989118576,0.23761147813797,-0.214031388187408
0.105390672319806,0.24960584821700998,0.00529458360671997,-0.46071839990615804
0.105996365838886,0.32864149274826004,-0.05218588514327999,-0.28109193506240804
0.106602059357965,0.12506483259201,-0.01386557264328,-0.211636368656158
0.107207752877044,-0.11204210100173999,-0.13122152967453,-0.38168275537490803
0.107813446396124,0.10590467634201,-0.061765963268279996,-0.233191544437408
0.108419139915203,0.19691541852951,-0.04979086561203,-0.27869691553115805
0.109024833434282,0.35259168806076,-0.035420748424529996,-0.472693497562408
0.109630526953362,0.0987196177482605,-0.07853109998703,-0.496643692874908
0.110236220472441,0.11308973493576001,-0.24378744764328,-0.30025209131240804
0.11084191399152,0.20649549665451,-0.17672690076828,-0.28827699365615805
0.1114476075106,0.0747694224357605,0.02684975938797,-0.36252259912490803
0.112053301029679,0.0699793833732605,0.02445473985672,-0.30264711084365803
0.112658994548758,0.0819544810295105,-0.22223227186202998,-0.31222718896865803
0.113264688067838,0.20170545759201,-0.12403647108078,-0.405632950687408
0.113870381586917,0.24721082868576,0.00289956407546997,-0.32899232568740805
0.114476075105996,0.0220789927482605,-0.04739584608078,-0.393657853031158
0.115081768625076,0.38133192243576003,-0.15996176404953,-0.293067032718658
0.115687462144155,0.5250330943107601,-0.10727133436203,-0.34815248193740805
0.116293155663234,0.22086561384201,0.10588540391922,-0.549334122562408
0.116898849182314,0.15380506696701,-0.21025717420578,-0.27869691553115805
0.117504542701393,0.26876600446701004,-0.10966635389328,-0.45113832178115804
0.118110236220472,0.21368055524826,-0.05218588514327999,-0.5589142006874079
0.118715929739552,0.11308973493576001,-0.06655600233078,-0.27151185693740804
0.119321623258631,0.43162733259201,-0.14798666639327998,-0.39844789209365805
0.11992731677771,0.36217176618576,-0.13840658826827998,-0.130205704593658
0.12053301029679,0.14901502790451,-0.13361654920577998,-0.44874330224990805
0.121138703815869,0.17057020368575998,-0.09050619764328001,-0.403237931156158
0.121744397334949,0.0292640513420105,-0.02823568983078,-0.209241349124908
0.122350090854028,0.11308973493576001,-0.061765963268279996,-0.496643692874908
0.122955784373107,0.0340540904045105,0.02684975938797,-0.28827699365615805
0.123561477892187,0.0987196177482605,-0.06655600233078,-0.103860489749908
0.124167171411266,0.13464491071700999,-0.059370943737029995,-0.151760880374908
0.124772864930345,-0.0258213978767395,-0.16475180311203,-0.276301895999908
0.125378558449425,0.28792616071701,-0.12643149061203002,-0.33857240381240805
0.125984251968504,0.17775526227951,-0.13122152967453,-0.252351700687408
0.126589945487583,0.14901502790451,0.007689603137969969,-0.30025209131240804
0.127195639006663,0.30469129743576,-0.21265219373702998,-0.29067201318740804
0.127801332525742,0.34540662946701,-0.31084799451828,-0.317017228031158
0.128407026044821,0.14662000837326,0.01966470079422,-0.276301895999908
0.129012719563901,0.11069471540451001,-0.12643149061203002,-0.123020645999908
0.12961841308298,0.14901502790451,-0.31084799451828,-0.125415665531158
0.130224106602059,0.43162733259201,-0.061765963268279996,0.111691268062592
0.130829800121139,0.31666639509201,-0.09769125623703,0.154801619625092
0.131435493640218,0.0987196177482605,-0.04979086561203,-0.101465470218658
0.132041187159297,0.11069471540451001,-0.01386557264328,-0.37928773584365805
0.132646880678377,-0.0114512806892395,-0.19828207654952998,-0.427188126468658
0.133252574197456,0.18494032087325998,-0.02584067029953,-0.563704239749908
0.133858267716535,0.050819227123260494,-0.11924643201828,-0.357732560062408
0.134463961235615,0.33582655134201,0.01008462266922,-0.0918853920936584
0.135069654754694,0.37175184431076,0.10349038438797,-0.192476212406158
0.135675348273773,0.0388441294670105,-0.18630697889328,-0.23558656396865799
0.136281041792853,0.014893934154510501,-0.09050619764328001,-0.41042298974990804
0.136886735311932,0.16817518415451,-0.0066805140495300305,-0.247561661624908
0.137492428831012,0.24721082868576,-0.054580904674529994,-0.0775152749061584
0.138098122350091,0.29511121931076,0.000504544544219973,-0.293067032718658
0.13870381586917,0.29511121931076,-0.12643149061203002,-0.393657853031158
0.13930950938825,0.36456678571701,0.01487466173172,-0.472693497562408
0.139915202907329,0.28313612165451,0.06517007188797,-0.36252259912490803
0.140520896426408,0.18015028181075998,-0.04739584608078,-0.190081192874908
0.141126589945488,0.0220789927482605,-0.14080160779953,-0.249956681156158
0.141732283464567,-0.018636339282989498,-0.25815756483078,-0.218821427249908
0.142337976983646,0.11069471540451001,-0.14319662733077998,-0.443953263187408
0.142943670502726,0.22805067243576,-0.18630697889328,-0.23558656396865799
0.143549364021805,0.21607557477951,-0.13361654920577998,-0.297857071781158
0.144155057540884,0.14422498884201,-0.09290121717453001,-0.38168275537490803
0.144760751059964,0.29750623884201,-0.07613608045578,-0.0200348061561584
0.145366444579043,0.20410047712326,-0.15277670545577998,-0.139785782718658
0.145972138098122,0.21128553571701,0.012479642200469999,-0.228401505374908
0.146577831617202,0.25200086774825997,0.02205972032547,-0.034404923343658404
0.147183525136281,0.16817518415451,0.02684975938797,-0.221216446781158
0.14778921865536,0.28074110212326003,-0.08811117811203001,-0.273906876468658
0.14839491217444,0.32864149274826004,0.01487466173172,-0.216426407718658
0.149000605693519,0.33103651227951003,-0.00907553358078003,-0.36970765771865804
0.149606299212598,0.23763075056076,-0.10966635389328,-0.28827699365615805
0.150211992731678,0.22326063337326,0.12744057970046999,-0.252351700687408
0.150817686250757,0.38133192243576003,-0.16954184217453,-0.163735978031158
0.151423379769836,0.19212537946701,-0.18151693983078,-0.30264711084365803
0.152029073288916,0.12745985212326,-0.04739584608078,-0.376892716312408
0.152634766807995,0.0005238169670104789,-0.10487631483078,-0.202056290531158
0.153240460327075,0.34780164899826,-0.04260580701828,-0.197266251468658
0.153846153846154,0.45318250837326,0.09630532579421999,-0.403237931156158
0.154451847365233,0.15380506696701,0.07954018907547,-0.297857071781158
0.155057540884313,0.26637098493576,-0.16954184217453,-0.156550919437408
0.155663234403392,0.13464491071700999,-0.18151693983078,-0.252351700687408
0.156268927922471,0.16817518415451,-0.13840658826827998,-0.446348282718658
0.156874621441551,0.31666639509201,-0.14319662733077998,-0.29067201318740804
0.15748031496063,0.17057020368575998,-0.01865561170578,-0.283486954593658
0.158086008479709,-0.0162413197517395,-0.18391195936203,-0.221216446781158
0.158691701998789,0.12027479352951001,-0.23899740858078,0.109296248531342
0.159297395517868,0.24481580915450998,-0.10008627576828,-0.307437149906158
0.159903089036947,0.22805067243576,-0.02584067029953,-0.216426407718658
0.160508782556027,0.18254530134201,-0.09769125623703,0.432623885250092
0.161114476075106,0.0771644419670105,-0.08092611951828,-0.0511700600624084
0.161720169594185,0.21607557477951,-0.08332113904953001,-0.106255509281158
0.162325863113265,0.0651893443107605,-0.15038168592453,-0.125415665531158
0.162931556632344,0.0987196177482605,-0.16954184217453,-0.214031388187408
0.163537250151423,0.21368055524826,-0.06655600233078,-0.0535650795936584
0.164142943670503,0.27355604352951,-0.01386557264328,-0.364917618656158
0.164748637189582,0.20889051618576,-0.02823568983078,-0.27869691553115805
0.165354330708661,0.20889051618576,0.08433022813796999,-0.405632950687408
0.165960024227741,0.28792616071701,-0.04739584608078,-0.173316056156158
0.16656571774682,0.27834608259201005,-0.15038168592453,-0.0942804116249084
0.167171411265899,0.42204725446701,-0.08092611951828,-0.125415665531158
0.167777104784979,0.17775526227951,0.06517007188797,-0.36252259912490803
0.168382798304058,0.0939295786857605,-0.033025728893279996,-0.36970765771865804
0.168988491823137,-0.12401719865798999,0.06756509141922,-0.218821427249908
0.169594185342217,0.20410047712326,0.13223061876297001,-0.477483536624908
0.170199878861296,0.37893690290451004,-0.19588705701828,-0.032009903812408404
0.170805572380376,-0.12401719865798999,-0.14080160779953,-0.415213028812408
0.171411265899455,0.10350965681076,-0.09769125623703,-0.616394669437408
0.172016959418534,0.29032118024826004,-0.20546713514328,-0.161340958499908
0.172622652937614,0.38133192243576003,0.036429837512970006,-0.412818009281158
0.173228346456693,0.22565565290450998,-0.18391195936203,-0.324202286624908
0.173834039975772,0.36456678571701,-0.21504721326828,-0.352942520999908
0.174439733494852,0.21607557477951,0.09870034532547,-0.592444474124908
0.175045427013931,0.18015028181075998,-0.11445639295578,-0.27151185693740804
0.17565112053301,0.27116102399826003,0.01008462266922,-0.23079652490615798
0.17625681405209,0.19931043806076,-0.24378744764328,-0.46071839990615804
0.176862507571169,0.0891395396232605,-0.17433188123703,-0.515803849124908
0.177468201090248,-0.0761168080329895,0.08433022813796999,-0.41042298974990804
0.178073894609328,0.19691541852951,-0.09050619764328001,-0.245166642093658
0.178679588128407,0.0795594614982605,-0.07374106092453,-0.357732560062408
0.179285281647486,0.15859510602951,-0.00907553358078003,-0.37210267724990803
0.179890975166566,0.17296522321701,-0.15756674451827998,-0.0583551186561584
0.180496668685645,0.18494032087325998,-0.22462729139328,-0.17092103662490798
0.181102362204724,0.20170545759201,-0.07613608045578,-0.276301895999908
0.181708055723804,0.23763075056076,-0.15517172498703,-0.226006485843658
0.182313749242883,0.32385145368576,-0.12164145154953,-0.305042130374908
0.182919442761962,0.20889051618576,-0.18870199842452998,-0.273906876468658
0.183525136281042,0.17536024274825998,-0.10008627576828,-0.453533341312408
0.184130829800121,0.25439588727951,-0.059370943737029995,-0.455928360843658
0.1847365233192,0.19931043806076,-0.07613608045578,-0.295462052249908
0.18534221683828,0.20170545759201,0.07235513048172,-0.23558656396865799
0.185947910357359,0.22326063337326,-0.16475180311203,-0.32180726709365803
0.186553603876439,0.15380506696701,-0.01386557264328,-0.352942520999908
0.187159297395518,0.050819227123260494,0.06517007188797,-0.0823053139686584
0.187764990914597,0.0867445200920105,-0.35156332654953004,-0.142180802249908
0.188370684433677,0.0292640513420105,-0.23899740858078,-0.45113832178115804
0.188976377952756,0.0005238169670104789,-0.07853109998703,-0.343362442874908
0.189582071471835,0.0196839732170105,-0.26534262342453,0.193121932125092
0.190187764990915,0.31427137556076,-0.33000815076828,0.121271346187592
0.190793458509994,0.13703993024826,-0.03781576795578,-0.767280899906158
0.191399152029073,-0.0162413197517395,-0.01147055311203,-0.625974747562408
0.192004845548153,0.26876600446701004,-0.24618246717453,-0.472693497562408
0.192610539067232,0.0627943247795105,-0.23420736951828,-0.487063614749908
0.193216232586311,0.0651893443107605,-0.19588705701828,-0.30983216943740804
0.193821926105391,0.29032118024826004,-0.12882651014327998,-0.42958314599990804
0.19442761962447,0.19691541852951,0.13223061876297001,-0.30264711084365803
0.195033313143549,0.0005238169670104789,0.03163979845047,-0.151760880374908
0.195639006662629,0.0412391489982605,-0.30845297498703,-0.333782364749908
0.196244700181708,0.20649549665451,-0.10966635389328,-0.5589142006874079
0.196850393700787,0.22086561384201,-0.08571615858078001,-0.305042130374908
0.197456087219867,0.15380506696701,-0.10248129529953,-0.139785782718658
0.198061780738946,0.26876600446701004,0.000504544544219973,-0.149365860843658
0.198667474258025,0.0891395396232605,-0.18391195936203,-0.29067201318740804
0.199273167777105,0.32385145368576,-0.03781576795578,-0.611604630374908
0.199878861296184,0.35738172712326,-0.04500082654953,-0.45113832178115804
0.200484554815263,0.18733534040451,-0.16475180311203,-0.0870953530311584
0.201090248334343,0.23284071149826,0.03163979845047,-0.30025209131240804
0.201695941853422,0.13464491071700999,-0.10248129529953,-0.28827699365615805
0.202301635372502,0.18015028181075998,-0.01147055311203,-0.305042130374908
0.202907328891581,0.0891395396232605,-0.09529623670578001,-0.384077774906158
0.20351302241066,0.20649549665451,-0.21983725233078,-0.161340958499908
0.20411871592974,0.17296522321701,-0.26055258436203,-0.427188126468658
0.204724409448819,0.19691541852951,-0.29168783826828004,-0.46071839990615804
0.205330102967898,0.19212537946701,-0.16714682264327999,-0.46071839990615804
0.205935796486978,0.0244740122795105,-0.04500082654953,-0.415213028812408
0.206541490006057,0.11548475446701001,-0.02584067029953,-0.30025209131240804
0.207147183525136,0.11308973493576001,-0.15517172498703,-0.30025209131240804
0.207752877044216,0.21607557477951,-0.14798666639327998,-0.163735978031158
0.208358570563295,0.18973035993575998,-0.17433188123703,-0.345757462406158
0.208964264082374,0.34540662946701,-0.04260580701828,-0.257141739749908
0.209569957601454,0.0005238169670104789,0.21845132188797,-0.386472794437408
0.210175651120533,0.13224989118576,-0.15038168592453,-0.38886781396865805
0.210781344639612,0.40767713727951,-0.10248129529953,-0.36252259912490803
0.211387038158692,-0.0066612416267395206,0.17055093126297002,-0.233191544437408
0.211992731677771,0.18254530134201,-0.12882651014327998,-0.333782364749908
0.21259842519685,0.17775526227951,-0.09529623670578001,-0.28827699365615805
0.21320411871593,-0.0809068470954895,0.05079995470047,-0.218821427249908
0.213809812235009,0.12985487165450998,-0.03781576795578,-0.23079652490615798
0.214415505754088,0.24721082868576,-0.02105063123703,-0.221216446781158
0.215021199273168,0.19212537946701,0.08193520860672,-0.374497696781158
0.215626892792247,0.37893690290451004,-0.09050619764328001,-0.472693497562408
0.216232586311326,0.41007215681076004,-0.19109701795578,-0.249956681156158
0.216838279830406,0.28792616071701,-0.15756674451827998,-0.187686173343658
0.217443973349485,0.0843495005607605,0.10349038438797,-0.295462052249908
0.218049666868565,0.32385145368576,-0.16475180311203,-0.187686173343658
0.218655360387644,0.24242078962326,-0.01626059217453,-0.07033021631240839
0.219261053906723,0.14901502790451,-0.02584067029953,-0.352942520999908
0.219866747425803,0.26876600446701004,-0.14319662733077998,-0.46790345849990805
0.220472440944882,0.050819227123260494,0.060380032825470005,-0.345757462406158
0.221078134463961,0.13224989118576,-0.033025728893279996,0.114086287593842
0.221683827983041,0.10111463727951,-0.08092611951828,-0.209241349124908
0.22228952150212,-0.037796495532989506,-0.15038168592453,-0.5205938881874079
0.222895215021199,0.13464491071700999,-0.15996176404953,-0.0607501381874084
0.223500908540279,0.24481580915450998,0.06277505235672,-0.283486954593658
0.224106602059358,0.17057020368575998,0.036429837512970006,-0.245166642093658
0.224712295578437,-0.0282164174079895,-0.16235678358077998,-0.317017228031158
0.225317989097517,0.10590467634201,-0.04979086561203,-0.357732560062408
0.225923682616596,0.40049207868576003,0.03163979845047,-0.305042130374908
0.226529376135675,0.17775526227951,0.01008462266922,-0.27151185693740804
0.227135069654755,0.31906141462326004,-0.13361654920577998,-0.204451310062408
0.227740763173834,0.22326063337326,-0.08092611951828,-0.173316056156158
0.228346456692913,0.31187635602951,-0.24139242811203,-0.465508438968658
0.228952150211993,0.18254530134201,-0.11924643201828,-0.357732560062408
0.229557843731072,0.18973035993575998,-0.13361654920577998,-0.249956681156158
0.230163537250151,0.25439588727951,-0.14798666639327998,-0.242771622562408
0.230769230769231,0.18733534040451,-0.00428549451828003,-0.202056290531158
0.23137492428831,0.11787977399826001,0.20408120470047,-0.45832338037490805
0.231980617807389,0.19931043806076,0.02924477891922,-0.31941224756240805
0.232586311326469,0.37414686384201,-0.11206137342453,-0.49185365381240803
0.233192004845548,0.0172889536857605,-0.04979086561203,-0.0894903725624084
0.233797698364627,0.21368055524826,-0.04739584608078,-0.0918853920936584
0.234403391883707,0.22805067243576,-0.08332113904953001,-0.42958314599990804
0.235009085402786,0.0939295786857605,-0.10248129529953,-0.132600724124908
0.235614778921866,0.25200086774825997,0.16097085313797002,-0.245166642093658
0.236220472440945,0.35019666852951004,-0.20067709608078,-0.33857240381240805
0.236826165960024,0.23763075056076,-0.10487631483078,-0.41042298974990804
0.237431859479104,0.11787977399826001,-0.035420748424529996,-0.314622208499908
0.238037552998183,0.0292640513420105,-0.09290121717453001,-0.37928773584365805
0.238643246517262,0.24002577009200998,-0.09769125623703,-0.30264711084365803
0.239248940036342,0.16338514509201,-0.15038168592453,-0.30983216943740804
0.239854633555421,-0.0114512806892395,-0.21744223279952998,-0.506223770999908
0.2404603270745,0.22326063337326,-0.35395834608078003,-0.563704239749908
0.24106602059358,0.29032118024826004,-0.02344565076828,-0.403237931156158
0.241671714112659,0.27834608259201005,-0.03063070936203,-0.33138734521865804
0.242277407631738,0.0939295786857605,0.01008462266922,-0.28827699365615805
0.242883101150818,-0.033006456470489505,-0.07613608045578,-0.352942520999908
0.243488794669897,-0.04019151506423951,-0.09769125623703,-0.42239808740615803
0.244094488188976,-0.0234263783454895,-0.08332113904953001,-0.317017228031158
0.244700181708056,0.16099012556076,-0.10487631483078,-0.355337540531158
0.245305875227135,0.23044569196700998,-0.09050619764328001,-0.43197816553115803
0.245911568746214,0.28553114118576,-0.44017904920578,-0.434373185062408
0.246517262265294,0.13224989118576,-0.11206137342453,-0.5804693764686579
0.247122955784373,0.21128553571701,-0.02823568983078,-0.34815248193740805
0.247728649303452,0.15859510602951,-0.16235678358077998,-0.211636368656158
0.248334342822532,0.0029188364982604804,-0.16235678358077998,-0.202056290531158
0.248940036341611,-0.0162413197517395,-0.14080160779953,-0.386472794437408
0.24954572986069,0.23523573102950998,0.01487466173172,-0.5996295327186579
0.25015142337977,0.35977674665451004,-0.23899740858078,0.12845640478134202
0.250757116898849,0.27595106306076,-0.16954184217453,0.176356795406342
0.251362810417929,0.0699793833732605,-0.12643149061203002,-0.317017228031158
0.251968503937008,0.0723744029045105,-0.17672690076828,-0.455928360843658
0.252574197456087,0.31187635602951,-0.25576254529952996,-0.35054750146865804
0.253179890975167,0.35498670759201,-0.13361654920577998,-0.37928773584365805
0.253785584494246,0.32385145368576,-0.15996176404953,-0.29067201318740804
0.254391278013325,0.16099012556076,-0.24378744764328,-0.214031388187408
0.254996971532405,0.0460291880607605,0.04121987657547,-0.424793106937408
0.255602665051484,0.22805067243576,0.08433022813796999,-0.113440567874908
0.256208358570563,0.29750623884201,0.055589993762970004,-0.199661270999908
0.256814052089643,0.055609266185760495,-0.15038168592453,-0.47987855615615804
0.257419745608722,0.24242078962326,-0.21744223279952998,-0.245166642093658
0.258025439127801,0.24002577009200998,0.06517007188797,-0.247561661624908
0.258631132646881,0.33343153181076,0.06756509141922,-0.336177384281158
0.25923682616596,0.27116102399826003,-0.20546713514328,-0.31941224756240805
0.259842519685039,-0.04019151506423951,0.04840493516922,-0.477483536624908
0.260448213204119,0.18254530134201,0.18252602891922,-0.34815248193740805
0.261053906723198,0.27116102399826003,0.09151528673171999,-0.37928773584365805
0.261659600242277,0.32624647321701,-0.061765963268279996,-0.336177384281158
0.262265293761357,0.22086561384201,-0.22941733045578,-0.264326798343658
0.262870987280436,0.0292640513420105,-0.11685141248703,-0.44874330224990805
0.263476680799515,0.12506483259201,-0.11445639295578,-0.40084291162490804
0.264082374318595,0.20889051618576,-0.08092611951828,-0.355337540531158
0.264688067837674,0.21847059431076,-0.04739584608078,-0.34096742334365804
0.265293761356753,0.27834608259201005,-0.09529623670578001,-0.293067032718658
0.265899454875833,-0.056956651782989504,-0.04021078748703,-0.223611466312408
0.266505148394912,0.16099012556076,-0.15517172498703,-0.27151185693740804
0.267110841913992,0.17057020368575998,-0.14319662733077998,-0.285881974124908
0.267716535433071,0.21128553571701,-0.18630697889328,-0.23079652490615798
0.26832222895215,0.27355604352951,-0.14798666639327998,-0.494248673343658
0.26892792247123,0.31187635602951,0.02924477891922,-0.36012757959365804
0.269533615990309,0.36696180524826,0.02445473985672,-0.0799102944374084
0.270139309509388,0.11069471540451001,-0.16475180311203,-0.314622208499908
0.270745003028468,0.12745985212326,-0.07134604139328,-0.31222718896865803
0.271350696547547,0.11548475446701001,-0.033025728893279996,-0.427188126468658
0.271956390066626,0.20170545759201,-0.17433188123703,-0.211636368656158
0.272562083585706,0.0292640513420105,-0.02105063123703,-0.0104547280311584
0.273167777104785,0.20410047712326,-0.24857748670577998,-0.37210267724990803
0.273773470623864,0.24481580915450998,-0.38748861951828,-0.44155824365615803
0.274379164142944,0.22805067243576,-0.29168783826828004,-0.5205938881874079
0.274984857662023,0.21607557477951,-0.17672690076828,-0.49903871240615805
0.275590551181102,0.29271619977951,-0.09769125623703,-0.46790345849990805
0.276196244700182,0.40049207868576003,0.13223061876297001,-0.276301895999908
0.276801938219261,0.24960584821700998,0.01008462266922,-0.305042130374908
0.27740763173834,0.12266981306076001,-0.16954184217453,-0.295462052249908
0.27801332525742,0.32145643415451003,-0.09050619764328001,-0.266721817874908
0.278619018776499,0.16338514509201,-0.16714682264327999,-0.242771622562408
0.279224712295578,0.22805067243576,-0.10487631483078,-0.32899232568740805
0.279830405814658,0.18494032087325998,0.06756509141922,-0.45113832178115804
0.280436099333737,0.16817518415451,-0.12882651014327998,0.185936873531342
0.281041792852816,0.31666639509201,0.07475015001297,-0.26911683740615805
0.281647486371896,0.055609266185760495,0.08433022813796999,-0.297857071781158
0.282253179890975,0.0723744029045105,-0.24139242811203,-0.242771622562408
0.282858873410055,0.12985487165450998,0.06996011095047,-0.609209610843658
0.283464566929134,0.058004285717010495,-0.10727133436203,0.0326556235313416
0.284070260448213,0.0388441294670105,-0.33719320936203,-0.199661270999908
0.284675953967293,0.22086561384201,-0.29408285779953003,-0.412818009281158
0.285281647486372,0.050819227123260494,-0.04021078748703,-0.403237931156158
0.285887341005451,0.0987196177482605,-0.08811117811203001,-0.386472794437408
0.286493034524531,0.19212537946701,-0.09050619764328001,-0.26193177881240803
0.28709872804361,0.45797254743576005,0.00289956407546997,-0.0535650795936584
0.287704421562689,0.0364491099357605,-0.035420748424529996,-0.151760880374908
0.288310115081769,-0.04019151506423951,-0.15756674451827998,-0.367312638187408
0.288915808600848,0.37893690290451004,-0.28929281873703,-0.254746720218658
0.289521502119927,-0.0210313588142395,0.02684975938797,-0.534964005374908
0.290127195639007,0.29511121931076,0.09151528673171999,-0.446348282718658
0.290732889158086,0.24960584821700998,-0.15756674451827998,-0.293067032718658
0.291338582677165,0.18973035993575998,-0.13361654920577998,-0.305042130374908
0.291944276196245,0.24481580915450998,-0.09290121717453001,-0.26193177881240803
0.292549969715324,0.21847059431076,-0.28929281873703,-0.257141739749908
0.293155663234403,0.21128553571701,-0.22462729139328,-0.384077774906158
0.293761356753483,0.19212537946701,0.00289956407546997,-0.355337540531158
0.294367050272562,0.25200086774825997,-0.02584067029953,-0.226006485843658
0.294972743791641,0.24721082868576,-0.09769125623703,-0.393657853031158
0.295578437310721,0.28313612165451,-0.14080160779953,-0.45113832178115804
0.2961841308298,0.16817518415451,-0.14559164686203,-0.28827699365615805
0.296789824348879,0.053214246654510494,-0.19828207654952998,-0.197266251468658
0.297395517867959,0.16578016462325998,-0.25336752576828,-0.530173966312408
0.298001211387038,0.20170545759201,0.12504556016922,-0.45113832178115804
0.298606904906118,0.0747694224357605,-0.0066805140495300305,-0.163735978031158
0.299212598425197,0.13943494977951,-0.16714682264327999,-0.199661270999908
0.299818291944276,0.23284071149826,-0.09290121717453001,-0.245166642093658
0.300423985463356,0.20410047712326,-0.18630697889328,-0.214031388187408
0.301029678982435,0.21128553571701,-0.20067709608078,-0.31222718896865803
0.301635372501514,0.26158094587326003,-0.056975924205779994,-0.506223770999908
0.302241066020594,0.20410047712326,-0.03063070936203,-0.34096742334365804
0.302846759539673,0.34540662946701,-0.21744223279952998,-0.23558656396865799
0.303452453058752,0.15859510602951,-0.14798666639327998,-0.42000306787490804
0.304058146577832,0.10590467634201,-0.22941733045578,-0.352942520999908
0.304663840096911,0.31427137556076,-0.18391195936203,-0.285881974124908
0.30526953361599,0.13703993024826,0.055589993762970004,-0.532568985843658
0.30587522713507,0.25679090681076,0.00529458360671997,-0.48945863428115804
0.306480920654149,0.26637098493576,-0.11924643201828,-0.237981583499908
0.307086614173228,0.14422498884201,-0.01147055311203,-0.228401505374908
0.307692307692308,0.27355604352951,-0.03781576795578,-0.233191544437408
0.308298001211387,0.26637098493576,0.060380032825470005,-0.276301895999908
0.308903694730466,0.37414686384201,-0.22223227186202998,-0.36012757959365804
0.309509388249546,0.41486219587326,-0.21265219373702998,-0.314622208499908
0.310115081768625,0.24960584821700998,-0.00428549451828003,0.195516951656342
0.310720775287704,0.15620008649826,-0.06655600233078,-0.26193177881240803
0.311326468806784,0.32385145368576,-0.20546713514328,-0.345757462406158
0.311932162325863,0.37175184431076,-0.10008627576828,-0.166130997562408
0.312537855844942,0.33822157087326005,0.01008462266922,-0.39126283349990804
0.313143549364022,0.43881239118576004,-0.02823568983078,-0.35054750146865804
0.313749242883101,0.29032118024826004,-0.04979086561203,-0.30025209131240804
0.31435493640218,0.12985487165450998,-0.27492270154953,-0.27869691553115805
0.31496062992126,0.14901502790451,0.01487466173172,-0.44874330224990805
0.315566323440339,0.0891395396232605,-0.10248129529953,-0.221216446781158
0.316172016959419,0.20649549665451,-0.02105063123703,-0.30983216943740804
0.316777710478498,0.13943494977951,-0.04260580701828,-0.293067032718658
0.317383403997577,0.27834608259201005,-0.08571615858078001,-0.293067032718658
0.317989097516657,0.30708631696701,0.19210610704422001,-0.202056290531158
0.318594791035736,0.10350965681076,-0.13361654920577998,-0.39844789209365805
0.319200484554815,0.27834608259201005,-0.02584067029953,-0.23079652490615798
0.319806178073895,0.24960584821700998,-0.07613608045578,-0.07512025537490839
0.320411871592974,0.13224989118576,-0.07613608045578,-0.465508438968658
0.321017565112053,0.23763075056076,-0.054580904674529994,-0.46071839990615804
0.321623258631133,0.19931043806076,0.012479642200469999,-0.192476212406158
0.322228952150212,0.18015028181075998,-0.054580904674529994,-0.317017228031158
0.322834645669291,0.31906141462326004,-0.07853109998703,-0.40084291162490804
0.323440339188371,-0.061746690845489505,0.08433022813796999,-0.33138734521865804
0.32404603270745,0.24242078962326,-0.10487631483078,-0.28827699365615805
0.324651726226529,0.44599744977951,0.02445473985672,-0.352942520999908
0.325257419745609,0.26158094587326003,0.01487466173172,-0.455928360843658
0.325863113264688,0.24960584821700998,-0.19588705701828,-0.192476212406158
0.326468806783767,0.24721082868576,-0.05218588514327999,-0.496643692874908
0.327074500302847,0.30708631696701,0.07954018907547,-0.48227357568740803
0.327680193821926,0.20889051618576,-0.22702231092452999,-0.357732560062408
0.328285887341005,0.24242078962326,-0.12164145154953,-0.40802797021865805
0.328891580860085,0.29990125837326004,0.04600991563797,-0.283486954593658
0.329497274379164,0.16817518415451,-0.13361654920577998,-0.412818009281158
0.330102967898244,0.15380506696701,-0.28450277967453,-0.187686173343658
0.330708661417323,0.29990125837326004,-0.15996176404953,-0.443953263187408
0.331314354936402,-0.0833018666267395,-0.15277670545577998,-0.26911683740615805
0.331920048455482,0.053214246654510494,-0.12403647108078,-0.127810685062408
0.332525741974561,0.42683729352951,0.10588540391922,-0.0894903725624084
0.33313143549364,0.18494032087325998,0.06277505235672,-0.137390763187408
0.33373712901272,-0.037796495532989506,-0.22702231092452999,-0.307437149906158
0.334342822531799,0.055609266185760495,-0.13361654920577998,-0.417608048343658
0.334948516050878,0.050819227123260494,-0.03781576795578,-0.412818009281158
0.335554209569958,0.0651893443107605,-0.033025728893279996,-0.405632950687408
0.336159903089037,0.29511121931076,0.03163979845047,-0.43197816553115803
0.336765596608116,0.28792616071701,-0.10248129529953,-0.436768204593658
0.337371290127196,0.15620008649826,-0.09050619764328001,-0.31941224756240805
0.337976983646275,0.00531385602951048,-0.09769125623703,-0.240376603031158
0.338582677165354,0.26637098493576,-0.06895102186203,-0.42958314599990804
0.339188370684434,0.0891395396232605,-0.11206137342453,-0.731355606937408
0.339794064203513,0.0843495005607605,-0.11685141248703,-0.573284317874908
0.340399757722592,0.28074110212326003,0.22563638048172002,0.200306990718842
0.341005451241672,0.15859510602951,0.17294595079422,0.262577498531342
0.341611144760751,0.25439588727951,0.02924477891922,-0.30983216943740804
0.34221683827983,0.29032118024826004,-0.07613608045578,-0.384077774906158
0.34282253179891,0.17296522321701,-0.09529623670578001,-0.40084291162490804
0.343428225317989,0.19691541852951,-0.16235678358077998,-0.647529923343658
0.344033918837068,0.20410047712326,-0.18630697889328,-0.37928773584365805
0.344639612356148,0.0843495005607605,0.012479642200469999,-0.5397540444374079
0.345245305875227,0.20170545759201,-0.02105063123703,-0.158945938968658
0.345850999394306,0.25918592634201004,-0.19109701795578,-0.158945938968658
0.346456692913386,0.20649549665451,-0.09769125623703,-0.317017228031158
0.347062386432465,0.11787977399826001,-0.01386557264328,-0.185291153812408
0.347668079951545,0.11069471540451001,-0.09290121717453001,-0.264326798343658
0.348273773470624,0.10350965681076,-0.15277670545577998,-0.336177384281158
0.348879466989703,0.15380506696701,-0.02105063123703,-0.522988907718658
0.349485160508783,0.23284071149826,0.04600991563797,-0.295462052249908
0.350090854027862,0.15620008649826,-0.10248129529953,-0.226006485843658
0.350696547546941,0.23044569196700998,-0.09290121717453001,-0.35054750146865804
0.351302241066021,0.31666639509201,-0.19109701795578,-0.276301895999908
0.3519079345851,0.27116102399826003,-0.16714682264327999,-0.36012757959365804
0.352513628104179,0.38133192243576003,-0.056975924205779994,-0.326597306156158
0.353119321623259,0.24960584821700998,-0.14559164686203,-0.237981583499908
0.353725015142338,0.28313612165451,-0.30126791639328004,-0.209241349124908
0.354330708661417,0.27116102399826003,-0.08092611951828,-0.42000306787490804
0.354936402180497,0.14182996931076,0.007689603137969969,-0.276301895999908
0.355542095699576,0.33343153181076,-0.26773764295578,-0.216426407718658
0.356147789218655,0.18973035993575998,-0.09050619764328001,-0.34815248193740805
0.356753482737735,0.24242078962326,-0.13122152967453,-0.156550919437408
0.357359176256814,0.37893690290451004,-0.059370943737029995,-0.182896134281158
0.357964869775893,0.24002577009200998,-0.04021078748703,-0.142180802249908
0.358570563294973,-0.0210313588142395,-0.07613608045578,-0.237981583499908
0.359176256814052,0.12266981306076001,-0.06416098279953,-0.297857071781158
0.359781950333131,0.32385145368576,-0.19588705701828,-0.427188126468658
0.360387643852211,0.16578016462325998,-0.14080160779953,-0.630764786624908
0.36099333737129,0.32864149274826004,-0.09769125623703,-0.47987855615615804
0.361599030890369,0.22805067243576,0.055589993762970004,-0.403237931156158
0.362204724409449,0.24960584821700998,-0.18630697889328,-0.264326798343658
0.362810417928528,0.22565565290450998,0.06756509141922,-0.31222718896865803
0.363416111447607,0.19691541852951,0.06517007188797,-0.30264711084365803
0.364021804966687,0.20410047712326,-0.14798666639327998,-0.28827699365615805
0.364627498485766,0.33582655134201,-0.16235678358077998,-0.218821427249908
0.365233192004846,0.37175184431076,0.05319497423172,-0.355337540531158
0.365838885523925,0.29032118024826004,0.18971108751297,-0.633159806156158
0.366444579043004,0.11787977399826001,-0.01865561170578,-0.376892716312408
0.367050272562084,0.11069471540451001,0.16815591173172,-0.336177384281158
0.367655966081163,0.12745985212326,-0.04979086561203,-0.285881974124908
0.368261659600242,0.28553114118576,-0.07134604139328,-0.333782364749908
0.368867353119322,0.35019666852951004,-0.07853109998703,-0.31222718896865803
0.369473046638401,0.19212537946701,-0.21983725233078,-0.043985001468658406
0.37007874015748,0.32145643415451003,-0.20307211561202998,-0.563704239749908
0.37068443367656,0.46276258649826,-0.056975924205779994,-0.187686173343658
0.371290127195639,0.41246717634201,-0.00907553358078003,0.324848006343842
0.371895820714718,0.38851698102951004,-0.13122152967453,-0.137390763187408
0.372501514233798,0.58730360212326,-0.21983725233078,-0.0607501381874084
0.373107207752877,0.32624647321701,0.000504544544219973,-0.46071839990615804
0.373712901271956,0.34301160993576,0.000504544544219973,-0.415213028812408
0.374318594791036,0.38851698102951004,-0.01147055311203,-0.403237931156158
0.374924288310115,0.40528211774826,-0.10727133436203,-0.343362442874908
0.375529981829194,0.68070936384201,-0.10008627576828,-0.0894903725624084
0.376135675348274,0.44599744977951,0.15618081407547002,-0.453533341312408
0.376741368867353,0.36456678571701,-0.17672690076828,-0.297857071781158
0.377347062386432,0.44360243024826,-0.08571615858078001,-0.30264711084365803
0.377952755905512,0.41246717634201,-0.16954184217453,-0.434373185062408
0.378558449424591,0.22805067243576,-0.19349203748702998,-0.355337540531158
0.379164142943671,0.11308973493576001,-0.17672690076828,-0.237981583499908
0.37976983646275,0.34061659040451003,-0.18870199842452998,-0.34096742334365804
0.380375529981829,0.33582655134201,-0.14559164686203,-0.496643692874908
0.380981223500909,0.25679090681076,0.05319497423172,-0.324202286624908
0.381586917019988,0.46036756696701003,-0.059370943737029995,-0.36252259912490803
0.382192610539067,0.33343153181076,-0.17672690076828,-0.0870953530311584
0.382798304058147,-0.00426622209548952,0.04840493516922,-0.48945863428115804
0.383403997577226,0.18015028181075998,-0.19588705701828,-0.32899232568740805
0.384009691096305,0.12506483259201,0.03882485704422,-0.314622208499908
0.384615384615385,0.26397596540451,0.07235513048172,-0.551729142093658
0.385221078134464,0.15620008649826,0.03882485704422,-0.242771622562408
0.385826771653543,0.11787977399826001,-0.01626059217453,-0.293067032718658
0.386432465172623,0.36217176618576,-0.02344565076828,-0.25953675928115805
0.387038158691702,0.32145643415451003,-0.13361654920577998,-0.484668595218658
0.387643852210781,0.16578016462325998,0.07714516954422,-0.42239808740615803
0.388249545729861,0.31666639509201,-0.06655600233078,-0.192476212406158
0.38885523924894,0.54658827009201,-0.19588705701828,-0.305042130374908
0.389460932768019,0.24242078962326,0.12025552110672,-0.6020245522499079
0.390066626287099,0.56095838727951,-0.08332113904953001,-0.41042298974990804
0.390672319806178,0.42444227399826,-0.06895102186203,-0.34815248193740805
0.391278013325257,0.43641737165451,-0.09050619764328001,-0.37928773584365805
0.391883706844337,0.71184461774826,-0.20067709608078,-0.393657853031158
0.392489400363416,0.69507948102951,-0.20546713514328,-0.5421490639686579
0.393095093882495,0.74058485212326,0.04840493516922,-0.326597306156158
0.393700787401575,0.55137830915451,0.01008462266922,-0.563704239749908
0.394306480920654,0.68070936384201,-0.20067709608078,-0.324202286624908
0.394912174439733,0.81004041852951,-0.07853109998703,-0.566099259281158
0.395517867958813,0.76693006696701,-0.061765963268279996,-0.625974747562408
0.396123561477892,0.66873426618576,-0.18630697889328,-0.393657853031158
0.396729254996972,0.75974500837326,-0.10248129529953,-0.6187896889686579
0.397334948516051,0.70944959821701,-0.17193686170578,-0.352942520999908
0.39794064203513,0.73100477399826,-0.07613608045578,-0.33138734521865804
0.39854633555421,0.95613660993576,-0.0066805140495300305,-0.27869691553115805
0.399152029073289,0.91781629743576,-0.07613608045578,-0.776860978031158
0.399757722592368,0.85315077009201,-0.04021078748703,-0.551729142093658
0.400363416111448,0.74776991071701,0.000504544544219973,-0.705010392093658
0.400969109630527,0.87710096540451,-0.08092611951828,-0.915772110843658
0.401574803149606,0.71184461774826,-0.12643149061203002,-0.355337540531158
0.402180496668686,0.84596571149826,-0.07374106092453,-0.544544083499908
0.402786190187765,0.71902967634201,-0.28210776014328004,-0.5613092202186579
0.403391883706844,0.44120741071701003,-0.11685141248703,-0.822366349124908
0.403997577225924,0.60646375837326,-0.035420748424529996,-0.42958314599990804
0.404603270745003,0.42444227399826,-0.29408285779953003,-0.233191544437408
0.405208964264082,0.52742811384201,-0.17433188123703,-0.44874330224990805
0.405814657783162,0.6423890513420101,0.09391030626296999,-0.31222718896865803
0.406420351302241,0.34780164899826,-0.11206137342453,-0.314622208499908
0.40702604482132,0.21607557477951,-0.18630697889328,-0.199661270999908
0.4076317383404,0.46515760602951,-0.10248129529953,-0.5804693764686579
0.408237431859479,0.29511121931076,-0.10248129529953,-0.30025209131240804
0.408843125378558,0.22805067243576,0.13702065782547002,-0.254746720218658
0.409448818897638,0.31906141462326004,-0.02584067029953,-0.544544083499908
0.410054512416717,0.18733534040451,-0.10727133436203,-0.36012757959365804
0.410660205935796,0.060399305248260496,-0.06416098279953,-0.27151185693740804
0.411265899454876,0.058004285717010495,-0.10727133436203,-0.285881974124908
0.411871592973955,0.060399305248260496,-0.20307211561202998,-0.30025209131240804
0.412477286493035,-0.12401719865798999,-0.15996176404953,-0.515803849124908
0.413082980012114,0.058004285717010495,-0.18870199842452998,-0.45832338037490805
0.413688673531193,0.30948133649826004,-0.033025728893279996,-0.384077774906158
0.414294367050273,-0.10006700334549,-0.11685141248703,-0.345757462406158
0.414900060569352,-0.20784288225174,-0.25336752576828,-0.190081192874908
0.415505754088431,-0.0114512806892395,-0.07853109998703,-0.384077774906158
0.416111447607511,0.0268690318107605,-0.08332113904953001,-0.252351700687408
0.41671714112659,-0.009056261157989519,-0.035420748424529996,-0.443953263187408
0.417322834645669,0.058004285717010495,-0.056975924205779994,-0.202056290531158
0.417928528164749,0.20649549665451,-0.13361654920577998,-0.130205704593658
0.418534221683828,0.17536024274825998,-0.07134604139328,-0.34815248193740805
0.419139915202907,-0.0904869252204895,-0.13601156873703,-0.187686173343658
0.419745608721987,0.0101038950920105,-0.11445639295578,-0.228401505374908
0.420351302241066,0.14901502790451,-0.27492270154953,-0.29067201318740804
0.420956995760145,0.16817518415451,-0.21025717420578,-0.384077774906158
0.421562689279225,0.13224989118576,0.00529458360671997,-0.30983216943740804
0.422168382798304,0.18973035993575998,-0.09529623670578001,-0.180501114749908
0.422774076317383,0.45797254743576005,-0.04979086561203,-0.29067201318740804
0.423379769836463,0.25439588727951,-0.059370943737029995,-0.34096742334365804
0.423985463355542,0.15380506696701,0.09391030626296999,-0.34096742334365804
0.424591156874621,0.25679090681076,0.02445473985672,-0.249956681156158
0.425196850393701,0.40288709821701,-0.09769125623703,-0.233191544437408
0.42580254391278,0.21368055524826,-0.11445639295578,-0.245166642093658
0.426408237431859,0.21607557477951,-0.15996176404953,-0.33857240381240805
0.427013930950939,0.5657484263420101,-0.18630697889328,-0.149365860843658
0.427619624470018,0.45557752790451,0.10349038438797,-0.37928773584365805
0.428225317989098,0.21368055524826,-0.11685141248703,-0.245166642093658
0.428831011508177,0.36456678571701,0.07714516954422,-0.134995743656158
0.429436705027256,0.37414686384201,0.036429837512970006,-0.27869691553115805
0.430042398546336,0.21847059431076,-0.20786215467452998,-0.38168275537490803
0.430648092065415,0.43881239118576004,0.00289956407546997,0.252997420406342
0.431253785584494,0.24481580915450998,0.04121987657547,0.621830428218842
0.431859479103574,0.25200086774825997,0.02684975938797,-0.374497696781158
0.432465172622653,0.35019666852951004,-0.24857748670577998,-0.125415665531158
0.433070866141732,0.38612196149826,-0.04979086561203,-0.317017228031158
0.433676559660812,0.31666639509201,-0.12643149061203002,-0.333782364749908
0.434282253179891,0.11308973493576001,-0.16475180311203,-0.106255509281158
0.43488794669897,0.11308973493576001,0.16576089220047002,-0.249956681156158
0.43549364021805,0.14662000837326,-0.21744223279952998,-0.0966754311561584
0.436099333737129,0.0675843638420105,-0.02344565076828,-0.6187896889686579
0.436705027256208,0.00770887556076048,0.28790688829422,-0.254746720218658
0.437310720775288,0.49150282087326,-0.48089438123703004,0.231442244625092
0.437916414294367,0.20889051618576,0.26635171251296996,-0.47987855615615804
0.438522107813446,0.0939295786857605,-0.08092611951828,-0.37928773584365805
0.439127801332526,0.34301160993576,-0.25097250623703,0.0709759360313416
0.439733494851605,0.45797254743576005,0.26156167345047,-0.688245255374908
0.440339188370684,0.0939295786857605,-0.14319662733077998,-0.252351700687408
0.440944881889764,-0.27490342912674,-0.71800131483078,0.0182855063438416
0.441550575408843,0.77411512556076,0.29509194688796997,-1.01157289209366
0.442156268927922,0.19931043806076,0.42202798204422,-0.190081192874908
0.442761962447002,-0.5934410267829899,-0.94552817029953,-0.566099259281158
0.443367655966081,0.62801893415451,0.46992837266922,-0.0272198647499084
0.44397334948516,0.54898328962326,-0.18630697889328,-0.237981583499908
0.44457904300424,-0.62936631975174,-0.11445639295578,-1.00917787256241
0.445184736523319,-0.056956651782989504,-0.97666342420578,0.193121932125092
0.445790430042399,0.5226380747795101,1.00162270860672,-0.690640274906158
0.446396123561478,0.49389784040451,0.59686440782547,-1.3085553139686599
0.447001817080557,-0.71558702287674,-1.32394125623703,0.38711851415634196
0.447607510599637,0.12985487165450998,0.7046402867317201,-0.764885880374908
0.448213204118716,1.49262098493576,-0.06416098279953,-0.6595050209999079
0.448818897637795,-0.59583604631424,0.75254067735672,-0.123020645999908
0.449424591156875,0.0939295786857605,-1.58978842420578,-0.33138734521865804
0.450030284675954,0.66154920759201,1.2698648961067198,-0.357732560062408
0.450635978195033,0.5034779185295101,-0.47131430311203004,-0.36252259912490803
0.451241671714113,-0.84731309709549,-0.47370932264328003,-0.27151185693740804
0.451847365233192,-0.15754747209549,0.7046402867317201,-1.10976869287491
0.452453058752271,1.71056776227951,-0.36832846326828,-0.032009903812408404
0.453058752271351,0.0196839732170105,0.36215249376297,-0.211636368656158
0.45366444579043,-0.33717393693923997,-2.2508138148307797,-0.934932267093658
0.454270139309509,0.0771644419670105,2.38833901720047,-0.793626114749908
0.454875832828589,1.51657118024826,-1.10599447889328,0.41825376806259196
0.455481526347668,-0.36351915178299,1.60995766954422,-1.39717103662491
0.456087219866747,-0.8521031361579899,-1.78618002576828,-0.352942520999908
0.456692913385827,1.5189661997795099,-0.40664877576828,0.121271346187592
0.457298606904906,0.98008680524826,2.2326627476692202,-1.0474981850624099
0.457904300423985,-1.81969102678299,-2.18614828748703,-1.1217437905311598
0.458509993943065,0.67352430524826,0.34059731798172,0.652965682125092
0.459115687462144,2.1129310435295103,-0.04260580701828,-0.6786651772499079
0.459721380981224,-0.52877549943924,1.18124917345047,-1.0474981850624099
0.460327074500303,-1.42211778459549,-3.59920981092453,0.185936873531342
0.460932768019382,1.3058094614982598,2.99906899766922,-1.01396791162491
0.461538461538462,2.20633680524826,0.97048745470047,-0.47987855615615804
0.462144155057541,-3.22556749162674,-2.47115561170578,-0.6379498452186579
0.46274984857662,0.74058485212326,0.25198159532547,-0.17092103662490798
0.4633555420957,2.9775330943107603,1.27465493516922,-0.5804693764686579
0.463961235614779,-1.69994005022049,0.71661538438797,-0.26911683740615805
0.464566929133858,-0.63894639787674,-3.38605307264328,0.344008162593842
0.465172622652938,0.7022645396232601,3.1810904820442203,-0.534964005374908
0.465778316172017,2.00276014509201,-1.92748617811203,0.006310408687591641
0.466384009691096,-2.0687730580329897,0.48190347032547,-0.293067032718658
0.466989703210176,-0.82815294084549,-0.7132112757682799,-2.1539972084999097
0.467595396729255,2.8745472544670103,0.32383218126297,0.26976255712509195
0.468201090248334,0.36696180524826,1.74647378282547,-0.113440567874908
0.468806783767414,-1.0508897572517402,-4.09737387342453,-0.9780426186561579
0.469412477286493,-0.40662950334549,3.34874184923172,-0.5589142006874079
0.470018170805572,3.2673304575920104,-0.60304037733078,-0.0990704506874084
0.470623864324652,-2.03045274553299,0.9633023961067201,-0.716985489749908
0.471229557843731,-2.23402940568924,-3.29264731092453,-0.963672501468658
0.47183525136281,3.3032557505607603,2.30211831407547,0.0374456625938416
0.47244094488189,1.49980604352951,1.16927407579422,0.145221541500092
0.473046638400969,-3.86982774553299,-2.32505942029953,-1.2798150795936598
0.473652331920048,0.91781629743576,0.9465372593879701,-0.728960587406158
0.474258025439128,3.37271131696701,-0.49526449842453,-1.0474981850624099
0.474863718958207,-0.40423448381424,3.11881997423172,-1.05468324365616
0.475469412477286,-2.69147813615799,-5.27811850233078,0.32724302587509196
0.476075105996366,1.4040052622795098,2.99906899766922,-1.3564557045936598
0.476680799515445,4.19180799665451,1.4447013218879698,-0.5613092202186579
0.477286493034525,-4.56198839006424,-1.55146811170578,-1.82348451318741
0.477892186553604,0.49868787946701004,-2.2771590296745297,2.2169134360313403
0.478497880072683,4.55824598493576,2.82423257188797,-0.204451310062408
0.479103573591763,-0.96945909318924,1.73449868516922,-1.97916078271866
0.479709267110842,-3.7548668080329897,-6.17146078748703,1.87921568212509
0.480314960629921,1.60279188337326,4.60852212266922,-0.676270157718658
0.480920654149001,4.3762245005607605,0.23521645860672,-1.4426764077186598
0.48152634766808,-4.9044761830329895,-1.61134359998703,1.5606780844688402
0.482132041187159,-1.07962999162674,-1.2712508265495301,-3.23415101709366
0.482737734706239,4.44568006696701,3.22659585313797,-0.8008111733436579
0.483343428225318,0.41725721540451,-0.36353842420578003,1.9462762290000901
0.483949121744397,-1.9154918080329901,-2.66515219373703,-1.7707940834999099
0.484554815263477,-0.69642686662674,2.5320401890754702,-0.295462052249908
0.485160508782556,3.47809217634201,-1.12275961561203,0.7775066977500921
0.485766202301635,-2.14780870256424,3.0685245640754704,-0.829551407718658
0.486371895820715,-2.7010582142829898,-4.28418539686203,-0.932537247562408
0.486977589339794,3.3703162974357603,0.92977212266922,1.87921568212509
0.487583282858873,3.67687879743576,1.9572355015754699,-1.1816192788124098
0.488188976377953,-4.82783555803299,-2.3178743617057798,-1.76360902490616
0.488794669897032,-1.08681505022049,-0.96229330701828,-0.434373185062408
0.489400363416111,5.77012586774826,1.9189151890754699,0.241022322750092
0.490006056935191,-0.49764024553298997,3.6169840367317203,-0.544544083499908
0.49061175045427,-4.80388536272049,-8.03718100233078,1.57025816259384
0.491217443973349,2.56558973493576,3.7295499547004702,-1.3899859780311599
0.491823137492429,5.36297254743576,2.74759194688797,-0.484668595218658
0.492428831011508,-6.43968370256424,-2.3106893031120297,-1.01875795068741
0.493034524530587,0.0987196177482605,-2.6867073695182797,1.35231138525009
0.493640218049667,4.22533827009201,3.2505460484504702,-0.0128497475624084
0.494245911568746,0.0196839732170105,1.2866300328254698,-1.6462530678749099
0.494851605087826,-4.54043321428299,-4.950000826549529,0.27694761571884197
0.495457298606905,1.1692933482170098,2.70448159532547,-0.927747208499908
0.496062992125984,6.6778382700920105,1.3033951695442199,0.161986678218842
0.496668685645064,-5.53197130022049,-0.22223227186202998,0.233837264156342
0.497274379164143,-2.82799424943924,-4.43507162733078,-3.55029359521866
0.497880072683222,6.38325086774826,5.11626626329422,-0.144575821781158
0.498485766202302,1.51178114118576,0.87708169298172,0.993058455562592
0.499091459721381,-4.16441514787674,-4.59314291639328,-0.683455216312408
0.49969715324046,-0.36351915178299,2.02190102891922,0.344008162593842
0.50030284675954,5.17616102399826,0.46753335313797,-0.364917618656158
0.500908540278619,-2.98606553850174,2.23505776720047,-0.233191544437408
0.501514233797698,-4.22908067522049,-4.30574057264328,-1.3612457436561598
0.502119927316778,4.32832410993576,1.2387296422004699,0.420648787593842
0.502725620835857,3.94751600446701,2.09854165391922,-0.913377091312408
0.503331314354936,-5.51281114397049,-1.98257162733078,-1.0570782631874098
0.503937007874016,-1.4532530385017401,-0.99821859998703,-1.10497865381241
0.504542701393095,6.3257703989982605,2.22547768907547,-0.214031388187408
0.505148394912174,0.6854994029045101,3.32958169298172,-0.424793106937408
0.505754088431254,-6.27921739397049,-6.94984213514328,-0.101465470218658
0.506359781950333,1.97401991071701,1.69857339220047,-1.48339173974991
0.506965475469413,7.94959364118576,4.19418374376297,1.1918450766563402
0.507571168988492,-8.16409776506424,-0.35156332654953004,-2.9491436928749097
0.508176862507571,-1.33589708147049,-6.22175619764328,1.77143980321884
0.50878255602665,6.41917616071701,4.39776040391922,0.581115096187592
0.50938824954573,0.66873426618576,3.27928628282547,-2.6928766030311597
0.509993943064809,-6.17862657365799,-6.74387045545578,0.930787947750092
0.510599636583889,0.99445692243576,2.0937516148567203,-0.934932267093658
0.511205330102968,7.51130506696701,2.87452798204422,-0.264326798343658
0.511811023622047,-5.08889268693924,-1.0868343226432802,0.521239607906342
0.512416717141127,-3.76923692522049,-4.09737387342453,-3.1383502358436597
0.513022410660206,6.0790833872795105,4.22052895860672,-0.9995977944374079
0.513628104179285,3.47569715681076,0.84115640001297,1.5055926352500901
0.514233797698365,-5.15834825334549,-3.77644125623703,-0.434373185062408
0.514839491217444,-1.5682139760017402,0.7884659703254701,-0.039194962406158405
0.515445184736523,6.7377137583732605,1.71294350938797,-0.827156388187408
0.516050878255603,-2.26995469865799,2.39791909532547,0.506869490718842
0.516656571774682,-5.9822349720954895,-4.38238119764328,-2.55396547021866
0.517262265293761,4.76661268415451,-1.0748592249870301,1.01700865087509
0.517867958812841,5.67672010602951,4.44087075548172,-0.867871720218658
0.51847365233192,-6.14270128068924,-0.92636801404953,-2.50846009912491
0.519079345850999,-2.8136241322517397,-3.86505697889328,1.0433538657188401
0.519685039370079,6.87662489118576,2.9080582554817203,-0.0847003334999084
0.520290732889158,1.28185926618576,3.51160317735672,-0.628369767093658
0.520896426408237,-7.27554551897049,-6.4277278773307795,1.01700865087509
0.521502119927317,1.5357313364982599,0.59925942735672,-1.3516656655311599
0.522107813446396,8.74953016462326,4.76180337266922,0.0206805258750916
0.522713506965475,-7.34260606584549,-0.33000815076828,-1.83785463037491
0.523319200484555,-2.6938731556892397,-6.31755697889328,0.880492537593842
0.523924894003634,6.5652723521232605,3.9498917515754703,-0.26911683740615805
0.524530587522714,2.6518104380607603,3.18348550157547,-0.446348282718658
0.525136281041793,-7.5389976674079895,-5.39068442029953,-0.178106095218658
0.525741974560872,-0.12162217912673999,0.35736245470046996,-1.4330963295936598
0.526347668079951,8.00946912946701,3.14995522813797,1.10083433446884
0.526953361599031,-4.20513047990799,1.07107827501297,-0.8798468178749079
0.52755905511811,-4.80149034318924,-4.70331381483078,-1.9815558022499098
0.52816474863719,4.91270887556076,1.50697182970047,0.26736753759384196
0.528770442156269,4.47442030134201,2.79788735704422,0.159591658687592
0.529376135675348,-5.15355821428299,-2.93339438123703,-0.611604630374908
0.529981829194428,-2.90463487443924,-1.74306967420578,-0.616394669437408
0.530587522713507,6.99398084821701,2.58473061876297,-0.443953263187408
0.531193216232586,-0.39704942522048997,2.84578774766922,0.00152036962509164
0.531798909751666,-8.02039659318924,-4.9907161585807795,-2.3336236733436597
0.532404603270745,4.47921034040451,-0.89762777967453,0.708051131343842
0.533010296789824,7.27419813337326,4.8959244664192205,-0.568494278812408
0.533615990308904,-6.20257676897049,-1.01019369764328,-1.58398256006241
0.534221683827983,-3.27346788225174,-3.37647299451828,-1.13132386865616
0.534827377347062,6.88141493024826,1.8638297398567198,-0.424793106937408
0.535433070866142,2.59912000837326,3.77745034532547,0.391908553218842
0.536038764385221,-7.30668077287674,-4.09737387342453,0.109296248531342
0.5366444579043,0.16578016462325998,-1.8316853968620301,-1.6725982827186598
0.53725015142338,8.55313856306076,4.62528725938797,-0.137390763187408
0.537855844942459,-4.73442979631424,0.47232339220047,-0.671480118656158
0.538461538461538,-4.31769639787674,-5.51762045545578,-0.396052872562408
0.539067231980618,5.94975233259201,2.03866616563797,0.32963804540634195
0.539672925499697,4.95342420759201,4.22292397813797,0.231442244625092
0.540278619018776,-7.47193712053299,-4.14048422498703,-0.853501603031158
0.540884312537856,-1.6232994252204902,-2.4400203577995296,-0.793626114749908
0.541490006056935,9.02974744977951,4.82167886095047,0.32963804540634195
0.542095699576015,-3.4626744252204897,1.09742348985672,0.197911971187592
0.542701393095094,-6.15946641740799,-4.57398276014328,-2.33122865381241
0.543307086614173,5.08275526227951,0.69506020860672,-0.17092103662490798
0.543912780133253,4.79056287946701,3.16911538438797,0.549979842281342
0.544518473652332,-4.35362169084549,-1.44369223279953,-0.9780426186561579
0.545124167171411,-3.4027989369392397,-1.55625815076828,-0.728960587406158
0.545729860690491,6.18206922712326,0.85313149766922,-0.673875138187408
0.54633555420957,1.44472059431076,3.71757485704422,-0.544544083499908
0.546941247728649,-6.94263780412674,-3.4579036585807796,-0.5421490639686579
0.547546941247729,2.10814100446701,-3.28785727186203,-0.305042130374908
0.548152634766808,7.71248670759201,5.54497475938797,-0.848711563968658
0.548758328285887,-4.35841172990799,-0.71800131483078,-0.07272523584365839
0.549364021804967,-5.74752305803299,-3.71177572889328,-1.75163392724991
0.549969715324046,6.96524061384201,0.54177895860672,0.166776717281342
0.550575408843125,4.44328504743576,5.98805337266922,1.06251402196884
0.551181102362205,-8.35569932756424,-4.54763754529953,1.0864642172813401
0.551786795881284,-0.64613145647049,-3.13457602186203,-2.20189759912491
0.552392489400363,8.57229871931076,6.100619290637971,-0.26193177881240803
0.552998182919443,-4.20034044084549,-0.21025717420578,-0.293067032718658
0.553603876438522,-4.80628038225174,-4.12371908826828,-1.5696124428749099
0.554209569957601,4.87917860212326,0.6064444859504701,0.35837827978134196
0.554815263476681,4.35706434431076,4.08880288438797,-0.036799942874908405
0.55542095699576,-4.91405626115799,-2.9525545374870297,-0.434373185062408
0.556026650514839,-3.33813340959549,-2.22925863904953,-1.28221009912491
0.556632344033919,7.69093153181076,2.41707925157547,-0.343362442874908
0.557238037552998,-0.37788926897048997,2.42665932970047,1.2062151938438401
0.557843731072078,-7.85035020647049,-3.66627035779953,-3.10721498193741
0.558449424591157,4.43130994977951,-1.92269613904953,-1.2798150795936598
0.559055118110236,6.41917616071701,5.03962563829422,0.681705916500092
0.559660811629316,-4.3320665150642395,-1.11796957654953,-0.211636368656158
0.560266505148395,-4.83023057756424,-2.6364119593620297,0.126061385250092
0.560872198667474,5.91143202009201,0.06996011095047,-1.22951966943741
0.561477892186554,2.5320594614982603,4.929454739856721,-0.0847003334999084
0.562083585705633,-7.04322862443924,-3.09146567029953,-0.0631451577186584
0.562689279224712,0.98966688337326,-3.8770320765495296,-0.990017716312408
0.563294972743792,7.1041517466545105,5.29110268907547,-0.867871720218658
0.563900666262871,-4.08058946428299,0.18252602891922,-0.669085099124908
0.56450635978195,-4.62665391740799,-3.3716829554557797,-1.26783998193741
0.56511205330103,5.40608289899826,-1.04611899061203,-0.364917618656158
0.565717746820109,4.80972303571701,5.95931313829422,0.40867368993759196
0.566323440339188,-6.25766221818924,-3.7477010218620297,0.763136580562592
0.566929133858268,-3.09863145647049,-2.7633479945182797,-2.81741761865616
0.567534827377347,9.22374403181076,4.0241373570442205,-0.182896134281158
0.568140520896426,-2.75135362443924,2.11530679063797,-0.190081192874908
0.568746214415506,-5.68764756975174,-3.8842171351432797,-0.623579728031158
0.569351907934585,4.45526014509201,-2.4208602015495297,0.303292830562592
0.569957601453664,5.08275526227951,5.51144448595047,-0.8008111733436579
0.570563294972744,-4.23147569475174,-1.8484505335807802,-0.592444474124908
0.571168988491823,-3.69978135881424,-1.80294516248703,-0.788836075687408
0.571774682010902,6.51018690290451,0.52022378282547,-0.06793519678115839
0.572380375529982,0.53700819196701,3.35592690782547,0.28892271337509196
0.572986069049061,-6.46602891740799,-2.70107748670578,-1.74684388818741
0.57359176256814,2.14646131696701,-3.3956331507682798,-1.35885072412491
0.57419745608722,6.75208387556076,4.65881753282547,0.236232283687592
0.574803149606299,-2.8399693470954896,0.01008462266922,-0.36252259912490803
0.575408843125379,-6.02774034318924,-2.3178743617057798,-0.27151185693740804
0.576014536644458,6.02878797712326,-1.58499838514328,-0.726565567874908
0.576620230163537,3.3272059458732604,6.879000638294221,-0.46071839990615804
0.577225923682617,-6.67200059709549,-3.48903891248703,0.585905135250092
0.577831617201696,-0.5718858510017399,-4.63625326795578,-1.7492389077186599
0.578437310720775,7.60710584821701,4.13191323595047,-0.748120743656158
0.579043004239855,-2.54298692522049,1.87580483751297,-0.07512025537490839
0.579648697758934,-5.29246934709549,-2.74897787733078,-1.15287904443741
0.580254391278013,4.9151038950920105,-2.71784262342453,-0.7577008217811579
0.580860084797093,4.49358045759201,5.62401040391922,0.902047713375092
0.581465778316172,-5.08649766740799,-2.7729280726432797,0.573930037593842
0.582071471835251,-3.45309434709549,-1.69277426404953,-1.73965882959366
0.582677165354331,7.90169325056076,0.75254067735672,-0.26911683740615805
0.58328285887341,-0.84012803850174,3.34634682970047,-0.297857071781158
0.583888552392489,-5.66609239397049,-3.11302084608078,-0.774465958499908
0.584494245911569,2.7883265513420104,-3.0028499476432797,-0.7217755288124079
0.585099939430648,6.19164930524826,5.04681069688797,-0.134995743656158
0.585705632949727,-3.41477403459549,-0.66052084608078,-0.197266251468658
0.586311326468807,-4.9978819447517395,-1.74785971326828,-0.211636368656158
0.586917019987886,6.18446424665451,-2.41128012342453,-0.5613092202186579
0.587522713506965,1.8063685435295098,6.20839516954422,-0.743330704593658
0.588128407026045,-5.86966905412674,-2.21967856092453,-0.043985001468658406
0.588734100545124,0.42204725446701,-4.34406088514328,-0.9014019936561579
0.589339794064203,6.87901991071701,3.74152505235672,-0.748120743656158
0.589945487583283,-2.8303892689704897,1.15490395860672,-0.154155899906158
0.590551181102362,-5.00506700334549,-2.39451498670578,-0.693035294437408
0.591156874621442,4.74266248884201,-2.4136751429557797,-0.992412735843658
0.591762568140521,4.03134168806076,6.186839993762971,0.181146834468842
0.5923682616596,-4.80628038225174,-3.5848396937370297,1.83131529150009
0.59297395517868,-3.2662828236579897,-2.48552572889328,-3.1718805092811597
0.593579648697759,8.165145398998261,1.74647378282547,-0.0870953530311584
0.594185342216838,-2.2819297963142398,3.90438638048172,0.0733709555625916
0.594791035735918,-5.55113145647049,-3.10823080701828,-1.0834234780311598
0.595396729254997,3.66490369977951,-3.5153841273307798,0.142826521968842
0.596002422774076,4.69236707868576,4.87436929063797,-0.748120743656158
0.596608116293156,-3.28544297990799,-1.09880942029953,-0.154155899906158
0.597213809812235,-4.53803819475174,-0.26534262342453,-1.4714166420936599
0.597819503331314,6.41917616071701,-1.92748617811203,0.473339217281342
0.598425196850394,0.51066297712326,5.30307778673172,0.0757659750938416
0.599030890369473,-5.72836290178299,-2.7801131312370297,-0.872661759281158
0.599636583888552,1.3608949107170099,-3.82673666639328,-1.00678285303116
0.600242277407632,6.91015516462326,4.01216225938797,-0.812786270999908
0.600847970926711,-2.34420030412674,0.14660073595047002,0.6362005454063421
0.60145366444579,-5.8624839955329895,-1.2544856898307801,-0.25953675928115805
0.60205935796487,5.3605775279045105,-3.4052132288932797,-1.8186944741249098
0.602665051483949,3.34876112165451,6.60117837266922,0.549979842281342
0.603270745003028,-5.77865831193924,-2.03286703748703,0.32724302587509196
0.603876438522108,-1.38619249162674,-4.27700033826828,-1.66541322412491
0.604482132041187,7.5232801646232605,1.8422745640754699,-0.31941224756240805
0.605087825560267,-2.26037462053299,3.1810904820442203,-0.487063614749908
0.605693519079346,-4.58833360490799,-1.51793783826828,-1.8186944741249098
0.606299212598425,3.30565077009201,-3.46029867811203,-0.946907364749908
0.606904906117504,4.55106092634201,4.30914468126297,0.672125838375092
0.607510599636584,-3.75726182756424,-1.15389486951828,-0.0918853920936584
0.608116293155663,-4.12848985490799,-1.33352133436203,-1.61511781396866
0.608721986674743,7.46100965681076,-1.3359163538932801,-0.8606866616249079
0.609327680193822,-1.32631700334549,5.80603188829422,-0.6379498452186579
0.609933373712901,-4.83262559709549,-3.5513094202995297,0.360773299312592
0.610539067231981,1.7896034068107598,-3.0627254359245297,-1.64146302881241
0.61114476075106,5.76533582868576,3.33676675157547,-0.855896622562408
0.611750454270139,-2.69147813615799,0.99922768907547,0.26976255712509195
0.612356147789219,-4.90687120256424,-1.22574545545578,0.193121932125092
0.612961841308298,5.57612928571701,-4.00157309217453,-0.49903871240615805
0.613567534827377,1.53812635602951,6.5987833531379705,-0.0631451577186584
0.614173228346457,-4.96674669084549,-1.89635092420578,-0.788836075687408
0.614778921865536,-0.0904869252204895,-3.34054770154953,-1.46902162256241
0.615384615384615,6.7113685435295105,1.0686832554817198,0.37035337743759195
0.615990308903695,-2.74177354631424,2.54162026720047,-0.575679337406158
0.616596002422774,-4.12130479631424,-1.42213705701828,-0.8798468178749079
0.617201695941853,3.98104627790451,-3.39084311170578,-1.33729554834366
0.617807389460933,3.9786512583732603,5.42522378282547,-0.295462052249908
0.618413082980012,-3.45788438615799,-1.77899496717453,2.3031341391563402
0.619018776499091,-3.61116563615799,-2.2340486781120297,-2.39589418115616
0.619624470018171,7.92085340681076,-0.44257406873703004,-1.60553773584366
0.62023016353725,-1.59216417131424,5.288707669544221,-0.530173966312408
0.620835857056329,-4.47097764787674,-2.6795223109245296,0.566744979000092
0.621441550575409,2.75000623884201,-3.53214926404953,-0.245166642093658
0.622047244094488,4.86001844587326,3.83732583360672,-1.5097369545936599
0.622652937613568,-2.8734996205329897,0.48908852891922,1.05293394384384
0.623258631132647,-4.52127305803299,-0.46173422498703004,-1.26544496240616
0.623864324651726,6.02160291852951,-3.11781088514328,-0.5589142006874079
0.624470018170806,0.0843495005607605,5.08034097032547,0.787086775875092
0.625075711689885,-4.88292100725174,-2.03047201795578,-1.0953985756874098
0.625681405208964,0.87470594587326,-2.33463949842453,-1.8570147866249098
0.626287098728044,6.29463514509201,0.73338052110672,-0.0200348061561584
0.626892792247123,-1.7741856556892401,2.38354897813797,-0.0152447670936584
0.627498485766202,-5.37150499162674,-1.2496956507682802,0.49010435400009195
0.628104179285282,4.05768690290451,-4.05426352186203,-1.18401429834366
0.628709872804361,3.57389295759201,5.97607827501297,-0.824761368656158
0.62931556632344,-5.1104478627204895,-0.5120296351432799,0.49968443212509195
0.62992125984252,-1.35984727678299,-3.6351351038932798,-0.7409356850624079
0.630526953361599,7.08499159040451,-0.51681967420578,-1.6606231850624098
0.631132646880678,-1.73347032365799,4.77377847032547,0.0374456625938416
0.631738340399758,-4.40870714006424,-1.80773520154953,-0.043985001468658406
0.632344033918837,3.03980360212326,-2.90225912733078,-1.0043878334999101
0.632949727437916,4.80253797712326,2.8984781773567203,0.157196639156342
0.633555420956996,-4.01831895647049,-0.67968100233078,1.11759947118759
0.634161114476075,-3.6183506947517396,-0.46652426404953,-1.70133851709366
0.634766807995154,6.57964246931076,-2.08555746717453,-1.78276918115616
0.635372501514234,-1.2305162220954902,4.85520913438797,0.0997161704063416
0.635978195033313,-3.5656602650642397,-2.2603938929557796,0.0398406821250916
0.636583888552392,1.2794642466545099,-2.58611654920578,-1.4211212319374098
0.637189582071472,5.72222547712326,0.60165444688797,0.37035337743759195
0.637795275590551,-2.62681260881424,3.49244302110672,-1.0043878334999101
0.638400969109631,-4.23387071428299,-0.9287630335807799,0.169171736812592
0.63900666262871,4.62770155134201,-4.40633139295578,-0.31222718896865803
0.639612356147789,1.93090955915451,5.35816323595047,-0.755305802249908
0.640218049666869,-4.20992051897049,-0.21504721326828,-0.00326966943740836
0.640823743185948,-0.85689317522049,-2.57414145154953,-0.48945863428115804
0.641429436705027,6.67304823102951,-0.9143929163932799,0.0446307211875916
0.642035130224107,-2.76332872209549,4.0576676304817205,-0.7600958413124079
0.642640823743186,-3.8578526478767396,-2.22925863904953,0.284132674312592
0.643246517262265,3.2098499888420102,-2.49271078748703,-1.77797914209366
0.643852210781345,4.14869764509201,3.68404458360672,-0.0847003334999084
0.644457904300424,-3.61116563615799,-0.48089438123703004,2.49713072118759
0.645063597819503,-3.0531260853767397,-1.5754183070182801,-2.79825746240616
0.645669291338583,6.66346815290451,-2.58611654920578,-1.80432435693741
0.646274984857662,-2.04721788225174,5.29589272813797,0.588300154781342
0.646880678376741,-3.4985997181892396,-1.15868490858078,-0.745725724124908
0.647486371895821,1.7249378794670098,-3.56088949842453,-0.606814591312408
0.6480920654149,5.1809510630607605,0.6064444859504701,0.25778745946884196
0.648697758933979,-2.56933214006424,2.8218375523567203,-0.769675919437408
0.649303452453059,-4.26261094865799,-0.51681967420578,-1.08821351709366
0.649909145972138,5.18334608259201,-3.62316000623703,-0.44155824365615803
0.650514839491217,0.68789442243576,4.81209878282547,0.0685809165000916
0.651120533010297,-4.44702745256424,-1.15868490858078,-0.40084291162490804
0.651726226529376,-0.06653672990798949,-2.2603938929557796,-1.4714166420936599
0.652331920048455,6.76645399274826,-0.33479818983078,-0.508618790531158
0.652937613567535,-2.3681504994392397,3.87804116563797,-0.204451310062408
0.653543307086614,-4.18357530412674,-1.85803061170578,1.54151792821884
0.654149000605693,3.9091956919670103,-2.76574301404953,-2.41744935693741
0.654754694124773,2.68294569196701,3.4277774937629704,-0.709800431156158
0.655360387643852,-3.97999864397049,0.59686440782547,1.96543638525009
0.655966081162932,-1.3981675892829901,-1.6855892054557802,-1.88336000146866
0.656571774682011,6.1988343638420105,-2.4304402796745297,-1.13132386865616
0.65717746820109,-1.6759898549079901,4.84083901720047,0.38951353368759195
0.65778316172017,-3.36447862443924,-0.83775229139328,-1.31095033349991
0.658388855239249,1.8614539927482598,-2.74897787733078,-1.2151495522499098
0.658994548758328,4.68997205915451,0.48429848985671997,0.966713240718842
0.659600242277408,-3.4985997181892396,2.25900796251297,0.102111189937592
0.660205935796487,-3.8578526478767396,-0.9718733851432799,-1.12653382959366
0.660811629315566,6.32098035993576,-3.36928793592453,-0.956487442874908
0.661417322834646,-0.8712632924079899,5.29828774766922,-1.4330963295936598
0.662023016353725,-2.98846055803299,-2.10950766248703,1.4193719321250902
0.662628709872804,0.91302625837326,-1.91551108045578,-1.2199395913124098
0.663234403391884,5.96172743024826,-0.54316488904953,-0.724170548343658
0.663840096910963,-2.7800938588142396,4.15825845079422,-0.642739884281158
0.664445790430042,-3.59440049943924,-1.40297690076828,0.712841170406342
0.665051483949122,4.3762245005607605,-3.42916342420578,-0.851106583499908
0.665657177468201,1.46627577009201,3.74152505235672,-1.0307330483436599
0.66626287098728,-3.94886339006424,0.17055093126297002,1.28046079931259
0.66686856450636,-0.76109239397049,-0.94313315076828,-2.11807191553116
0.667474258025439,5.92340711774826,-2.44960043592453,-0.791231095218658
0.668079951544518,-2.43521104631424,3.66488442735672,0.123666365718842
0.668685645063598,-3.48662462053299,-0.55993002576828,-0.8582916420936579
0.669291338582677,2.74282118024826,-2.14543295545578,-1.3181353920936598
0.669897032101756,4.02415662946701,1.06149819688797,0.154801619625092
0.670502725620836,-2.81841417131424,1.6889933140754698,2.29115904150009
0.671108419139915,-3.03396592912674,-1.8053401820182802,-1.65343812646866
0.671714112658994,6.28505506696701,-3.14415609998703,-1.69175843896866
0.672319806178074,-0.99580430803299,5.4946793492317205,-0.45832338037490805
0.672925499697153,-3.3860338002204897,-0.5144246546745299,0.135641463375092
0.673531193216233,1.38484510602951,-3.26390707654953,-0.415213028812408
0.674136886735312,5.15221082868576,-0.25097250623703,-1.48578675928116
0.674742580254391,-2.29629991350174,3.35832192735672,0.720026229000092
0.675348273773471,-4.14046495256424,-0.50963461561203,-0.812786270999908
0.67595396729255,5.14502577009201,-2.42804526014328,-1.45225648584366
0.676559660811629,0.53221815290451,2.36199380235672,0.0877410727500916
0.677165354330709,-4.3991270619392395,-0.38509359998703,0.0685809165000916
0.677771047849788,0.49150282087326,-1.1083894984245302,-1.9719757241249098
0.678376741368867,5.91861707868576,-1.58978842420578,-0.9588824624061579
0.678982434887947,-2.09990831193924,3.20504067735672,0.664940779781342
0.679588128407026,-3.4985997181892396,-0.34916830701828,0.590695174312592
0.680193821926105,2.98950819196701,-3.09386068983078,-1.4809967202186598
0.680799515445185,2.93202772321701,1.13813882188797,-1.5959576577186598
0.681405208964264,-3.6255357533454897,3.6265641148567203,0.885282576656342
0.682010902483343,-1.16106065568924,-2.9094441859245297,0.674520857906342
0.682616596002423,5.31028211774826,-2.8567537562370298,-1.99113588037491
0.683222289521502,-1.1874058705329902,4.85760415391922,-0.326597306156158
0.683827983040581,-3.2662828236579897,-0.19349203748702998,-0.125415665531158
0.684433676559661,1.89737928571701,-2.29152914686203,-0.5996295327186579
0.68503937007874,4.95102918806076,-0.8090120570182799,0.049420760250091594
0.68564506359782,-4.0063438588142395,2.93440347032547,-0.0535650795936584
0.686250757116899,-3.12497667131424,-1.3526814906120301,-0.805601212406158
0.686856450635978,5.93777723493576,-2.0352620570182802,-1.5911676186561599
0.687462144155058,-0.7922276478767399,3.20264565782547,-0.944512345218658
0.688067837674137,-3.2926280385017397,-0.14559164686203,1.07448911962509
0.688673531193216,0.99445692243576,-1.28562094373703,-1.25586488428116
0.689279224712296,5.01808973493576,-2.76095297498703,-0.34815248193740805
0.689884918231375,-2.58370225725174,4.57978188829422,-0.424793106937408
0.690490611750454,-2.90942491350174,0.21126626329422002,-0.103860489749908
0.691096305269534,3.03261854352951,-3.5081990687370297,-0.5804693764686579
0.691701998788613,2.23028700056076,0.92019204454422,-0.6619000405311579
0.692307692307692,-3.3093931752204897,3.33197671251297,-0.652319962406158
0.692913385826772,-0.94550889787674,-2.1981233851432798,-0.352942520999908
0.693519079345851,5.35578748884201,-2.68431234998703,-0.173316056156158
0.69412477286493,-1.9107017689704902,4.32111977891922,-0.702615372562408
0.69473046638401,-3.4554893666267397,-0.83535727186203,0.0637908774375916
0.695336159903089,2.17520155134201,-1.7550447718620301,-1.2702350014686599
0.695941853422168,4.31874403181076,0.19689614610672002,-0.487063614749908
0.696547546941248,-3.52015489397049,2.4697696812629704,2.24086363134384
0.697153240460327,-2.11427842912674,-2.0975325648307797,-1.1935943764686598
0.697758933979406,5.94256727399826,-1.81252524061203,-2.75035707178116
0.698364627498486,-1.91309678850174,2.6326310093879703,0.394303572750092
0.698970321017565,-3.0100157338142397,0.97048745470047,0.693681014156342
0.699576014536644,1.3010194224357599,-1.8700057093620301,-1.7875592202186599
0.700181708055724,4.12474744977951,-2.73460776014328,0.056605818843841596
0.700787401574803,-1.9059117299079902,3.9067814000129704,1.62294859228134
0.701393095093882,-3.25430772600174,0.37652261095046996,-1.68696839990616
0.701998788612962,3.77028455915451,-2.30589926404953,-0.867871720218658
0.702604482132041,0.95613660993576,0.71661538438797,0.5954852133750921
0.703210175651121,-3.88898790178299,2.1129117711067202,-0.884636856937408
0.7038158691702,-0.11683214006423999,-2.1310628382682797,-0.5804693764686579
0.704421562689279,5.91143202009201,-2.60767172498703,-0.7193805092811579
0.705027256208359,-1.93465196428299,4.19178872423172,-1.09779359521866
0.705632949727438,-3.39321885881424,-1.03893393201828,2.40851499853134
0.706238643246517,3.37271131696701,-1.92030111951828,-2.0510113686561597
0.706844336765597,3.05656873884201,0.20647622423172002,-1.71810365381241
0.707450030284676,-4.19076036272049,3.4469376500129703,1.57504820165634
0.708055723803755,-0.52638047990799,-2.16219809217453,-0.324202286624908
0.708661417322835,5.03964491071701,-1.96101645154953,-2.3599688881874097
0.709267110841914,-1.24249131975174,2.4290543492317203,0.526029646968842
0.709872804360993,-2.90942491350174,0.63518472032547,0.221862166500092
0.710478497880073,1.6435072154045098,-0.78266684217453,-2.4366095131874097
0.711084191399152,4.30197889509201,-2.44481039686203,0.39669859228134197
0.711689884918231,-3.54410508928299,3.13319009141922,0.39909361181259195
0.712295578437311,-2.49508653459549,-0.5120296351432799,-1.09300355615616
0.71290127195639,4.89354871931076,-2.0089168421745303,-1.09300355615616
0.713506965475469,-0.43776475725173997,1.32734536485672,-1.0690533608436599
0.714112658994549,-2.51185167131424,1.23393960313797,1.51996275243759
0.714718352513628,0.52982313337326,-2.1214827601432797,-0.690640274906158
0.715324046032707,4.96779432477951,-2.7130525843620297,-1.2199395913124098
0.715929739551787,-2.32264512834549,4.55822671251297,-1.3013702553749098
0.716535433070866,-2.99564561662674,-0.21504721326828,1.39542173681259
0.717141126589945,3.23859022321701,-2.66275717420578,-0.27869691553115805
0.717746820109025,1.90695936384201,0.24719155626297,-1.65822816553116
0.718352513628104,-3.7955821400642398,3.12361001329422,0.8589373618125921
0.718958207147184,-0.38746934709548997,-1.35747152967453,-0.884636856937408
0.719563900666263,5.27196180524826,-1.7286995570182802,-1.4594415444374098
0.720169594185342,-1.9226768666267402,1.66983315782547,0.284132674312592
0.720775287704422,-3.1393467885017396,0.87468667345047,-0.0535650795936584
0.721380981223501,2.2686073130607602,-0.6892610804557799,-2.30488343896866
0.72198667474258,3.7295692271232603,-1.68319418592453,-0.156550919437408
0.72259236826166,-3.0866563588142397,2.77393716173172,2.98810972509384
0.723198061780739,-1.9059117299079902,-0.8329622523307799,-2.58749574365616
0.723803755299818,4.56064100446701,-2.75137289686203,-2.29769838037491
0.724409448818898,-1.16824571428299,1.3800357945442199,-0.443953263187408
0.725015142337977,-2.5046666127204897,3.27928628282547,0.202702010250092
0.725620835857056,0.63999403181076,-3.10344076795578,0.743976424312592
0.726226529376136,4.07445203962326,-2.72502768201828,-1.2917901772499099
0.726832222895215,-1.92028184709549,4.55343667345047,-0.190081192874908
0.727437916414294,-3.52973497209549,0.20647622423172002,-0.511013810062408
0.728043609933374,4.06008192243576,-1.92030111951828,-0.630764786624908
0.728649303452453,1.2028236216545098,0.22803140001297,-0.616394669437408
0.729254996971532,-4.43265733537674,1.90454507188797,0.207492049312592
0.729860690490612,0.39809705915451005,-1.97538656873703,-0.522988907718658
0.730466384009691,5.70546034040451,-1.3646565882682802,-1.6510431069374099
0.73107207752877,-2.08314317522049,1.7177335484504699,0.741581404781342
0.73167777104785,-3.06749620256424,0.6064444859504701,2.02770689306259
0.732283464566929,2.94639784040451,-1.34310141248703,-2.45576966943741
0.732889158086008,2.1296961802482604,-1.81731527967453,-1.10258363428116
0.733494851605088,-3.64948594865799,3.55231850938797,0.808641951656342
0.734100545124167,0.0484242075920105,-0.96708334608078,-0.534964005374908
0.734706238643246,3.64334852399826,-2.60288168592453,-1.51692201318741
0.735311932162326,-0.7347471791267399,0.28551186876296997,0.28892271337509196
0.735917625681405,-2.30587999162674,3.7870304234504704,-1.18640931787491
0.736523319200485,0.99445692243576,-2.1574080531120297,0.18833189306259202
0.737129012719564,4.49358045759201,-2.46157553358078,0.315267928218842
0.737734706238643,-2.62681260881424,3.6505143101692203,-0.807996231937408
0.738340399757723,-3.42674913225174,-1.34310141248703,-0.022429825687408398
0.738946093276802,4.6492567271232605,-1.5921834437370301,-1.45704652490616
0.739551786795881,0.10590467634201,1.29381509141922,-1.87138490381241
0.740157480314961,-2.91181993303299,1.23393960313797,1.23016538915634
0.74076317383404,0.9848768443107601,-1.8700057093620301,-0.257141739749908
0.741368867353119,4.93186903181076,-1.68319418592453,-1.6606231850624098
0.741974560872199,-2.43521104631424,2.14883706407547,-0.254746720218658
0.742580254391278,-2.67950303850174,1.43272622423172,1.03616880712509
0.743185947910357,3.53796766462326,-1.62092367811203,-1.4546515053749098
0.743791641429437,1.49980604352951,-1.62810873670578,-0.688245255374908
0.744397334948516,-3.04115098772049,3.26491616563797,0.0302606040000916
0.745003028467595,-0.20305284318924,-0.02584067029953,-1.2486798256874099
0.745608721986675,3.73675428571701,-2.0783724085807798,-0.32180726709365803
0.746214415505754,-0.98143419084549,0.51543374376297,-0.386472794437408
0.746820109024833,-2.59328233537674,2.52006509141922,-0.285881974124908
0.747425802543913,1.15731825056076,-2.12387777967453,-0.613999649906158
0.748031496062992,4.08642713727951,-1.5921834437370301,-0.40084291162490804
0.748637189582071,-2.4280259877204897,2.80986245470047,1.40500181493759
0.749242883101151,-2.4783213978767398,-1.1562898890495301,-1.41393617334366
0.74984857662023,4.58698621931076,-1.5155428187370301,-2.72401185693741
0.75045427013931,-0.86407823381424,0.13462563829422,-1.07623841943741
0.751059963658389,-3.15371690568924,3.04217934923172,1.04095884618759
0.751665657177468,1.68422254743576,-2.22686361951828,0.142826521968842
0.752271350696547,3.59065809431076,-1.73588461561203,-2.27135316553116
0.752877044215627,-1.6927549916267401,1.92610024766922,1.59181333837509
0.753482737734706,-3.18245714006424,1.73449868516922,-0.297857071781158
0.754088431253786,3.33199598493576,-0.84254233045578,-2.2641681069374098
0.754694124772865,1.3992152232170099,-1.7286995570182802,0.28892271337509196
0.755299818291944,-3.69020128068924,2.38354897813797,0.0997161704063416
0.755905511811024,0.0316590708732605,-0.72758139295578,-1.8139044350624098
0.756511205330103,4.32592909040451,-1.4891976038932802,-0.750515763187408
0.757116898849182,-0.81617784318924,0.34059731798172,0.571535018062592
0.757722592368262,-3.3357383900642397,2.2230826695442203,0.947553084468842
0.758328285887341,2.35482801618576,-2.0879524867057797,-1.57679750146866
0.75893397940642,2.82904188337326,-1.19700522108078,-2.11807191553116
0.7595396729255,-3.0866563588142397,3.3008414586067203,0.990663436031342
0.760145366444579,-0.60541612443924,-0.97666342420578,1.2828558188438401
0.760751059963658,3.4733021372795103,-1.43171713514328,-2.17555238428116
0.761356753482738,-0.33477891740799,-0.27252768201828004,-1.3828009194374098
0.761962447001817,-3.22796251115799,3.29844643907547,0.322452986812592
0.762568140520896,1.44951063337326,-1.82450033826828,-0.0248248452186584
0.763173834039976,4.03613172712326,-1.6352937952995301,-1.42351625146866
0.763779527559055,-2.55256700334549,1.51894692735672,1.02898374853134
0.764385221078134,-3.02199083147049,0.93456216173172,-0.46790345849990805
0.764990914597214,4.29239881696701,-1.04611899061203,-2.21626771631241
0.765596608116293,0.66633924665451,-0.87607260389328,-0.463113419437408
0.766202301635373,-3.5225499135017397,2.27816811876297,0.0158904868125916
0.766807995154452,1.19563856306076,-1.20179526014328,-0.966067520999908
0.767413688673531,3.89003553571701,-2.2077034632682797,-1.1001886147499098
0.768019382192611,-1.25925645647049,0.40047280626297,-1.1001886147499098
0.76862507571169,-2.29390489397049,2.99427895860672,1.8001800375938402
0.769230769230769,2.0219203013420097,-2.02807699842453,0.236232283687592
0.769836462749849,1.88061414899826,-1.58978842420578,-2.07496156396866
0.770442156268928,-2.6603428822517396,3.26012612657547,-0.415213028812408
0.771047849788007,-0.54314561662674,-0.40904379529953,0.29610777196884197
0.771653543307087,3.88764051618576,-1.41016195936203,-0.568494278812408
0.772259236826166,-0.74193223772049,0.22084634141922002,-1.15287904443741
0.772864930345245,-3.1465318470954897,2.16799722032547,0.0446307211875916
0.773470623864325,1.68901258649826,-2.00652182264328,-0.726565567874908
0.774076317383404,3.9618861216545103,-0.7323714320182799,-0.9588824624061579
0.774682010902483,-2.41365587053299,0.52980386095047,2.22170347509384
0.775287704421563,-2.40886583147049,1.0303629429817198,-2.4102642983436597
0.775893397940642,4.29958387556076,-1.42692709608078,-2.18273744287491
0.776499091459721,-0.68205674943924,-1.0700691859245302,-0.374497696781158
0.777104784978801,-2.2986949330329898,2.80746743516922,1.2517205649375902
0.77771047849788,0.9417664927482601,-0.7108162562370299,-0.554124161624908
0.778316172016959,2.63744032087326,-2.34900961561203,-1.39238099756241
0.778921865536039,-0.67966172990799,-0.07134604139328,-0.156550919437408
0.779527559055118,-2.67471299943924,3.9498917515754703,-0.836736466312408
0.780133252574197,2.6350453013420103,-2.5597713343620296,1.1152044516563402
0.780738946093277,1.4423255747795098,-1.07725424451828,-0.934932267093658
0.781344639612356,-3.6590660267829898,2.4290543492317203,-0.455928360843658
0.781950333131435,-0.46650499162674,-1.39339682264328,-0.43197816553115803
0.782556026650515,4.80253797712326,-1.05809408826828,-0.9995977944374079
0.783161720169594,-0.80659776506424,-0.05218588514327999,0.0637908774375916
0.783767413688674,-3.9776036244392396,2.4098941929817204,0.660150740718842
0.784373107207753,2.9511878794670103,-1.6736141077995301,-1.8091143959999099
0.784978800726832,2.74282118024826,-1.3646565882682802,-1.5528473061561598
0.785584494245912,-2.76811876115799,0.81241616563797,2.3797747641563403
0.786190187764991,-0.7539073353767399,1.8087442906379698,-0.5181988686561579
0.78679588128407,3.67687879743576,-1.2113753382682801,-2.74556703271866
0.78740157480315,-0.84012803850174,-2.13345785779953,0.26736753759384196
0.788007268322229,-2.30587999162674,3.26970620470047,-0.609209610843658
0.788612961841308,1.64111219587326,-0.74195151014328,-0.27151185693740804
0.789218655360388,2.68534071149826,-1.72630453748703,0.26736753759384196
0.789824348879467,-1.47720323381424,-0.14080160779953,0.272157576656342
0.790430042398546,-3.1369517689704898,2.57036050157547,-1.0618683022499098
0.791035735917626,3.67687879743576,-2.37295981092453,-0.446348282718658
0.791641429436705,0.97050672712326,-0.27971274061203,-1.06665834131241
0.792247122955784,-2.81841417131424,2.16560220079422,0.28892271337509196
0.792852816474864,0.36217176618576,-1.6688240687370302,0.42783384618759196
0.793458509993943,4.21575819196701,-1.06288412733078,-1.5265020913124099
0.794064203513022,-1.2736265736579901,0.13223061876297001,-1.77797914209366
0.794669897032102,-3.03396592912674,2.78112222032547,2.3534295493125903
0.795275590551181,3.18829481306076,-1.8484505335807802,-0.206846329593658
0.79588128407026,1.52136121931076,-1.12275961561203,-2.39589418115616
0.79648697758934,-2.8734996205329897,0.9872525914192201,1.52954283056259
0.797092671108419,-0.52398546037674,1.14771890001297,-0.527778946781158
0.797698364627498,3.58826307477951,-0.6485457484245299,-1.8139044350624098
0.798304058146578,-1.00777940568924,-1.83647543592453,0.482919295406342
0.798909751665657,-2.96451036272049,2.69490151720047,-0.17571107568740799
0.799515445184736,1.21479871931076,-0.82577719373703,-1.4666266030311599
0.800121138703816,3.18110975446701,-1.3311263148307801,-0.41042298974990804
0.800726832222895,-1.1874058705329902,-0.12882651014327998,1.46487730321884
0.801332525741975,-2.76572374162674,2.42665932970047,-1.8953350991249098
0.801938219261054,4.12953748884201,-2.28673910779953,-0.705010392093658
0.802543912780133,-0.40662950334549,-0.29408285779953003,-1.28939515771866
0.803149606299213,-2.68908311662674,2.60628579454422,-0.101465470218658
0.803755299818292,1.3561048716545099,-0.98145346326828,1.70916929540634
0.804360993337371,3.1308143443107603,-1.18024008436203,-1.64385804834366
0.804966686856451,-1.03651964006424,-0.66052084608078,-1.63188295068741
0.80557238037553,-2.8639195424079897,3.6936246617317203,0.820617049312592
0.806178073894609,2.8314369029045103,-1.7885750452995302,0.190726912593842
0.806783767413689,1.43274549665451,-0.53837484998703,-1.7276837319374099
0.807389460932768,-3.0267808705329897,0.7285904820442201,1.29004087743759
0.807995154451847,-0.39465440568924,0.18252602891922,-1.30376527490616
0.808600847970927,4.47921034040451,-0.6150154749870299,-1.76121400537491
0.809206541490006,-0.62218126115799,-1.47482748670578,1.2134002524375902
0.809812235009085,-3.46746446428299,3.0278092320442203,0.43022886571884195
0.810417928528165,2.77395643415451,-1.0964144007682801,-2.10609681787491
0.811023622047244,2.21352186384201,-1.67840414686203,-1.27263002099991
0.811629315566323,-2.19091905412674,0.25677163438796996,1.43374204931259
0.812235009085403,-0.94071885881424,2.45060952501297,0.147616561031342
0.812840702604482,3.0278285044670104,-1.92748617811203,-0.7385406655311579
0.813446396123562,-0.5120103627204899,-1.69277426404953,-1.8402496499061598
0.814052089642641,-2.1981041127204897,3.0948697789192203,-1.10497865381241
0.81465778316172,1.24832899274826,-1.12036459608078,1.7905999594688402
0.815263476680799,3.13560438337326,-1.2113753382682801,-0.8990069741249079
0.815869170199879,-1.30236680803299,0.13941567735672,-1.31574037256241
0.816474863718958,-3.79079210100174,1.93807534532547,0.31047788915634195
0.817080557238038,4.10079725446701,-1.80773520154953,-0.930142228031158
0.817686250757117,1.00403700056076,0.46753335313797,-2.10609681787491
0.818291944276196,-3.03396592912674,-0.02584067029953,0.803851912593842
0.818897637795276,0.73818983259201,0.67111001329422,-0.609209610843658
0.819503331314355,4.03134168806076,-1.5442830531120302,-0.788836075687408
0.820109024833434,-1.62569444475174,-1.46285238904953,-0.611604630374908
0.820714718352514,-2.39689073381424,3.39185220079422,0.6553607016563421
0.821320411871593,2.95837293806076,-0.65573080701828,-0.40802797021865805
0.821926105390672,1.10702284040451,-1.45806234998703,-1.1385089272499098
0.822531798909752,-1.92028184709549,-0.6509407679557799,0.159591658687592
0.823137492428831,-0.45452989397049,2.8050724156379703,-0.815181290531158
0.82374318594791,2.77874647321701,-1.93227621717453,0.353588240718842
0.82434887946699,-0.5934410267829899,-0.48807943983078,-1.21754457178116
0.824954572986069,-2.6771080189704897,2.5488053257942203,-1.16485414209366
0.825560266505148,0.55137830915451,-1.85803061170578,0.411068709468842
0.826165960024228,3.43737684431076,-0.21025717420578,-0.38886781396865805
0.826771653543307,-1.3502671986579902,-0.38030356092453,0.933182967281342
0.827377347062386,-3.33813340959549,1.63630288438797,-2.06538148584366
0.827983040581466,4.06487196149826,-1.6137386195182801,-1.51692201318741
0.828588734100545,-0.15754747209549,-0.02584067029953,-1.0522882241249099
0.829194427619624,-2.34659532365799,0.20887124376297,1.13915464696884
0.829800121138704,0.95134657087326,1.45188638048172,0.190726912593842
0.830405814657783,3.07333387556076,-1.28083090467453,-1.6606231850624098
0.831011508176863,-1.34068712053299,-2.08316244764328,-0.0176397866249084
0.831617201695942,-2.37533555803299,3.71278481798172,-0.139785782718658
0.832222895215021,2.75958631696701,-0.6341756312370299,-0.374497696781158
0.8328285887341,0.74058485212326,-0.84014731092453,-0.824761368656158
0.83343428225318,-1.64724962053299,-0.39467367811203,0.226652205562592
0.834039975772259,-0.84491807756424,1.9284952672004698,-1.55045228662491
0.834645669291339,3.58826307477951,-2.3873299281120297,-0.039194962406158405
0.835251362810418,0.25679090681076,-0.43778402967453,0.492499373531342
0.835857056329497,-3.65427598772049,2.97751382188797,-0.872661759281158
0.836462749848577,1.6818275279045098,-1.71911947889328,-0.836736466312408
0.837068443367656,3.4565370005607603,-0.47370932264328003,-1.56003236474991
0.837674136886735,-1.8843565541267402,-0.92636801404953,1.03137876806259
0.838279830405815,-2.04721788225174,2.59670571641922,0.0254705649375916
0.838885523924894,3.8493202036857603,-0.91678793592453,-1.47860170068741
0.839491217443973,-0.6724766713142399,-1.15389486951828,-1.7660040444374099
0.840096910963053,-2.3513853627204897,0.51303872423172,0.808641951656342
0.840702604482132,1.41119032087326,0.9848575718879701,0.480524275875092
0.841308298001211,2.88891737165451,-0.28689779920578,-2.31925355615616
0.841913991520291,-1.2041710072517402,-2.1382478968620298,0.892467635250092
0.84251968503937,-2.84236436662674,2.51527505235672,0.106901229000092
0.843125378558449,3.33199598493576,-1.01019369764328,-1.6941534584999098
0.843731072077529,0.93458143415451,-0.82098715467453,-0.37928773584365805
0.844336765596608,-2.21247422990799,-0.01865561170578,-0.0559600991249084
0.844942459115687,-0.48327012834549,2.01471597032547,-0.635554825687408
0.845548152634767,3.70801405134201,-2.45918051404953,-0.568494278812408
0.846153846153846,-0.64613145647049,-0.8305672327995299,-1.3468756264686599
0.846759539672925,-2.9501402455329897,2.65658120470047,0.672125838375092
0.847365233192005,2.63744032087326,-0.6533357874870299,0.652965682125092
0.847970926711084,1.85905897321701,-1.1083894984245302,-1.71331361474991
0.848576620230164,-2.09990831193924,-0.58388022108078,-1.3133453530311598
0.849182313749243,-1.1059752064704902,2.4889298375129703,0.906837752437592
0.849788007268322,3.17631971540451,-1.10599447889328,-0.848711563968658
0.850393700787402,-0.31322374162674,-0.04260580701828,-1.3947760170936598
0.850999394306481,-2.56933214006424,0.25198159532547,0.791876814937592
0.85160508782556,0.80764539899826,0.14181069688797002,0.593090193843842
0.85221078134464,3.6960389536857603,-0.35874838514328,-1.09779359521866
0.852816474863719,-1.2520713978767402,-1.5921834437370301,0.921207869625092
0.853422168382798,-2.8902647572517397,2.55120034532547,-1.8618048256874098
0.854027861901878,3.7726795786857603,-1.39818686170578,-1.08821351709366
0.854633555420957,0.30229627790451,-0.57909018201828,-0.125415665531158
0.855239248940036,-1.8843565541267402,-0.78266684217453,-0.307437149906158
0.855844942459116,0.80046034040451,2.33085854845047,0.054210799312591595
0.856450635978195,2.83622694196701,-1.59697348279953,-0.822366349124908
0.857056329497274,-1.1921959095954902,-1.52991293592453,-1.4546515053749098
0.857662023016354,-1.58737413225174,3.17630044298172,-0.30264711084365803
0.858267716535433,1.39442518415451,-0.9503182093620299,1.48643247900009
0.858873410054512,1.53333631696701,-0.15996176404953,-1.0618683022499098
0.859479103573592,-1.6711998158454902,-0.49286947889328003,-0.652319962406158
0.860084797092671,-1.4316978627204902,1.3297403843879698,-0.0056646889686583594
0.86069049061175,3.86369032087326,-1.75264975233078,-0.669085099124908
0.86129618413083,-0.32759385881423997,0.13941567735672,0.0757659750938416
0.861901877649909,-3.03875596818924,0.93456216173172,-0.465508438968658
0.862507571168988,1.9596497935295099,0.35975747423172,-1.22472963037491
0.863113264688068,2.76677137556076,-1.09401938123703,-1.25107484521866
0.863718958207147,-2.23642442522049,-1.73588461561203,1.71156431493759
0.864324651726227,-1.6759898549079901,3.2481510289192204,-0.8199713295936579
0.864930345245306,3.46851209821701,-0.6485457484245299,-1.42591127099991
0.865536038764385,-0.74432725725174,-0.94313315076828,-0.855896622562408
0.866141732283465,-1.30955186662674,-0.7323714320182799,-0.463113419437408
0.866747425802544,0.97529676618576,2.41707925157547,0.39909361181259195
0.867353119321623,2.33806287946701,-1.47722250623703,-0.37928773584365805
0.867958812840703,-0.62457628068924,-1.05809408826828,-0.38168275537490803
0.868564506359782,-2.89265977678299,2.17757729845047,-1.0906085366249099
0.869170199878861,2.54642957868576,-1.6951692835807801,0.00152036962509164
0.869775893397941,1.5357313364982599,0.63039468126297,-0.673875138187408
0.87038158691702,-2.37054551897049,-0.21744223279952998,-1.44507142724991
0.870987280436099,-0.35154405412674,0.6878751500129701,0.5787200766563421
0.871592973955179,4.06247694196701,-1.62331869764328,-1.0570782631874098
0.872198667474258,-1.1371104603767401,-0.42580893201828,-1.35406068506241
0.872804360993337,-2.3513853627204897,0.46753335313797,1.4313470297813402
0.873410054512417,2.4386536997795103,1.85185464220047,-1.38759095849991
0.874015748031496,2.0530555552482603,-1.72630453748703,-1.4115411538124099
0.874621441550575,-1.79813585100174,-1.69277426404953,0.173961775875092
0.875227135069655,-0.62697130022049,2.69729653673172,-0.44155824365615803
0.875832828588734,2.7380311411857603,-0.32042807264328,-1.20796449365616
0.876438522107813,-0.86168321428299,-0.16954184217453,-0.180501114749908
0.877044215626893,-1.53707872209549,-0.81619711561203,-0.575679337406158
0.877649909145972,0.40288709821701,1.43512124376297,-0.0583551186561584
0.878255602665051,3.2769105357170103,-1.88198080701828,0.281737654781342
0.878861296184131,-1.0221495228767399,0.16815591173172,-0.716985489749908
0.87946698970321,-2.29390489397049,1.9668155797004698,-1.5959576577186598
0.880072683222289,2.80988172712326,-1.93706625623703,0.863727400875092
0.880678376741369,0.95853162946701,0.97527749376297,-0.695430313968658
0.881284070260448,-1.8628013783454902,-1.4125569788932801,-0.549334122562408
0.881889763779528,-0.15036241350174,2.20152749376297,1.17747495946884
0.882495457298607,3.94991102399826,-0.8880477015495299,-1.2367047280311598
0.883101150817686,-1.54905381975174,-1.2449056117057802,-1.58158754053116
0.883706844336766,-1.53707872209549,0.71661538438797,1.22537535009384
0.884312537855845,1.70098768415451,1.1285587437629698,-0.173316056156158
0.884918231374924,1.5620765513420098,-0.20307211561202998,-1.5025518959999098
0.885523924894004,-1.4532530385017401,-2.0711873499870297,1.12717954931259
0.886129618413083,-1.2856016713142402,2.26379800157547,-0.8391314858436579
0.886735311932162,3.64813856306076,-1.3263362757682802,-1.2965802163124098
0.887341005451242,-0.84252305803299,0.04121987657547,0.197911971187592
0.887946698970321,-1.9370469838142401,0.34538735704421997,-0.987622696781158
0.8885523924894,1.09744276227951,0.89624184923172,-1.18640931787491
0.88915808600848,2.8505970591545102,-2.48792074842453,0.0757659750938416
0.889763779527559,-1.1658506947517402,-0.15277670545577998,-0.0272198647499084
0.890369473046638,-2.2412144642829896,2.38833901720047,-1.3085553139686599
0.890975166565718,3.1140492075920103,-1.2880159632682802,0.7583465415000921
0.891580860084797,0.0675843638420105,-0.01147055311203,-1.62709291162491
0.892186553603876,-1.36942735490799,-1.52272787733078,-1.1888043374061599
0.892792247122956,0.050819227123260494,2.1296769078254703,2.0205218344688403
0.893397940642035,3.25535535993576,-0.55753500623703,-1.28939515771866
0.894003634161115,-1.1107652455329902,-0.45933920545578,-0.946907364749908
0.894609327680194,-2.67950303850174,-0.061765963268279996,1.29004087743759
0.895215021199273,2.53445448102951,0.7621207554817201,-1.67499330224991
0.895820714718352,1.5668665904045098,-0.056975924205779994,-0.776860978031158
0.896426408237432,-2.10469835100174,-1.41016195936203,-0.223611466312408
0.897032101756511,-0.18868272600174002,1.97639565782547,-0.733750626468658
0.897637795275591,3.70322401227951,-1.4125569788932801,-1.3684308022499099
0.89824348879467,-1.6328795033454901,-0.9886385218620299,-0.40802797021865805
0.898849182313749,-1.52749864397049,0.000504544544219973,0.640990584468842
0.899454875832829,1.5572865122795099,2.22547768907547,-1.00678285303116
0.900060569351908,1.82073866071701,-2.51187094373703,0.00152036962509164
0.900666262870987,-1.78855577287674,-0.16235678358077998,-1.28221009912491
0.901271956390067,-1.03172960100174,1.7273136265754698,0.0302606040000916
0.901877649909146,2.13448621931076,-0.68686606092453,0.6385955649375921
0.902483343428225,-0.06414171037673949,0.75972573595047,-1.15287904443741
0.903089036947305,-1.32631700334549,-1.4245320765495302,-1.1888043374061599
0.903694730466384,-0.34435899553299,0.74056557970047,0.686495955562592
0.904300423985463,3.85171522321701,-1.42213705701828,-0.5421490639686579
0.904906117504543,-1.57539903459549,1.05431313829422,-1.0834234780311598
0.905511811023622,-2.13583360490799,-0.30126791639328004,-0.252351700687408
0.906117504542701,2.76916639509201,0.21366128282547,-0.985227677249908
0.906723198061781,0.90584119977951,-0.19349203748702998,-0.32899232568740805
0.90732889158086,-2.4208409291267396,-2.5070809046745297,-0.889426895999908
0.907934585099939,0.13703993024826,3.03978432970047,-0.0248248452186584
0.908540278619019,3.35594618024826,-0.14319662733077998,-0.985227677249908
0.909145972138098,-1.9322569447517401,-1.52272787733078,-1.01875795068741
0.909751665657177,-0.5718858510017399,-0.32521811170578,0.720026229000092
0.910357359176257,0.95374159040451,2.67334634141922,-0.0008746499061583601
0.910963052695336,1.47825086774826,-1.7071443812370302,1.0864642172813401
0.911568746214416,-0.7922276478767399,-0.40425375623703,-0.793626114749908
0.912174439733495,-1.3119468861579902,1.3249503453254698,-1.6007476967811598
0.912780133252574,2.5512196177482602,-2.02328695936203,0.157196639156342
0.913385826771653,0.30229627790451,1.6674381382942198,-0.0918853920936584
0.913991520290733,-1.5514488392829902,0.18971108751297,-1.61511781396866
0.914597213809812,0.40288709821701,0.09630532579421999,-0.228401505374908
0.915202907328892,3.51401746931076,-1.36705160779953,0.047025740718841594
0.915808600847971,-1.4149327260017401,-0.08811117811203001,0.28892271337509196
0.91641429436705,-1.9490220814704902,0.22803140001297,-0.8774517983436579
0.91701998788613,2.69971082868576,1.54050210313797,-1.3612457436561598
0.917625681405209,0.23523573102950998,-0.71800131483078,-1.10258363428116
0.918231374924288,-1.6448546010017402,-3.0555403773307797,0.36795835790634196
0.918837068443368,0.30708631696701,2.85297280626297,0.193121932125092
0.919442761962447,2.62546522321701,-0.29168783826828004,-1.28939515771866
0.920048455481526,-1.72149522600174,-0.30126791639328004,0.0350506430625916
0.920654149000606,-0.98622422990799,-0.40664877576828,0.18354185400009201
0.921259842519685,1.27227918806076,1.4063810093879698,-1.64385804834366
0.921865536038764,1.28664930524826,-1.3311263148307801,0.185936873531342
0.922471229557844,-1.6280894642829902,0.49387856798172,-1.4762066811561598
0.923076923076923,-0.24137315568924,0.87229165391922,0.00391538915634164
0.923682616596002,3.13320936384201,-2.0879524867057797,0.0230755454063416
0.924288310115082,-0.6533165150642399,0.51303872423172,-1.24388978662491
0.924894003634161,-1.52031358537674,-0.74674154920578,-0.515803849124908
0.92549969715324,1.1094178599357598,2.3595987828254703,-0.38886781396865805
0.92610539067232,2.63744032087326,-1.9346712367057801,-0.149365860843658
0.926711084191399,-1.7861607533454902,-0.16954184217453,-1.3732208413124098
0.927316777710478,-0.84252305803299,-0.21504721326828,1.0265887290000901
0.927922471229558,2.18717664899826,1.46865151720047,-1.32771547021866
0.928528164748637,-0.28208848772049,1.42075112657547,-2.0845416420936598
0.929133858267717,-1.1442955189704902,-2.88070395154953,0.473339217281342
0.929739551786796,0.058004285717010495,1.43512124376297,0.6984710532188421
0.930345245305875,3.3631312388420103,-0.8305672327995299,-1.19119935693741
0.930950938824954,-2.2220543080329898,0.9034269078254701,-0.728960587406158
0.931556632344034,-0.5551207142829899,-0.6485457484245299,0.207492049312592
0.932162325863113,1.70577772321701,0.67829507188797,-0.8606866616249079
0.932768019382193,1.1046278208732598,-1.4460872523307802,0.971503279781342
0.933373712901272,-1.99452745256424,-0.6485457484245299,-2.14681214990616
0.933979406420351,-0.61978624162674,2.00034585313797,-0.714590470218658
0.934585099939431,3.9259608286857604,-0.9096028773307799,1.3594964438438402
0.93519079345851,-1.68077989397049,0.24240151720047,-2.21626771631241
0.935796486977589,-0.5144053822517399,-1.2880159632682802,-0.37210267724990803
0.936402180496669,0.41486219587326,2.70687661485672,0.494894393062592
0.937007874015748,2.3021375864982603,-1.23053549451828,0.118876326656342
0.937613567534827,-1.37421739397049,0.25677163438796996,-1.13611390771866
0.938219261053907,-1.66880479631424,-0.58388022108078,0.674520857906342
0.938824954572986,2.52966444196701,0.12504556016922,-1.09779359521866
0.939430648092065,0.00770887556076048,1.6794132359504699,-0.6810601967811579
0.940036341611145,-1.31913194475174,-2.11669272108078,0.140431502437592
0.940642035130224,0.75734998884201,1.3249503453254698,-0.824761368656158
0.941247728649303,3.66490369977951,-1.3095711390495302,0.0805560141563416
0.941853422168383,-2.0951182728767397,-0.32521811170578,0.581115096187592
0.942459115687462,-1.39577256975174,0.01487466173172,-0.944512345218658
0.943064809206541,2.76677137556076,1.94765542345047,-0.649924942874908
0.943670502725621,-0.52877549943924,-1.32394125623703,-0.0152447670936584
0.9442761962447,-1.01256944475174,-1.97538656873703,-0.628369767093658
0.94488188976378,0.0915345591545105,2.9583536656379703,-1.36364076318741
0.945487583282859,1.85905897321701,-1.13233969373703,0.37753843603134196
0.946093276801938,-1.02693956193924,0.55135903673172,-0.0272198647499084
0.946698970321018,-0.89042344865799,-1.06767416639328,-0.688245255374908
0.947304663840097,0.0771644419670105,0.75733071641922,-0.645134903812408
0.947910357359176,2.0961659068107603,-0.7084212367057799,0.238627303218842
0.948516050878256,-1.8292711049079902,1.09263345079422,-1.69175843896866
0.949121744397335,-0.35393907365799,-1.31915121717453,0.32005796728134195
0.949727437916414,3.4301917857170103,-0.13361654920577998,-0.846316544437408
0.950333131435494,-0.92155870256424,0.55375405626297,-0.7984161538124079
0.950938824954573,-1.80532090959549,-1.89635092420578,0.264972518062592
0.951544518473652,1.43993055524826,2.75477700548172,-0.762490860843658
0.952150211992732,2.66378553571701,-1.1299446742057802,-0.5397540444374079
0.952755905511811,-2.5214317494392398,-0.84254233045578,-0.48945863428115804
0.95336159903089,-0.0785118275642395,-1.3526814906120301,-0.07033021631240839
0.95396729254997,2.40991346540451,3.1810904820442203,-1.1888043374061599
0.954572986069049,-0.70600694475174,-0.39946371717453,0.169171736812592
0.955178679588128,-0.70840196428299,-1.56344320936203,-0.506223770999908
0.955784373107208,0.0460291880607605,1.5381070836067199,-0.0248248452186584
0.956390066626287,2.9511878794670103,-1.6903792445182801,-0.158945938968658
0.956995760145366,-1.6113243275642402,1.6674381382942198,-0.484668595218658
0.957601453664446,-0.5718858510017399,-0.90002279920578,-0.6810601967811579
0.958207147183525,1.17168836774826,0.48429848985671997,-0.266721817874908
0.958812840702604,1.4686707896232598,-0.75871664686203,0.32005796728134195
0.959418534221684,-1.9705772572517402,-0.11924643201828,-2.55157045068741
0.960024227740763,-0.52398546037674,0.36215249376297,0.494894393062592
0.960629921259842,3.5068324107170104,0.7022452672004701,0.432623885250092
0.961235614778922,-1.58018907365799,-0.08332113904953001,-2.4797198647499097
0.961841308298001,-0.63894639787674,-2.3442195765495297,0.988268416500092
0.962447001817081,0.58011854352951,2.85776284532547,-0.0152447670936584
0.96305269533616,1.98359998884201,0.04600991563797,-1.16964418115616
0.963658388855239,-2.05679796037674,0.5872843297004701,-0.36252259912490803
0.964264082374319,-0.28927354631423996,-1.72630453748703,0.813431990718842
0.964869775893398,2.0626356333732603,0.8435514195442201,-1.13611390771866
0.965475469412477,-0.72037706193924,0.27353677110672,-0.137390763187408
0.966081162931557,-0.45931993303298996,-0.92397299451828,-0.343362442874908
0.966686856450636,0.5250330943107601,0.9656974156379701,-0.867871720218658
0.967292549969715,2.35003797712326,-1.83647543592453,-0.149365860843658
0.967898243488795,-1.24009630022049,0.9848575718879701,0.161986678218842
0.968503937007874,-1.36224229631424,-1.01019369764328,-1.8785699624061598
0.969109630526953,1.93569959821701,1.98597573595047,-0.649924942874908
0.969715324046033,1.0399622935295099,-0.87846762342453,0.6362005454063421
0.970321017565112,-1.95141710100174,-1.3862117640495302,-1.35406068506241
0.970926711084191,0.058004285717010495,1.09742348985672,0.890072615718842
0.971532404603271,2.23507703962326,0.18971108751297,0.18833189306259202
0.97213809812235,-1.01017442522049,1.4063810093879698,-2.06538148584366
0.972743791641429,-0.92395372209549,-2.4639705531120297,1.50798765478134
0.973349485160509,0.23763075056076,1.34411050157547,-0.625974747562408
0.973955178679588,2.02431532087326,-0.23899740858078,-0.575679337406158
0.974560872198667,-2.5741221791267397,0.83636636095047,-1.33250550928116
0.975166565717747,0.79088026227951,-1.9514363734245301,0.933182967281342
0.975772259236826,2.8314369029045103,1.2004093297004699,-0.9804376381874079
0.976377952755905,-1.3239219838142402,-0.68207602186203,-0.604419571781158
0.976983646274985,-1.00538438615799,-1.52991293592453,0.473339217281342
0.977589339794064,0.71423963727951,2.68053140001297,-2.07496156396866
0.978195033313144,2.71408094587326,-1.93706625623703,0.648175643062592
0.978800726832223,-1.72389024553299,0.6232096226692201,-0.6187896889686579
0.979406420351302,-0.56709581193924,-1.52272787733078,-0.793626114749908
0.980012113870382,1.55249647321701,2.4027091343879703,0.0158904868125916
