Time (s),Accel X (m/s^2),Accel Y (m/s^2),Accel Z (m/s^2)
0.0,-0.0812863080024719,-0.23904540252685502,-0.0556433203697205
0.000606060606060606,-0.112421561908722,0.00764160919189452,0.325164785099029
0.00121212121212121,-0.181877128314972,-0.20551512908935501,0.0665026757240295
0.00181818181818182,-0.12200164003372199,-0.0713940353393555,0.016207265567779502
0.00242424242424242,0.14624054746627801,0.18966309356689498,0.13835326166153
0.00303030303030303,-0.0477560345649719,0.113022468566895,-0.0460632422447205
0.00363636363636364,-0.0429659955024719,-0.131269523620605,0.294029531192779
0.00424242424242424,0.103130195903778,-0.009123527526855479,0.277264394474029
0.00484848484848485,0.129475410747528,-0.16958983612060502,-0.12988892583846998
0.00545454545454545,-0.0597311322212219,-0.332451164245605,-0.20173951177597
0.00606060606060606,-0.0788912884712219,0.005246589660644519,0.0401574608802795
0.00666666666666667,0.15103058652877802,0.024406745910644498,0.15751341791153
0.00727272727272727,0.11989533262252801,0.0459619216918945,0.46168089838027904
0.00787878787878788,0.0815750201225281,-0.0139135665893555,0.33234984369277903
0.00848484848484848,0.028884590435028102,0.218403327941895,-0.0987536719322205
0.00909090909090909,-0.0932614056587219,-0.325266105651855,-0.0867785742759705
0.0096969696969697,-0.112421561908722,0.122602546691895,0.028182363224029502
0.0103030303030303,-0.0764962689399719,0.29264893341064496,0.277264394474029
0.0109090909090909,0.148635566997528,-0.21988524627685502,0.40180541009902904
0.0115151515151515,-0.028595878314971897,-0.119294425964355,0.12398314447403
0.0121212121212121,-0.157926933002472,-0.27736571502685503,-0.18497437505721998
0.0127272727272727,0.112710274028778,-0.0666039962768555,0.0712927147865295
0.0133333333333333,0.019304512310028103,-0.040258781433105496,0.28205443353652904
0.0139393939393939,-0.0645211712837219,0.13457764434814498,0.0138122460365295
0.0145454545454545,0.11750031309127801,-0.0642089767456055,0.016207265567779502
0.0151515151515152,0.254016426372528,-0.0546288986206055,0.274869374942779
0.0157575757575758,0.220486152935028,0.07470215606689451,0.18864867181778
0.0163636363636364,0.105525215435028,-0.00193846893310548,0.20301878900528
0.016969696969697,-0.033385917377471895,-0.21030516815185502,0.0688976952552795
0.0175757575757576,0.0264895709037781,-0.0689990158081055,0.0784777733802795
0.0181818181818182,-0.150741874408722,-0.040258781433105496,0.265289296817779
0.0187878787878788,0.11750031309127801,-0.19354003143310503,0.20780882806778
0.0193939393939394,0.141450508403778,0.36210449981689496,-0.0604333594322205
0.02,0.103130195903778,-0.0282836837768555,-0.23766480474472
0.0206060606060606,-0.110026542377472,-0.294130851745605,0.0760827538490295
0.0212121212121212,-0.033385917377471895,-0.373166496276855,0.0425524804115295
0.0218181818181818,0.0384646685600281,-0.0689990158081055,0.009022206974029499
0.0224242424242424,-0.157926933002472,-0.15042967987060502,0.267684316349029
0.023030303030303,0.170190742778778,-0.0737890548706055,0.294029531192779
0.0236363636363636,-0.133976737689972,-0.20551512908935501,-0.0604333594322205
0.0242424242424242,-0.0980514447212219,-0.490522453308105,0.337139882755279
0.0248484848484848,0.107920234966278,0.256723640441895,0.0329724022865295
0.0254545454545455,-0.0214108197212219,-0.0570239181518555,-0.23287476568222
0.0260606060606061,-0.0836813275337219,-0.19354003143310503,0.658072499942779
0.0266666666666667,-0.0860763470649719,-0.148034660339355,0.32276976556777903
0.0272727272727273,-0.368688651752472,-0.009123527526855479,-0.0245080664634705
0.0278787878787879,-0.0980514447212219,-0.385141593933105,0.504791249942779
0.0284848484848485,0.172585762310028,0.0627270584106445,0.10003294916153
0.0290909090909091,0.057624824810028105,0.0411718826293945,-0.11072876958847
0.0296969696969697,-0.0118307415962219,-0.636618644714355,0.404200429630279
0.0303030303030303,0.000144356060028079,0.232773445129395,-0.0580383399009705
0.0309090909090909,0.141450508403778,0.0172216873168945,-0.11551880865097
0.0315151515151515,-0.330368339252472,-0.15521971893310502,0.19343871088028
0.0321212121212121,-0.0238058392524719,-0.21988524627685502,0.052132558536529504
0.0327272727272727,0.201325996685028,0.141762702941895,-0.493931894588471
0.0333333333333333,-0.165111991596222,-0.37556151580810504,0.11200804681778
0.0339393939393939,0.232461250591278,-0.16958983612060502,0.19583373041153002
0.0345454545454545,-0.00464568300247192,0.8458984451293949,-0.7621740820884709
0.0351515151515151,-0.11721160097122199,-0.797084953308105,0.701182851505279
0.0357575757575758,0.0384646685600281,0.43156006622314497,0.744293203067779
0.0363636363636364,-0.033385917377471895,0.25193360137939497,-0.673558359432221
0.036969696969697,-0.519574882221222,-0.677333976745605,0.753873281192779
0.0375757575757576,0.198930977153778,0.340549324035645,0.30360960931777903
0.0381818181818182,0.292336738872528,0.316599128723145,-0.441241464900971
0.0387878787878788,-0.181877128314972,-0.619853507995605,1.12749632806778
0.0393939393939394,0.254016426372528,0.151342781066895,0.0952429100990295
0.04,-0.007040702533721919,0.376474617004395,-0.10593873052597
0.0406060606060606,-0.35431853456497203,-1.16831298065186,1.35023314447403
0.0412121212121212,0.11989533262252801,0.41239990997314496,0.629332265567779
0.0418181818181818,0.196535957622528,0.48185547637939496,-1.02323121099472
0.0424242424242424,-0.505204765033722,-0.684519035339355,0.0904528710365295
0.043030303030303,0.143845527935028,-0.8306152267456051,0.686812734317779
0.0436363636363636,0.215696113872528,1.20275635528564,-1.12861207036972
0.0442424242424242,-0.450119315814972,-0.41627684783935504,0.12877318353653
0.0448484848484848,0.105525215435028,-0.866540519714355,1.01253539056778
0.0454545454545455,0.0360696490287781,1.3967529373168899,-1.25794312505722
0.0460606060606061,-0.327973319721222,-1.43176512908936,0.284449453067779
0.0466666666666667,-0.0214108197212219,0.105837409973145,0.892784414005279
0.0472727272727273,0.282756660747528,0.577656257629395,-0.750198984432221
0.0478787878787879,-0.347133475971222,-0.490522453308105,0.785008535099029
0.0484848484848485,-0.0214108197212219,-0.00193846893310548,0.428150624942779
0.0490909090909091,0.213301094341278,0.369289558410645,-0.469981699275971
0.0496969696969697,-0.7207565228462219,-0.109714347839355,0.727528066349029
0.0503030303030303,0.25641144590377796,-0.136059562683105,0.478446035099029
0.0509090909090909,0.321076973247528,1.20515137481689,-0.683138437557221
0.0515151515151515,-0.555500175189972,-1.47248046112061,-0.0173230078697205
0.0521212121212121,-0.038175956439971896,-0.035468742370605495,1.1658166405677801
0.0527272727272727,0.340237129497528,1.11653565216064,-0.788519296932221
0.0533333333333333,-0.498019706439972,-0.42585692596435504,-0.644818125057221
0.0539393939393939,0.139055488872528,-0.9503662033081051,0.904759511661529
0.0545454545454545,0.764155586528778,1.26263184356689,-0.5418322852134709
0.0551515151515152,-0.445329276752472,-0.0953442306518555,0.0569225975990295
0.0557575757575758,-0.112421561908722,-1.31201415252686,0.9358947655677791
0.0563636363636364,0.20611603574752801,2.16315918731689,-0.745408945369721
0.056969696969697,-0.100446464252472,-1.12759764862061,0.306004628849029
0.0575757575757576,-0.438144218158722,-0.0666039962768555,0.732318105411529
0.0581818181818182,0.21090607481002802,-0.152824699401855,-0.618472910213471
0.0587878787878788,-0.0836813275337219,0.24474854278564498,0.0736877343177795
0.0593939393939394,0.208511055278778,-0.548002922058105,1.07241087884903
0.06,0.273176582622528,-0.0642089767456055,-0.790914316463471
0.0606060606060606,-0.795002128314972,0.42197998809814496,0.37306517572402903
0.0612121212121212,0.249226387310028,-1.23297850799561,1.3406530663490301
0.0618181818181818,0.165400703716278,2.08891358184814,-1.29147339849472
0.0624242424242424,-0.46209441347122204,-2.06165526580811,-0.12270386724472
0.063030303030303,-0.0908663861274719,0.474670417785645,1.01253539056778
0.0636363636363636,0.6947000201225281,1.16204102325439,-0.628052988338471
0.0642424242424242,-0.7638668744087219,-0.7515795822143551,-0.654398203182221
0.0648484848484848,-0.366293632221222,-0.866540519714355,0.581431874942779
0.0654545454545455,0.5150735552787781,0.908168952941895,-0.25682496099472096
0.0660606060606061,-0.39263884706497204,0.474670417785645,0.10961302728653
0.0666666666666667,-0.016620780658721898,-2.3777978439331102,0.334744863224029
0.0672727272727273,0.42645783262252795,2.20866455841064,-1.00167603521347
0.0678787878787879,0.27557160215377796,-0.861750480651855,0.10961302728653
0.0684848484848485,-0.809372245502472,-0.15521971893310502,1.39813353509903
0.0690909090909091,0.646799629497528,-0.0474438400268555,-0.22329468755721998
0.0696969696969697,-0.639325858783722,0.479460456848145,-0.331070566463471
0.0703030303030303,-0.210617362689972,-0.274970695495605,1.82923705072403
0.0709090909090909,0.603689277935028,-0.0234936447143555,-0.508302011775971
0.0715151515151515,-0.895592948627472,0.790812995910645,-0.48674683599472096
0.0721212121212121,0.807265938091278,-1.63055175018311,1.4053185936927801
0.0727272727272727,0.07199494199752811,2.52480713653564,-1.41601441411972
0.0733333333333333,-0.36389861268997203,-2.21014647674561,-0.321490488338471
0.0739393939393939,-0.112421561908722,0.659086921691895,0.684417714786529
0.0745454545454545,0.788105781841278,1.15246094512939,-0.460401621150971
0.0751515151515151,-0.349528495502472,-0.8904907150268551,-0.23766480474472
0.0757575757575758,-0.339948417377472,-0.342031242370605,0.602987050724029
0.0763636363636364,1.22639435606003,0.889008796691895,-0.687928476619721
0.076969696969697,-0.7614718548774719,0.879428718566895,-0.362205820369721
0.0775757575757576,-0.0932614056587219,-3.45795165252686,1.60410521478653
0.0781818181818182,0.215696113872528,3.46125977325439,-1.16693238286972
0.0787878787878788,0.107920234966278,-0.7898998947143551,0.17427855463028002
0.0793939393939394,-0.775841972064972,-1.02221678924561,1.37178832025528
0.08,0.498308418560028,0.40281983184814496,-1.09987183599472
0.0806060606060606,-0.162716972064972,0.395634773254395,-0.604102793025971
0.0812121212121212,-0.569870292377472,-0.241440422058105,1.32628294916153
0.0818181818181818,0.687514961528778,-0.430646965026855,-0.311910410213471
0.0824242424242424,-0.598610526752472,1.06624024200439,-0.788519296932221
0.083030303030303,0.663564766216278,-1.89879393768311,1.01493041009903
0.0836363636363636,0.00972443418502808,2.46014160919189,-0.886715097713471
0.0842424242424242,-0.447724296283722,-2.65322509002686,-0.11551880865097
0.0848484848484849,-0.102841483783722,0.594421394348145,1.38855345697403
0.0854545454545454,0.847981270122528,1.42070313262939,-0.716668710994721
0.0860606060606061,-0.732731620502472,-1.42458007049561,-0.9418005469322209
0.0866666666666667,-0.8644576947212219,-0.624643547058105,1.41250365228653
0.0872727272727273,1.5976223834037802,1.17162110137939,-0.19934449224471998
0.0878787878787879,-1.14706999940872,1.77516602325439,-1.00167603521347
0.0884848484848485,-0.5818453900337219,-4.63151122283936,1.84360716791153
0.0890909090909091,0.730625313091278,3.44688965606689,-0.6400280859947209
0.0896969696969697,0.443222969341278,-0.358796379089355,-1.0495764258384699
0.0903030303030303,-0.933913261127472,-1.34793944549561,0.828118886661529
0.0909090909090909,0.651589668560028,0.673457038879395,-0.0652233984947205
0.0915151515151515,0.49591339902877796,0.747702644348145,-0.539437265682221
0.0921212121212121,-0.6632760540962219,0.24474854278564498,0.38264525384902903
0.0927272727272727,0.639614570903778,-1.99459471893311,0.016207265567779502
0.0933333333333333,-0.6800411908149719,2.45535157012939,-0.6615832617759709
0.0939393939393939,0.6372195513725281,-1.80059813690186,1.59213011713028
0.0945454545454545,-0.395033866596222,1.97634766387939,-0.537042246150971
0.0951515151515152,-0.502809745502472,-1.71198241424561,-1.76329224615097
0.0957575757575758,-0.007040702533721919,-0.17916991424560502,2.19567503900528
0.0963636363636364,0.740205391216278,1.86857178497314,0.10242796869278
0.096969696969697,-0.37347869081497204,-0.674938957214355,-2.1201501563072203
0.0975757575757576,-1.54224822206497,-0.983896476745605,1.4220837304115301
0.0981818181818182,1.69102814512253,0.558496101379395,0.09763792963027951
0.0987878787878788,-0.507599784564972,2.58947266387939,-1.55253052740097
0.0993939393939394,-0.675251151752472,-4.85424803924561,1.55620482416153
0.1,0.807265938091278,3.32713867950439,0.346719960880279
0.100606060606061,0.665959785747528,0.323784187316895,-0.309515390682221
0.101212121212121,-1.00336882753372,-1.80059813690186,0.710762929630279
0.101818181818182,0.11750031309127801,0.12978760528564498,-0.299935312557221
0.102424242424242,0.903066719341278,1.60272461700439,-0.989700937557221
0.103030303030303,-1.0536642376899699,0.0459619216918945,1.35262816400528
0.103636363636364,0.5150735552787781,-3.23042479705811,-0.14904908208846998
0.104242424242424,-0.186667167377472,3.80614258575439,-1.02323121099472
0.104848484848485,-0.062126151752471895,-2.75142089080811,2.5597180077552797
0.105454545454545,-0.12439665956497199,1.60272461700439,-0.438846445369721
0.106060606060606,-0.0597311322212219,-0.519262687683105,-1.79682251958847
0.106666666666667,-0.32078826112747205,-0.502497550964355,1.55141478509903
0.107272727272727,0.462383125591278,1.54524414825439,0.7754284569740291
0.107878787878788,-0.318393241596222,-0.605483390808105,-2.03632447271347
0.108484848484848,-1.20215544862747,-0.694099113464355,0.598197011661529
0.109090909090909,1.54972199277878,-0.20312010955810503,0.454495839786529
0.10969696969697,-0.217802421283722,2.93675049591064,-1.21962281255722
0.11030303030303,-0.6800411908149719,-5.17039061737061,0.866439199161529
0.110909090909091,0.603689277935028,3.45167969512939,-0.0652233984947205
0.111515151515152,0.929411934185028,0.781232917785645,-0.697508554744721
0.112121212121212,-1.62846892518997,-2.4975488204956102,0.543111562442779
0.112727272727273,0.39532257871627796,-0.586323234558105,0.298819570255279
0.113333333333333,1.04676789121628,2.65413819122314,-1.21483277349472
0.113939393939394,-1.8919210736274699,0.678247077941895,0.703577871036529
0.114545454545455,0.230066231060028,-4.98357909393311,0.10003294916153
0.115151515151515,0.21090607481002802,5.36051026153564,-1.30584351568222
0.115757575757576,-0.126791679096222,-2.95978759002686,2.32500609369278
0.116363636363636,-0.591425468158722,0.8267382888793949,-0.402921152400971
0.116969696969697,0.383347481060028,-0.207910148620605,-1.13340210943222
0.117575757575758,-0.48364958925247203,-0.262995597839355,0.456890859317779
0.118181818181818,0.299521797466278,1.17641114044189,0.413780507755279
0.118787878787879,-0.11960662050247199,-1.52038085174561,-0.786124277400971
0.119393939393939,-1.38417693300247,0.697407234191895,0.10721800775528
0.12,2.1436868365287802,-0.581533195495605,0.842489003849029
0.120606060606061,-0.39263884706497204,3.40138428497314,-1.57408570318222
0.121212121212121,-1.13269988222122,-5.70208495330811,1.12749632806778
0.121818181818182,0.601294258403778,2.77867920684814,0.689207753849029
0.122424242424242,1.56648712949753,2.37871094512939,-2.03392945318222
0.123030303030303,-1.60691374940872,-3.03882323455811,0.823328847599029
0.123636363636364,-0.30402312440872203,-1.22339842987061,0.808958730411529
0.124242424242424,1.88502472715378,2.57749756622314,-0.975330820369721
0.124848484848485,-2.0308322064399698,1.20275635528564,0.45210082025527903
0.125454545454545,0.177375801372528,-5.11291014862061,0.701182851505279
0.126060606060606,0.419272774028778,5.14495850372314,-0.989700937557221
0.126666666666667,0.539023750591278,-2.27960204315186,1.41010863275528
0.127272727272727,-0.7830270306587219,0.07230713653564451,-0.27838013677597095
0.127878787878788,-0.258517753314972,-0.497707511901855,-1.27470826177597
0.128484848484848,0.37616242246627796,0.328574226379395,1.35502318353653
0.129090909090909,0.273176582622528,1.60990967559814,0.40180541009902904
0.12969696969697,-0.169902030658722,-2.67478026580811,-1.18609253911972
0.13030303030303,-1.1566500775337198,1.78953614044189,0.571851796817779
0.130909090909091,1.5545120318412802,-1.09885741424561,1.8028918358802801
0.131515151515152,-0.220197440814972,3.76063721466064,-1.0759216406822198
0.132121212121212,-1.0752194134712199,-4.62432616424561,-0.0197180274009705
0.132727272727273,0.189350899028778,0.872243659973145,1.4388488671302802
0.133333333333333,1.28866486387253,3.03255127716064,-1.48307496099472
0.133939393939394,-1.4296823040962199,-2.61250975799561,-0.19455445318221998
0.134545454545455,-0.586635429096222,-0.7108642501831051,1.05085570306778
0.135151515151515,2.17961212949753,1.60511963653564,-0.49632691411972096
0.135757575757576,-1.30514128847122,1.59314453887939,-0.0316931250572205
0.136363636363636,-0.110026542377472,-6.06852294158936,0.19343871088028
0.136969696969697,0.524653633403778,5.32937500762939,-0.17299927740097
0.137575757575758,0.661169746685028,-0.868935539245605,0.437730703067779
0.138181818181818,-1.4129171673774699,-1.25213866424561,-0.383760996150971
0.138787878787879,0.225276191997528,-0.548002922058105,-1.00886109380722
0.139393939393939,0.749785469341278,1.65541504669189,0.679627675724029
0.14,-0.629745780658722,0.881823738098145,1.55141478509903
0.140606060606061,0.321076973247528,-3.2759301681518602,-1.24117798833847
0.141212121212121,-0.8644576947212219,2.97746582794189,-0.17778931646347
0.141818181818182,0.977312324810028,-2.65562010955811,1.8412121483802801
0.142424242424242,-0.0788912884712219,3.16427735137939,-1.32500367193222
0.143030303030303,-0.658486015033722,-3.55135741424561,-0.18976441411971998
0.143636363636364,-0.0836813275337219,1.36322266387939,1.0795959374427802
0.144242424242424,1.10903839902878,1.93802735137939,-0.584942636775971
0.144848484848485,-0.852482597064972,-2.80650634002686,-0.874740000057221
0.145454545454545,-0.988998710346222,-0.260600578308105,1.07241087884903
0.146060606060606,1.93053009824753,1.61709473419189,-0.30712037115097096
0.146666666666667,-1.12551482362747,2.12723389434814,-0.46519166021347097
0.147272727272727,-0.416589042377472,-7.06724608612061,0.375460195255279
0.147878787878788,0.5941091998100281,5.08987305450439,-0.38615601568222097
0.148484848484848,1.0587429888725302,0.347734382629395,0.693997792911529
0.149090909090909,-1.79612029237747,-2.06405028533936,-0.0843835547447205
0.14969696969697,0.6132693560600281,-0.44741210174560503,-0.44603150396347097
0.15030303030303,1.22878937559128,2.33560059356689,-0.20173951177597
0.150909090909091,-1.20694548768997,0.453115242004395,1.27838255853653
0.151515151515152,0.41448273496627797,-3.50824706268311,-0.788519296932221
0.152121212121212,-0.38066374940872205,3.72231690216064,-0.532252207088471
0.152727272727273,1.02760773496628,-2.24367675018311,1.82205199213028
0.153333333333333,-0.670461112689972,2.27572510528564,-1.2124377539634699
0.153939393939394,-0.337553397846222,-3.80522948455811,-0.26640503911972097
0.154545454545455,0.471963203716278,2.38589600372314,0.377855214786529
0.155151515151515,1.20962921934128,1.77756104278564,-0.0604333594322205
0.155757575757576,-1.2165255658149698,-3.35257079315186,-0.450821543025971
0.156363636363636,-1.10635466737747,0.383659675598145,0.468865956974029
0.156969696969697,2.08860138731003,0.637531745910645,0.11200804681778
0.157575757575758,-0.9818136517524719,3.66483643341064,-0.6615832617759709
0.158181818181818,-0.672856132221222,-7.23968749237061,0.543111562442779
0.158787878787879,0.301916816997528,4.32586182403564,0.15272337884903
0.159393939393939,1.16651886777878,1.30813721466064,0.294029531192779
0.16,-1.68834441347122,-2.57179442596436,-0.15144410161972
0.160606060606061,-0.227382499408722,-0.29652587127685504,0.11679808588028
0.161212121212121,1.41081085996628,1.62188477325439,0.476051015567779
0.161818181818182,-1.12551482362747,1.6745752029418899,0.49042113275527904
0.162424242424242,-0.107631522846222,-5.19673583221436,-0.5226721289634709
0.163030303030303,-0.5602902142524719,4.09114990997314,-0.544227304744721
0.163636363636364,1.79640900449753,-1.14675780487061,1.8843224999427801
0.164242424242424,-1.3793868939399698,0.817158210754395,-1.0759216406822198
0.164848484848485,-0.34473845643997203,-3.34778075408936,0.12398314447403
0.165454545454545,1.01563263731003,3.09242676544189,0.799378652286529
0.166060606060606,0.0911550982475281,1.29616211700439,-0.450821543025971
0.166666666666667,-0.500414725971222,-3.20647460174561,-0.16581421880722
0.167272727272727,-1.10395964784622,1.44944336700439,0.20541380853653002
0.167878787878788,2.13171173887253,-0.665358879089355,0.686812734317779
0.168484848484848,-0.795002128314972,4.07438477325439,-0.611287851619721
0.169090909090909,-0.866852714252472,-6.28407469940186,-0.24724488286972
0.16969696969697,0.412087715435028,3.63130615997314,0.284449453067779
0.17030303030303,1.20723419981003,1.14527588653564,0.531136464786529
0.170909090909091,-1.45363249940872,-2.00656981658936,-0.886715097713471
0.171515151515152,-0.749496757221222,-0.667753898620605,0.11200804681778
0.172121212121212,2.30415314512253,1.65781006622314,1.21371703119278
0.172727272727273,-0.9243331830024719,2.44098145294189,-0.450821543025971
0.173333333333333,-0.46209441347122204,-7.38099364471436,-0.0077429297447205
0.173939393939394,0.057624824810028105,5.49702637481689,-0.29514527349472097
0.174545454545455,1.61678253965378,-0.0546288986206055,0.847279042911529
0.175151515151515,-1.55182830018997,-0.548002922058105,-0.0077429297447205
0.175757575757576,0.227671211528778,-2.71310057830811,-0.510697031307221
0.176363636363636,0.6947000201225281,2.33320557403564,0.844884023380279
0.176969696969697,-0.557895194721222,1.72247559356689,-0.0867785742759705
0.177575757575758,-0.210617362689972,-4.02796630096436,-0.604102793025971
0.178181818181818,-0.672856132221222,2.23500977325439,0.447310781192779
0.178787878787879,1.57846222715378,-1.04856200408936,0.725133046817779
0.179393939393939,-1.06803435487747,2.63976807403564,-1.0328112891197199
0.18,-0.12200164003372199,-5.80986083221436,-0.23047974615097
0.180606060606061,0.31628693418502796,3.94984375762939,0.768243398380279
0.181212121212121,1.02042267637253,1.13090576934814,1.01493041009903
0.181818181818182,-1.47518767518997,-2.66759520721436,-1.50942017583847
0.182424242424242,-1.0800094525337198,-0.322871086120605,-0.290355234432221
0.183030303030303,2.45743439512253,1.63864990997314,1.03409056634903
0.183636363636364,-0.754286796283722,3.07805664825439,-0.508302011775971
0.184242424242424,-0.735126640033722,-7.81449217987061,0.418570546817779
0.184848484848485,0.34502716856002796,4.87192627716064,0.11679808588028
0.185454545454545,1.52337677793503,0.268698738098145,0.0401574608802795
0.186060606060606,-1.72666472597122,-1.00305663299561,0.0784777733802795
0.186666666666667,-0.0405709759712219,-2.33468749237061,-0.0508532813072205
0.187272727272727,1.13777863340378,2.86968994903564,0.8161437890052791
0.187878787878788,-0.517179862689972,2.16076416778564,0.0114172265052795
0.188484848484848,-0.236962577533722,-5.52724852752686,-0.625657968807221
0.189090909090909,-0.7806320111274719,3.24091797637939,0.6748376366615291
0.18969696969697,1.78922394590378,-0.308500968933105,0.773033437442779
0.19030303030303,-1.50871794862747,1.48057862091064,-0.14904908208846998
0.190909090909091,-0.5650802533149719,-5.25661132049561,-0.707088632869721
0.191515151515152,0.5150735552787781,3.73429199981689,0.16709349603653
0.192121212121212,0.737810371685028,0.575261238098145,1.7597814843177801
0.192727272727273,-0.986603690814972,-2.25565184783936,-1.20525269536972
0.193333333333333,-1.0919845501899699,0.0986523513793945,-0.19215943365097
0.193939393939394,2.04549103574753,0.33096924591064497,0.574246816349029
0.194545454545455,-0.610585624408722,3.35348389434814,-0.30712037115097096
0.195151515151515,-0.936308280658722,-6.68883300018311,-0.12509888677597
0.195757575757576,-0.030990897846221898,4.38094727325439,0.495211171817779
0.196363636363636,1.40602082090378,0.534545906066895,0.591011953067779
0.196969696969697,-1.4296823040962199,-0.665358879089355,-0.987305918025971
0.197575757575758,-0.356713554096222,-3.40286620330811,0.22217894525528
0.198181818181818,1.50182160215378,3.34629883575439,0.14553832025528002
0.198787878787879,-0.35431853456497203,2.49367188262939,-0.10833375005722
0.199393939393939,-0.665671073627472,-7.27800780487061,0.0209973046302795
0.2,-0.28486296815872203,4.64679444122314,-0.20173951177597
0.200606060606061,2.03351593809128,-0.461782218933105,0.8951794335365291
0.201212121212121,-2.09310271425247,1.15485596466064,-0.697508554744721
0.201818181818182,0.208511055278778,-4.24112303924561,-0.33586060552597097
0.202424242424242,0.31628693418502796,3.97379395294189,-0.21850464849471998
0.203030303030303,0.42645783262252795,0.414794929504395,1.1011511132240301
0.203636363636364,-0.375873710346222,-2.93583739471436,-0.6424231055259709
0.204242424242424,-0.912358085346222,1.0159448318481399,-0.438846445369721
0.204848484848485,1.6742630084037802,-0.0857641525268555,0.844884023380279
0.205454545454545,-0.610585624408722,3.71752686309814,-0.671163339900971
0.206060606060606,-0.184272147846222,-7.30914305877686,-0.0125329688072205
0.206666666666667,-0.40461394472122203,4.42884766387939,0.0593176171302795
0.207272727272727,2.30654816465378,0.819553230285645,1.5202795311927801
0.207878787878788,-1.72426970643997,-1.34554442596436,-1.32260865240097
0.208484848484848,-0.9434933392524719,-3.25677001190186,0.28205443353652904
0.209090909090909,2.46940949277878,3.71034180450439,1.64961058588028
0.20969696969697,-1.0800094525337198,3.51155518341064,-1.85190796880722
0.21030303030303,-1.02731902284622,-8.322236320495609,0.337139882755279
0.210909090909091,0.201325996685028,5.03957764434814,0.0018371483802795
0.211515151515152,2.05507111387253,0.132182624816895,-0.14186402349472
0.212121212121212,-2.24877898378372,0.22079834747314497,0.16709349603653
0.212727272727273,0.34742218809127795,-3.78846434783936,0.15751341791153
0.213333333333333,0.737810371685028,4.20850586700439,-0.419686289119721
0.213939393939394,-0.11960662050247199,0.287858894348145,0.662862539005279
0.214545454545455,-0.186667167377472,-3.74535399627686,-0.26640503911972097
0.215151515151515,-1.2931661908149699,2.35715576934814,-1.4519397070884699
0.215757575757576,2.08141632871628,-0.545607902526855,1.65679564447403
0.216363636363636,-0.692016288471222,2.98944092559814,0.344324941349029
0.216969696969697,-0.653695975971222,-6.39424559783936,-1.4950500586509698
0.217575757575758,0.050439766216278104,3.66004639434814,0.928709706974029
0.218181818181818,1.46350128965378,1.06863526153564,1.46998412103653
0.218787878787879,-1.28598113222122,-0.373166496276855,-1.8878332617759699
0.219393939393939,-1.4129171673774699,-3.58967772674561,1.05085570306778
0.22,2.2969680865287803,2.57989258575439,1.48914427728653
0.220606060606061,-0.36150359315872205,4.33783692169189,-1.76568726568222
0.221212121212121,-1.4608175580024698,-8.45396239471436,0.626937246036529
0.221818181818182,0.33544709043502796,4.92461670684814,0.18625365228653
0.222424242424242,1.92813507871628,0.548916023254395,-0.6424231055259709
0.223030303030303,-1.91108122987747,-0.44741210174560503,-0.12270386724472
0.223636363636364,0.21090607481002802,-4.10460692596436,-0.441241464900971
0.224242424242424,1.3533303912162802,4.62523926544189,-0.0556433203697205
0.224848484848485,-0.40221892518997204,1.03510498809814,0.753873281192779
0.225454545454545,-0.814162284564972,-5.73561522674561,-0.31670044927597096
0.226060606060606,-0.330368339252472,3.23612793731689,-1.07831666021347
0.226666666666667,1.40362580137253,0.00285157012939452,1.69511595697403
0.227272727272727,-1.31232634706497,2.49127686309814,0.15990843744278002
0.227878787878788,0.100735176372528,-5.67334471893311,-1.54055542974472
0.228484848484848,-0.0980514447212219,3.27205323028564,0.765848378849029
0.229090909090909,1.20962921934128,0.836318367004395,1.6017101952552801
0.22969696969697,-0.8644576947212219,-0.686914054870605,-1.59564087896347
0.23030303030303,-1.34585662050247,-2.27720702362061,-0.381365976619721
0.230909090909091,1.8538894732475302,1.40633301544189,1.21850707025528
0.231515151515152,-0.32078826112747205,4.32107178497314,-0.7813342383384709
0.232121212121212,-1.07761443300247,-8.01327880096436,-0.616077890682221
0.232727272727273,-0.141161796283722,4.17258057403564,1.31191283197403
0.233333333333333,2.44785431699753,1.72726563262939,-0.304725351619721
0.233939393939394,-2.4930709759712197,-0.998266593933105,-0.592127695369721
0.234545454545455,-0.251332694721222,-4.94046874237061,0.12158812494278
0.235151515151515,2.2035623248100302,6.21074219512939,-0.915455332088471
0.235757575757576,-0.991393729877472,0.465090339660645,1.43645384759903
0.236363636363636,-0.792607108783722,-6.40143065643311,-0.026903085994720497
0.236969696969697,0.359397285747528,4.59170899200439,-0.891505136775971
0.237575757575758,0.7737356646537781,-1.03419188690186,1.06043578119278
0.238181818181818,-1.24047576112747,2.04340821075439,-0.33586060552597097
0.238787878787879,0.459988106060028,-4.74647216033936,-0.9202453711509709
0.239393939393939,-0.330368339252472,3.34150879669189,0.25570921869278
0.24,1.34614533262253,0.357314460754395,1.65679564447403
0.240606060606061,-0.909963065814972,-1.12041259002686,-1.52618531255722
0.241212121212121,-1.12072478456497,-2.17661620330811,-0.503511972713471
0.241818181818182,1.89460480527878,1.95718750762939,1.9010876366615301
0.242424242424242,-0.0980514447212219,4.73780518341064,-1.11903199224472
0.243030303030303,-1.3195114056587198,-8.94254637908936,-0.453216562557221
0.243636363636364,0.0791800005912781,4.26119629669189,1.24724730463028
0.244242424242424,2.77357697324753,2.33799561309814,-0.371785898494721
0.244848484848485,-2.91938445253372,-1.25453368377686,-0.738223886775971
0.245454545454545,-0.0860763470649719,-5.36438719940186,1.4388488671302802
0.246060606060606,1.88502472715378,6.16284180450439,-1.17890748052597
0.246666666666667,-1.06084929628372,1.1572509841918899,-0.0867785742759705
0.247272727272727,-0.608190604877472,-6.78942382049561,0.782613515567779
0.247878787878788,0.177375801372528,4.90066651153564,-0.824444589900971
0.248484848484848,1.63833771543503,-0.792294914245605,0.911944570255279
0.249090909090909,-1.58775359315872,1.52847901153564,-0.24245484380722
0.24969696969697,0.36418732481002797,-5.19673583221436,-0.472376718807221
0.25030303030303,-0.107631522846222,4.03366944122314,0.15511839838028002
0.250909090909091,1.39883576231003,0.599211433410645,1.9394079491615301
0.251515151515152,-0.8213473431587219,-2.27002196502686,-1.7896374609947199
0.252121212121212,-1.5805685345649698,-1.08927733612061,-0.913060312557221
0.252727272727273,2.13889679746628,1.24107666778564,2.84712035150528
0.253333333333333,-0.615375663471222,4.82881592559814,-1.25315308599472
0.253939393939394,-1.15904509706497,-8.57371337127686,-1.06394654302597
0.254545454545455,-0.550710136127472,3.43251953887939,1.26640746088028
0.255151515151515,2.45264435606003,2.75233399200439,0.0233923241615295
0.255757575757576,-2.3565548626899697,-1.00545165252686,-1.3537439063072199
0.256363636363636,-0.318393241596222,-4.59558592987061,0.823328847599029
0.256969696969697,2.15805695371628,4.69948487091064,0.0784777733802795
0.257575757575758,-1.16623015565872,1.6961303787231399,-0.10354371099472
0.258181818181818,-0.569870292377472,-7.24926757049561,0.334744863224029
0.258787878787879,0.107920234966278,4.87432129669189,-0.831629648494721
0.259393939393939,1.82514923887253,0.177687995910645,0.943079824161529
0.26,-2.15537322206497,0.812368171691895,-0.014927988338470501
0.260606060606061,0.524653633403778,-5.43623778533936,-0.855579843807221
0.261212121212121,0.400112617778778,5.38446045684814,-0.036483164119720496
0.261818181818182,0.0863650591850281,0.699802253723145,2.04718382806778
0.262424242424242,-0.28246794862747204,-2.80411132049561,-1.39924927740097
0.263030303030303,-1.17102019472122,0.417189949035645,-1.29147339849472
0.263636363636364,1.38207062559128,-0.0761840744018555,3.10338744134903
0.264242424242424,-0.0573361126899719,5.01083740997314,-0.989700937557221
0.264848484848485,-0.9027780072212219,-7.27082274627686,-1.80640259771347
0.265454545454545,-0.6010055462837219,2.78346924591064,1.33346800775528
0.266060606060606,2.16763703184128,1.87815186309814,0.6772326561927791
0.266666666666667,-1.9134762494087199,-0.842590324401855,-1.64114625005722
0.267272727272727,-0.7231515423774719,-4.87580321502686,0.689207753849029
0.267878787878788,2.24906769590378,5.15214356231689,0.21020384759903002
0.268484848484848,-0.7039913861274719,2.53438721466064,-0.659188242244721
0.269090909090909,-1.22610564393997,-9.12935790252686,0.722738027286529
0.26969696969697,0.459988106060028,5.45152100372314,-0.6999035742759709
0.27030303030303,1.93771515684128,1.87815186309814,-0.28556519536972097
0.270909090909091,-3.01997527284622,-0.7300244064331051,0.907154531192779
0.271515151515151,0.790500801372528,-5.44102782440186,-0.695113535213471
0.272121212121212,0.809660957622528,5.76047852325439,-0.663978281307221
0.272727272727273,-0.727941581439972,-0.018703605651855502,2.0902941796302796
0.273333333333333,0.0911550982475281,-3.11785887908936,-0.953775644588471
0.273939393939394,-0.330368339252472,1.43267823028564,-1.02802125005722
0.274545454545455,1.21920929746628,-0.844985343933105,2.5525329491615296
0.275151515151515,-0.49322966737747204,3.68878662872314,-1.07831666021347
0.275757575757576,0.0791800005912781,-6.49723143768311,-1.7680822852134699
0.276363636363636,-0.629745780658722,3.37982910919189,1.53225462884903
0.276969696969697,2.43827423887253,2.36913086700439,0.574246816349029
0.277575757575758,-1.73145476503372,-1.42458007049561,-1.76568726568222
0.278181818181818,-1.34585662050247,-4.47104491424561,0.684417714786529
0.278787878787879,2.82387238340378,4.98928223419189,0.0018371483802795
0.279393939393939,-0.8429025189399719,3.15469727325439,-0.764569101619721
0.28,-1.50871794862747,-8.94015135955811,0.852069081974029
0.280606060606061,0.642009590435028,4.79049561309814,0.43054564447402904
0.281212121212121,2.02872589902878,2.03143311309814,-0.28796021490097096
0.281818181818182,-2.2870992962837198,-0.7108642501831051,0.447310781192779
0.282424242424242,0.5557888873100281,-4.68420165252686,-0.17539429693222
0.283030303030303,1.21202423887253,5.07789795684814,-0.49632691411972096
0.283636363636364,-0.636930839252472,0.512990730285645,1.34304808588028
0.284242424242424,-0.327973319721222,-4.09023680877686,-1.21483277349472
0.284848484848485,-0.138766776752472,1.53805908966064,-0.6615832617759709
0.285454545454545,1.30543000059128,0.280673835754395,2.17890990228653
0.286060606060606,-0.6225607220649719,3.20738770294189,-1.02323121099472
0.286666666666667,-0.598610526752472,-7.19897216033936,-1.98363404302597
0.287272727272727,-0.0549410931587219,4.10312500762939,1.2855676171302801
0.287878787878788,2.06944123106003,2.00029785919189,1.02690550775528
0.288484848484849,-1.96137664003372,-1.2976440353393601,-1.75371216802597
0.289090909090909,-0.874037772846222,-3.83157469940186,0.6772326561927791
0.28969696969697,2.30894318418503,3.83009278106689,0.19822874994278
0.29030303030303,-0.366293632221222,4.00732422637939,-0.728643808650971
0.290909090909091,-1.41052214784622,-8.501862785339359,0.16948851556778002
0.291515151515152,0.153425606060028,4.50309326934814,0.46168089838027904
0.292121212121212,2.06465119199753,1.6961303787231399,0.0617126366615295
0.292727272727273,-2.1505831830024698,-0.627038566589355,-0.29754029302597096
0.293333333333333,0.47435822324752797,-5.45300292205811,0.34192992181777904
0.293939393939394,0.797685859966278,5.81556397247314,-0.623262949275971
0.294545454545455,-0.287257987689972,0.656691902160645,1.45321898431778
0.295151515151515,-0.438144218158722,-5.70447997283936,-1.05197144536972
0.295757575757576,-0.232172538471222,3.06608155059814,-1.22201783208847
0.296363636363636,1.79161896543503,0.19445313262939498,3.0914123436927796
0.296969696969697,-1.82965056581497,2.47451172637939,-0.877135019588471
0.297575757575758,0.177375801372528,-6.02301757049561,-1.92854859380722
0.298181818181818,-0.390243827533722,3.69118164825439,1.02930052728653
0.298787878787879,1.33896027402878,1.48057862091064,1.38855345697403
0.299393939393939,-1.02971404237747,-1.34075438690186,-1.48067994146347
0.3,-1.00336882753372,-3.12264891815186,0.277264394474029
0.300606060606061,1.92813507871628,2.70443360137939,0.761058339786529
0.301212121212121,-0.45251433534622204,4.07198975372314,-1.12382203130722
0.301818181818182,-0.7015963665962219,-8.80603026580811,0.416175527286529
0.302424242424242,-0.37347869081497204,4.75696533966064,0.11440306634903
0.303030303030303,2.52688996152878,2.05538330841064,0.466470937442779
0.303636363636364,-2.70143767518997,-1.24495360565186,-0.584942636775971
0.304242424242424,0.11989533262252801,-5.56556884002686,0.468865956974029
0.304848484848485,2.54365509824753,6.00237549591064,0.317979726505279
0.305454545454545,-1.4943478314399699,1.97634766387939,0.0712927147865295
0.306060606060606,-0.608190604877472,-7.18939208221436,0.10242796869278
0.306666666666667,0.33784210996627795,4.25640625762939,-1.67946656255722
0.307272727272727,0.845586250591278,-0.0282836837768555,1.81247191400528
0.307878787878788,-1.47997771425247,1.97874268341064,0.0928478905677795
0.308484848484848,0.45519806699752796,-4.84945800018311,-1.93333863286972
0.309090909090909,-0.44053923768997205,2.94872559356689,0.605382070255279
0.30969696969697,1.01084259824753,1.46141846466064,0.6963928124427791
0.31030303030303,-0.955468436908722,-1.99698973846436,-0.831629648494721
0.310909090909091,-1.15904509706497,-2.11195067596436,0.399410390567779
0.311515151515152,2.31852326231003,2.94393555450439,1.60650023431778
0.312121212121212,-0.897987968158722,3.59059082794189,-0.738223886775971
0.312727272727273,-1.35543669862747,-9.02397704315186,-0.273590097713471
0.313333333333333,0.471963203716278,4.24682617950439,1.2041369530677801
0.313939393939394,1.8155691607475302,3.57861573028564,-0.544227304744721
0.314545454545455,-2.89303923768997,-1.21621337127686,-0.834024668025971
0.315151515151515,0.127080391216278,-5.82183592987061,0.569456777286529
0.315757575757576,2.09578644590378,5.57845703887939,-0.21610962896347
0.316363636363636,-1.28358611268997,2.13202393341064,0.473655996036529
0.316969696969697,-0.28486296815872203,-6.30802489471436,-0.0508532813072205
0.317575757575758,0.153425606060028,3.65765137481689,-1.10226685552597
0.318181818181818,1.2216043169975301,0.48185547637939496,1.41968871088028
0.318787878787879,-1.50871794862747,1.20275635528564,0.270079335880279
0.319393939393939,0.0743899615287781,-5.47695311737061,-1.80400757818222
0.32,0.625244453716278,4.45040283966064,0.878414296817779
0.320606060606061,0.558183906841278,1.50452881622314,1.05325072259903
0.321212121212121,-1.1734152142524699,-3.94893065643311,-1.3321887305259699
0.321818181818182,-0.246542655658722,-0.12887450408935502,0.265289296817779
0.322424242424242,1.50661164121628,2.69245850372314,1.60410521478653
0.323030303030303,-0.677646171283722,2.73317383575439,-0.805284433650971
0.323636363636364,-0.241752616596222,-7.10317137908936,-0.826839609432221
0.324242424242424,-0.48125456972122205,2.84094971466064,1.25203734369278
0.324848484848485,1.82275421934128,2.79065430450439,0.20062376947403002
0.325454545454545,-1.96377165956497,-0.478547355651855,-1.12621705083847
0.326060606060606,-0.244147636127472,-5.09135497283936,0.521556386661529
0.326666666666667,1.85628449277878,4.41447754669189,0.0784777733802795
0.327272727272727,-0.893197929096222,2.37871094512939,0.660467519474029
0.327878787878788,-0.766261893939972,-6.91875487518311,-0.424476328182221
0.328484848484848,-0.0788912884712219,3.44928467559814,-0.544227304744721
0.329090909090909,1.44913117246628,1.31292725372314,1.2424572655677801
0.32969696969697,-1.62846892518997,0.718962409973145,-0.570572519588471
0.33030303030303,0.244436348247528,-6.78702880096436,-0.951380625057221
0.330909090909091,0.977312324810028,5.87304444122314,0.705972890567779
0.331515151515152,0.342632149028778,1.85180664825439,1.49632933588028
0.332121212121212,-1.16383513612747,-5.19194579315186,-1.49984009771347
0.332727272727273,-0.00225066347122192,0.771652839660645,-0.038878183650970496
0.333333333333333,1.16891388731003,1.39196289825439,1.7981017968177802
0.333939393939394,-1.0967745892524698,3.46125977325439,-1.40164429693222
0.334545454545455,0.100735176372528,-6.73912841033936,-0.15144410161972
0.335151515151515,-0.12200164003372199,3.62172608184814,0.511976308536529
0.335757575757576,1.6143875201225302,1.59314453887939,0.377855214786529
0.336363636363636,-1.7769601361274698,-0.998266593933105,-0.7406189063072209
0.336969696969697,-0.110026542377472,-4.28423339080811,-0.08198853521347049
0.337575757575758,1.8922097857475302,4.31867676544189,1.0628308007240301
0.338181818181818,-0.665671073627472,2.99662598419189,0.408990468692779
0.338787878787879,-1.0919845501899699,-8.05159911346436,-1.4136193945884699
0.339393939393939,-0.131581718158722,3.54269043731689,-0.27838013677597095
0.34,2.44066925840378,2.31404541778564,1.7597814843177801
0.340606060606061,-2.3134445111274697,0.00285157012939452,-0.0963586524009705
0.341212121212121,-0.198642265033722,-6.43735594940186,-0.472376718807221
0.341818181818182,0.938992012310028,5.83951416778564,0.39222533197402903
0.342424242424242,-0.234567558002472,1.62667481231689,0.605382070255279
0.343030303030303,-0.771051933002472,-5.03866454315186,-0.723853769588471
0.343636363636364,-0.177087089252472,1.54763916778564,-0.034088144588470495
0.344242424242424,1.52816681699753,1.30334717559814,1.15384154291153
0.344848484848485,-1.13748992128372,2.49127686309814,-1.0759216406822198
0.345454545454545,0.06959992246627811,-7.16544188690186,-0.450821543025971
0.346060606060606,-0.189062186908722,4.16060547637939,0.861649160099029
0.346666666666667,1.34375031309128,2.51762207794189,0.454495839786529
0.347272727272727,-2.03801726503372,-2.82566649627686,-0.8603698828697209
0.347878787878788,-0.205827323627472,-3.51782714080811,-0.5202771094322209
0.348484848484849,2.12931671934128,4.34023194122314,1.35981322259903
0.349090909090909,-1.20215544862747,3.44928467559814,0.849674062442779
0.34969696969697,-0.545920097064972,-8.00609374237061,-1.41122437505722
0.35030303030303,-0.308813163471222,3.21696778106689,-0.34783570318222096
0.350909090909091,1.60480744199753,2.06017334747314,1.8196569725990301
0.351515151515152,-1.6787643353462198,0.0411718826293945,-0.577757578182221
0.352121212121212,-0.198642265033722,-5.41947264862061,-0.675953378963471
0.352727272727273,0.948572090435028,4.36657715606689,0.7562683007240291
0.353333333333333,-0.217802421283722,1.86617676544189,0.526346425724029
0.353939393939394,-0.632140800189972,-5.39552245330811,-0.795704355525971
0.354545454545455,-0.136371757221222,1.40633301544189,0.0688976952552795
0.355151515151515,1.57846222715378,2.36194580841064,1.20653197259903
0.355757575757576,-1.65960417909622,1.67936524200439,-0.829234628963471
0.356363636363636,0.27796662168502795,-7.99411864471436,-0.0987536719322205
0.356969696969697,0.546208809185028,5.44912598419189,0.600592031192779
0.357575757575758,0.30670685606002795,1.82306641387939,0.926314687442779
0.358181818181818,-1.6524191205024699,-3.35017577362061,-0.932220468807221
0.358787878787879,0.215696113872528,-1.92753417205811,-0.390946054744721
0.359393939393939,1.2383694537162802,2.74035889434814,1.47477416009903
0.36,-1.16623015565872,3.09721680450439,0.435335683536529
0.360606060606061,-0.14834685487747198,-6.56908202362061,-0.968145761775971
0.361212121212121,0.0360696490287781,3.45167969512939,-0.299935312557221
0.361818181818182,1.3365652544975302,1.0758203201293899,1.69511595697403
0.362424242424242,-1.72426970643997,0.304624031066895,-0.584942636775971
0.363030303030303,-0.26091277284622205,-5.02189940643311,-0.704693613338471
0.363636363636364,1.28626984434128,4.18695069122314,0.729923085880279
0.364242424242424,0.14624054746627801,3.48281494903564,-0.0197180274009705
0.364848484848485,-1.45842253847122,-7.41212889862061,-0.604102793025971
0.365454545454545,-0.038175956439971896,1.69134033966064,0.459285878849029
0.366060606060606,2.36642365293503,3.93547364044189,0.806563710880279
0.366666666666667,-2.48109587831497,0.541730964660645,-0.975330820369721
0.367272727272727,0.11989533262252801,-7.61810057830811,0.054527578067779504
0.367878787878788,1.12101349668503,5.21441407012939,0.37067015619277904
0.368484848484848,-0.15313689393997199,1.72008057403564,0.394620351505279
0.369090909090909,-1.31711638612747,-3.48429686737061,-1.0759216406822198
0.36969696969697,0.5126785357475281,-0.445017082214355,-0.764569101619721
0.37030303030303,1.37728058652878,2.44337647247314,1.56099486322403
0.370909090909091,-1.2500558392524699,1.89491699981689,0.308399648380279
0.371515151515152,0.124685371685028,-6.24096434783936,-1.18848755865097
0.372121212121212,-0.287257987689972,3.56664063262939,0.0880578515052795
0.372727272727273,1.53056183652878,1.27939698028564,1.68074583978653
0.373333333333333,-1.45842253847122,-0.753974601745605,-1.30823853521347
0.373939393939394,-0.6800411908149719,-5.23026610565186,-1.00167603521347
0.374545454545455,1.9017898638725301,4.51027832794189,1.65679564447403
0.375151515151515,-0.32078826112747205,3.89715332794189,0.787403554630279
0.375757575757576,-1.47518767518997,-7.66839598846436,-1.59085083990097
0.376363636363636,0.028884590435028102,1.72008057403564,1.07241087884903
0.376969696969697,1.4227859576225301,3.42772949981689,1.2256921288490301
0.377575757575758,-1.63325896425247,0.728542488098145,-1.9692639258384699
0.378181818181818,-0.229777518939972,-6.72475829315186,0.0784777733802795
0.378787878787879,1.15214875059128,4.28035645294189,0.808958730411529
0.379393939393939,0.110315254497528,2.52720215606689,0.0760827538490295
0.38,-1.82486052675247,-4.97160399627686,-0.19455445318221998
0.380606060606061,0.539023750591278,-0.033073722839355495,-0.10114869146347
0.381212121212121,1.60959748106003,3.19780762481689,0.648492421817779
0.381818181818182,-1.89910613222122,0.877033699035645,0.476051015567779
0.382424242424242,-0.026200858783721897,-6.92593993377686,-1.47109986333847
0.383030303030303,0.28515168027877796,4.46477295684814,-0.362205820369721
0.383636363636364,0.644404609966278,1.66499512481689,2.2004650780677797
0.384242424242424,-1.5709884564399699,-1.67126708221436,-1.12142701177597
0.384848484848485,0.242041328716278,-3.71421874237061,-1.40164429693222
0.385454545454545,0.946177070903778,3.29600342559814,1.8244470116615301
0.386060606060606,-0.378268729877472,3.69357666778564,0.600592031192779
0.386666666666667,-0.26330779237747204,-6.28407469940186,-1.98363404302597
0.387272727272727,-0.397428886127472,1.33208740997314,0.969425039005279
0.387878787878788,1.28866486387253,2.22063965606689,1.65679564447403
0.388484848484848,-2.02125212831497,1.19796631622314,-1.95728882818222
0.389090909090909,-0.0788912884712219,-7.08880126190186,0.408990468692779
0.38969696969697,1.01563263731003,4.90306153106689,0.897574453067779
0.39030303030303,0.30670685606002795,3.14511719512939,-0.719063730525971
0.390909090909091,-1.94700652284622,-6.97623534393311,-0.0939636328697205
0.391515151515152,0.7354153521537781,0.704592292785645,-0.484351816463471
0.392121212121212,2.35444855527878,4.15342041778564,0.32276976556777903
0.392727272727273,-2.82358367128372,0.769257820129395,1.07001585931778
0.393333333333333,0.831216133403778,-6.84450926971436,-0.9609607031822209
0.393939393939394,0.601294258403778,5.05155274200439,-0.630448007869721
0.394545454545455,0.129475410747528,1.57158936309814,1.43405882806778
0.395151515151515,-0.596215507221222,-2.24128173065186,-0.30712037115097096
0.395757575757576,0.627639473247528,-2.01375487518311,-0.735828867244721
0.396363636363636,0.797685859966278,2.25416992950439,1.35981322259903
0.396969696969697,-0.912358085346222,2.39547608184814,0.0473425194740295
0.397575757575758,0.055229805278778105,-5.73082518768311,-1.9692639258384699
0.398181818181818,-0.29444304628372203,1.66020508575439,0.720343007755279
0.398787878787879,1.94969025449753,3.24331299591064,2.01604857416153
0.399393939393939,-1.75300994081497,0.6854321365356449,-1.72736695318222
0.4,-0.536340018939972,-7.48876952362061,-0.16341919927596998
0.400606060606061,2.40953400449753,5.11621826934814,1.5250695702552801
0.401212121212121,0.0432547076225281,4.68511475372314,-0.865159921932221
0.401818181818182,-2.38290007753372,-7.52469481658936,-0.19934449224471998
0.402424242424242,1.08987824277878,0.841108406066895,-0.0532483008384705
0.403030303030303,2.03351593809128,4.67074463653564,-0.424476328182221
0.403636363636364,-2.4930709759712197,-0.0474438400268555,1.3190978905677802
0.404242424242424,0.630034492778778,-6.32239501190186,-0.608892832088471
0.404848484848485,0.740205391216278,5.17369873809814,-0.654398203182221
0.405454545454545,-0.12200164003372199,1.65781006622314,0.899969472599029
0.406060606060606,-1.13269988222122,-3.60165282440186,-0.33586060552597097
0.406666666666667,0.491123359966278,-1.11322753143311,-0.637633066463471
0.407272727272727,0.800080879497528,2.87447998809814,1.31430785150528
0.407878787878788,-0.869247733783722,2.40505615997314,0.588616933536529
0.408484848484849,-0.21301238222122199,-6.02062255096436,-2.2901965430259703
0.409090909090909,-0.169902030658722,1.83504151153564,1.13228636713028
0.40969696969697,1.68144806699753,2.96788574981689,2.35853636713028
0.41030303030303,-2.12902800722122,1.04229004669189,-2.73806519536972
0.410909090909091,-0.359108573627472,-6.90438475799561,0.016207265567779502
0.411515151515152,1.34375031309128,3.80374756622314,1.0412756249427801
0.412121212121212,0.163005684185028,4.47914307403564,-0.44603150396347097
0.412727272727273,-1.63325896425247,-6.34395018768311,-0.33825562505722095
0.413333333333333,0.055229805278778105,0.117812507629395,0.32276976556777903
0.413939393939394,2.20116730527878,4.25880127716064,-0.15862916021346998
0.414545454545455,-2.28949431581497,0.290253913879395,-0.340650644588471
0.415151515151515,0.158215645122528,-7.54864501190186,0.48084105463027904
0.415757575757576,1.2647146685600301,6.50293457794189,-0.527462168025971
0.416363636363636,-0.227382499408722,1.70331543731689,1.17300169916153
0.416969696969697,-1.47039763612747,-4.79916259002686,-0.388551035213471
0.417575757575758,1.0132376177787799,-0.36598143768310504,-1.14298218755722
0.418181818181818,1.2048391802787801,3.04931641387939,1.96335814447403
0.418787878787879,-2.20566863222122,1.72247559356689,0.552691640567779
0.419393939393939,0.591714180278778,-5.44581786346436,-1.90699341802597
0.42,-0.215407401752472,2.2326147537231398,-0.0316931250572205
0.420606060606061,0.869536445903778,1.62188477325439,2.51900267572403
0.421212121212121,-0.6417208783149719,0.9057739334106449,-1.97884400396347
0.421818181818182,-0.253727714252472,-4.91172850799561,-0.695113535213471
0.422424242424242,0.8719314654350281,2.77628418731689,1.4220837304115301
0.423030303030303,0.15103058652877802,4.10312500762939,-0.25442994146347
0.423636363636364,-1.18060027284622,-6.44933104705811,-1.11184693365097
0.424242424242424,-0.126791679096222,0.14415772247314498,0.588616933536529
0.424848484848485,2.6298758013725303,4.70187989044189,1.09157103509903
0.425454545454545,-2.55773650331497,0.18008301544189498,-0.817259531307221
0.426060606060606,-0.0908663861274719,-8.15218993377686,0.6365173241615291
0.426666666666667,2.10776154356003,6.56281006622314,-0.12749390630722
0.427272727272727,-0.9243331830024719,2.89843018341064,-0.0125329688072205
0.427878787878788,-1.50871794862747,-6.23138426971436,0.643702382755279
0.428484848484848,1.48505646543503,0.663876960754395,-1.27949830083847
0.429090909090909,0.965337227153778,2.91280030059814,0.682022695255279
0.42969696969697,-2.09789275331497,1.23868164825439,0.689207753849029
0.43030303030303,1.4443411334037801,-5.21589598846436,-0.850789804744721
0.430909090909091,-0.0860763470649719,3.15230225372314,-0.36699585943222096
0.431515151515152,0.0863650591850281,0.948884284973145,2.17172484369278
0.432121212121212,-0.6225607220649719,-0.437832023620605,-0.917850351619721
0.432727272727273,-0.459699393939972,-3.81720458221436,-2.09140992193222
0.433333333333333,1.26231964902878,2.41703125762939,2.82317015619278
0.433939393939394,0.0121194537162781,4.72104004669189,-0.24484986333846998
0.434545454545455,-1.98772185487747,-7.24208251190186,-2.01716431646347
0.435151515151515,0.591714180278778,0.0627270584106445,1.40771361322403
0.435757575757576,2.18919220762253,5.73173828887939,0.511976308536529
0.436363636363636,-2.9984200970649697,0.101047370910645,-1.56450562505722
0.436969696969697,-0.29204802675247205,-8.209670402526859,0.897574453067779
0.437575757575758,1.99280060606003,6.46940430450439,0.42096556634902904
0.438181818181818,-0.711176444721222,3.41575440216064,-0.946590585994721
0.438787878787879,-1.77935515565872,-6.27688964080811,0.931104726505279
0.439393939393939,0.689909981060028,0.524965827941895,-0.707088632869721
0.44,1.34614533262253,2.97267578887939,-0.034088144588470495
0.440606060606061,-2.22243376893997,0.201638191223145,0.883204335880279
0.441212121212121,0.39771759824752795,-5.69968993377686,-1.36571900396347
0.441818181818182,0.862351387310028,3.76542725372314,0.0497375390052795
0.442424242424242,-0.0453610150337219,1.78953614044189,1.78612669916153
0.443030303030303,-0.545920097064972,-2.33468749237061,-0.9609607031822209
0.443636363636364,0.225276191997528,-3.25197997283936,-1.1142419531822199
0.444242424242424,0.8168460162162781,3.28881836700439,2.15974974603653
0.444848484848485,-0.268097831439972,3.79895752716064,-0.0436682227134705
0.445454545454545,-0.828532401752472,-6.15474364471436,-2.16805054693222
0.446060606060606,-0.14834685487747198,-0.0809741134643555,1.44124388666153
0.446666666666667,1.66707794981003,4.59649903106689,0.773033437442779
0.447272727272727,-1.56140837831497,1.03270996856689,-1.26512818365097
0.447878787878788,-0.677646171283722,-6.60500731658936,0.547901601505279
0.448484848484848,1.8323342974662802,4.36897217559814,0.579036855411529
0.449090909090909,0.0240945513725281,3.64328125762939,-0.525067148494721
0.44969696969697,-1.82246550722122,-6.55710692596436,-0.32628052740097097
0.45030303030303,1.2335794146537802,0.117812507629395,0.622147206974029
0.450909090909091,1.37728058652878,4.63242432403564,-0.18257935552597
0.451515151515152,-2.19608855409622,-0.40669676971435503,0.454495839786529
0.452121212121212,0.48393830137252797,-6.70080809783936,-1.08310669927597
0.452727272727273,0.919831856060028,5.44194092559814,-0.951380625057221
0.453333333333333,-0.368688651752472,1.57877442169189,2.6363586327552797
0.453939393939394,-1.02013396425247,-3.04840331268311,-0.850789804744721
0.454545454545455,0.9365969927787781,-1.00066161346436,-2.1704455664634703
0.455151515151515,0.0264895709037781,1.32011231231689,2.2004650780677797
0.455757575757576,-0.608190604877472,3.47562989044189,0.267684316349029
0.456363636363636,0.258806465435028,-5.02908446502686,-1.62438111333847
0.456969696969697,0.0456497271537781,0.592026374816895,0.801773671817779
0.457575757575758,1.2383694537162802,2.80262940216064,1.45561400384903
0.458181818181818,-1.5542233197212199,0.113022468566895,-1.38248414068222
0.458787878787879,-0.224987479877472,-6.30802489471436,-0.20892457036971998
0.459393939393939,1.48026642637253,4.00971924591064,0.981400136661529
0.46,0.15103058652877802,4.36418213653564,-0.628052988338471
0.460606060606061,-2.20327361268997,-7.58936034393311,-0.493931894588471
0.461212121212121,0.843191231060028,0.163317878723145,0.519161367130279
0.461818181818182,2.58676544981003,5.73173828887939,0.531136464786529
0.462424242424242,-3.21397185487747,-0.39711669158935503,0.500001210880279
0.463030303030303,0.661169746685028,-7.03611083221436,-0.34783570318222096
0.463636363636364,1.5042166216850301,5.40841065216064,-1.30584351568222
0.464242424242424,-1.1183297650337198,1.70331543731689,1.38855345697403
0.464848484848485,-0.454909354877472,-3.41723632049561,0.0329724022865295
0.465454545454545,0.8958816607475281,-0.24383544158935502,-1.6746765234947198
0.466060606060606,0.7545755084037781,2.11525879669189,1.80768187494278
0.466666666666667,-1.45363249940872,1.79193115997314,0.286844472599029
0.467272727272727,0.160610664653778,-5.38833739471436,-1.80400757818222
0.467878787878788,0.100735176372528,1.41591309356689,0.404200429630279
0.468484848484849,1.2000491412162801,3.36545899200439,1.6232653710365301
0.469090909090909,-1.2332907025337199,-0.7108642501831051,-1.20285767583847
0.46969696969697,-0.330368339252472,-5.67813475799561,-0.568177500057221
0.47030303030303,1.47068634824753,3.41335938262939,1.8795324608802801
0.470909090909091,-0.426169120502472,5.13058838653564,-0.608892832088471
0.471515151515151,-1.6188888470649698,-6.84211425018311,-0.970540781307221
0.472121212121212,0.390532539653778,-0.696494132995605,1.13707640619278
0.472727272727273,2.25864777402878,5.54732178497314,-0.18257935552597
0.473333333333333,-2.67030242128372,-0.222280265808105,-0.572967539119721
0.473939393939394,0.0983401568412781,-5.90805663299561,0.0856628319740295
0.474545454545455,1.8155691607475302,4.32346680450439,-0.39573609380722097
0.475151515151515,-1.1614401165962198,2.14639405059814,0.531136464786529
0.475757575757576,-1.17581023378372,-4.85903807830811,0.42096556634902904
0.476363636363636,1.08987824277878,-0.033073722839355495,-1.51421021490097
0.476969696969697,0.9964724810600281,2.85292481231689,0.861649160099029
0.477575757575758,-1.58535857362747,1.19796631622314,0.682022695255279
0.478181818181818,0.5126785357475281,-6.11881835174561,-1.72497193365097
0.478787878787879,0.443222969341278,2.74754395294189,0.6556774804115291
0.479393939393939,0.057624824810028105,3.47802490997314,1.92743285150528
0.48,-0.945888358783722,-1.44374022674561,-1.97165894536972
0.480606060606061,0.179770820903778,-4.47104491424561,-0.685533457088471
0.481212121212121,1.18088898496628,2.42900635528564,2.2962658593177796
0.481818181818182,-0.251332694721222,5.02760254669189,-0.848394785213471
0.482424242424242,-1.1566500775337198,-6.00385741424561,-1.32739869146347
0.483030303030303,0.768945625591278,-0.0785790939331055,0.926314687442779
0.483636363636364,1.5209817584037801,4.09833496856689,0.727528066349029
0.484242424242424,-2.38529509706497,0.115417488098145,-0.850789804744721
0.484848484848485,0.00972443418502808,-6.44454100799561,0.0066271874427795
0.485454545454545,1.73174347715378,4.75696533966064,-0.0484582617759705
0.486060606060606,-0.6034005658149719,3.28881836700439,0.11440306634903
0.486666666666667,-1.5326681439399699,-6.75589354705811,0.0952429100990295
0.487272727272727,1.10664337949753,-0.009123527526855479,-1.2124377539634699
0.487878787878788,1.27189972715378,4.87432129669189,0.6365173241615291
0.488484848484848,-2.4763058392524697,-0.0857641525268555,1.68074583978653
0.489090909090909,0.778525703716278,-6.00385741424561,-1.91896851568222
0.48969696969697,1.2431594927787801,3.75584717559814,-0.0604333594322205
0.49030303030303,-0.828532401752472,2.14878907012939,2.3896716210365296
0.490909090909091,-0.627350761127472,-1.10364745330811,-1.71060181646347
0.491515151515152,0.649194649028778,-2.72986571502686,-0.0197180274009705
0.492121212121212,0.565368965435028,1.74642578887939,1.91066771478653
0.492727272727273,-0.6201657025337219,3.30797852325439,-0.539437265682221
0.493333333333333,-0.589030448627472,-5.10812010955811,-1.5716906836509699
0.493939393939394,0.780920723247528,0.136972663879395,0.753873281192779
0.494545454545455,1.78682892637253,4.44800782012939,1.45321898431778
0.495151515151515,-2.22482878847122,-0.370771476745605,-1.01844117193222
0.495757575757576,-0.258517753314972,-6.77026366424561,-0.623262949275971
0.496363636363636,2.09578644590378,5.19285889434814,0.10003294916153
0.496969696969697,-0.586635429096222,4.41687256622314,0.679627675724029
0.497575757575758,-1.7601949994087198,-7.02653075408936,0.0952429100990295
0.498181818181818,1.38207062559128,-0.0977392501831055,-0.738223886775971
0.498787878787879,0.967732246685028,4.48153809356689,0.39222533197402903
0.499393939393939,-1.99730193300247,0.0339868240356445,0.47126097650527904
0.5,0.5533938677787781,-5.29253661346436,-1.3106335547447199
0.500606060606061,0.927016914653778,3.08045166778564,0.993375234317779
0.501212121212121,-0.6608810345649719,2.75233399200439,1.06522582025528
0.501818181818182,-0.9027780072212219,-3.01966307830811,-1.90459839849472
0.502424242424242,1.0755081255912802,-2.04968016815186,-0.587337656307221
0.503030303030303,0.984497383403778,2.90322022247314,1.74541136713028
0.503636363636364,-1.1997604290962198,2.54636231231689,-0.15623414068222
0.504242424242424,-0.7638668744087219,-6.32239501190186,-1.62917115240097
0.504848484848485,1.09227326231003,1.08779541778564,0.25091917963028
0.505454545454545,0.9940774615287781,3.98576905059814,1.36699828119278
0.506060606060606,-2.08352263612747,-0.634223625183105,-0.778939218807221
0.506666666666667,0.39532257871627796,-5.48413817596436,-0.877135019588471
0.507272727272727,1.20723419981003,3.49239502716064,0.15990843744278002
0.507878787878788,-0.416589042377472,4.82642090606689,0.334744863224029
0.508484848484849,-1.1949703900337199,-6.17150878143311,0.0569225975990295
0.509090909090909,1.07790314512253,0.00285157012939452,-0.026903085994720497
0.50969696969697,1.04676789121628,4.08635987091064,0.40180541009902904
0.51030303030303,-2.14579314393997,-0.217490226745605,-0.6424231055259709
0.510909090909091,0.8120559771537781,-6.02541259002686,-0.369390878963471
0.511515151515151,1.03479279356003,3.53550537872314,-0.0484582617759705
0.512121212121212,-0.459699393939972,3.26007813262939,0.892784414005279
0.512727272727273,-1.55182830018997,-4.84706298065186,-0.771754160213471
0.513333333333333,1.1832840044975301,-1.20423827362061,-0.8819250586509709
0.513939393939394,1.3533303912162802,3.52832032012939,1.71906615228653
0.514545454545455,-2.22482878847122,1.91886719512939,0.15511839838028002
0.515151515151515,-0.0214108197212219,-5.07937987518311,-1.5932458594322199
0.515757575757576,0.804870918560028,0.764467781066895,0.385040273380279
0.516363636363636,0.780920723247528,4.46477295684814,0.971820058536529
0.516969696969697,-1.64283904237747,-1.19705321502686,-0.31670044927597096
0.517575757575758,0.380952461528778,-4.44230467987061,-0.21850464849471998
0.518181818181818,1.18088898496628,3.78458740997314,0.368275136661529
0.518787878787879,-0.866852714252472,3.18104248809814,0.543111562442779
0.519393939393939,-0.397428886127472,-5.84818114471436,-0.27598511724472097
0.52,0.548603828716278,0.17529297637939498,0.31318968744277903
0.520606060606061,1.48984650449753,4.21808594512939,1.61608031244278
0.521212121212121,-2.31823455018997,0.0100366287231445,-0.261615000057221
0.521818181818182,-0.196247245502472,-6.45172606658936,-1.08310669927597
0.522424242424242,2.22272248106003,3.65525635528564,1.01014037103653
0.523030303030303,-0.9818136517524719,4.61326416778564,0.773033437442779
0.523636363636364,-1.42489226503372,-5.64460448455811,-1.03999634771347
0.524242424242424,1.6574978716850302,-0.924020988464355,-0.508302011775971
0.524848484848485,0.759365547466278,3.40377930450439,0.31318968744277903
0.525454545454546,-1.66199919862747,2.02424805450439,0.274869374942779
0.526060606060606,0.143845527935028,-5.20871092987061,-0.814864511775971
0.526666666666667,0.910251777935028,1.47339356231689,-0.34544068365097097
0.527272727272727,0.127080391216278,3.86841309356689,1.17300169916153
0.527878787878788,-1.20934050722122,-2.65801512908936,-0.27598511724472097
0.528484848484848,0.711465156841278,-3.05319335174561,-0.745408945369721
0.529090909090909,1.1952591021537802,3.30079346466064,1.14186644525528
0.52969696969697,-1.22850066347122,3.13553711700439,0.052132558536529504
0.53030303030303,-0.9602584759712219,-6.07570800018311,-1.28189332036972
0.530909090909091,1.2048391802787801,-0.191145011901855,0.605382070255279
0.531515151515151,1.08748322324753,4.64679444122314,1.58973509759903
0.532121212121212,-2.35415984315872,0.227983406066895,-0.7597790625572209
0.532727272727273,0.340237129497528,-6.09247313690186,-0.6424231055259709
0.533333333333333,1.3581204302787802,3.23852295684814,0.406595449161529
0.533939393939394,-0.586635429096222,3.9690039138793898,1.24006224603653
0.534545454545455,-1.21413054628372,-4.36805907440186,-1.54055542974472
0.535151515151515,1.02281769590378,-1.31440917205811,-0.15862916021346998
0.535757575757576,1.0419778521537801,3.38701416778564,0.49281615228652903
0.536363636363636,-1.7170846478462198,1.25305176544189,-0.35502076177597097
0.536969696969697,0.282756660747528,-5.89608153533936,-0.577757578182221
0.537575757575758,1.45392121152878,2.75472901153564,-0.280775156307221
0.538181818181818,-0.00225066347122192,3.71034180450439,1.36699828119278
0.538787878787879,-1.80570037050247,-4.33931884002686,-0.9609607031822209
0.539393939393939,1.08269318418503,-2.37540282440186,-1.09508179693222
0.54,1.51140168027878,4.04085449981689,1.4005285546302801
0.540606060606061,-1.76259001893997,2.88166504669189,0.46168089838027904
0.541212121212121,-0.0836813275337219,-5.56317382049561,-0.6615832617759709
0.541818181818182,0.768945625591278,0.120207527160645,-0.24724488286972
0.542424242424242,0.850376289653778,3.69118164825439,1.43405882806778
0.543030303030303,-1.96377165956497,0.06512207794189451,-0.0245080664634705
0.543636363636364,0.598899238872528,-4.18124755096436,-0.714273691463471
0.544242424242424,1.13777863340378,2.41703125762939,0.19583373041153002
0.544848484848485,-1.06324431581497,3.51155518341064,0.6365173241615291
0.545454545454545,-0.754286796283722,-5.26619139862061,-0.510697031307221
0.546060606060606,0.847981270122528,-0.5911132736206051,-0.292750253963471
0.546666666666667,1.61678253965378,4.17497559356689,1.1394714257240302
0.547272727272727,-2.43798552675247,0.821948249816895,-0.726248789119721
0.547878787878788,-0.409403983783722,-7.28758788299561,-0.31670044927597096
0.548484848484848,2.4933596880912803,3.44209961700439,-0.0628283789634705
0.549090909090909,-0.871642753314972,5.04197266387939,0.35150999994277904
0.54969696969697,-2.02364714784622,-5.09854003143311,0.5766418358802791
0.55030303030303,1.5760672076225302,-1.2377685470581101,-0.20892457036971998
0.550909090909091,0.950967109966278,2.94872559356689,1.21611205072403
0.551515151515152,-1.97574675722122,2.95351563262939,-0.32628052740097097
0.552121212121212,0.309101875591278,-5.38594237518311,-0.12509888677597
0.552727272727273,1.02281769590378,1.2554467849731399,-0.11551880865097
0.553333333333333,0.333052070903778,3.15709229278564,0.746688222599029
0.553939393939394,-1.6787643353462198,-1.76946288299561,-0.481956796932221
0.554545454545455,0.622849434185028,-3.34299071502686,-1.77766236333847
0.555151515151515,1.87304962949753,2.21824463653564,1.21132201166153
0.555757575757576,-0.936308280658722,4.37855225372314,0.329954824161529
0.556363636363636,-1.18299529237747,-5.86973632049561,-1.22441285161972
0.556969696969697,0.9318069537162781,-1.06532714080811,0.397015371036529
0.557575757575758,1.61678253965378,5.34374512481689,1.08917601556778
0.558181818181818,-2.3134445111274697,0.7860229568481449,-0.644818125057221
0.558787878787879,-0.349528495502472,-6.64093260955811,-0.448426523494721
0.559393939393939,2.04309601621628,2.93435547637939,0.456890859317779
0.56,-0.893197929096222,4.82402588653564,-0.0700134375572205
0.560606060606061,-1.20934050722122,-4.32734374237061,0.0377624413490295
0.561212121212121,0.7928958209037781,-1.37667967987061,-0.450821543025971
0.561818181818182,1.4132058794975302,3.23852295684814,0.840093984317779
0.562424242424242,-1.7889352337837199,1.6961303787231399,0.18864867181778
0.563030303030303,-0.387848808002472,-5.71885009002686,-1.28668335943222
0.563636363636364,1.9185550005912801,1.28897705841064,0.6173571679115291
0.564242424242424,-0.0118307415962219,3.84685791778564,1.18497679681778
0.564848484848485,-1.4895577923774699,-2.54065917205811,-0.0580383399009705
0.565454545454545,0.5749490435600281,-3.32622557830811,-1.50463013677597
0.566060606060606,0.857561348247528,2.44577149200439,1.0245104882240301
0.566666666666667,-0.8620626751899719,4.07677979278564,1.2592224022865302
0.567272727272727,-0.833322440814972,-5.26858641815186,-2.0602746680259703
0.567878787878788,0.788105781841278,-1.47248046112061,0.26289427728652903
0.568484848484848,0.927016914653778,4.49111817169189,1.07720091791153
0.569090909090909,-1.49195281190872,0.821948249816895,-0.704693613338471
0.56969696969697,-0.177087089252472,-4.91172850799561,-0.857974863338471
0.57030303030303,1.5377468951225302,1.56679932403564,1.0843859765052801
0.570909090909091,-0.629745780658722,4.77852051544189,0.16948851556778002
0.571515151515152,-1.3793868939399698,-5.17757567596436,-0.834024668025971
0.572121212121212,1.56648712949753,-1.99698973846436,0.286844472599029
0.572727272727273,1.24076447324753,4.74259522247314,-0.16820923833846999
0.573333333333333,-2.4331954876899697,0.287858894348145,0.43294066400527903
0.573939393939394,-0.244147636127472,-6.54992186737061,-0.508302011775971
0.574545454545455,2.25625275449753,3.36785401153564,-0.24005982427596997
0.575151515151515,-0.42377410097122203,3.92589356231689,1.7214611718177801
0.575757575757576,-1.90629119081497,-3.60404784393311,0.028182363224029502
0.576363636363636,2.01914582090378,-1.81257323455811,-1.96686890630722
0.576969696969697,0.9916824419975281,2.02903809356689,0.708367910099029
0.577575757575758,-1.92305632753372,3.66004639434814,0.650887441349029
0.578181818181818,-0.0693112103462219,-4.46385985565186,-0.481956796932221
0.578787878787879,1.0539529498100302,0.357314460754395,-0.6615832617759709
0.579393939393939,0.31389191465377797,2.70443360137939,1.21850707025528
0.58,-1.6691842572212199,-0.181564933776855,-0.857974863338471
0.580606060606061,0.282756660747528,-4.37524413299561,-0.551412363338471
0.581212121212121,1.6024124224662801,1.80151123809814,1.24724730463028
0.581818181818182,-0.184272147846222,5.12579834747314,-0.0532483008384705
0.582424242424242,-1.91108122987747,-6.34395018768311,-0.637633066463471
0.583030303030303,1.12101349668503,-2.00896483612061,-0.036483164119720496
0.583636363636364,2.2634378130912802,5.52337158966064,0.943079824161529
0.584242424242424,-3.01279021425247,1.12851074981689,-0.12030884771347
0.584848484848485,-0.248937675189972,-6.79421385955811,-0.16581421880722
0.585454545454545,2.33768341856003,2.75472901153564,-0.484351816463471
0.586060606060606,-0.830927421283722,4.47914307403564,0.24133910150528
0.586666666666667,-1.7985153119087198,-3.82199462127686,0.899969472599029
0.587272727272727,1.60480744199753,-0.7707397384643551,-0.810074472713471
0.587878787878788,0.610874336528778,2.47451172637939,0.0928478905677795
0.588484848484848,-1.96377165956497,1.63864990997314,0.808958730411529
0.589090909090909,0.244436348247528,-4.48062499237061,-0.9992810156822209
0.58969696969697,0.910251777935028,0.278278816223145,-0.36699585943222096
0.59030303030303,0.709070137310028,3.84206787872314,1.4819592186927801
0.590909090909091,-1.8104904095649699,-0.9910815353393551,-0.654398203182221
0.591515151515152,0.107920234966278,-4.99076415252686,-1.33458375005722
0.592121212121212,1.7437185748100301,2.10807373809814,1.52985960931778
0.592727272727273,-1.19257537050247,5.89220459747314,0.485631093692779
0.593333333333333,-1.33867156190872,-5.99427733612061,-1.69383667974472
0.593939393939394,1.0850882037162801,-1.77425292205811,0.782613515567779
0.594545454545455,1.29584992246628,5.07789795684814,0.861649160099029
0.595151515151515,-2.19848357362747,0.9656494216918949,-1.15495728521347
0.595757575757576,-0.7806320111274719,-4.89496337127686,-0.596917734432221
0.596363636363636,2.13171173887253,1.40633301544189,0.725133046817779
0.596969696969697,-0.5435250775337219,4.30909668731689,0.0401574608802795
0.597575757575758,-1.72187468690872,-4.72491698455811,0.0209973046302795
0.598181818181818,1.3796756060600301,-1.25692870330811,-0.359810800838471
0.598787878787879,1.32219513731003,3.66244141387939,0.24852416009903
0.599393939393939,-2.83076872987747,1.45183838653564,0.9167346093177791
0.6,0.299521797466278,-5.83620604705811,-0.529857187557221
0.600606060606061,1.82993927793503,1.79911621856689,-0.7406189063072209
0.601212121212121,-0.806977225971222,3.85164795684814,1.98491332025528
0.601818181818182,-1.2596359173774698,-1.53954100799561,-0.39813111333847095
0.602424242424242,0.938992012310028,-2.7969262619018602,-1.80161255865097
0.603030303030303,1.18807404356003,0.980019538879395,2.18609496088028
0.603636363636364,-1.3961520306587198,4.90545655059814,0.48084105463027904
0.604242424242424,-0.732731620502472,-4.22435790252686,-2.2973816016197204
0.604848484848485,0.922226875591278,-1.17549803924561,0.334744863224029
0.605454545454545,0.639614570903778,3.11158692169189,1.48914427728653
0.606060606060606,-1.60451872987747,0.922539070129395,-1.09987183599472
0.606666666666667,-0.46448943300247203,-5.27337645721436,-0.771754160213471
0.607272727272727,2.31612824277878,1.47339356231689,0.562271718692779
0.607878787878788,-0.270492850971222,5.46349610137939,0.16230345697403
0.608484848484849,-2.1936935345649697,-6.58345214080811,0.25331419916153003
0.609090909090909,1.2000491412162801,-1.16831298065186,-0.754989023494721
0.60969696969697,1.5377468951225302,5.23117920684814,0.550296621036529
0.61030303030303,-2.87387908143997,0.714172370910645,1.28796263666153
0.610909090909091,0.239646309185028,-5.50329833221436,-0.388551035213471
0.611515151515152,2.16763703184128,2.04819824981689,-1.08789673833847
0.612121212121212,-0.694411308002472,3.96660889434814,1.70230101556778
0.612727272727273,-1.3578317181587198,-2.38498290252686,0.13116820306778001
0.613333333333333,1.47547638731003,-1.81496825408936,-1.7680822852134699
0.613939393939394,0.824031074810028,1.30574219512939,1.69032591791153
0.614545454545455,-1.85599578065872,3.06608155059814,0.24373412103653
0.615151515151515,-0.157926933002472,-4.00401610565186,-1.7297619727134699
0.615757575757576,1.20723419981003,-0.8713305587768551,0.31079466791152904
0.616363636363636,1.10903839902878,3.77740235137939,1.50830443353653
0.616969696969697,-1.70750456972122,0.0268017654418945,-1.3154235938072198
0.617575757575758,-0.8620626751899719,-5.40031249237061,-1.29147339849472
0.618181818181818,2.72088654356003,1.84222657012939,1.07480589838028
0.618787878787879,-0.445329276752472,6.67298096466064,0.15511839838028002
0.619393939393939,-2.40445525331497,-6.24096434783936,-0.0676184180259705
0.62,1.7988040240287801,-1.62576171112061,0.16230345697403
0.620606060606061,1.2431594927787801,5.49942139434814,-0.309515390682221
0.621212121212121,-2.61761199159622,0.644716804504395,0.16948851556778002
0.621818181818182,0.177375801372528,-5.00513426971436,0.21499388666153002
0.622424242424242,1.98082550840378,2.38589600372314,-0.311910410213471
0.623030303030303,-1.04408415956497,3.86841309356689,0.902364492130279
0.623636363636364,-1.80330535097122,-4.25549315643311,0.0209973046302795
0.624242424242424,1.42518097715378,-1.0198217697143601,-1.0495764258384699
0.624848484848485,1.3030349810600301,2.17752930450439,1.20174193353653
0.625454545454545,-2.04520232362747,2.35955078887939,0.765848378849029
0.626060606060606,-0.407008964252472,-4.95004882049561,-1.7129968359947199
0.626666666666667,1.5209817584037801,-0.332451164245605,-0.12988892583846998
0.627272727272727,0.471963203716278,4.14623535919189,2.3705114647865297
0.627878787878788,-1.43207732362747,0.512990730285645,-0.917850351619721
0.628484848484849,-0.193852225971222,-4.84706298065186,-1.0759216406822198
0.629090909090909,2.00477570371628,0.912958992004395,1.03888060541153
0.62969696969697,-0.469279472064972,6.53406983184814,-0.20652955083847
0.63030303030303,-1.4775826947212198,-5.34283202362061,-0.951380625057221
0.630909090909091,1.20244416074753,-1.63773680877686,0.602987050724029
0.631515151515151,1.25034455137253,4.22766602325439,0.574246816349029
0.632121212121212,-1.89431609315872,0.8866137771606449,-0.656793222713471
0.632727272727273,-0.0980514447212219,-5.64460448455811,0.552691640567779
0.633333333333333,2.57718537168503,2.21345459747314,-0.10114869146347
0.633939393939394,-0.517179862689972,4.51985840606689,0.353905019474029
0.634545454545455,-2.27512419862747,-5.40989257049561,0.416175527286529
0.635151515151515,1.7341384966850302,-0.763554679870605,-1.7129968359947199
0.635757575757576,1.58325226621628,3.26247315216064,0.8760192772865291
0.636363636363636,-3.04392546815872,1.30574219512939,1.95856810541153
0.636969696969697,0.388137520122528,-4.18843260955811,-1.93812867193222
0.637575757575758,1.72455841856003,0.484250495910645,-0.743013925838471
0.638181818181818,-0.8045822064399719,2.80741944122314,1.77415160150528
0.638787878787879,-0.771051933002472,-0.478547355651855,-0.36699585943222096
0.639393939393939,0.8360061724662781,-2.38498290252686,-1.37290406255722
0.64,0.642009590435028,0.326179206848145,0.653282460880279
0.640606060606061,-0.797397147846222,4.62523926544189,0.665257558536529
0.641212121212121,-0.591425468158722,-5.01710936737061,-0.515487070369721
0.641818181818182,0.840796211528778,-1.31440917205811,0.454495839786529
0.642424242424242,1.53056183652878,4.57494385528564,1.26161742181778
0.643030303030303,-2.47151580018997,0.120207527160645,-1.31781861333847
0.643636363636364,-0.869247733783722,-6.05175780487061,-0.47716675786972096
0.644242424242424,3.2382107623100302,2.07933350372314,0.519161367130279
0.644848484848485,-0.886012870502472,6.56760010528564,0.24852416009903
0.645454545454546,-2.75412810487747,-6.39424559783936,1.15623656244278
0.646060606060606,2.5029397662162802,-0.763554679870605,-1.19806763677597
0.646666666666667,1.21920929746628,3.62172608184814,-0.343045664119721
0.647272727272727,-2.80681853456497,0.709382331848145,1.83881712884903
0.647878787878788,0.843191231060028,-3.80522948455811,-0.8412097266197209
0.648484848484848,1.5976223834037802,1.17641114044189,-0.644818125057221
0.649090909090909,-0.9794186322212219,3.03015625762939,0.9143395897865291
0.64969696969697,-1.17581023378372,-2.55263426971436,-0.469981699275971
0.65030303030303,0.859956367778778,-1.8365234298706101,-0.747803964900971
0.650909090909091,1.32219513731003,1.35364258575439,1.09875609369278
0.651515151515151,-1.1901803509712199,3.89236328887939,0.847279042911529
0.652121212121212,-1.20455046815872,-4.88059325408936,-2.03871949224472
0.652727272727273,1.4132058794975302,-1.87005370330811,0.21738890619278
0.653333333333333,1.09227326231003,4.73780518341064,1.51548949213028
0.653939393939394,-2.01646208925247,1.25305176544189,-1.54534546880722
0.654545454545455,-0.165111991596222,-6.05175780487061,0.24133910150528
0.655151515151515,2.31612824277878,1.74163574981689,0.526346425724029
0.655757575757576,-0.589030448627472,5.93770996856689,-0.0604333594322205
0.656363636363636,-2.23919890565872,-5.85297118377686,0.406595449161529
0.656969696969697,1.86825959043503,-0.567163078308105,-0.19215943365097
0.657575757575758,0.864746406841278,3.8492529373168898,-0.350230722713471
0.658181818181818,-2.5098361126899698,-0.0115185470581055,-0.0173230078697205
0.658787878787879,0.469568184185028,-4.61474608612061,-0.35741578130722096
0.659393939393939,2.14847687559128,1.87336182403564,-0.623262949275971
0.66,-0.6441158978462219,3.62891114044189,1.5202795311927801
0.660606060606061,-1.7889352337837199,-4.04712645721436,-0.635238046932221
0.661212121212121,1.17609894590378,-1.3191992111206101,-1.60522095708847
0.661818181818182,1.4611062701225301,1.66978516387939,1.85079222650528
0.662424242424242,-2.23201384706497,3.46125977325439,0.16709349603653
0.663030303030303,-0.337553397846222,-4.15969237518311,-1.51900025396347
0.663636363636364,1.22399933652878,-1.21860839080811,0.258104238224029
0.664242424242424,0.34742218809127795,3.99055908966064,1.5202795311927801
0.664848484848485,-1.26682097597122,0.575261238098145,-0.9394055274009709
0.665454545454545,-0.35431853456497203,-3.94893065643311,-1.05197144536972
0.666060606060606,1.32698517637253,0.618371589660645,1.1227062890052801
0.666666666666667,-0.349528495502472,5.49223633575439,0.16469847650528002
0.667272727272727,-1.55661833925247,-5.52724852752686,-0.628052988338471
0.667878787878788,1.0755081255912802,-0.912045890808105,-0.17778931646347
0.668484848484848,1.9401101763725301,4.61805420684814,0.485631093692779
0.669090909090909,-3.03434539003372,0.338154304504395,-0.32628052740097097
0.66969696969697,-0.280072929096222,-5.86015624237061,0.35150999994277904
0.67030303030303,2.88614289121628,2.04101319122314,-0.27838013677597095
0.670909090909091,-1.8200704876899698,4.98688721466064,0.14793333978653
0.671515151515152,-2.00688201112747,-4.94765380096436,0.861649160099029
0.672121212121212,1.91615998106003,-0.7300244064331051,-1.86867310552597
0.672727272727273,0.821636055278778,1.76558594512939,0.686812734317779
0.673333333333333,-2.66311736268997,2.85292481231689,0.880809316349029
0.673939393939394,0.630034492778778,-3.32862059783936,-1.43996460943222
0.674545454545455,1.38925568418503,-0.540817863464355,-0.0221130469322205
0.675151515151515,-0.20822234315872198,2.90561524200439,1.68793089838028
0.675757575757576,-1.08240447206497,-0.284550773620605,-0.771754160213471
0.676363636363636,0.0791800005912781,-2.98134276580811,-1.50463013677597
0.676969696969697,2.31852326231003,0.651901863098145,2.00646849603653
0.677575757575758,-1.25245085878372,5.21920410919189,0.10721800775528
0.678181818181818,-1.79612029237747,-5.89847655487061,-1.2292028906822199
0.678787878787879,1.43236603574753,-2.16703612518311,0.928709706974029
0.679393939393939,1.3796756060600301,5.65030762481689,0.488026113224029
0.68,-2.58408171815872,0.948884284973145,-0.15862916021346998
0.680606060606061,-0.347133475971222,-6.21940917205811,0.641307363224029
0.681212121212121,3.15678009824753,2.31883545684814,-0.896295175838471
0.681818181818182,-1.57338347597122,4.97970215606689,0.634122304630279
0.682424242424242,-1.71947966737747,-4.63630126190186,1.0628308007240301
0.683030303030303,1.97124543027878,-0.37556151580810504,-1.4734948828697199
0.683636363636364,0.761760566997528,2.04580323028564,0.868834218692779
0.684242424242424,-2.50744109315872,1.50931885528564,0.528741445255279
0.684848484848485,0.273176582622528,-3.91779540252686,-1.82316773443222
0.685454545454545,2.33768341856003,0.426770027160645,0.36348509759902903
0.686060606060606,-0.773446952533722,3.69836670684814,1.8795324608802801
0.686666666666667,-1.25724089784622,-2.61969481658936,-0.302330332088471
0.687272727272727,0.153425606060028,-2.55981932830811,-1.91178345708847
0.687878787878788,1.3150100787162802,0.771652839660645,1.7981017968177802
0.688484848484848,-0.830927421283722,5.03718262481689,0.574246816349029
0.689090909090909,-1.66439421815872,-4.10939696502686,-1.62917115240097
0.68969696969697,1.4994265826225301,-2.53347411346436,1.0197204491615302
0.69030303030303,0.9342019732475281,4.90545655059814,0.009022206974029499
0.690909090909091,-2.54336638612747,0.970439460754395,-0.45561158208847097
0.691515151515152,0.127080391216278,-4.70575682830811,1.00056029291153
0.692121212121212,2.02633087949753,1.95718750762939,-0.563387460994721
0.692727272727273,-1.1997604290962198,4.94138184356689,0.27247435541152903
0.693333333333333,-1.24047576112747,-5.46976805877686,0.14553832025528002
0.693939393939394,1.4994265826225301,-0.825825187683105,-0.896295175838471
0.694545454545455,1.30063996152878,3.62172608184814,0.375460195255279
0.695151515151515,-2.46433074159622,0.881823738098145,0.435335683536529
0.695757575757576,-0.133976737689972,-5.39073241424561,-0.49632691411972096
0.696363636363636,2.52449494199753,1.55242920684814,-0.5609924414634709
0.696969696969697,-0.993788749408722,4.05043457794189,1.90827269525528
0.697575757575758,-1.86078581972122,-3.02205809783936,-0.16581421880722
0.698181818181818,1.3629104693412801,-1.05335204315186,-1.95010376958847
0.698787878787879,1.2000491412162801,-0.0139135665893555,1.17060667963028
0.699393939393939,-1.6308639447212199,4.66355957794189,-0.328675546932221
0.7,-0.277677909564972,-3.58488768768311,0.0688976952552795
0.700606060606061,1.14975373106003,-1.49643065643311,0.598197011661529
0.701212121212121,0.282756660747528,3.72710694122314,0.7371081444740291
0.701818181818182,-1.62128386659622,-0.119294425964355,-0.14425904302596998
0.702424242424242,-0.169902030658722,-4.28423339080811,-0.731038828182221
0.703030303030303,2.38558380918503,1.42070313262939,0.658072499942779
0.703636363636364,-0.6848312298774719,5.20483399200439,0.25570921869278
0.704242424242424,-2.28949431581497,-6.03499266815186,-0.790914316463471
0.704848484848485,1.48026642637253,-1.47248046112061,-0.10114869146347
0.705454545454545,1.66468293027878,4.68271973419189,1.50590941400528
0.706060606060606,-3.85104705018997,1.34645752716064,-0.635238046932221
0.706666666666667,-0.0214108197212219,-5.85536620330811,-0.546622324275971
0.707272727272727,2.83345246152878,1.81109131622314,-0.0676184180259705
0.707878787878788,-1.60451872987747,4.08875489044189,0.13835326166153
0.708484848484848,-0.9243331830024719,-2.95739257049561,0.44012572259902905
0.709090909090909,1.2934549029350302,-0.20312010955810503,-1.20046265630722
0.70969696969697,0.845586250591278,0.584841316223145,0.624542226505279
0.71030303030303,-1.73145476503372,2.97986084747314,0.11919310541153
0.710909090909091,-0.196247245502472,-4.30578856658936,-0.697508554744721
0.711515151515152,1.76766877012253,-0.30610594940185504,0.286844472599029
0.712121212121212,0.582134102153778,4.35220703887939,1.41010863275528
0.712727272727273,-2.08831267518997,-1.68803221893311,-0.743013925838471
0.713333333333333,-0.0118307415962219,-3.91779540252686,-1.36571900396347
0.713939393939394,2.0311209185600303,1.08300537872314,1.23766722650528
0.714545454545455,-1.07761443300247,5.92094483184814,0.765848378849029
0.715151515151515,-1.74821990175247,-5.40031249237061,-1.05915650396347
0.715757575757576,1.68144806699753,-1.88202880096436,-0.23766480474472
0.716363636363636,1.31261505918503,4.57494385528564,0.7945886132240291
0.716969696969697,-2.7661032025337198,0.673457038879395,-0.14425904302596998
0.717575757575758,0.11989533262252801,-3.66631835174561,-0.611287851619721
0.718181818181818,2.34965851621628,1.32011231231689,-0.07959351568222049
0.718787878787879,-1.6140988080024699,3.45407471466064,0.22457396478653002
0.719393939393939,-1.10635466737747,-4.06149657440186,-0.45561158208847097
0.72,1.37249054746628,-0.368376457214355,-0.29754029302597096
0.720606060606061,1.79640900449753,2.08891358184814,0.5766418358802791
0.721212121212121,-1.9565866009712198,2.11525879669189,0.286844472599029
0.721818181818182,-0.533944999408722,-5.85776122283936,-0.675953378963471
0.722424242424242,2.4765945513725303,1.04229004669189,-0.505906992244721
0.723030303030303,-0.550710136127472,4.29712158966064,2.21962523431778
0.723636363636364,-1.9781417767524698,-1.64731688690186,-0.546622324275971
0.724242424242424,0.586924141216278,-2.21493651580811,-0.8196545508384709
0.724848484848485,1.5760672076225302,-0.14324462127685503,1.2256921288490301
0.725454545454545,-1.07761443300247,5.69102295684814,0.12877318353653
0.726060606060606,-1.2117355267524699,-4.71294188690186,0.052132558536529504
0.726666666666667,1.5808572466850301,-1.10364745330811,-0.517882089900971
0.727272727272727,1.05155793027878,3.52832032012939,1.21132201166153
0.727878787878788,-2.56731658143997,0.108232429504395,-0.424476328182221
0.728484848484849,0.0408596880912781,-4.18843260955811,-1.02562623052597
0.729090909090909,2.63227082090378,1.15246094512939,0.883204335880279
0.72969696969697,-0.509994804096222,5.12579834747314,0.643702382755279
0.73030303030303,-2.2368038861274697,-5.86734130096436,0.0042321679115295005
0.730909090909091,1.20723419981003,-1.54193602752686,-0.970540781307221
0.731515151515152,2.35205353574753,4.07198975372314,0.25570921869278
0.732121212121212,-3.26905730409622,1.78474610137939,1.28317259759903
0.732727272727273,0.050439766216278104,-4.97639403533936,-0.994490976619721
0.733333333333333,2.5101248248100303,0.795603034973145,-0.563387460994721
0.733939393939394,-1.29077117128372,3.69597168731689,1.77415160150528
0.734545454545455,-1.39375701112747,-1.4772705001831101,-0.0843835547447205
0.735151515151515,0.7928958209037781,-1.68563719940186,-0.752594003963471
0.735757575757576,1.07071808652878,0.618371589660645,0.751478261661529
0.736363636363636,-1.6691842572212199,3.59059082794189,0.464075917911529
0.736969696969697,-0.694411308002472,-4.83508788299561,-0.728643808650971
0.737575757575758,1.74132355527878,-0.5911132736206051,-0.41489625005722097
0.738181818181818,0.938992012310028,3.85643799591064,1.1658166405677801
0.738787878787879,-2.2870992962837198,-0.298920890808105,-0.383760996150971
0.739393939393939,-0.399823905658722,-4.19561766815186,-1.18130250005722
0.74,2.69214630918503,0.376474617004395,0.624542226505279
0.740606060606061,-1.30274626893997,6.45742920684814,0.660467519474029
0.741212121212121,-1.82246550722122,-5.49371825408936,-0.17539429693222
0.741818181818182,1.84909943418503,-1.83891844940186,-0.364600839900971
0.742424242424242,1.10903839902878,3.99295410919189,0.15990843744278002
0.743030303030303,-2.85711394472122,0.809973152160645,0.31318968744277903
0.743636363636364,0.431247871685028,-3.14899413299561,-0.412501230525971
0.744242424242424,2.07183625059128,0.661481941223145,0.397015371036529
0.744848484848485,-1.04887419862747,3.61693604278564,0.919129628849029
0.745454545454545,-1.09437956972122,-2.99810790252686,-0.47477173833847097
0.746060606060606,0.9533621294975281,-1.30961913299561,-0.8603698828697209
0.746666666666667,1.92095002012253,1.34645752716064,0.890389394474029
0.747272727272727,-2.08591765565872,3.02776123809814,0.0401574608802795
0.747878787878788,-0.933913261127472,-5.27816649627686,-0.915455332088471
0.748484848484849,1.9616653521537801,0.005246589660644519,-0.525067148494721
0.749090909090909,0.208511055278778,4.76415039825439,1.21850707025528
0.74969696969697,-1.8799459759712198,-0.835405265808105,0.0904528710365295
0.75030303030303,0.019304512310028103,-3.56812255096436,-0.7214587500572209
0.750909090909091,2.53407502012253,0.474670417785645,0.957449941349029
0.751515151515151,-1.62607390565872,5.77005860137939,0.0425524804115295
0.752121212121212,-1.40812712831497,-4.86861815643311,-0.328675546932221
0.752727272727273,1.90657990293503,-0.658173820495605,-0.32628052740097097
0.753333333333333,0.646799629497528,3.11158692169189,0.619752187442779
0.753939393939394,-2.4499606244087198,0.695012214660645,-0.13707398443222
0.754545454545455,-0.40461394472122203,-4.37524413299561,-0.422081308650971
0.755151515151515,2.5795803912162802,0.46269532012939496,0.49281615228652903
0.755757575757576,-0.8836178509712219,5.29105469512939,0.265289296817779
0.756363636363636,-2.06196746034622,-5.22068602752686,0.523951406192779
0.756969696969697,1.19046906309128,-1.15394286346436,-1.78484742193222
0.757575757575758,2.26104279356003,3.10919190216064,0.20062376947403002
0.758181818181818,-2.77328826112747,2.54157227325439,1.45800902338028
0.758787878787879,-0.0788912884712219,-4.81113768768311,-0.862764902400971
0.759393939393939,2.30415314512253,-0.040258781433105496,-0.20173951177597
0.76,-0.991393729877472,4.19653076934814,1.33346800775528
0.760606060606061,-1.6572091595649698,-0.821035148620605,0.30360960931777903
0.761212121212121,0.459988106060028,-2.09758055877686,-0.575362558650971
0.761818181818182,1.42518097715378,0.944094245910645,0.349114980411529
0.762424242424242,-1.3745968548774699,3.48281494903564,0.511976308536529
0.763030303030303,-0.895592948627472,-5.12249022674561,-1.16693238286972
0.763636363636364,1.38925568418503,-0.100134269714355,-0.568177500057221
0.764242424242424,1.3629104693412801,3.21936280059814,1.88911253900528
0.764848484848485,-2.41403533143997,0.659086921691895,-1.09987183599472
0.765454545454545,-0.8045822064399719,-5.20631591033936,-0.592127695369721
0.766060606060606,3.4346023638725303,0.508200691223145,0.7562683007240291
0.766666666666667,-1.12072478456497,6.78554688262939,-0.12749390630722
0.767272727272727,-2.32062956972122,-5.57993895721436,1.12749632806778
0.767878787878788,1.6622879107475301,-0.955156242370605,-1.51900025396347
0.768484848484848,1.22399933652878,2.48648682403564,-0.11551880865097
0.769090909090909,-2.25117400331497,1.75361084747314,0.904759511661529
0.76969696969697,0.280361641216278,-3.29269530487061,-0.453216562557221
0.77030303030303,2.17242707090378,-0.021098625183105502,0.22217894525528
0.770909090909091,-0.687226249408722,4.00013916778564,0.495211171817779
0.771515151515151,-1.7506149212837199,-2.71549559783936,-0.15144410161972
0.772121212121212,0.761760566997528,-1.78143798065186,-0.716668710994721
0.772727272727273,2.06225617246628,1.57877442169189,0.670047597599029
0.773333333333333,-1.86318083925247,3.50197510528564,0.46168089838027904
0.773939393939394,-0.950678397846222,-4.91172850799561,-1.41601441411972
0.774545454545455,1.7006082232475301,-1.21860839080811,0.0641076561927795
0.775151515151515,0.742600410747528,4.31628174591064,1.7430163475990301
0.775757575757576,-2.27512419862747,0.860268562316895,-0.5609924414634709
0.776363636363636,0.105525215435028,-4.75605223846436,-0.5418322852134709
0.776969696969697,2.33768341856003,0.793208015441895,0.10003294916153
0.777575757575758,-1.34346160097122,5.19046387481689,0.466470937442779
0.778181818181818,-1.62128386659622,-4.02078124237061,-0.22329468755721998
0.778787878787879,1.65510285215378,-0.725234367370605,-0.431661386775971
0.779393939393939,0.9533621294975281,2.06017334747314,0.511976308536529
0.78,-2.17213835878372,1.81827637481689,-0.264010019588471
0.780606060606061,-0.193852225971222,-4.76323729705811,0.11679808588028
0.781212121212121,2.3137332232475303,0.898588874816895,0.11679808588028
0.781818181818182,-0.476464530658722,4.76654541778564,0.454495839786529
0.782424242424242,-2.3733199994087197,-4.60756102752686,0.13356322259903
0.783030303030303,1.28866486387253,-0.825825187683105,-1.5333703711509699
0.783636363636364,1.78443390684128,1.76319092559814,1.03169554681778
0.784242424242424,-2.05238738222122,3.25289307403564,1.45561400384903
0.784848484848485,-0.6632760540962219,-3.98246092987061,-1.44714966802597
0.785454545454545,2.07183625059128,-1.40781493377686,0.0066271874427795
0.786060606060606,0.143845527935028,4.08396485137939,1.39573851556778
0.786666666666667,-2.30386443300247,-0.100134269714355,-0.551412363338471
0.787272727272727,0.46717316465377795,-3.12983397674561,-0.793309335994721
0.787878787878788,1.7173733599662802,0.874638679504395,0.9957702538490291
0.788484848484848,-1.36741179628372,4.59170899200439,-0.17778931646347
0.789090909090909,-0.9818136517524719,-4.84706298065186,-0.723853769588471
0.78969696969697,1.20723419981003,-0.797084953308105,0.650887441349029
0.79030303030303,1.60001740293503,3.44209961700439,1.12749632806778
0.790909090909091,-2.51702117128372,1.02552490997314,0.19583373041153002
0.791515151515152,-0.756681815814972,-5.95356200408936,-0.0053479102134705
0.792121212121212,3.6741043169975303,1.32490235137939,-0.17299927740097
0.792727272727273,-1.24047576112747,5.66707276153564,0.571851796817779
0.793333333333333,-2.27512419862747,-4.85424803924561,0.7754284569740291
0.793939393939394,1.8922097857475302,-0.282155754089355,-1.31302857427597
0.794545454545455,0.984497383403778,1.49973877716064,0.466470937442779
0.795151515151515,-2.5792916790962197,3.01339112091064,0.981400136661529
0.795757575757576,0.0600198443412781,-3.80043944549561,-0.754989023494721
0.796363636363636,1.9233450396537801,-0.152824699401855,-0.014927988338470501
0.796969696969697,-0.550710136127472,3.73908203887939,1.12989134759903
0.797575757575758,-1.88713103456497,-1.75748778533936,-0.33586060552597097
0.798181818181818,0.491123359966278,-1.97064452362061,-2.04829957036972
0.798787878787879,2.23469757871628,0.335759284973145,1.2041369530677801
0.799393939393939,-1.4009420697212198,4.44800782012939,0.887994374942779
0.8,-1.3578317181587198,-4.73928710174561,-1.74173707036972
0.800606060606061,1.5640921099662801,-2.07123534393311,0.35150999994277904
0.801212121212121,1.5377468951225302,4.43124268341064,0.7347131249427791
0.801818181818182,-2.87627410097122,1.84701660919189,-0.766964121150971
0.802424242424242,-0.466884452533722,-5.46976805877686,-0.11791382818222
0.803030303030303,2.73765168027878,0.644716804504395,-0.12030884771347
0.803636363636364,-1.01534392518997,5.39404053497314,0.42336058588027903
0.804242424242424,-1.81288542909622,-3.66152831268311,0.583826894474029
0.804848484848485,1.26231964902878,-1.16112792205811,-0.484351816463471
0.805454545454545,1.34854035215378,2.27812012481689,-0.7621740820884709
0.806060606060606,-2.57450164003372,2.37152588653564,0.18146361322403
0.806666666666667,-0.318393241596222,-5.18476073455811,0.0808727929115295
0.807272727272727,2.8095022662162803,0.934514167785645,-0.831629648494721
0.807878787878788,-1.01534392518997,4.16539551544189,0.952659902286529
0.808484848484848,-1.84641570253372,-3.38131102752686,0.428150624942779
0.809090909090909,1.0084475787162799,-1.58025634002686,-1.60761597661972
0.80969696969697,1.58564728574753,0.297438972473145,1.67356078119278
0.81030303030303,-1.67636931581497,5.29105469512939,0.413780507755279
0.810909090909091,-0.998578788471222,-4.16927245330811,-1.66509644536972
0.811515151515152,1.38925568418503,-2.62687987518311,0.356300039005279
0.812121212121212,0.941387031841278,4.51746338653564,1.01493041009903
0.812727272727273,-2.7756832806587197,1.13330078887939,-0.652003183650971
0.813333333333333,0.251621406841278,-3.85312987518311,0.14314330072403
0.813939393939394,2.2035623248100302,0.405214851379395,0.449705800724029
0.814545454545455,-1.76738005800247,4.94617188262939,-0.323885507869721
0.815151515151515,-0.787817069721222,-4.56684569549561,-0.364600839900971
0.815757575757576,0.677934883403778,-1.54193602752686,0.317979726505279
0.816363636363636,1.9736404498100302,3.50676514434814,0.689207753849029
0.816969696969697,-2.32541960878372,1.58116944122314,-0.309515390682221
0.817575757575758,-0.509994804096222,-6.40861571502686,-0.271195078182221
0.818181818181818,3.0753494341850303,1.87096680450439,-1.31302857427597
0.818787878787879,-1.08240447206497,4.62763428497314,1.70709105463028
0.819393939393939,-2.01646208925247,-3.00529296112061,-0.35502076177597097
0.82,1.33177521543503,-1.31440917205811,-1.89741333990097
0.820606060606061,1.47068634824753,0.400424812316895,1.52985960931778
0.821212121212121,-2.04280730409622,4.51985840606689,0.270079335880279
0.821818181818182,-0.246542655658722,-4.06389159393311,-0.441241464900971
0.822424242424242,1.54014191465378,-0.753974601745605,-0.0460632422447205
0.823030303030303,0.34742218809127795,3.27684326934814,0.6556774804115291
0.823636363636364,-1.8967111126899698,-0.298920890808105,-0.644818125057221
0.824242424242424,0.177375801372528,-3.36694091033936,-0.898690195369721
0.824848484848485,2.34726349668503,0.6063964920043949,0.852069081974029
0.825454545454545,-0.747101737689972,5.23836426544189,0.428150624942779
0.826060606060606,-2.06436247987747,-5.71645507049561,-0.963355722713471
0.826666666666667,1.56648712949753,-1.67605712127686,0.0952429100990295
0.827272727272727,1.95927033262253,4.67553467559814,0.377855214786529
0.827878787878788,-2.90980437440872,1.3751977615356399,0.26289427728652903
0.828484848484848,-0.248937675189972,-5.26379637908936,-0.0412732031822205
0.829090909090909,3.28371613340378,1.2171264724731399,-0.7813342383384709
0.82969696969697,-1.60212371034622,4.32586182403564,0.567061757755279
0.83030303030303,-1.76738005800247,-3.33101561737061,0.959844960880279
0.830909090909091,1.8419143755912801,-0.186354972839355,-1.22441285161972
0.831515151515152,0.8934866412162781,1.00157471466064,0.19104369134903001
0.832121212121212,-2.20806365175247,2.50325196075439,0.559876699161529
0.832727272727273,-0.30402312440872203,-4.71773192596436,-0.738223886775971
0.833333333333333,2.21793244199753,-0.12887450408935502,-0.328675546932221
0.833939393939394,0.230066231060028,3.91631348419189,1.23048216791153
0.834545454545455,-2.0308322064399698,-1.63773680877686,-0.11312378911972
0.835151515151515,-0.00464568300247192,-3.22802977752686,-1.9524987891197199
0.835757575757576,2.21793244199753,0.196848152160645,1.63284544916153
0.836363636363636,-1.34346160097122,6.24427246856689,0.5958019921302791
0.836969696969697,-1.5326681439399699,-4.86143309783936,-1.20285767583847
0.837575757575758,1.5593020709037801,-2.04489012908936,0.22217894525528
0.838181818181818,1.08748322324753,4.26838135528564,0.562271718692779
0.838787878787879,-2.52420622987747,1.47099854278564,-0.311910410213471
0.839393939393939,-0.0453610150337219,-4.43751464080811,0.5766418358802791
0.84,2.6562210162162803,0.711777351379395,0.31079466791152904
0.840606060606061,-1.10635466737747,4.27317139434814,0.0497375390052795
0.841212121212121,-1.64762908143997,-4.46146483612061,0.36348509759902903
0.841818181818182,1.39883576231003,-0.945576164245605,-0.570572519588471
0.842424242424242,1.7006082232475301,2.32123047637939,-0.10593873052597
0.843030303030303,-2.06196746034622,2.00269287872314,0.49042113275527904
0.843636363636364,-0.418984061908722,-5.24942626190186,-0.917850351619721
0.844242424242424,2.4765945513725303,0.9464892654418949,-0.613682871150971
0.844848484848485,-0.596215507221222,3.97858399200439,2.2938708397865297
0.845454545454545,-1.90389617128372,-1.53475096893311,-0.7214587500572209
0.846060606060606,0.910251777935028,-2.46162352752686,-1.6483313086509699
0.846666666666667,1.52816681699753,0.06991211700439451,1.09157103509903
0.847272727272727,-1.29556121034622,5.04915772247314,0.0401574608802795
0.847878787878788,-0.835717460346222,-3.92498046112061,-0.33825562505722095
0.848484848484849,1.51858673887253,-0.868935539245605,-0.08198853521347049
0.849090909090909,0.831216133403778,2.76909912872314,1.16342162103653
0.84969696969697,-1.97095671815872,0.838713386535645,-0.0077429297447205
0.85030303030303,-0.375873710346222,-4.26507323455811,-0.836419687557221
0.850909090909091,2.28738800840378,0.764467781066895,0.49281615228652903
0.851515151515152,-0.445329276752472,5.45870606231689,0.763453359317779
0.852121212121212,-2.4499606244087198,-6.04936278533936,-0.323885507869721
0.852727272727273,1.4179959185600302,-1.53235594940186,-0.8603698828697209
0.853333333333333,2.02633087949753,4.10072998809814,-0.0652233984947205
0.853939393939394,-3.03434539003372,1.65302002716064,1.5035143944740301
0.854545454545454,-0.0860763470649719,-4.79676757049561,-0.690323496150971
0.855151515151515,2.3999539263725302,0.436350105285645,-0.644818125057221
0.855757575757576,-1.1135397259712199,3.74626709747314,1.29754271478653
0.856363636363636,-1.42489226503372,-1.34554442596436,-0.41489625005722097
0.856969696969697,0.804870918560028,-1.5970214767456101,-1.05676148443222
0.857575757575758,1.12101349668503,0.522570808410645,0.892784414005279
0.858181818181818,-1.64523406190872,3.24570801544189,0.17667357416153
0.858787878787879,-0.914753104877472,-4.54529051971436,-1.05197144536972
0.859393939393939,1.60720246152878,-0.358796379089355,-0.273590097713471
0.86,0.8958816607475281,3.11158692169189,1.23766722650528
0.860606060606061,-2.42601042909622,0.120207527160645,-0.28556519536972097
0.861212121212121,-0.476464530658722,-4.41116942596436,-1.04478638677597
0.861818181818182,2.99631378965378,0.0483569412231445,0.564666738224029
0.862424242424242,-1.41531218690872,6.89571778106689,-0.17778931646347
0.863030303030303,-2.2799142376899697,-5.58712401580811,0.564666738224029
0.863636363636364,2.0909964068412803,-1.32398925018311,-0.774149179744721
0.864242424242424,0.862351387310028,3.71034180450439,-0.33825562505722095
0.864848484848485,-2.67748747987747,0.910563972473145,1.48674925775528
0.865454545454545,0.057624824810028105,-3.33101561737061,-0.869949960994721
0.866060606060606,2.23230255918503,0.436350105285645,0.12158812494278
0.866666666666667,-0.8405074994087219,4.13186524200439,0.7562683007240291
0.867272727272727,-1.7601949994087198,-3.35017577362061,-0.623262949275971
0.867878787878788,1.27189972715378,-1.3191992111206101,-0.903480234432221
0.868484848484849,2.11494660215378,1.6362548904418899,0.832908925724029
0.869090909090909,-2.28949431581497,3.06608155059814,0.37306517572402903
0.86969696969697,-0.766261893939972,-5.17997069549561,-1.3106335547447199
0.87030303030303,2.01675080137253,-0.36598143768310504,-0.13228394536972
0.870909090909091,0.0480447466850281,3.9091284255981398,1.33586302728653
0.871515151515151,-1.96377165956497,0.460300300598145,-0.599312753963471
0.872121212121212,0.0408596880912781,-4.30339354705811,-0.0867785742759705
0.872727272727273,2.2203274615287802,0.326179206848145,0.0952429100990295
0.873333333333333,-1.08240447206497,5.80119385528564,0.265289296817779
0.873939393939394,-1.47997771425247,-4.67701659393311,0.15990843744278002
0.874545454545455,1.65989289121628,-0.598298332214355,-0.659188242244721
0.875151515151515,0.938992012310028,2.31165039825439,0.507186269474029
0.875757575757576,-2.34218474550247,1.7943261795043899,-0.623262949275971
0.876363636363636,-0.318393241596222,-4.73449706268311,-0.12749390630722
0.876969696969697,2.66819611387253,0.529755867004395,0.30121458978652904
0.877575757575758,-0.488439628314972,5.23596924591064,0.507186269474029
0.878181818181818,-2.26075408143997,-5.22787108612061,-0.0029528906822205003
0.878787878787879,1.42757599668503,-0.765949699401855,-1.20046265630722
0.879393939393939,1.88262970762253,2.75233399200439,0.9550549218177791
0.88,-2.81160857362747,2.23979981231689,1.2592224022865302
0.880606060606061,-0.29444304628372203,-3.73577391815186,-1.49744507818222
0.881212121212121,2.03830597715378,-0.852170402526855,-0.27598511724472097
0.881818181818182,-0.150741874408722,3.81811768341064,1.11552123041153
0.882424242424242,-1.55661833925247,0.23995850372314498,-0.743013925838471
0.883030303030303,0.527048652935028,-2.83764159393311,-0.302330332088471
0.883636363636364,1.21920929746628,0.611186531066895,0.23175902338028
0.884242424242424,-1.53027312440872,3.94505371856689,0.15990843744278002
0.884848484848485,-0.8812228314399719,-4.70336180877686,-0.817259531307221
0.885454545454545,1.2647146685600301,-0.782714836120605,-0.17539429693222
0.886060606060606,1.84670441465378,3.65765137481689,1.26161742181778
0.886666666666667,-2.60563689393997,1.00157471466064,-1.09029175786972
0.887272727272727,-0.9243331830024719,-5.98469725799561,-0.31670044927597096
0.887878787878788,3.71960968809128,1.41351807403564,-0.0412732031822205
0.888484848484848,-1.08958953065872,5.96884522247314,0.8544641015052791
0.889090909090909,-2.20566863222122,-5.51287841033936,0.820933828067779
0.88969696969697,2.16524201231003,-0.253415519714355,-1.67228150396347
0.89030303030303,0.879116524028778,2.27093506622314,0.13595824213028002
0.890909090909091,-2.56492156190872,1.83264649200439,1.20892699213028
0.891515151515151,0.0959451373100281,-3.02924315643311,-0.896295175838471
0.892121212121212,1.9568753130912802,0.06991211700439451,0.12877318353653
0.892727272727273,-0.41179900331497205,3.4301245193481398,0.820933828067779
0.893333333333333,-1.95898162050247,-2.09039550018311,-0.529857187557221
0.893939393939394,0.5725540240287781,-1.78862303924561,-0.853184824275971
0.894545454545455,2.14608185606003,0.927329109191895,0.708367910099029
0.895151515151515,-1.72666472597122,4.38813233184814,0.502396230411529
0.895757575757576,-1.47518767518997,-5.11530516815186,-1.29865845708847
0.896363636363636,1.93053009824753,-1.84849852752686,-0.0173230078697205
0.896969696969697,0.9725222857475281,4.43842774200439,1.05325072259903
0.897575757575758,-2.42122039003372,1.35364258575439,-0.29514527349472097
0.898181818181818,-0.435749198627472,-4.93328368377686,-0.7214587500572209
0.898787878787879,2.67059113340378,0.369289558410645,-0.0484582617759705
0.899393939393939,-0.886012870502472,5.72694824981689,0.612567128849029
0.9,-2.10507781190872,-4.21477782440186,0.10721800775528
0.900606060606061,1.8323342974662802,-1.05574706268311,-0.510697031307221
0.901212121212121,1.10664337949753,2.31883545684814,0.12398314447403
0.901818181818182,-2.36373992128372,1.39196289825439,-0.40771119146347096
0.902424242424242,-0.131581718158722,-4.86861815643311,-0.611287851619721
0.903030303030303,2.63466584043503,0.881823738098145,-0.0556433203697205
0.903636363636364,-0.47406951112747203,4.20371582794189,0.571851796817779
0.904242424242424,-2.11944792909622,-3.79085936737061,0.16709349603653
0.904848484848485,1.14975373106003,-1.36949462127686,-1.42080445318222
0.905454545454545,1.84430939512253,1.10456055450439,1.3406530663490301
0.906060606060606,-2.0907076947212198,3.74626709747314,1.09875609369278
0.906666666666667,-0.612980643939972,-3.65194823455811,-1.44475464849472
0.907272727272727,1.82275421934128,-1.93711425018311,0.500001210880279
0.907878787878788,0.383347481060028,3.81093262481689,1.45800902338028
0.908484848484848,-2.25117400331497,1.01115479278564,-0.929825449275971
0.909090909090909,0.189350899028778,-4.04233641815186,-0.549017343807221
0.90969696969697,2.09578644590378,1.10216553497314,0.408990468692779
0.91030303030303,-1.27400603456497,4.47195801544189,0.17427855463028002
0.910909090909091,-1.3314865033149699,-4.98118407440186,-0.498721933650971
0.911515151515152,0.919831856060028,-0.797084953308105,-0.27598511724472097
0.912121212121212,1.90897492246628,3.36306397247314,0.495211171817779
0.912727272727273,-2.77328826112747,0.953674324035645,0.0617126366615295
0.913333333333333,-0.945888358783722,-6.06373290252686,-0.0484582617759705
0.913939393939394,3.80343537168503,1.58116944122314,-0.855579843807221
0.914545454545455,-1.54464324159622,4.83600098419189,1.21611205072403
0.915151515151515,-1.93263640565872,-3.71182372283936,0.598197011661529
0.915757575757576,1.90897492246628,-0.833010246276855,-1.67707154302597
0.916363636363636,1.08987824277878,0.627951667785645,0.6365173241615291
0.916969696969697,-1.9901168744087199,3.62891114044189,0.641307363224029
0.917575757575758,0.0432547076225281,-3.18731444549561,-1.16693238286972
0.918181818181818,1.94490021543503,-0.943181144714355,-0.16102417974472
0.918787878787879,-0.165111991596222,3.17864746856689,1.1394714257240302
0.919393939393939,-1.91108122987747,-0.718049308776855,-0.716668710994721
0.92,0.196535957622528,-2.89033202362061,-1.54055542974472
0.920606060606061,2.6729861529350303,0.577656257629395,1.16342162103653
0.921212121212121,-1.07282439393997,5.19046387481689,0.725133046817779
0.921818181818182,-2.30865447206497,-5.47934813690186,-1.6746765234947198
0.922424242424242,1.37009552793503,-2.05207518768311,0.20301878900528
0.923030303030303,1.8419143755912801,4.70187989044189,0.801773671817779
0.923636363636364,-3.16128142518997,1.58356446075439,-0.675953378963471
0.924242424242424,0.227671211528778,-5.39312743377686,0.19104369134903001
0.924848484848485,2.8789578326225302,1.05666016387939,-0.6807434180259709
0.925454545454545,-1.46321257753372,4.77373047637939,0.284449453067779
0.926060606060606,-1.54224822206497,-3.33101561737061,0.938289785099029
0.926666666666667,1.23597443418503,-0.401906730651855,-1.00646607427597
0.927272727272727,1.1832840044975301,1.35364258575439,0.0425524804115295
0.927878787878788,-2.4499606244087198,2.36673584747314,0.24373412103653
0.928484848484848,-0.107631522846222,-4.68180663299561,-0.39813111333847095
0.929090909090909,2.22990753965378,0.0962573318481445,-0.333465585994721
0.92969696969697,-0.007040702533721919,4.39771240997314,1.1658166405677801
0.93030303030303,-2.24638396425247,-2.49515380096436,-0.12509888677597
0.930909090909091,0.550998848247528,-3.17533934783936,-0.826839609432221
0.931515151515152,2.1939822466850303,1.05426514434814,1.43166380853653
0.932121212121212,-1.85120574159622,5.11382324981689,0.15751341791153
0.932727272727273,-1.27879607362747,-4.37763915252686,-1.38008912115097
0.933333333333333,1.5808572466850301,-1.38865477752686,-0.448426523494721
0.933939393939394,1.0371878130912802,3.59538086700439,0.849674062442779
0.934545454545455,-2.8092135540962198,1.44225830841064,-0.663978281307221
0.935151515151515,-0.0453610150337219,-3.74774901580811,0.308399648380279
0.935757575757576,2.34965851621628,0.774047859191895,-0.13946900396346998
0.936363636363636,-1.2500558392524699,4.68271973419189,0.23175902338028
0.936969696969697,-1.69792449159622,-4.95483885955811,0.375460195255279
0.937575757575758,1.29584992246628,-0.655778800964355,-0.453216562557221
0.938181818181818,1.4826614459037801,2.87208496856689,-0.25203492193222
0.938787878787879,-2.50504607362747,1.50213379669189,0.545506581974029
0.939393939393939,-0.28486296815872203,-5.46497801971436,-1.05676148443222
0.94,2.43108918027878,0.6854321365356449,-0.812469492244721
0.940606060606061,-0.816557304096222,4.65397949981689,2.42799193353653
0.941212121212121,-1.87755095643997,-1.88921385955811,-0.687928476619721
0.941818181818182,0.950967109966278,-1.94669432830811,-1.60522095708847
0.942424242424242,1.68144806699753,-0.222280265808105,1.83881712884903
0.943030303030303,-1.69792449159622,4.98449219512939,-0.319095468807221
0.943636363636364,-0.766261893939972,-3.97288085174561,-0.726248789119721
0.944242424242424,1.7556936724662802,-0.902465812683105,0.701182851505279
0.944848484848485,0.620454414653778,3.52832032012939,-0.11072876958847
0.945454545454545,-2.0140670697212197,-0.140849601745605,-0.575362558650971
0.946060606060606,-0.438144218158722,-4.07586669158936,-0.304725351619721
0.946666666666667,2.63706085996628,1.00875977325439,0.38025023431777905
0.947272727272727,-0.397428886127472,5.39404053497314,0.353905019474029
0.947878787878788,-2.37811003847122,-6.10444823455811,-0.13707398443222
0.948484848484848,1.5640921099662801,-1.50361571502686,-0.7621740820884709
0.949090909090909,2.19877228574753,4.34023194122314,0.15990843744278002
0.94969696969697,-3.26666228456497,1.47578858184814,0.593406972599029
0.95030303030303,0.11989533262252801,-4.89256835174561,-0.886715097713471
0.950909090909091,2.63706085996628,1.02073487091064,-0.771754160213471
0.951515151515152,-1.63804900331497,3.99534912872314,1.3622082421302801
0.952121212121212,-1.34346160097122,-2.00896483612061,0.35150999994277904
0.952727272727273,0.9749173052787781,-0.971921379089355,-1.46630982427597
0.953333333333333,1.21202423887253,0.654296882629395,0.763453359317779
0.953939393939394,-1.8200704876899698,3.35108887481689,0.444915761661529
0.954545454545455,-0.545920097064972,-4.68420165252686,-1.04239136724472
0.955151515151515,1.52577179746628,-0.533632804870605,-0.369390878963471
0.955757575757576,0.711465156841278,3.75105713653564,1.29514769525528
0.956363636363636,-2.18650847597122,-0.440227043151855,-0.525067148494721
0.956969696969697,-0.514784843158722,-4.16448241424561,-1.0495764258384699
0.957575757575758,2.73525666074753,0.369289558410645,0.885599355411529
0.958181818181818,-0.9434933392524719,6.83584229278564,0.23654906244278
0.958787878787879,-2.10986785097122,-5.47934813690186,-0.10114869146347
0.959393939393939,1.38207062559128,-1.48685057830811,-1.0328112891197199
0.96,1.2982449419975302,4.04803955841064,0.17667357416153
0.960606060606061,-2.63198210878372,1.16922608184814,0.25570921869278
0.961212121212121,0.0624148638725281,-3.51782714080811,-0.283170175838471
0.961818181818182,2.61790070371628,0.788417976379395,-0.0532483008384705
0.962424242424242,-1.17102019472122,3.82530274200439,0.18385863275528
0.963030303030303,-1.93263640565872,-3.88666014862061,0.418570546817779
0.963636363636364,1.31022003965378,-1.18028807830811,-0.6999035742759709
0.964242424242424,1.8634695513725301,2.10567871856689,0.365880117130279
0.964848484848485,-2.0571774212837197,2.40745117950439,0.579036855411529
0.965454545454545,-0.533944999408722,-5.29732665252686,-1.14537720708847
0.966060606060606,2.5197049029350302,0.00764160919189452,-0.12030884771347
0.966666666666667,-0.112421561908722,4.00492920684814,1.57536498041153
0.967272727272727,-1.9565866009712198,-0.0905541915893555,-0.0053479102134705
0.967878787878788,0.26599152402877796,-3.37173094940186,-1.09747681646347
0.968484848484849,1.74132355527878,-0.16000975799560502,0.670047597599029
0.969090909090909,-1.0752194134712199,5.83711914825439,0.823328847599029
0.96969696969697,-1.59014861268997,-4.25788817596436,-0.453216562557221
0.97030303030303,1.55211701231003,-0.9503662033081051,-0.45561158208847097
0.970909090909091,0.9318069537162781,2.81220948028564,0.852069081974029
0.971515151515152,-2.0308322064399698,0.889008796691895,-0.20413453130721998
0.972121212121212,-0.356713554096222,-4.74168212127686,-0.321490488338471
0.972727272727273,2.41432404356003,0.920144050598145,0.18625365228653
0.973333333333333,-0.610585624408722,5.19525391387939,0.19104369134903001
0.973939393939394,-2.25835906190872,-5.55359374237061,0.11919310541153
0.974545454545454,1.4946365435600302,-1.1778930587768601,-1.6698864844322199
0.975151515151515,1.97603546934128,3.0109961013793898,-0.11312378911972
0.975757575757576,-2.58887175722122,2.49606690216064,1.82923705072403
0.976363636363636,-0.251332694721222,-4.36326903533936,-1.0495764258384699
0.976969696969697,2.5101248248100303,-0.301315910339355,-0.683138437557221
0.977575757575758,-0.7015963665962219,3.9091284255981398,1.03169554681778
0.978181818181818,-1.50392790956497,-0.864145500183105,-0.472376718807221
0.978787878787879,0.5007034380912779,-1.85328856658936,-1.21004273443222
0.979393939393939,1.2934549029350302,0.39084473419189497,1.03888060541153
0.98,-1.2165255658149698,3.76542725372314,0.09763792963027951
0.980606060606061,-0.857272636127472,-4.54529051971436,-1.1908825781822199
0.981212121212121,1.1569387896537802,-0.842590324401855,0.36109007806777904
0.981818181818182,1.47547638731003,3.74387207794189,1.2256921288490301
0.982424242424242,-2.5361813275337197,0.774047859191895,-0.908270273494721
0.983030303030303,-0.814162284564972,-5.27337645721436,-0.304725351619721
0.983636363636364,3.56393341856003,0.7261474685668949,0.11919310541153
0.984242424242424,-1.2548458783149699,6.25385254669189,0.12398314447403
0.984848484848485,-1.9996969525337198,-5.39073241424561,1.17060667963028
0.985454545454545,1.93292511777878,-1.01503173065186,-1.6148010352134698
0.986060606060606,1.35572541074753,2.90322022247314,-0.0029528906822205003
0.986666666666667,-2.79484343690872,2.04819824981689,1.18018675775528
0.987272727272727,0.184560859966278,-3.88905516815186,-0.6615832617759709
0.987878787878788,2.17961212949753,0.45072022247314497,-0.314305429744721
0.988484848484849,-0.725546561908722,3.45407471466064,1.3454431054115301
0.989090909090909,-1.80330535097122,-2.81848143768311,-0.719063730525971
0.98969696969697,1.10664337949753,-1.2377685470581101,-1.47109986333847
0.99030303030303,2.00956574277878,0.948884284973145,1.20653197259903
0.990909090909091,-1.85120574159622,3.58101074981689,0.31079466791152904
0.991515151515151,-0.9243331830024719,-4.88538329315186,-1.14537720708847
0.992121212121212,1.3629104693412801,-1.12280760955811,0.18385863275528
0.992727272727273,0.606084297466278,4.33065186309814,1.36939330072403
0.993333333333333,-2.23201384706497,0.817158210754395,-0.14665406255722
0.993939393939394,-0.167507011127472,-4.47822997283936,-0.663978281307221
0.994545454545455,2.18919220762253,0.398029792785645,0.306004628849029
0.995151515151515,-0.835717460346222,5.62875244903564,0.571851796817779
0.995757575757576,-1.65002410097122,-4.20759276580811,-0.319095468807221
0.996363636363636,1.6742630084037802,-0.904860832214355,0.0952429100990295
0.996969696969697,1.38686066465378,2.59905274200439,0.0832678124427795
0.997575757575758,-2.43080046815872,1.34885254669189,-0.32628052740097097
0.998181818181818,-0.428564140033722,-4.71533690643311,-0.273590097713471
