Time (s),Accel X (m/s^2),Accel Y (m/s^2),Accel Z (m/s^2),CI Value
5.41175,2.5315213305473296,-2.41612928953171,-0.843475826740265,1.2145363176445858
5.412355693519079,-1.6741329663276698,5.09465196046829,0.720471927165985,1.2145363176445858
5.412961387038158,-0.809530915546417,0.5225596753120421,0.742027102947235,1.2145363176445858
5.413567080557238,2.9674148852348297,-4.07587782468796,-0.795575436115265,1.2145363176445858
5.414172774076317,-0.306576813983917,1.73204453859329,0.722866946697235,1.2145363176445858
5.414778467595396,-1.7387984936714198,1.1787950268745402,-0.421952389240265,1.2145363176445858
5.415384161114476,-1.91602993898392,-0.5743592700004579,-0.09383471345901469,1.2145363176445858
5.415989854633555,-1.18075894289017,-0.909662004375458,0.380379153728485,1.2145363176445858
5.416595548152634,2.77341830320358,-2.24368788328171,-1.2961345181465098,1.2145363176445858
5.417201241671714,-0.632299470233917,1.81826524171829,1.3216218295097402,1.2145363176445858
5.417806935190793,-0.627509431171417,4.33064072999954,-1.3608000454902598,1.2145363176445858
5.418412628709873,2.3758450610160797,-4.5596717700004605,0.540845462322235,1.2145363176445858
5.419018322228951,0.742441740703583,-0.021109758281707802,-0.345311764240265,1.2145363176445858
5.419624015748031,-0.9029366772651669,2.46013047609329,0.799507571697235,1.2145363176445858
5.420229709267111,-2.7566817944526703,-0.742010637187958,0.653411380290985,1.2145363176445858
5.42083540278619,-1.04184781007767,0.213602155780792,-0.915326412677765,1.2145363176445858
5.421441096305269,2.27046420164108,-3.36934706296921,-0.493802975177765,1.2145363176445858
5.422046789824349,1.26216097898483,0.7405064526557921,-0.544098385334015,1.2145363176445858
5.422652483343428,-1.9950655835151698,4.67073350343704,1.92756177091599,1.2145363176445858
5.423258176862507,1.18552035398483,-1.93952040281296,-1.5571916470527598,1.2145363176445858
5.423863870381586,1.99743197507858,-3.0843397387504603,1.01505932950974,1.2145363176445858
5.424469563900666,-0.673014802265167,4.1222740307807895,-0.551283443927765,1.2145363176445858
5.425075257419746,-2.76626187257767,-0.0738001879692078,-0.254301022052765,1.2145363176445858
5.425680950938824,-2.12918667726517,-1.57787245359421,1.2785114779472402,1.2145363176445858
5.426286644457904,2.20100863523483,-0.624654680156708,-0.180055416584015,1.2145363176445858
5.426892337976983,1.38670199460983,-3.1609803637504603,-0.0674894986152647,1.2145363176445858
5.427498031496063,-0.816715974140167,5.9855992260932895,-1.27218432283401,1.2145363176445858
5.428103725015142,-0.308971833515167,-0.43784315671920804,1.0605647006034902,1.2145363176445858
5.428709418534221,3.04884554929733,-4.6123621996879605,-0.412372311115265,1.2145363176445858
5.429315112053301,-0.179640778827667,3.28401719484329,0.258233157634735,1.2145363176445858
5.42992080557238,-3.07761441164017,0.733321394062042,-0.254301022052765,1.2145363176445858
5.430526499091459,-1.7340084546089198,-1.4940467700004598,0.603115970134735,1.2145363176445858
5.431132192610539,0.701726408672333,-0.0690101489067078,-0.577628658771515,1.2145363176445858
5.431737886129618,3.19254672117233,-2.75622206296921,-1.3775651822090098,1.2145363176445858
5.432343579648697,-1.0969332592964198,2.3044542065620397,1.71680005216599,1.2145363176445858
5.432949273167777,-1.53043179445267,3.7414659253120397,-0.9728068814277651,1.2145363176445858
5.433554966686856,3.04645052976608,-5.29015272703171,0.730052005290985,1.2145363176445858
5.434160660205936,1.25737093992233,1.17640000734329,-0.335731686115265,1.2145363176445858
5.434766353725014,-2.74470669679642,1.9619664135932902,-0.333336666584015,1.2145363176445858
5.435372047244094,-1.92800503664017,-1.6042176684379599,0.464204837322235,1.2145363176445858
5.435977740763174,-0.306576813983917,0.548904890155792,-0.0890446743965147,1.2145363176445858
5.4365834342822525,1.98785189695358,-3.5633436450004603,-0.230350826740265,1.2145363176445858
5.437189127801332,0.929253264141083,2.02663194093704,-1.55479662752151,1.2145363176445858
5.437794821320412,-2.37347866945267,4.088743757343289,2.13113843107224,1.2145363176445858
5.438400514839491,2.5818167407035797,-2.90231825437546,-1.25541918611526,1.2145363176445858
5.43900620835857,1.95911166257858,-1.0006727465629601,-0.10341479158401501,1.2145363176445858
5.439611901877649,-2.3782687085151704,2.5271910229682897,1.3695222201347401,1.2145363176445858
5.440217595396729,-2.03817593507767,-0.492928605937958,-0.704564693927765,1.2145363176445858
5.440823288915809,-1.70047818117142,-0.29653700437545805,0.435464602947235,1.2145363176445858
5.441428982434887,2.14831820554733,-0.9168470629692079,-0.948856686115265,1.2145363176445858
5.442034675953967,0.704121428203583,-3.07475966062546,0.08339673185348531,1.2145363176445858
5.442640369473046,-1.0274776928901699,6.53884873781204,-1.38714526033401,1.2145363176445858
5.4432460629921255,0.27780795164108296,-1.54673719968796,1.72159009122849,1.2145363176445858
5.443851756511205,2.79976351804733,-3.18014052000046,-1.45181078767776,1.2145363176445858
5.444457450030284,-0.397587556171417,3.60973985109329,0.298948489665985,1.2145363176445858
5.445063143549364,-3.35304165773392,-0.133675676250458,-0.21119067049026502,1.2145363176445858
5.445668837068443,-1.6525777905464198,-1.1180287035942098,0.576770755290985,1.2145363176445858
5.446274530587522,0.565210295391083,-0.7994911059379579,0.897703372478485,1.2145363176445858
5.446880224106602,3.21889193601608,-1.4341712817192098,-3.18101488924026,1.2145363176445858
5.447485917625681,-1.59509732179642,2.22062852296829,3.8890827670097403,1.2145363176445858
5.44809161114476,-0.546078767108917,3.54986436281204,-2.31401781892776,1.2145363176445858
5.44869730466384,3.39133334226608,-5.74760145750046,0.504920169353485,1.2145363176445858
5.449302998182919,0.261042814922333,2.46013047609329,0.258233157634735,1.2145363176445858
5.4499086917019985,-2.96744351320267,2.19907334718704,-1.19075365877151,1.2145363176445858
5.450514385221077,-2.15313687257767,-3.22325087156296,1.9036115756034901,1.2145363176445858
5.451120078740157,0.847822600078583,2.78106309328079,-2.36431322908401,1.2145363176445858
5.451725772259237,1.86091586179733,-5.02430555906296,1.02224438810349,1.2145363176445858
5.4523314657783155,0.7184915453910831,2.32840440187454,-1.7655583462715099,1.2145363176445858
5.452937159297395,-3.08479947023392,4.08634873781204,1.87966138029099,1.2145363176445858
5.453542852816475,2.98657504148483,-4.48303114500046,0.361218997478485,1.2145363176445858
5.454148546335554,2.62013705320358,0.266292585468292,-0.651874264240265,1.2145363176445858
5.454754239854633,-3.96616665773392,2.12961778078079,0.533660403728485,1.2145363176445858
5.455359933373712,-1.01789761476517,-1.50123182859421,-0.855450924396515,1.2145363176445858
5.455965626892792,-0.766420563983917,0.11780137453079201,1.4293977084159901,1.2145363176445858
5.4565713204118715,1.9351614672660802,-0.41868300046920803,-1.64820238924026,1.2145363176445858
5.45717701393095,0.7592068774223331,-2.90710829343796,1.16594555997849,1.2145363176445858
5.45778270745003,-1.9854855053901699,6.08379502687454,-1.2314689908027598,1.2145363176445858
5.458388400969109,1.82738558835983,-2.24368788328171,0.445044681072235,1.2145363176445858
5.4589940944881885,2.7111477953910796,-2.67239637937546,0.480969974040985,1.2145363176445858
5.459599788007268,-1.7387984936714198,4.04563340578079,-0.13215502595901502,1.2145363176445858
5.460205481526347,-2.70159634523392,-2.10238173093796,0.497735110759735,1.2145363176445858
5.460811175045427,-1.34122525148392,0.153726667499542,-1.5308464322090098,1.2145363176445858
5.461416868564506,0.581975432109833,-0.646209855937958,0.751607181072235,1.2145363176445858
5.462022562083585,3.1374612719535797,-1.35992567625046,-1.91883959627151,1.2145363176445858
5.462628255602665,-1.76514370851517,2.83614854249954,2.3323200716972403,1.2145363176445858
5.463233949121744,-0.426327790546417,1.7607847729682902,-1.6386223111152598,1.2145363176445858
5.463839642640823,3.3003226000785797,-3.75494520750046,-0.261486080646515,1.2145363176445858
5.464445336159903,-0.306576813983917,2.3475645581245397,1.70003491544724,1.2145363176445858
5.465051029678982,-3.40333706789017,1.91167100343704,-2.28288256502151,1.2145363176445858
5.4656567231980615,-2.29923306398392,-3.53939344968796,2.9406550326347403,1.2145363176445858
5.46626241671714,1.41544222898483,2.74753281984329,-2.0888859829902597,1.2145363176445858
5.46686811023622,1.67170931882858,-4.45668593015671,-0.42913744783401503,1.2145363176445858
5.4674738037553,0.210747404766083,1.93083115968704,-0.788390377521515,1.2145363176445858
5.4680794972743785,-1.7938839428901698,4.627623151874539,0.28936841154098497,1.2145363176445858
5.468685190793458,2.72312289304733,-5.70209608640671,2.10479321622849,1.2145363176445858
5.469290884312538,2.22735385007858,2.68765733156204,-1.8469890103340099,1.2145363176445858
5.469896577831617,-4.555341462421421,1.36560655031204,1.11086011075974,1.2145363176445858
5.470502271350696,-1.42505093507767,-2.66760634031296,-0.357286861896515,1.2145363176445858
5.471107964869775,1.1064847094535801,2.04100205812454,-0.0603044400215147,1.2145363176445858
5.471713658388855,1.13043490476608,-2.50474501218796,-0.702169674396515,1.2145363176445858
5.4723193519079345,1.25018588132858,-1.28089003171921,0.433069583415985,1.2145363176445858
5.472925045427013,-3.23089566164017,4.99166612062454,0.483364993572235,1.2145363176445858
5.473530738946093,2.14113314695358,-2.50953505125046,-0.711749752521515,1.2145363176445858
5.474136432465172,3.49192416257858,-1.8916200121879598,0.969553958415985,1.2145363176445858
5.4747421259842515,-3.23808072023392,3.8779820385932897,-0.939276607990265,1.2145363176445858
5.475347819503331,-1.78430386476517,-2.46402968015671,0.392354251384735,1.2145363176445858
5.47595351302241,-0.8023458569526669,0.251922468280792,-0.0171940884590147,1.2145363176445858
5.47655920654149,1.34359164304733,-0.31809218015670804,0.351638919353485,1.2145363176445858
5.477164900060569,1.5375882250785802,-2.6915565356254603,-0.982386959552765,1.2145363176445858
5.477770593579648,-2.2417525952339203,5.30541367921829,-0.493802975177765,1.2145363176445858
5.478376287098728,0.831057463359833,-0.8761317309379579,1.2401911654472402,1.2145363176445858
5.478981980617807,4.16492465085983,-2.6484461840629603,-1.1452482876777599,1.2145363176445858
5.479587674136886,-2.24893765382767,2.93434434328079,0.981529056072235,1.2145363176445858
5.480193367655966,-3.26682095460892,-0.883316789531708,-1.1284831509590099,1.2145363176445858
5.480799061175045,-0.6394845288276669,-0.868946672344208,0.248653079509735,1.2145363176445858
5.4814047546941245,0.7544168383598331,1.54044297609329,-0.24711596345901501,1.2145363176445858
5.482010448213204,2.1099978930473298,-4.18125868406296,-0.778810299396515,1.2145363176445858
5.482616141732283,-0.24670132570266698,2.79782822999954,0.145667239665985,1.2145363176445858
5.483221835251363,-0.706545075702667,2.8864439526557897,0.296553470134735,1.2145363176445858
5.483827528770441,2.94346468992233,-4.82312391843796,1.97785718107224,1.2145363176445858
5.484433222289521,1.09929965085983,3.72230576906204,-1.08058276033401,1.2145363176445858
5.485038915808601,-4.40445523195267,0.208812116718292,0.466599856853485,1.2145363176445858
5.48564460932768,-1.51845669679642,-2.95979872312546,0.835432864665985,1.2145363176445858
5.486250302846759,1.38670199460983,2.75950791749954,-0.441112545490265,1.2145363176445858
5.486855996365838,1.29329623289108,-3.9225965746879603,-0.905746334552765,1.2145363176445858
5.487461689884918,1.18552035398483,0.766851667499542,-0.896166256427765,1.2145363176445858
5.4880673834039975,-3.02731900148392,4.24442002687454,1.8173908724784902,1.2145363176445858
5.488673076923076,2.6848025805473297,-3.48191298093796,-1.00873217439651,1.2145363176445858
5.489278770442156,2.91711947507858,0.807566999530792,-0.10341479158401501,1.2145363176445858
5.489884463961236,-4.80681851320267,2.00028672609329,0.536055423259735,1.2145363176445858
5.490490157480314,-1.1184884350776698,-3.0771546801567102,-0.362076900959015,1.2145363176445858
5.491095850999394,0.546050139141083,1.61708360109329,0.394749270915985,1.2145363176445858
5.491701544518473,1.2262356860160801,-0.7587757739067079,-0.591998775959015,1.2145363176445858
5.492307238037553,1.5040579516410801,-3.17295546140671,-0.496197994709015,1.2145363176445858
5.492912931556632,-3.0033688061714203,5.52815049562454,-0.189635494709015,1.2145363176445858
5.493518625075711,1.15438510007858,-1.67606825437546,1.6760847201347402,1.2145363176445858
5.494124318594791,4.2870706469535795,-2.01616102781296,-1.05902758455276,1.2145363176445858
5.49473001211387,-3.1063546460151703,3.2959922924995397,0.179197513103485,1.2145363176445858
5.495335705632949,-2.43335415773392,-2.28440321531296,-0.0411442837715147,1.2145363176445858
5.495941399152029,-0.249096345233917,-0.188761125469208,0.176802493572235,1.2145363176445858
5.496547092671108,0.352053557109833,0.874627546405792,0.5240803256034849,1.2145363176445858
5.497152786190187,1.92797640867233,-2.72269178953171,-1.24583910799026,1.2145363176445858
5.497758479709267,-2.0046456616401698,2.7571128979682897,1.64015942716599,1.2145363176445858
5.498364173228346,0.325708342266083,1.8038951245307902,-1.13566820955276,1.2145363176445858
5.498969866747426,4.02840853757858,-3.63519423093796,0.512105227947235,1.2145363176445858
5.499575560266504,-1.6310226147651699,3.13073594484329,0.104951907634735,1.2145363176445858
5.500181253785584,-3.5590133374214203,-0.8593665942192079,-1.1069279751777599,1.2145363176445858
5.500786947304664,-1.2597945874214198,-2.20057753171921,1.0916999545097401,1.2145363176445858
5.501392640823743,0.912488127422333,3.0900206128120398,-0.278251217365265,1.2145363176445858
5.501998334342822,1.57830355710983,-4.6794227465629605,-0.045934322834014704,1.2145363176445858
5.502604027861902,0.6586160571098331,2.44576035890579,-1.7272380337715099,1.2145363176445858
5.503209721380981,-2.1220016186714203,2.01705186281204,2.65325268888474,1.2145363176445858
5.50381541490006,3.09674593992233,-2.7945423754692102,-1.04465746736526,1.2145363176445858
5.504421108419139,1.8034353930473301,1.88772080812454,0.689336673259735,1.2145363176445858
5.505026801938219,-5.23792202882767,0.946478132343292,-0.0722795376777647,1.2145363176445858
5.505632495457299,-1.44181607179642,-3.10828993406296,0.0522614779472353,1.2145363176445858
5.506238188976377,1.4944778735160802,2.24936875734329,0.531265384197235,1.2145363176445858
5.506843882495457,1.41304720945358,-0.39712782468795804,-2.47927416658401,1.2145363176445858
5.507449576014536,0.452644377422333,-3.75734022703171,1.41742261075974,1.2145363176445858
5.508055269533616,-1.7890939038276699,6.02870957765579,-1.88770434236526,1.2145363176445858
5.508660963052695,1.3411966235160802,-2.70353163328171,1.92756177091599,1.2145363176445858
5.509266656571774,3.30511263914108,-0.0618250903129578,-0.527333248615265,1.2145363176445858
5.509872350090854,-4.09070767335892,2.52240098390579,0.509710208415985,1.2145363176445858
5.510478043609933,-2.35671353273392,-3.85074598875046,-0.0267741665840147,1.2145363176445858
5.511083737129012,1.39867709226608,2.4146251049995398,-1.0733977017402598,1.2145363176445858
5.511689430648092,-0.366452302265167,-0.5767542895317079,1.4317927279472402,1.2145363176445858
5.512295124167171,2.7710232836723296,-2.65084120359421,-1.7823234829902599,1.2145363176445858
5.51290081768625,-2.66806607179642,2.93434434328079,2.3419001498222403,1.2145363176445858
5.513506511205329,0.0359109789848328,1.3464463940620401,-0.484222897052765,1.2145363176445858
5.514112204724409,5.69534213132858,-2.7346668871879602,0.758792239665985,1.2145363176445858
5.514717898243489,-2.84529751710892,2.2110484448432897,0.581560794353485,1.2145363176445858
5.515323591762567,-3.13509488039017,-1.2281996020317099,-1.59790697908401,1.2145363176445858
5.515929285281647,0.150871916484833,-1.38148085203171,1.5730988802909902,1.2145363176445858
5.516534978800727,0.14847689695358302,2.82896348390579,-0.6734294400215151,1.2145363176445858
5.5171406723198055,1.3579617602348302,-4.58122694578171,0.560005618572235,1.2145363176445858
5.517746365838885,-0.5221285717964169,3.18342637453079,-1.73442309236526,1.2145363176445858
5.518352059357965,-1.3867306225776699,1.93322617921829,1.3814973177909902,1.2145363176445858
5.518957752877044,4.40921664304733,-3.0675746020317103,0.641436282634735,1.2145363176445858
5.519563446396123,-0.373637360858917,2.95589951906204,-0.524938229084015,1.2145363176445858
5.520169139915202,-4.88345913820267,-1.99939589109421,1.0701447787284901,1.2145363176445858
5.520774833434282,-0.234726228046417,-1.27849501218796,-1.9547648892402598,1.2145363176445858
5.521380526953362,0.526889982891083,2.48647569093704,1.53238354825974,1.2145363176445858
5.52198622047244,1.61662386960983,-1.3742957934379598,-1.95236986970901,1.2145363176445858
5.52259191399152,0.464619475078583,-2.17662733640671,1.1036750521659902,1.2145363176445858
5.5231976075106,-1.29571988039017,4.37854112062454,-1.3679851040840099,1.2145363176445858
5.5238033010296785,2.21537875242233,-1.66169813718796,0.109741946697235,1.2145363176445858
5.524408994548757,1.83457064695358,0.0770860424995422,1.44855786466599,1.2145363176445858
5.525014688067838,-4.24398892335892,2.7307676831245398,-2.15594652986526,1.2145363176445858
5.525620381586917,-2.8596676342964202,-5.2709925707817105,2.71073315763474,1.2145363176445858
5.5262260751059955,2.11478793210983,3.54986436281204,-1.07100268220901,1.2145363176445858
5.526831768625075,0.47659457273483297,-0.8737367114067079,-0.0363542447090147,1.2145363176445858
5.527437462144155,1.74834994382858,-3.28552137937546,-1.77753344392776,1.2145363176445858
5.528043155663234,-1.5974923413276698,4.06718858156204,-0.144130123615265,1.2145363176445858
5.528648849182313,-0.29220669679641703,-0.624654680156708,1.4533479037284902,1.2145363176445858
5.529254542701393,4.67506381101608,0.0770860424995422,-0.783600338459015,1.2145363176445858
5.529860236220472,-4.34936978273392,1.17400498781204,1.4581379427909902,1.2145363176445858
5.5304659297395515,-3.02252896242142,-2.86639296140671,-1.3847502408027599,1.2145363176445858
5.53107162325863,1.77230013914108,1.04467393312454,-0.175265377521515,1.2145363176445858
5.53167731677771,-0.45027798585891704,1.40871690187454,0.718076907634735,1.2145363176445858
5.53228301029679,2.19861361570358,-3.67111952390671,-1.22907397127151,1.2145363176445858
5.5328887038158685,-1.6190475171089198,1.7607847729682902,0.308528567790985,1.2145363176445858
5.533494397334948,-1.02987271242142,2.43618028078079,0.210332767009735,1.2145363176445858
5.534100090854028,4.8259500414848295,-2.79693739500046,0.636646243572235,1.2145363176445858
5.534705784373107,-1.5927023022651698,2.47929063234329,-0.635109127521515,1.2145363176445858
5.535311477892186,-4.15776822023392,-1.6856483325004599,0.0378913607597353,1.2145363176445858
5.535917171411266,0.6969363696098331,-1.5706873950004598,-0.0339592251777647,1.2145363176445858
5.536522864930345,0.280202971172333,3.09481065187454,0.421094485759735,1.2145363176445858
5.5371285584494245,1.10887972898483,-3.16337538328171,-0.757255123615265,1.2145363176445858
5.537734251968503,0.25864779539108296,0.443524030780792,-0.565653561115265,1.2145363176445858
5.538339945487583,-1.59988736085892,2.94871446046829,0.895308352947235,1.2145363176445858
5.538945639006663,4.13139437742233,-1.81976942625046,-0.829105709552765,1.2145363176445858
5.5395513325257415,0.404743986797333,1.3632115307807902,0.749212161540985,1.2145363176445858
5.54015702604482,-4.55773648195267,0.6231504956245421,-0.721329830646515,1.2145363176445858
5.540762719563901,-0.828691071796417,-3.12984510984421,0.457019778728485,1.2145363176445858
5.54136841308298,0.780762053203583,2.86249375734329,0.39953930997848497,1.2145363176445858
5.5419741066020585,1.15438510007858,-1.19706434812546,-0.374051998615265,1.2145363176445858
5.542579800121139,0.890932951641083,-2.11675184812546,-0.704564693927765,1.2145363176445858
5.543185493640218,-1.4466061108589199,3.81571153078079,0.445044681072235,1.2145363176445858
5.543791187159297,1.1998904711723302,-1.4940467700004598,2.52871167325974,1.2145363176445858
5.544396880678376,3.5134793383598297,1.4230870190620402,-1.3344548306465098,1.2145363176445858
5.545002574197456,-4.6080318921089205,1.11412949953079,0.885728274822235,1.2145363176445858
5.545608267716535,-2.65609097414017,-3.40527235593796,-0.656664303302765,1.2145363176445858
5.5462139612356145,1.86091586179733,2.11285264406204,0.15285229825973498,1.2145363176445858
5.546819654754693,-0.294601716327667,0.285452741718292,0.799507571697235,1.2145363176445858
5.547425348273773,2.4021902758598297,-2.59096571531296,-2.21103197908401,1.2145363176445858
5.548031041792853,-1.47055630617142,0.924922956562042,2.02336255216599,1.2145363176445858
5.5486367353119315,-0.296996735858917,2.07692735109329,-1.3727751431465098,1.2145363176445858
5.549242428831012,4.46430209226608,-0.334857316875458,0.179197513103485,1.2145363176445858
5.549848122350091,-3.0800094311714203,0.30940293703079197,1.2785114779472402,1.2145363176445858
5.55045381586917,-3.7051095288276703,-2.48318983640671,-1.3176896939277598,1.2145363176445858
5.551059509388249,1.66452426023483,0.148936628437042,0.322898684978485,1.2145363176445858
5.551665202907329,0.0646512133598328,2.63975694093704,0.100161868572235,1.2145363176445858
5.552270896426408,1.77948519773483,-4.19083876218796,-1.2266789517402599,1.2145363176445858
5.5528765899454875,-0.376032380390167,1.09496934328079,-1.40870043611526,1.2145363176445858
5.553482283464566,-2.22738247804642,2.06255723390579,3.04603589200974,1.2145363176445858
5.554087976983646,5.27381869382858,-0.981512590312958,-1.0638176236152599,1.2145363176445858
5.554693670502726,-0.09581509523391721,0.565670026874542,0.624671145915985,1.2145363176445858
5.5552993640218045,-4.87627407960892,-0.48574354734420805,-0.603973873615265,1.2145363176445858
5.555905057540883,0.5939505297660831,-1.74073378171921,-0.716539791584015,1.2145363176445858
5.556510751059964,0.40713900632858296,1.71527940187454,2.03533764982224,1.2145363176445858
5.557116444579043,0.922068205547333,-0.440238176250458,-2.3283879361152597,1.2145363176445858
5.557722138098121,-0.158085603046417,-3.04841444578171,0.962368899822235,1.2145363176445858
5.558327831617202,-1.2597945874214198,4.42644151124954,-1.7823234829902599,1.2145363176445858
5.558933525136281,3.10153597898483,-1.57308241453171,1.74314526700974,1.2145363176445858
5.55953921865536,2.0405423266410803,0.886602644062042,-0.302201412677765,1.2145363176445858
5.560144912174439,-4.69904263429642,0.9368980542182921,-0.944066647052765,1.2145363176445858
5.560750605693519,-1.9304000561714199,-3.95133680906296,1.3647321810722401,1.2145363176445858
5.561356299212598,1.7004495532035802,3.42292832765579,-0.362076900959015,1.2145363176445858
5.5619619927316775,-0.6179293530464169,-0.526458879375458,0.677361575603485,1.2145363176445858
5.562567686250756,2.3590799242973297,-2.0496913012504603,-1.64101733064651,1.2145363176445858
5.563173379769836,-1.30529995851517,0.795591901874542,1.6928498568534902,1.2145363176445858
5.563779073288916,0.6370608813285831,1.93801621828079,-1.32008471345901,1.2145363176445858
5.564384766807994,3.76016635007858,0.733321394062042,0.7635822787284849,1.2145363176445858
5.564990460327075,-3.58056851320267,0.668655866718292,0.600720950603485,1.2145363176445858
5.565596153846154,-3.59254361085892,-2.91908339109421,-1.4446257290840099,1.2145363176445858
5.566201847365233,1.47292269773483,0.809962019062042,0.588745852947235,1.2145363176445858
5.566807540884312,0.821477385234833,2.91278916749954,-0.477037838459015,1.2145363176445858
5.567413234403392,1.09450961179733,-5.05783583250046,0.303738528728485,1.2145363176445858
5.568018927922471,0.06704623289108279,2.1152476635932898,-2.38107836580276,1.2145363176445858
5.5686246214415505,-1.88968472414017,1.4829625073432902,2.6245124545097402,1.2145363176445858
5.569230314960629,4.98641635007858,0.26150254640579196,0.215122806072235,1.2145363176445858
5.569836008479709,-1.7387984936714198,0.8195420971870421,-0.484222897052765,1.2145363176445858
5.570441701998789,-5.65465542726517,-3.09152479734421,-0.323756588459015,1.2145363176445858
5.571047395517867,2.12197299070358,0.101036237812042,0.0426813998222353,1.2145363176445858
5.571653089036946,0.768786955547333,2.89841905031204,1.8221809115409902,1.2145363176445858
5.572258782556027,0.723281584453583,-1.15395399656296,-2.62537035799026,1.2145363176445858
5.572864476075106,0.124526701641083,-3.24241102781296,1.2234260287284902,1.2145363176445858
5.573470169594184,-1.55677700929642,3.77739121828079,-0.342916744709015,1.2145363176445858
5.574075863113265,3.56377474851608,-0.42826307859420804,1.0916999545097401,1.2145363176445858
5.574681556632344,0.493359709453583,0.496214460468292,-0.0171940884590147,1.2145363176445858
5.575287250151423,-5.04153042726517,-0.243846574687958,-0.740489986896515,1.2145363176445858
5.575892943670502,0.706516447734833,-3.15858534421921,0.912073489665985,1.2145363176445858
5.576498637189582,1.49208285398483,2.97505967531204,-0.575233639240265,1.2145363176445858
5.577104330708661,-0.385612458515167,-1.3647157153129599,0.751607181072235,1.2145363176445858
5.57771002422774,0.7544168383598331,-1.6640931567192099,-1.78471850252151,1.2145363176445858
5.578315717746819,-1.5591720288276698,2.28529405031204,1.00068921232224,1.2145363176445858
5.578921411265899,2.4524856860160797,0.0651109448432922,0.33966382169723497,1.2145363176445858
5.579527104784979,3.1542264086723297,0.850677351093292,-0.802760494709015,1.2145363176445858
5.580132798304057,-5.11817105226517,-0.0809852465629578,0.919258548259735,1.2145363176445858
5.580738491823136,-2.00225064210892,-2.7849622973442103,-0.881796139240265,1.2145363176445858
5.581344185342217,1.82978060789108,1.6577989331245402,1.3814973177909902,1.2145363176445858
5.581949878861296,-0.615534333515167,1.8853257885932901,-0.790785397052765,1.2145363176445858
5.582555572380375,1.0466092211723301,-3.89385634031296,-0.172870357990265,1.2145363176445858
5.583161265899455,-0.232331208515167,1.1668199292182901,-1.20033373689651,1.2145363176445858
5.583766959418534,-0.0694698803901672,1.72006944093704,0.727656985759735,1.2145363176445858
5.584372652937613,3.5470096117973298,0.323773054218292,1.4677180209159901,1.2145363176445858
5.584978346456692,-2.61537564210892,1.52367783937454,-0.850660885334015,1.2145363176445858
5.585584039975772,-4.55773648195267,-4.15730848875046,0.366009036540985,1.2145363176445858
5.586189733494852,2.61055697507858,1.18598008546829,-1.28415942049026,1.2145363176445858
5.58679542701393,0.905303068828583,2.52240098390579,1.25935132169724,1.2145363176445858
5.587401120533009,0.37600375242233297,-3.52262831296921,-1.3943303189277598,1.2145363176445858
5.58800681405209,1.1016946703910802,-0.11691053953170799,-0.867426022052765,1.2145363176445858
5.588612507571169,-2.1818771069526703,2.06016221437454,2.09042309904099,1.2145363176445858
5.589218201090247,3.7529812914848297,1.2386705151557902,-0.584813717365265,1.2145363176445858
5.589823894609328,-1.04424282960892,-0.38754774656295804,1.67368970060349,1.2145363176445858
5.590429588128407,-4.59845181398392,-1.6473280200004599,-1.6769426236152598,1.2145363176445858
5.5910352816474855,2.10041781492233,-1.2545448168754598,0.622276126384735,1.2145363176445858
5.591640975166565,0.32810336179733296,2.83614854249954,0.46899487638473497,1.2145363176445858
5.592246668685645,1.0418191821098302,-0.612679582500458,-1.7966936001777598,1.2145363176445858
5.592852362204724,-0.0694698803901672,-3.74776014890671,0.488155032634735,1.2145363176445858
5.593458055723803,-1.58072720460892,3.90672227296829,-1.29852953767776,1.2145363176445858
5.594063749242882,2.66085238523483,-0.27737684812545804,2.8711994662284903,1.2145363176445858
5.594669442761962,1.95432162351608,0.335748151874542,-1.10453295564651,1.2145363176445858
5.595275136281042,-4.54097134523392,0.14654160890579201,-0.48901293611526503,1.2145363176445858
5.59588082980012,-0.8430611889839169,-2.9047132739067103,0.277393313884735,1.2145363176445858
5.5964865233192,1.42981234617233,1.8637706128120402,0.478574954509735,1.2145363176445858
5.59709221683828,-0.776000642108917,0.0028404370307922398,0.116927005290985,1.2145363176445858
5.5976979103573585,1.44178744382858,-1.8700648364067098,-1.4326506314277598,1.2145363176445858
5.598303603876438,-1.37715054445267,0.987193464374542,1.8772663607597402,1.2145363176445858
5.598909297395518,1.5639334399223301,1.9667564526557901,-1.35361498689651,1.2145363176445858
5.599514990914597,3.2572122485160797,-0.169600969219208,1.43897778654099,1.2145363176445858
5.600120684433676,-4.20566861085892,0.5584849682807921,-0.390817135334015,1.2145363176445858
5.600726377952755,-2.56268521242142,-3.04841444578171,-0.330941647052765,1.2145363176445858
5.601332071471835,1.92558138914108,0.714161237812042,0.892913333415985,1.2145363176445858
5.601937764990915,0.196377287578583,2.27571397218704,-1.01112719392776,1.2145363176445858
5.602543458509993,0.859797697734833,-3.98965712156296,-0.642294186115265,1.2145363176445858
5.603149152029073,0.567605314922333,1.0518589917182901,-1.00633715486526,1.2145363176445858
5.603754845548153,-1.14962368898392,1.14286973390579,3.42684399747849,1.2145363176445858
5.6043605390672315,3.73142611570358,2.39306992921829,-1.4805510220527598,1.2145363176445858
5.60496623258631,-1.6477877514839199,-0.392337785625458,1.2785114779472402,1.2145363176445858
5.605571926105391,-4.67748745851517,-2.97895887937546,-1.3296647915840099,1.2145363176445858
5.60617761962447,1.9399515063285802,0.127381452655792,-0.165685299396515,1.2145363176445858
5.6067833131435485,0.7568118578910831,2.38348985109329,1.4581379427909902,1.2145363176445858
5.607389006662629,1.18552035398483,-0.883316789531708,-2.63495043611526,1.2145363176445858
5.607994700181708,0.34726351804733296,-3.54178846921921,0.914468509197235,1.2145363176445858
5.608600393700787,-1.2166842358589198,3.39179307374954,-1.01352221345901,1.2145363176445858
5.609206087219866,2.93388461179733,1.1356846753120402,2.4185407748222403,1.2145363176445858
5.609811780738946,-0.306576813983917,-0.272586809062958,-0.11778490877151501,1.2145363176445858
5.610417474258025,-4.32541958742142,-1.43177626218796,-1.74639819002151,1.2145363176445858
5.6110231677771045,0.6179007250785831,-2.01376600828171,1.1084650912284901,1.2145363176445858
5.611628861296183,1.1448050219535801,3.11157578859329,-0.730909908771515,1.2145363176445858
5.612234554815263,-0.5820040600776669,-0.9934876879692079,-0.326151607990265,1.2145363176445858
5.612840248334343,1.57111849851608,-2.66042128171921,-0.872216061115265,1.2145363176445858
5.6134459418534215,-1.53522183351517,1.41350694093704,0.888123294353485,1.2145363176445858
5.614051635372501,1.40825717039108,2.78585313234329,-0.759650143146515,1.2145363176445858
5.614657328891581,2.8285037524223298,-0.29653700437545805,0.742027102947235,1.2145363176445858
5.61526302241066,-3.89192105226517,-1.2449647387504599,0.104951907634735,1.2145363176445858
5.615868715929739,-1.26218960695267,-1.0749183520317098,-1.78471850252151,1.2145363176445858
5.616474409448819,0.881352873516083,0.5177696362495421,2.22933423185349,1.2145363176445858
5.617080102967898,-0.232331208515167,2.0362120190620403,-1.1284831509590099,1.2145363176445858
5.6176857964869775,0.811897307109833,-3.95373182859421,0.253443118572235,1.2145363176445858
5.618291490006056,0.0430960375785828,1.21472031984329,-1.4661809048652599,1.2145363176445858
5.618897183525136,-0.38082241945266704,1.78952500734329,1.32401684904099,1.2145363176445858
5.619502877044216,3.78172152585983,0.235157331562042,1.22103100919724,1.2145363176445858
5.6201085705632945,-3.05845425539017,0.963243269062042,-1.23386401033401,1.2145363176445858
5.620714264082373,-3.9350314038276704,-3.51544325437546,0.591140872478485,1.2145363176445858
5.621319957601454,2.5722366625785797,1.16921494874954,-0.704564693927765,1.2145363176445858
5.621925651120533,-0.507758454608917,2.0721373120307898,0.945603763103485,1.2145363176445858
5.6225313446396115,1.0849295336723301,-1.20185438718796,-2.50082934236526,1.2145363176445858
5.623137038158692,0.505334807109833,-2.5191151293754603,0.845012942790985,1.2145363176445858
5.623742731677771,-0.9580221264839169,2.7666929760932897,-0.36926195955276503,1.2145363176445858
5.62434842519685,2.9075393969535797,2.72597764406204,-0.223165768146515,1.2145363176445858
5.624954118715929,-1.38433560304642,-1.6257728442192099,2.22933423185349,1.2145363176445858
5.625559812235009,-4.19848355226517,-1.80300428953171,-2.1655266079902598,1.2145363176445858
5.626165505754088,1.05618929929733,-0.902476945781708,0.809087649822235,1.2145363176445858
5.6267711992731675,1.07295443601608,2.8768638745307897,0.229492923259735,1.2145363176445858
5.627376892792246,0.787947111797333,-0.947982316875458,-0.910536373615265,1.2145363176445858
5.627982586311326,1.13043490476608,-3.20169569578171,-1.37517016267776,1.2145363176445858
5.628588279830406,-1.40349575929642,2.30205918703079,0.440254642009735,1.2145363176445858
5.6291939733494845,1.94713656492233,2.58946153078079,2.15987866544724,1.2145363176445858
5.629799666868565,0.864587736797333,-0.183971086406708,-0.474642818927765,1.2145363176445858
5.630405360387644,-4.26554409914017,-2.29398329343796,-0.927301510334015,1.2145363176445858
5.631011053906723,0.282597990703583,-1.5970326098442098,-0.0555144009590147,1.2145363176445858
5.631616747425802,1.36993685789108,2.59185655031204,0.751607181072235,1.2145363176445858
5.632222440944882,-0.747260407733917,0.570460065937042,0.282183352947235,1.2145363176445858
5.632828134463961,1.14720004148483,-3.71422987546921,-0.25909106111526503,1.2145363176445858
5.6334338279830405,-0.905331696796417,0.443524030780792,0.730052005290985,1.2145363176445858
5.634039521502119,0.399953947734833,3.4684336987495397,0.533660403728485,1.2145363176445858
5.634645215021199,2.4189554125785797,-0.38754774656295804,1.1635505404472402,1.2145363176445858
5.635250908540279,-2.80458218507767,-0.583939348125458,-1.01352221345901,1.2145363176445858
5.6358566020593575,-1.93279507570267,-1.96586561765671,-0.436322506427765,1.2145363176445858
5.636462295578436,1.41544222898483,0.716556257343292,0.591140872478485,1.2145363176445858
5.637067989097517,-0.6203243725776669,1.93801621828079,-0.12017992830276501,1.2145363176445858
5.637673682616596,0.5364700610160831,-2.6388661059379603,-0.797970455646515,1.2145363176445858
5.638279376135674,0.423904143047333,-0.46897841062545803,-0.527333248615265,1.2145363176445858
5.638885069654755,-0.8215060132026669,2.3116392651557898,1.0725397982597402,1.2145363176445858
5.639490763173834,3.7266360766410798,1.32728623781204,-0.321361568927765,1.2145363176445858
5.640096456692913,-2.47646450929642,-1.01504286375046,0.423489505290985,1.2145363176445858
5.640702150211992,-3.79612027101517,-2.1598621996879603,-1.0302873501777599,1.2145363176445858
5.641307843731072,1.7267947680473301,0.0675059643745422,0.600720950603485,1.2145363176445858
5.641913537250151,-0.045519685077667196,2.23978867921829,0.236677981853485,1.2145363176445858
5.6425192307692305,1.17115023679733,-1.03420302000046,-0.915326412677765,1.2145363176445858
5.643124924288309,0.459829436016083,-2.84723280515671,-1.0566325650215098,1.2145363176445858
5.643730617807389,-0.8215060132026669,2.26613389406204,-0.00282397127151467,1.2145363176445858
5.644336311326469,2.0070120532035802,3.38460801515579,1.7527253451347402,1.2145363176445858
5.644942004845547,-0.0527047436714172,-0.104935441875458,-0.09383471345901469,1.2145363176445858
5.645547698364626,-4.73736294679642,-2.98374891843796,-0.666244381427765,1.2145363176445858
5.646153391883707,0.783157072734833,-0.662974992656708,-0.199215572834015,1.2145363176445858
5.646759085402786,1.5759085375785802,2.55593125734329,1.06295972013474,1.2145363176445858
5.647364778921865,-0.388007478046417,-0.322882219219208,-0.24711596345901501,1.2145363176445858
5.647970472440945,2.16747836179733,-2.29158827390671,-1.98590014314651,1.2145363176445858
5.648576165960024,-1.2118941967964199,-0.330067277812958,1.9155866732597402,1.2145363176445858
5.6491818594791035,1.3364065844535802,4.29950547609329,0.401934329509735,1.2145363176445858
5.649787552998182,0.984338713359833,0.110616315937042,0.191172610759735,1.2145363176445858
5.650393246517262,-3.81049038820267,-2.55264540281296,-0.884191158771515,1.2145363176445858
5.650998940036342,-0.517338532733917,-1.02462294187546,-0.287831295490265,1.2145363176445858
5.65160463355542,1.8585208422660802,1.39913682374954,0.852198001384735,1.2145363176445858
5.652210327074499,-0.474228181171417,2.0362120190620403,-1.1069279751777599,1.2145363176445858
5.65281602059358,0.335288420391083,-4.08785292234421,0.08818677091598531,1.2145363176445858
5.653421714112659,0.672986174297333,0.0986412182807922,-1.5140812954902598,1.2145363176445858
5.654027407631737,-0.605954255390167,3.36305283937454,2.36345532560349,1.2145363176445858
5.654633101150818,2.7015677172660797,0.273477644062042,0.179197513103485,1.2145363176445858
5.655238794669897,-2.05254605226517,-2.04011122312546,-1.0566325650215098,1.2145363176445858
5.655844488188976,-2.80937222414017,-1.62337782468796,-0.00282397127151467,1.2145363176445858
5.656450181708055,1.79625033445358,0.888997663593292,0.104951907634735,1.2145363176445858
5.657055875227135,-0.6035592358589169,1.6146885815620402,0.607906009197235,1.2145363176445858
5.657661568746214,0.763996916484833,-0.926427141094208,-1.17877856111526,1.2145363176445858
5.658267262265293,0.553235197734833,-2.94542860593796,0.203147708415985,1.2145363176445858
5.658872955784372,-0.36166226320266703,3.0996006909370397,-0.398002193927765,1.2145363176445858
5.659478649303452,3.2907425219535797,2.1152476635932898,1.45574292325974,1.2145363176445858
5.660084342822532,-1.97111538820267,-1.24256971921921,0.150457278728485,1.2145363176445858
5.66069003634161,-3.6356539624214204,-1.6425379809379599,-0.666244381427765,1.2145363176445858
5.66129572986069,1.47052767820358,-0.38754774656295804,0.318108645915985,1.2145363176445858
5.66190142337977,-0.0646798413276672,2.00507676515579,0.631856204509735,1.2145363176445858
5.662507116898849,-0.0359396069526672,-1.11563368406296,-0.0770695767402647,1.2145363176445858
5.663112810417928,1.9734817797660802,-1.8652747973442099,-2.2685124478340097,1.2145363176445858
5.663718503937008,-1.08974820070267,-0.0187147387504578,2.9310749545097403,1.2145363176445858
5.664324197456087,1.3795169360160802,5.21919297609329,-1.35840502595901,1.2145363176445858
5.664929890975166,0.201167326641083,-0.7970960864067079,1.13960034513474,1.2145363176445858
5.665535584494245,-4.38769009523392,-3.48430800046921,-0.37884203767776503,1.2145363176445858
5.666141278013325,0.613110686016083,0.218392194843292,-1.3991203579902598,1.2145363176445858
5.666746971532405,1.2813211352348302,1.35602647218704,1.75512036466599,1.2145363176445858
5.667352665051483,0.26822787351608296,1.83982041749954,-1.93560473299026,1.2145363176445858
5.667958358570562,1.2765310961723302,-4.70097792234421,-0.0267741665840147,1.2145363176445858
5.668564052089643,0.37600375242233297,0.11780137453079201,-1.4374406704902598,1.2145363176445858
5.6691697456087216,0.0550711352348328,3.89235215578079,2.82808911466599,1.2145363176445858
5.6697754391278,0.7735769946098331,0.433943952655792,0.483364993572235,1.2145363176445858
5.670381132646881,-2.65609097414017,-2.25087294187546,-1.97392504549026,1.2145363176445858
5.67098682616596,-1.50887661867142,-2.02095106687546,1.3096467318534901,1.2145363176445858
5.6715925196850385,2.28004427976608,1.9188560620307902,-1.0781877408027598,1.2145363176445858
5.672198213204118,-0.512548493671417,1.59313340578079,0.600720950603485,1.2145363176445858
5.672803906723198,-0.026359528827667202,-1.7718690356254598,-1.1979387173652598,1.2145363176445858
5.673409600242277,0.907698088359833,-3.02685927000046,0.17201245450973499,1.2145363176445858
5.674015293761356,-0.20598599367141698,4.16298936281204,1.1036750521659902,1.2145363176445858
5.674620987280436,1.83936068601608,2.19428330812454,0.538450442790985,1.2145363176445858
5.675226680799515,-0.929281892108917,-3.33581678953171,-0.0363542447090147,1.2145363176445858
5.6758323743185946,-2.11242154054642,-0.629444719219208,-1.31529467439651,1.2145363176445858
5.676438067837673,1.01547396726608,-0.6581849535942079,1.14439038419724,1.2145363176445858
5.677043761356753,-0.21077603273391698,2.25894883546829,-1.00154711580276,1.2145363176445858
5.677649454875833,-0.026359528827667202,-0.8785267504692079,0.885728274822235,1.2145363176445858
5.6782551483949115,1.27413607664108,-3.0340443285942102,-1.6386223111152598,1.2145363176445858
5.678860841913991,-0.749655427265167,2.37869981203079,0.258233157634735,1.2145363176445858
5.679466535433071,1.39867709226608,2.96547959718704,1.0342194857597402,1.2145363176445858
5.68007222895215,0.7592068774223331,-1.06294325437546,-0.644689205646515,1.2145363176445858
5.680677922471229,-4.2751241772651705,-2.49995497312546,0.023521243572235298,1.2145363176445858
5.681283615990308,0.605925627422333,0.0028404370307922398,-0.948856686115265,1.2145363176445858
5.681889309509388,1.0370291430473302,1.6745640698432902,1.0869099154472401,1.2145363176445858
5.6824950030284676,-0.9771822827339169,1.3416563549995402,-1.3128996548652598,1.2145363176445858
5.683100696547546,1.6238089282035801,-4.03516249265671,-0.290226315021515,1.2145363176445858
5.683706390066625,0.265832853984833,0.34293321046829195,-0.443507565021515,1.2145363176445858
5.684312083585706,0.902908049297333,4.80245957765579,1.8724763216972402,1.2145363176445858
5.6849177771047845,0.411929045391083,-0.11691053953170799,1.2785114779472402,1.2145363176445858
5.685523470623863,-3.3554366772651703,-2.6221009692192103,-2.10804613924026,1.2145363176445858
5.686129164142944,-0.668224763202667,-1.89401503171921,1.9539069857597402,1.2145363176445858
5.686734857662023,1.9016311938285801,2.2948741284370398,-0.908141354084015,1.2145363176445858
5.6873405511811015,-0.483808259296417,1.2482505932807901,-0.10101977205276501,1.2145363176445858
5.687946244700182,1.0130789477348299,-3.12026503171921,-1.10213793611526,1.2145363176445858
5.688551938219261,1.18073031492233,-2.1095667895317103,-0.874611080646515,1.2145363176445858
5.68915763173834,-0.823901032733917,4.47913194093704,2.54547680997849,1.2145363176445858
5.689763325257419,0.732861662578583,2.29726914796829,-0.589603756427765,1.2145363176445858
5.690369018776499,-2.26330777101517,-4.46866102781296,-0.635109127521515,1.2145363176445858
5.690974712295578,-1.71963833742142,-0.524063859844208,-0.591998775959015,1.2145363176445858
5.6915804058146575,1.9567166430473302,1.00395860109329,0.191172610759735,1.2145363176445858
5.692186099333736,-0.20119595460891698,1.5045176831245402,0.255838138103485,1.2145363176445858
5.692791792852816,0.047886076641082805,-1.3479505785942099,-0.0818596158027647,1.2145363176445858
5.693397486371896,0.972363615703583,-3.63040419187546,-1.1931486783027598,1.2145363176445858
5.6940031798909745,-0.6394845288276669,3.9977330151557897,1.1970808138847402,1.2145363176445858
5.694608873410054,0.17242709226608302,2.3547496167182898,2.27962964200974,1.2145363176445858
5.695214566929134,0.330498381328583,-2.58378065671921,-2.2685124478340097,1.2145363176445858
5.695820260448213,-2.52196988039017,-1.32160536375046,0.06423657560348531,1.2145363176445858
5.696425953967292,0.646640959453583,0.254317487812042,0.251048099040985,1.2145363176445858
5.697031647486372,0.541260100078583,1.25304063234329,-0.450692623615265,1.2145363176445858
5.697637341005451,-0.811925935077667,0.529744733905792,0.263023196697235,1.2145363176445858
5.6982430345245305,1.82978060789108,-3.2903114184379603,-0.841080807209015,1.2145363176445858
5.698848728043609,-0.160480622577667,0.8003819409370421,0.562400638103485,1.2145363176445858
5.699454421562689,1.01068392820358,4.71863389406204,0.0929768099784853,1.2145363176445858
5.700060115081769,-0.24191128664016698,-1.8964100512504598,0.806692630290985,1.2145363176445858
5.7006658086008475,-3.4584225171089202,-1.9131751879692098,-0.953646725177765,1.2145363176445858
5.701271502119926,0.711306486797333,0.0459507885932922,-0.194425533771515,1.2145363176445858
5.701877195639007,0.850217619609833,0.603990339374542,0.924048587322235,1.2145363176445858
5.702482889158086,-0.395192536640167,2.0481871167182897,-1.01112719392776,1.2145363176445858
5.7030885826771645,0.9771536547660831,-4.20760389890671,-1.03747240877151,1.2145363176445858
5.703694276196245,1.1615701586723302,-0.39712782468795804,-0.591998775959015,1.2145363176445858
5.704299969715324,0.0550711352348328,4.49110703859329,3.47234936857224,1.2145363176445858
5.704905663234403,0.249067717266083,1.47338242921829,-1.9068644986152599,1.2145363176445858
5.705511356753482,-3.01534390382767,-4.05671766843796,-0.295016354084015,1.2145363176445858
5.706117050272562,-1.37715054445267,-1.1347938403129598,0.754002200603485,1.2145363176445858
5.706722743791641,2.08844271726608,2.3906749096870397,-1.60509203767776,1.2145363176445858
5.7073284373107205,-0.847851228046417,1.1716099682807901,0.777952395915985,1.2145363176445858
5.707934130829799,1.2046805102348301,-1.08928846921921,-1.65299242830276,1.2145363176445858
5.708539824348879,1.3244314867973301,-4.57643690671921,-0.0698845181465147,1.2145363176445858
5.709145517867959,-0.43111782960891704,4.60606797609329,0.241468020915985,1.2145363176445858
5.7097512113870375,0.48856967039108296,3.07086045656204,0.854593020915985,1.2145363176445858
5.710356904906118,-1.6525777905464198,-4.15730848875046,-0.556073482990265,1.2145363176445858
5.710962598425197,-1.3699654858589199,-0.952772355937958,-0.431532467365265,1.2145363176445858
5.711568291944276,1.70763461179733,0.9416880932807921,0.296553470134735,1.2010391320850375
5.712173985463355,-0.26107144289016704,1.47577744874954,-0.0411442837715147,1.2010391320850375
5.712779678982435,-0.45027798585891704,-0.186366105937958,-0.208795650959015,1.2010391320850375
5.713385372501514,1.84415072507858,-4.12377821531296,-0.48901293611526503,1.2010391320850375
5.7139910660205935,-0.488598298358917,2.0362120190620403,0.730052005290985,1.2010391320850375
5.714596759539672,-0.507758454608917,4.77132432374954,-0.302201412677765,1.2010391320850375
5.715202453058752,0.541260100078583,-3.3669520434379603,0.174407474040985,1.2010391320850375
5.715808146577832,-2.1220016186714203,-1.69283339109421,-0.7931804165840151,1.2010391320850375
5.7164138400969104,0.31612826414108297,0.711766218280792,-0.0698845181465147,1.2010391320850375
5.717019533615989,0.29936312742233295,0.831517194843292,0.375589114665985,1.2010391320850375
5.71762522713507,-0.874196442890167,1.55241807374954,-0.771625240802765,1.2010391320850375
5.718230920654149,1.7339798266410802,-4.36807020750046,-0.0722795376777647,1.2010391320850375
5.718836614173227,0.5987405688285831,1.0255137768745402,-0.965621822834015,1.2010391320850375
5.719442307692308,-0.486203278827667,4.70186875734329,1.09648999357224,1.2010391320850375
5.720048001211387,1.06097933835983,-1.2377796801567098,0.361218997478485,1.2010391320850375
5.720653694730466,-2.65609097414017,-2.75622206296921,-0.774020260334015,1.2010391320850375
5.721259388249545,-0.790370759296417,-0.682135148906708,0.109741946697235,1.2010391320850375
5.721865081768625,1.3459866625785801,1.4709874096870401,-0.0746745572090147,1.2010391320850375
5.722470775287704,-0.675409821796417,1.57876328859329,0.751607181072235,1.2010391320850375
5.7230764688067834,1.74834994382858,-1.64972303953171,-1.45660082674026,1.2010391320850375
5.723682162325862,0.543655119609833,-3.84356093015671,1.4198176302909902,1.2010391320850375
5.724287855844942,0.610715666484833,5.286253522968289,0.514500247478485,1.2010391320850375
5.724893549364022,-0.24191128664016698,2.03381699953079,0.33008374357223497,1.2010391320850375
5.7254992428831,-2.6704610913276703,-4.75127333250046,-0.14173510408401502,1.2010391320850375
5.726104936402179,-0.5987691967964169,-0.128885637187958,-0.453087643146515,1.2010391320850375
5.72671062992126,0.965178557109833,0.654285749530792,0.603115970134735,1.2010391320850375
5.727316323440339,0.07423129148483279,2.02184190187454,-0.544098385334015,1.2010391320850375
5.727922016959418,0.783157072734833,-1.4078260668754599,0.540845462322235,1.2010391320850375
5.728527710478498,1.8848660571098301,-4.29142958250046,-1.8900993618965098,1.2010391320850375
5.729133403997577,-0.447882966327667,3.43969346437454,1.2401911654472402,1.2010391320850375
5.729739097516656,-0.572423981952667,4.92939561281204,0.322898684978485,1.2010391320850375
5.730344791035735,-0.795160798358917,-4.593202043437961,-0.0818596158027647,1.2010391320850375
5.730950484554815,-1.50887661867142,-1.66169813718796,-0.0674894986152647,1.2010391320850375
5.731556178073895,1.3579617602348302,1.48056748781204,-1.01112719392776,1.2010391320850375
5.732161871592973,0.205957365703583,0.49860947999954197,0.789927493572235,1.2010391320850375
5.732767565112052,-1.13285855226517,1.31291612062454,-1.1668034634590099,1.2010391320850375
5.733373258631133,1.53279818601608,-5.03388563718796,-0.10580981111526501,1.2010391320850375
5.733978952150212,0.7376517016410831,1.51170274171829,0.253443118572235,1.2010391320850375
5.73458464566929,-1.06819302492142,5.2670933667182895,1.20426587247849,1.2010391320850375
5.735190339188371,0.14847689695358302,-3.25917616453171,-0.163290279865265,1.2010391320850375
5.73579603270745,-1.1352535717964198,-1.6736732348442098,-1.40870043611526,1.2010391320850375
5.7364017262265286,-0.09342007570266721,0.606385358905792,0.768372317790985,1.2010391320850375
5.737007419745608,0.40713900632858296,0.244737409687042,-0.340521725177765,1.2010391320850375
5.737613113264688,-0.833481110858917,1.71288438234329,-0.31896654939651503,1.2010391320850375
5.738218806783767,1.14959506101608,-2.81609755125046,-0.999152096271515,1.2010391320850375
5.738824500302846,1.1232498461723301,-0.9934876879692079,0.567190677165985,1.2010391320850375
5.739430193821925,-0.809530915546417,5.45150987062454,0.07860669279098531,1.2010391320850375
5.740035887341005,0.7783670336723331,-0.490533586406708,-0.0842546353340147,1.2010391320850375
5.740641580860085,-1.76993374757767,-3.5465785082817103,0.251048099040985,1.2010391320850375
5.741247274379163,-0.7999508374214169,0.47944932374954197,-0.666244381427765,1.2010391320850375
5.741852967898244,1.0466092211723301,0.08427110109329221,0.986319095134735,1.2010391320850375
5.742458661417323,-0.8813815014839169,1.6290586987495401,-0.362076900959015,1.2010391320850375
5.7430643549364015,1.62620394773483,-1.68325331296921,-0.405187252521515,1.2010391320850375
5.743670048455481,1.2430008227348301,-3.69746473875046,-0.659059322834015,1.2010391320850375
5.744275741974561,0.251462736797333,4.80964463624954,0.888123294353485,1.2010391320850375
5.74488143549364,-0.455068024921417,3.10199571046829,1.41742261075974,1.2010391320850375
5.745487129012719,-2.0142257397651697,-4.03995253171921,-1.7056828579902599,1.2010391320850375
5.746092822531798,-1.1352535717964198,-1.4389613207817098,1.2401911654472402,1.2010391320850375
5.746698516050878,1.49208285398483,1.5093077221870401,-0.941671627521515,1.2010391320850375
5.747304209569958,0.08141635007858279,1.09975938234329,-0.0674894986152647,1.2010391320850375
5.747909903089036,-0.24670132570266698,-0.181576066875458,-0.165685299396515,1.2010391320850375
5.748515596608115,2.69917269773483,-4.4926112231254605,-1.6673625454902599,1.2010391320850375
5.749121290127196,0.330498381328583,2.16075303468704,2.68199292325974,1.2010391320850375
5.7497269836462745,-1.6142574780464198,6.72566026124954,-0.948856686115265,1.2010391320850375
5.750332677165353,-0.986762360858917,-5.03388563718796,1.2018708529472402,1.2010391320850375
5.750938370684434,-0.855036286640167,-1.57787245359421,-0.204005611896515,1.2010391320850375
5.751544064203513,1.1184598071098302,1.99070664796829,-0.647084225177765,1.2010391320850375
5.7521497577225915,0.450249357891083,-0.107330461406708,1.22103100919724,1.2010391320850375
5.752755451241671,-0.9197018139839169,1.89490586671829,-0.896166256427765,1.2010391320850375
5.753361144760751,1.1615701586723302,-4.80635878171921,-0.393212154865265,1.2010391320850375
5.75396683827983,1.4346023852348302,0.733321394062042,-0.702169674396515,1.2010391320850375
5.754572531798909,-1.97590542726517,5.50180528078079,2.19340893888474,1.2010391320850375
5.755178225317989,0.342473478984833,-2.42331434812546,-0.587208736896515,1.2010391320850375
5.755783918837068,-0.275441560077667,-2.84244276609421,-0.728514889240265,1.2010391320850375
5.7563896123561475,-0.665829743671417,1.1404747143745402,-0.11299486970901501,1.2010391320850375
5.756995305875226,0.5556302172660831,-0.210316301250458,0.303738528728485,1.2010391320850375
5.757600999394306,-1.1400436108589198,1.52367783937454,0.06663159513473531,1.2010391320850375
5.758206692913386,1.06097933835983,-1.9514955004692098,-1.27218432283401,1.2010391320850375
5.7588123864324645,1.13761996335983,-2.82567762937546,0.674966556072235,1.2010391320850375
5.759418079951544,-0.637089509296417,6.94600205812454,-0.479432857990265,1.2010391320850375
5.760023773470624,-0.40956265382766704,-0.962352434062958,2.10958325529099,1.2010391320850375
5.760629466989703,-0.826296052265167,-3.75734022703171,-1.4206755337715098,1.2010391320850375
5.761235160508782,-1.01071255617142,1.06143906984329,-0.11538988924026501,1.2010391320850375
5.761840854027861,0.608320646953583,-0.26779677000045804,0.914468509197235,1.2010391320850375
5.762446547546941,-0.00240933351516723,2.08411240968704,-0.970411861896515,1.2010391320850375
5.7630522410660205,0.196377287578583,-2.0928016528129603,0.46899487638473497,1.2010391320850375
5.763657934585099,2.8644290453910797,-2.53588026609421,-2.03140551424026,1.2010391320850375
5.764263628104179,-0.110185212421417,2.78824815187454,3.83160229825974,1.2010391320850375
5.764869321623259,-1.30290493898392,5.27906846437454,-1.57635180330276,1.2010391320850375
5.7654750151423375,-1.62144253664017,-4.79677870359421,-0.520148190021515,1.2010391320850375
5.766080708661416,-1.31248501710892,-1.95389052000046,1.0318244662284901,1.2010391320850375
5.766686402180497,1.6453641039848301,2.54156114015579,-1.7272380337715099,1.2010391320850375
5.767292095699576,-0.570028962421417,-0.37796766843795804,1.5012482943534902,1.2010391320850375
5.7678977892186545,-0.637089509296417,1.8086851635932901,-1.62664721345901,1.2010391320850375
5.768503482737735,2.50757113523483,-5.94638807859421,0.138482181072235,1.2010391320850375
5.769109176256814,1.08971957273483,1.62187364015579,0.15764233732223498,1.2010391320850375
5.769714869775893,-2.42616909914017,6.8765464917182895,0.662991458415985,1.2010391320850375
5.770320563294972,-0.9388619702339169,-4.61475721921921,0.804297610759735,1.2010391320850375
5.770926256814052,-0.0814449780464172,-1.95389052000046,-0.568048580646515,1.2010391320850375
5.771531950333131,0.136501799297333,2.03142197999954,-0.256696041584015,1.2010391320850375
5.7721376438522105,0.843032561016083,-0.188761125469208,0.16722241544723498,1.2010391320850375
5.772743337371289,-1.31248501710892,1.77275987062454,-0.821920650959015,1.2010391320850375
5.773349030890369,1.13282992429733,-3.81721571531296,-0.872216061115265,1.2010391320850375
5.773954724409449,1.82978060789108,-1.6042176684379599,1.48687817716599,1.2010391320850375
5.7745604179285275,-2.55310513429642,7.10886338624954,-0.0603044400215147,1.2010391320850375
5.775166111447606,-0.20119595460891698,-2.2293177660942103,0.507315188884735,1.2010391320850375
5.775771804966687,0.14847689695358302,-3.90343641843796,-0.647084225177765,1.2010391320850375
5.776377498485766,-0.304181794452667,1.69372422609329,-0.405187252521515,1.2010391320850375
5.776983192004845,0.27780795164108296,-0.809071184062958,1.0342194857597402,1.2010391320850375
5.777588885523925,-1.02029263429642,2.1583580151557897,-1.32008471345901,1.2010391320850375
5.778194579043004,0.670591154766083,-2.08801161375046,0.368404056072235,1.2010391320850375
5.7788002725620835,1.8465457446098301,-2.33709364500046,-0.225560787677765,1.2010391320850375
5.779405966081162,-0.9795773022651669,5.81076280031204,-0.20640063142776502,1.2010391320850375
5.780011659600242,-0.747260407733917,-0.009134660625457761,1.3719172396659902,1.2010391320850375
5.780617353119322,-0.586794099140167,-3.60166395750046,-0.862635982990265,1.2010391320850375
5.7812230466384005,-0.773605622577667,0.910552839374542,-0.235140865802765,1.2010391320850375
5.781828740157479,0.335288420391083,-0.392337785625458,1.5730988802909902,1.2010391320850375
5.78243443367656,-0.397587556171417,1.71527940187454,-0.467457760334015,1.2010391320850375
5.783040127195639,-0.105395173358917,-0.6557899340629579,-0.740489986896515,1.2010391320850375
5.7836458207147174,2.46446078367233,-4.46387098875046,-0.251906002521515,1.2010391320850375
5.784251514233798,0.785552092266083,3.06846543703079,1.48208813810349,1.2010391320850375
5.784857207752877,-1.8106490796089199,6.05026475343704,-0.417162350177765,1.2010391320850375
5.785462901271956,-1.5495919507026699,-5.22069716062546,0.670176517009735,1.2010391320850375
5.786068594791035,-0.632299470233917,-1.40543104734421,-1.01591723299026,1.2010391320850375
5.786674288310115,0.613110686016083,1.81826524171829,0.0259162631034853,1.2010391320850375
5.787279981829194,-0.30178677492141703,-0.236661516094208,0.502525149822235,1.2010391320850375
5.7878856753482735,-1.4313983917225401e-05,2.75471787843704,-1.95236986970901,1.2010391320850375
5.788491368867352,1.06097933835983,-6.4086268481254605,0.44983472013473497,1.2010391320850375
5.789097062386432,2.3686600024223297,0.9177378979682921,-1.07100268220901,1.2010391320850375
5.789702755905512,-2.9866036694526703,6.97234727296829,1.87966138029099,1.2010391320850375
5.79030844942459,-1.65018277101517,-3.34539686765671,-0.25909106111526503,1.2010391320850375
5.790914142943671,0.847822600078583,-3.05559950437546,-0.000428951740264675,1.2010391320850375
5.79151983646275,-0.35926724367141705,2.03142197999954,-0.457877682209015,1.2010391320850375
5.792125529981829,1.02026400632858,-0.14804579343795798,0.562400638103485,1.2010391320850375
5.792731223500908,-1.3747555249214198,1.31291612062454,0.342058841228485,1.2010391320850375
5.793336917019988,0.742441740703583,-2.5981507739067102,-1.9332097134590098,1.2010391320850375
5.793942610539067,2.44769564695358,-3.43880262937546,1.70003491544724,1.2010391320850375
5.7945483040581465,-1.99267056398392,7.73396348390579,-0.814735592365265,1.2010391320850375
5.795153997577225,-1.4130758374214198,-0.763565812969208,1.86289624357224,1.2010391320850375
5.795759691096305,1.23342074460983,-4.51416639890671,-0.860240963459015,1.2010391320850375
5.796365384615385,-0.222751130390167,1.25783067140579,-0.0794645962715147,1.2010391320850375
5.796971078134463,0.301758146953583,-0.0187147387504578,0.416304446697235,1.2010391320850375
5.797576771653542,-0.991552399921417,1.83503037843704,-1.1069279751777599,1.2010391320850375
5.798182465172623,0.08141635007858279,-1.9251502856254599,0.967158938884735,1.2010391320850375
5.798788158691702,2.90993441648483,-2.66281630125046,-1.66975756502151,1.2010391320850375
5.79939385221078,-1.18794400148392,4.97969102296829,1.71201001310349,1.2010391320850375
5.799999545729861,-1.59509732179642,1.7104893628120401,0.471389895915985,1.2010391320850375
5.80060523924894,0.20835238523483302,-4.46387098875046,-1.37038012361526,1.2010391320850375
5.801210932768019,-0.823901032733917,0.592015241718292,0.538450442790985,1.2010391320850375
5.801816626287098,0.07183627195358279,0.5177696362495421,-0.00282397127151467,1.2010391320850375
5.802422319806178,0.373608732891083,1.1668199292182901,-0.0195891079902647,1.2010391320850375
5.803028013325257,-0.323341950702667,0.37167344484329196,-0.548888424396515,1.2010391320850375
5.803633706844336,2.1698733813285798,-5.2781776293754605,-0.809945553302765,1.2010391320850375
5.804239400363415,1.33161654539108,2.8169883862495397,0.361218997478485,1.2010391320850375
5.804845093882495,-2.37347866945267,6.01673447999954,1.44855786466599,1.2010391320850375
5.805450787401575,-1.4513961499214199,-4.15730848875046,0.100161868572235,1.2010391320850375
5.806056480920653,-0.529313630390167,-2.3323036059379603,0.0354963412284853,1.2010391320850375
5.806662174439732,0.507729826641083,1.62187364015579,-0.395607174396515,1.2010391320850375
5.807267867958813,0.352053557109833,0.223182233905792,-0.204005611896515,1.2010391320850375
5.807873561477892,-0.510153474140167,1.9787315503120402,-0.165685299396515,1.2010391320850375
5.808479254996971,1.65973422117233,-3.84356093015671,-1.6026970181465099,1.2010391320850375
5.809084948516051,2.0525174242973296,-1.9131751879692098,0.964763919353485,1.2010391320850375
5.80969064203513,-2.60340054445267,8.13632676515579,0.0570515170097353,1.2010391320850375
5.810296335554209,-1.9471651928901699,-2.86878798093796,1.44376782560349,1.2010391320850375
5.810902029073288,1.55195834226608,-3.8291908129692103,-0.968016842365265,1.2010391320850375
5.811507722592368,-0.256281403827667,2.36672471437454,-0.807550533771515,0.6703960780710096
5.812113416111448,0.34726351804733296,-0.6797401293754579,0.574375735759735,0.6703960780710096
5.812719109630526,-0.268256501483917,2.45534043703079,-0.896166256427765,0.6703960780710096
5.813324803149605,-0.124555329608917,-2.5718055590629603,1.0270344271659901,0.6703960780710096
5.813930496668686,3.38893832273483,-2.89034315671921,-0.278251217365265,0.6703960780710096
5.814536190187765,-2.11960659914017,5.51857041749954,1.2186359896659902,0.6703960780710096
5.815141883706843,-2.45490933351517,1.09257432374954,-0.12736498689651501,0.6703960780710096
5.815747577225924,1.8752859789848302,-4.56685682859421,0.109741946697235,0.6703960780710096
5.816353270745003,-0.00959439210891722,1.03509385499954,0.603115970134735,0.6703960780710096
5.8169589642640815,-0.165270661640167,0.465079206562042,-0.656664303302765,0.6703960780710096
5.817564657783161,-0.708940095233917,0.443524030780792,0.605510989665985,0.6703960780710096
5.818170351302241,-0.258676423358917,0.242342390155792,-0.623134029865265,0.6703960780710096
5.81877604482132,2.63929720945358,-4.39441542234421,0.416304446697235,0.6703960780710096
5.819381738340399,-0.24191128664016698,4.42644151124954,-0.290226315021515,0.6703960780710096
5.819987431859479,-2.52196988039017,2.76429795656204,1.22582104825974,0.6703960780710096
5.820593125378558,0.7137015063285831,-4.35609510984421,-0.424347408771515,0.6703960780710096
5.821198818897638,0.198772307109833,0.6997911206245421,-0.623134029865265,0.6703960780710096
5.821804512416716,-0.910121735858917,0.263897565937042,0.727656985759735,0.6703960780710096
5.822410205935796,0.323313322734833,0.831517194843292,-0.752465084552765,0.6703960780710096
5.823015899454876,-0.378427399921417,1.08778428468704,0.22230786466598498,0.6703960780710096
5.8236215929739545,1.79625033445358,-3.8723011645317102,-1.5260563931465099,0.6703960780710096
5.824227286493034,1.82259554929733,0.031580671405792196,1.19468579435349,0.6703960780710096
5.824832980012114,-2.7638668530464203,6.9962974682807895,0.284578372478485,0.6703960780710096
5.825438673531193,-1.54001187257767,-3.1011048754692103,0.114531985759735,0.6703960780710096
5.826044367050272,0.443064299297333,-3.29989149656296,0.634251224040985,0.6703960780710096
5.826650060569351,0.23709261960983302,2.60622666749954,-0.812340572834015,0.6703960780710096
5.827255754088431,-0.124555329608917,-1.10126356687546,0.677361575603485,0.6703960780710096
5.827861447607511,-0.277836579608917,2.50324082765579,-1.3631950650215099,0.6703960780710096
5.828467141126589,1.3196414477348302,-3.8291908129692103,0.22709790372848498,0.6703960780710096
5.829072834645668,2.8979593188285797,-2.71550673093796,-0.0291691861152647,0.6703960780710096
5.829678528164749,-2.65130093507767,7.88963975343704,-0.10101977205276501,0.6703960780710096
5.8302842216838275,-3.30035122804642,-2.19339247312546,1.9107966341972402,0.6703960780710096
5.830889915202906,2.31117953367233,-4.07587782468796,-1.72484301424026,0.6703960780710096
5.831495608721987,-0.00959439210891722,2.60143662843704,-0.587208736896515,0.6703960780710096
5.832101302241066,-0.21077603273391698,-0.40910292234420803,-0.0291691861152647,0.6703960780710096
5.8327069957601445,-0.13174038820266698,0.833912214374542,-0.194425533771515,0.6703960780710096
5.833312689279225,-0.344897126483917,-1.18748427000046,0.210332767009735,0.6703960780710096
5.833918382798304,3.3673831469535798,-3.30947157468796,-0.21119067049026502,0.6703960780710096
5.834524076317383,-1.58072720460892,4.6946836987495395,0.538450442790985,0.6703960780710096
5.835129769836462,-3.15186001710892,2.3212193432807897,-0.12736498689651501,0.6703960780710096
5.835735463355542,2.19861361570358,-5.24225233640671,0.234282962322235,0.6703960780710096
5.836341156874621,0.661011076641083,0.972823347187042,-0.474642818927765,0.6703960780710096
5.8369468503937005,-0.8574313061714169,0.493819440937042,-0.160895260334015,0.6703960780710096
5.837552543912779,-0.213171052265167,-0.049849992656707795,-0.160895260334015,0.6703960780710096
5.838158237431859,-0.41195767335891703,1.1572398510932902,-0.273461178302765,0.6703960780710096
5.838763930950939,2.52433627195358,-3.94175673093796,0.0187312045097353,0.6703960780710096
5.8393696244700175,0.790342131328583,2.97505967531204,0.239073001384735,0.6703960780710096
5.839975317989097,-3.56619839601517,3.45645860109329,1.0701447787284901,0.6703960780710096
5.840581011508177,0.7160965258598331,-4.36088514890671,-0.692589596271515,0.6703960780710096
5.841186705027256,0.708911467266083,-0.102540422344208,0.301343509197235,0.6703960780710096
5.841792398546335,-1.03945279054642,1.08778428468704,-0.09143969392776469,0.6703960780710096
5.842398092065414,0.6394559008598331,0.031580671405792196,-0.771625240802765,0.6703960780710096
5.843003785584494,-0.605954255390167,1.1237095776557902,-0.297411373615265,0.6703960780710096
5.8436094791035735,2.1890335375785797,-3.1609803637504603,-0.833895748615265,0.6703960780710096
5.844215172622652,2.6153470141410797,-0.746800676250458,1.32401684904099,0.6703960780710096
5.844820866141732,-2.88122281007767,7.59265733156204,-1.1332731900215098,0.6703960780710096
5.845426559660812,-2.49562466554642,-3.13224012937546,1.25935132169724,0.6703960780710096
5.8460322531798905,1.5040579516410801,-3.15140028562546,0.567190677165985,0.6703960780710096
5.846637946698969,0.0287259203910828,3.55944444093704,-1.6242521939277599,0.6703960780710096
5.84724364021805,-0.644274567890167,-1.7383387621879598,0.902493411540985,0.6703960780710096
5.847849333737129,0.07423129148483279,2.14398789796829,-1.2099138150215099,0.6703960780710096
5.8484550272562075,0.680171232891083,-3.31186659421921,0.260628177165985,0.6703960780710096
5.849060720775288,3.35540804929733,-3.1011048754692103,-0.007614010334014669,0.6703960780710096
5.849666414294367,-2.6800411694526702,7.66450791749954,0.423489505290985,0.6703960780710096
5.850272107813446,-3.9110812085151703,-0.411497941875458,1.25935132169724,0.6703960780710096
5.850877801332525,3.2500271899223296,-5.02670057859421,-0.968016842365265,0.6703960780710096
5.851483494851605,-0.19161587648391698,1.82305528078079,-0.220770748615265,0.6703960780710096
5.852089188370684,-0.814320954608917,0.426758894062042,-0.512963131427765,0.6703960780710096
5.8526948818897635,0.246672697734833,0.627940534687042,0.768372317790985,0.6703960780710096
5.853300575408842,-0.816715974140167,-0.210316301250458,-0.304596432209015,0.6703960780710096
5.853906268927922,3.2907425219535797,-4.41597059812546,-0.129760006427765,0.6703960780710096
5.854511962447002,-0.730495271015167,3.9642027417182897,0.662991458415985,0.6703960780710096
5.8551176559660805,-4.1290279858589205,3.30317735109329,0.418699466228485,0.6703960780710096
5.855723349485159,1.91600131101608,-5.08418104734421,-0.0794645962715147,0.6703960780710096
5.85632904300424,1.06576937742233,0.615965437030792,-0.611158932209015,0.6703960780710096
5.856934736523319,-1.21428921632767,0.7021861401557921,0.540845462322235,0.6703960780710096
5.857540430042398,-0.09581509523391721,0.0579258862495422,-1.01831225252151,0.6703960780710096
5.858146123561478,-0.8813815014839169,0.6183604565620421,0.423489505290985,0.6703960780710096
5.858751817080557,2.7877884203910797,-3.1011048754692103,-0.376447018146515,0.6703960780710096
5.8593575105996365,1.51363802976608,2.43857530031204,0.44983472013473497,0.6703960780710096
5.859963204118715,-3.8416256421089203,4.02407822999954,1.26414136075974,0.6703960780710096
5.860568897637795,0.20835238523483302,-3.83158583250046,-1.7487932095527599,0.6703960780710096
5.861174591156875,1.32922152585983,-1.68325331296921,1.3719172396659902,0.6703960780710096
5.8617802846759535,-1.0370577710151698,2.41223008546829,-1.0302873501777599,0.6703960780710096
5.862385978195032,0.193982268047333,-0.100145402812958,0.375589114665985,0.6703960780710096
5.862991671714113,-0.45027798585891704,0.8602574292182921,0.706101809978485,0.6703960780710096
5.863597365233192,2.13155306882858,-2.65563124265671,-1.97871508455276,0.6703960780710096
5.86420305875227,2.5985818774223297,-1.45333143796921,0.579165774822235,0.6703960780710096
5.864808752271351,-2.53873501710892,7.53996690187454,0.0474714388847353,0.6703960780710096
5.86541444579043,-3.12551480226517,-2.0353211840629597,1.23300610685349,0.6703960780710096
5.866020139309509,1.54477328367233,-3.65195936765671,-0.699774654865265,0.6703960780710096
5.866625832828588,-0.273046540546417,1.87095567140579,0.344453860759735,0.6703960780710096
5.867231526347668,-0.46225308351516703,-0.29893202390670803,-0.342916744709015,0.6703960780710096
5.867837219866747,0.25864779539108296,1.89969590578079,-0.215980709552765,0.6703960780710096
5.8684429133858265,0.07662631101608279,-2.2628480395317103,-0.0650944790840147,0.6703960780710096
5.869048606904905,4.0403836352348295,-2.80412245359421,-0.505778072834015,0.6703960780710096
5.869654300423985,-2.35910855226517,5.6526915112495395,1.25935132169724,0.6703960780710096
5.870259993943065,-4.85711392335892,0.0507408276557922,0.928838626384735,0.6703960780710096
5.870865687462143,2.18424349851608,-4.32256483640671,-0.594393795490265,0.6703960780710096
5.871471380981224,0.8741678149223331,2.45294541749954,-0.934486568927765,0.6703960780710096
5.872077074500303,-0.831086091327667,0.031580671405792196,0.210332767009735,0.6703960780710096
5.872682768019382,0.31612826414108297,0.524954694843292,-0.601578854084015,0.6703960780710096
5.873288461538461,-1.0322677319526699,-0.104935441875458,0.7037067904472349,0.6703960780710096
5.873894155057541,2.79018343992233,-3.60405897703171,-0.625529049396515,0.6703960780710096
5.87449984857662,0.452644377422333,3.4923838940620398,-0.227955807209015,0.6703960780710096
5.8751055420956995,-5.38880825929642,2.85530869874954,1.6114191927909902,0.6703960780710096
5.875711235614778,2.05730746335983,-3.8627210864067103,-1.25062914705276,0.6703960780710096
5.876316929133858,2.29441439695358,-0.641419816875458,1.0437995638847402,0.6703960780710096
5.876922622652938,-1.93279507570267,1.53565293703079,-0.740489986896515,0.6703960780710096
5.877528316172016,0.392768889141083,-0.0594300707817078,-0.271066158771515,0.6703960780710096
5.878134009691095,-1.14483364992142,0.46028916749954196,0.694126712322235,0.6703960780710096
5.878739703210176,2.22735385007858,-1.9514955004692098,-1.27218432283401,0.6703960780710096
5.879345396729255,1.8154104907035802,-0.188761125469208,2.08323804044724,0.6703960780710096
5.879951090248333,-3.79612027101517,5.4467198315620395,-0.826710690021515,0.6703960780710096
5.880556783767414,-0.28023159914016704,-3.30468153562546,0.239073001384735,0.6703960780710096
5.881162477286493,2.12676302976608,-2.19818251218796,0.811482669353485,0.6703960780710096
5.881768170805572,-0.8981466382026669,2.8433336010932897,-1.3033195767402599,0.6703960780710096
5.882373864324651,-0.426327790546417,-1.3192103442192098,0.629461184978485,0.6703960780710096
5.882979557843731,-0.09821011476516721,1.45422227296829,-0.752465084552765,0.6703960780710096
5.88358525136281,1.17354525632858,-2.8544178637504602,-0.230350826740265,0.6703960780710096
5.884190944881889,4.10265414304733,-1.46530653562546,-0.0555144009590147,0.6703960780710096
5.884796638400968,-3.07521939210892,5.96404405031204,0.560005618572235,0.6703960780710096
5.885402331920048,-4.03083218507767,-0.943192277812958,-0.0387492642402647,0.6703960780710096
5.886008025439128,2.68240756101608,-3.34300184812546,0.864173099040985,0.6703960780710096
5.886613718958206,-0.122160310077667,1.89969590578079,-0.11059985017776501,0.6703960780710096
5.887219412477286,-0.850246247577667,-0.20313124265670798,-1.1284831509590099,0.6703960780710096
5.887825105996366,0.0886014086723328,0.546509870624542,0.825852786540985,0.6703960780710096
5.888430799515445,-0.251491364765167,-0.902476945781708,-0.865031002521515,0.6703960780710096
5.889036493034524,4.02361849851608,-4.1932337817192105,1.1204401888847402,0.6703960780710096
5.889642186553604,-1.9351900952339198,5.54491563234329,0.12171704435348499,0.6703960780710096
5.890247880072683,-5.43910366945267,1.57157822999954,1.71201001310349,0.6703960780710096
5.890853573591762,3.13985629148483,-4.6195472582817105,-0.824315670490265,0.6703960780710096
5.891459267110841,0.943623381328583,0.7788267651557921,-0.781205318927765,0.6703960780710096
5.892064960629921,-1.6094674389839199,0.7405064526557921,0.0139411654472353,0.6703960780710096
5.892670654149001,0.342473478984833,0.572855085468292,-0.898561275959015,0.6703960780710096
5.893276347668079,-0.972392243671417,0.38125352296829196,0.39953930997848497,0.6703960780710096
5.893882041187158,2.5650516039848297,-3.41485243406296,-0.922511471271515,0.6703960780710096
5.894487734706239,0.809502287578583,0.874627546405792,0.775557376384735,0.6703960780710096
5.895093428225318,-4.89064419679642,4.92939561281204,0.310923587322235,0.6703960780710096
5.895699121744396,1.43220736570358,-3.2807313403129603,0.00436108732223533,0.6703960780710096
5.896304815263477,2.6488772875785798,-1.4461463793754599,0.0307063021659853,0.6703960780710096
5.896910508782556,-1.5280367749214199,1.48056748781204,-0.357286861896515,0.6703960780710096
5.8975162023016345,-0.21556607179641699,-0.540828996562958,-0.577628658771515,0.6703960780710096
5.898121895820714,-0.845456208515167,0.493819440937042,0.169617434978485,0.6703960780710096
5.898727589339794,2.15789828367233,-1.95389052000046,-0.124969967365265,0.6703960780710096
5.899333282858873,2.6249270922660797,0.0962461987495422,0.492945071697235,0.6703960780710096
5.899938976377952,-4.35655484132767,4.68989365968704,0.265418216228485,0.6703960780710096
5.900544669897032,-1.2071041577339199,-2.67718641843796,-0.539308346271515,0.6703960780710096
5.901150363416111,2.5650516039848297,-2.72748182859421,0.502525149822235,0.6703960780710096
5.901756056935191,-1.21907925539017,2.6373619214057897,-0.905746334552765,0.6703960780710096
5.902361750454269,-0.548473786640167,-0.45700331296920804,0.0977668490409853,0.6703960780710096
5.902967443973349,0.191587248516083,0.932108015155792,-0.0195891079902647,0.6703960780710096
5.903573137492429,1.05379427976608,-1.75270887937546,-0.752465084552765,0.6703960780710096
5.9041788310115075,3.2141018969535797,-2.25805800046921,0.0498664584159853,0.6703960780710096
5.904784524530586,-1.69329312257767,6.0382896557807895,0.610301028728485,0.6703960780710096
5.905390218049667,-4.22482876710892,-0.176786027812958,1.11086011075974,0.6703960780710096
5.905995911568746,1.63099398679733,-4.04234755125046,-0.539308346271515,0.6703960780710096
5.906601605087825,0.591555510234833,1.4566172924995402,0.380379153728485,0.6703960780710096
5.907207298606904,-0.833481110858917,-0.174391008281708,-0.37884203767776503,0.6703960780710096
5.907812992125984,0.282597990703583,1.55720811281204,-0.654269283771515,0.6703960780710096
5.908418685645064,-0.0311495678901672,-0.593519426250458,0.28936841154098497,0.6703960780710096
5.909024379164142,3.0775857836723297,-3.53220839109421,-0.599183834552765,0.6703960780710096
5.909630072683221,-0.45027798585891704,3.86361192140579,0.782742434978485,0.6703960780710096
5.910235766202302,-6.04025357179642,1.4949376049995402,1.3551521029472402,0.6703960780710096
5.9108414597213805,2.00940707273483,-3.18493055906296,-1.4374406704902598,0.6703960780710096
5.911447153240459,2.57702670164108,0.548904890155792,0.574375735759735,0.9169993430608356
5.91205284675954,-1.65976284914017,0.826727155780792,-0.680614498615265,0.9169993430608356
5.912658540278619,0.45743441648483296,-0.36838759031295804,-0.21119067049026502,0.9169993430608356
5.9132642337976975,-0.752050446796417,0.263897565937042,-0.0339592251777647,0.9169993430608356
5.913869927316778,2.47404086179733,-2.04490126218796,-0.785995357990265,0.9169993430608356
5.914475620835857,1.1567801196098302,0.407598737812042,1.0437995638847402,0.9169993430608356
5.915081314354936,-4.84274380617142,4.30669053468704,-0.235140865802765,0.9169993430608356
5.915687007874015,0.06704623289108279,-2.85920790281296,0.397144290447235,0.9169993430608356
5.916292701393095,3.4536038500785797,-1.68804335203171,-0.493802975177765,0.9169993430608356
5.916898394912174,-1.28613980226517,1.55720811281204,0.07621167325973531,0.9169993430608356
5.9175040884312535,-0.823901032733917,-0.241451555156708,-0.0626994595527647,0.9169993430608356
5.918109781950332,-0.43111782960891704,0.424363874530792,0.0570515170097353,0.9169993430608356
5.918715475469413,1.86810092039108,-1.9514955004692098,-0.249510982990265,0.9169993430608356
5.919321168988492,2.92669955320358,-0.5743592700004579,1.19947583341599,0.9169993430608356
5.9199268625075705,-4.0954977124214205,4.46476182374954,0.361218997478485,0.9169993430608356
5.920532556026649,-2.00225064210892,-1.5970326098442098,-1.16919848299026,0.9169993430608356
5.92113824954573,2.90035433835983,-2.94303358640671,1.2138459506034902,0.9169993430608356
5.921743943064809,-0.364057282733917,2.2613438549995397,-0.812340572834015,0.9169993430608356
5.922349636583888,-0.926886872577667,-0.607889543437958,0.12411206388473499,0.9169993430608356
5.922955330102967,-0.043124665546417196,0.730926374530792,-0.443507565021515,0.9169993430608356
5.923561023622047,0.941228361797333,-1.4677015551567099,-0.160895260334015,0.9169993430608356
5.9241667171411265,3.30511263914108,-2.07843153562546,-0.0243791470527647,0.9169993430608356
5.924772410660205,-1.56156704835892,5.60000108156204,-1.2194938931465098,0.9169993430608356
5.925378104179284,-5.19481167726517,-0.921637102031708,2.83048413419724,0.9169993430608356
5.925983797698365,2.48362093992233,-2.47360975828171,-0.838685787677765,0.9169993430608356
5.9265894912174435,0.979548674297333,1.27459580812454,-0.342916744709015,0.9169993430608356
5.927195184736522,-1.81783413820267,-0.423473039531708,-0.0794645962715147,0.9169993430608356
5.927800878255603,0.562815275859833,0.968033308124542,-0.460272701740265,0.9169993430608356
5.928406571774682,0.0526761157035828,-1.44854139890671,0.689336673259735,0.9169993430608356
5.9290122652937605,3.4536038500785797,-1.6952284106254598,-1.41349047517776,0.9169993430608356
5.929617958812841,-0.5436837475776669,2.31882432374954,1.6976398959159902,0.9169993430608356
5.93022365233192,-5.42712857179642,2.4313902417182898,-0.539308346271515,0.9169993430608356
5.930829345850999,1.50166293210983,-3.3932972582817102,-0.31896654939651503,0.9169993430608356
5.931435039370078,2.44290560789108,-0.871341691875458,0.780347415447235,0.9169993430608356
5.932040732889158,-1.39870572023392,1.9954966870307902,-0.867426022052765,0.9169993430608356
5.932646426408237,-0.24670132570266698,-0.5767542895317079,1.0318244662284901,0.9169993430608356
5.9332521199273165,-0.208381013202667,0.0651109448432922,-0.225560787677765,0.9169993430608356
5.933857813446395,1.95432162351608,-2.43049940671921,1.0916999545097401,0.9169993430608356
5.934463506965475,1.95432162351608,0.5800401440620421,0.16243237638473498,0.9169993430608356
5.935069200484555,-4.69904263429642,3.17145127687454,0.377984134197235,0.9169993430608356
5.9356748940036335,-0.871801423358917,-1.1252137621879599,-0.299806393146515,0.9169993430608356
5.936280587522713,4.07870394773483,-1.79102919187546,0.0139411654472353,0.9169993430608356
5.936886281041793,-0.950837067890167,0.414783796405792,0.116927005290985,0.9169993430608356
5.937491974560872,-0.869406403827667,0.613570417499542,-1.2961345181465098,0.9169993430608356
5.93809766807995,-0.6610397046089169,-0.27977186765670803,0.713286868572235,0.9169993430608356
5.93870336159903,1.35077670164108,-0.509693742656708,-0.472247799396515,0.9169993430608356
5.93930905511811,3.38893832273483,-0.7947010668754579,1.4844831576347401,0.9169993430608356
5.9399147486371895,-3.3290914624214203,3.78936631593704,-0.747675045490265,0.9169993430608356
5.940520442156268,-2.7039913647651703,-0.909662004375458,-0.922511471271515,0.9169993430608356
5.941126135675348,2.6153470141410797,-3.19211561765671,1.14918042325974,0.9169993430608356
5.941731829194428,0.0239358813285828,2.07932237062454,-0.508173092365265,0.9169993430608356
5.9423375227135065,-1.48732144289017,0.182466901874542,-0.0698845181465147,0.9169993430608356
5.942943216232585,-0.18682583742141698,0.42196885499954195,-0.177660397052765,0.9169993430608356
5.943548909751666,1.30048129148483,-1.0318080004692098,-0.230350826740265,0.9169993430608356
5.944154603270745,3.4464187914848297,-2.38738905515671,-0.441112545490265,0.9169993430608356
5.944760296789823,-0.428722810077667,4.40728135499954,0.7635822787284849,0.9169993430608356
5.945365990308904,-5.70255581789017,0.366883405780792,1.8509211459159902,0.9169993430608356
5.945971683827983,1.4609476000785802,-3.12026503171921,-1.22188891267776,0.9169993430608356
5.946577377347062,1.70763461179733,0.572855085468292,0.888123294353485,0.9169993430608356
5.947183070866141,-1.4346310132026698,0.48184434328079195,-0.975201900959015,0.9169993430608356
5.947788764385221,0.883747893047333,0.769246687030792,-0.824315670490265,0.9169993430608356
5.9483944579043,-0.474228181171417,-1.09886854734421,0.924048587322235,0.9169993430608356
5.9490001514233795,3.35301302976608,-1.61619276609421,-1.52845141267776,0.9169993430608356
5.949605844942458,0.273017912578583,1.03269883546829,1.5826789584159902,0.9169993430608356
5.950211538461538,-5.74327114992142,3.1259459057807897,-0.872216061115265,0.9169993430608356
5.950817231980618,0.07902133054733279,-2.95979872312546,0.684546634197235,0.9169993430608356
5.951422925499696,3.6068851000785798,-0.7587757739067079,-0.0674894986152647,0.9169993430608356
5.952028619018776,-0.764025544452667,1.27459580812454,-0.357286861896515,0.9169993430608356
5.952634312537856,-0.572423981952667,-0.413892961406708,-0.11538988924026501,0.9169993430608356
5.953240006056935,0.16284701414108302,0.000445417499542242,-0.608763912677765,0.9169993430608356
5.953845699576014,1.10887972898483,-2.29398329343796,1.2401911654472402,0.9169993430608356
5.954451393095094,2.1291580492973297,0.723741315937042,-0.817130611896515,0.9169993430608356
5.955057086614173,-3.73624478273392,2.50563584718704,0.679756595134735,0.9169993430608356
5.9556627801332525,-1.76514370851517,-0.526458879375458,-0.936881588459015,0.9169993430608356
5.956268473652331,3.73142611570358,-2.40175917234421,1.00068921232224,0.9169993430608356
5.956874167171411,-0.0742599194526672,1.19316514406204,-0.529728268146515,0.9169993430608356
5.957479860690491,-1.62383755617142,0.287847761249542,-0.43871752595901503,0.9169993430608356
5.958085554209569,-0.0694698803901672,-0.330067277812958,0.433069583415985,0.9169993430608356
5.958691247728648,1.23342074460983,-0.521668840312958,-1.01591723299026,0.9169993430608356
5.959296941247729,3.04884554929733,-1.27370497312546,1.2785114779472402,0.9169993430608356
5.959902634766808,-2.22977749757767,4.53421739015579,-1.4206755337715098,0.9169993430608356
5.960508328285886,-3.5182980053901702,-0.624654680156708,0.7635822787284849,0.9169993430608356
5.961114021804967,2.56265658445358,-3.01488417234421,0.959973880290985,0.9169993430608356
5.961719715324046,0.809502287578583,1.8470054760932901,-0.572838619709015,0.9169993430608356
5.962325408843125,-1.70287320070267,-0.0306898364067078,0.377984134197235,0.9169993430608356
5.962931102362204,0.0526761157035828,0.7021861401557921,-1.43983569002151,0.9169993430608356
5.963536795881284,0.591555510234833,-1.3144203051567098,0.677361575603485,0.9169993430608356
5.964142489400363,3.28834750242233,-1.3479505785942099,0.128902102947235,0.9169993430608356
5.964748182919442,-0.502968415546417,2.60143662843704,1.47011304044724,0.9169993430608356
5.965353876438522,-4.81879361085892,1.6625889721870402,-0.603973873615265,0.9169993430608356
5.965959569957601,0.531680021953583,-3.09631483640671,-0.242325924396515,0.9169993430608356
5.966565263476681,1.50884799070358,-0.0881703051567078,0.28936841154098497,0.9169993430608356
5.967170956995759,-1.14962368898392,1.05664903078079,-0.783600338459015,0.9169993430608356
5.967776650514839,0.0407010180473328,0.7429014721870421,-0.007614010334014669,0.9169993430608356
5.968382344033919,0.34726351804733296,-0.164810930156708,-0.522543209552765,0.9169993430608356
5.968988037552998,1.99743197507858,-2.65084120359421,0.210332767009735,0.9169993430608356
5.969593731072077,1.34359164304733,2.1751231518745398,-0.412372311115265,0.9169993430608356
5.970199424591157,-5.70734585695267,2.0984825268745397,1.59225903654099,0.9169993430608356
5.970805118110236,-0.893356599140167,-0.746800676250458,-1.2362590298652598,0.9169993430608356
5.971410811629315,3.77453646726608,-1.99221083250046,1.20426587247849,0.9169993430608356
5.972016505148394,-0.514943513202667,1.16442490968704,-0.647084225177765,0.9169993430608356
5.972622198667474,-0.6993600171089169,1.01114365968704,-0.642294186115265,0.9169993430608356
5.973227892186554,-0.0694698803901672,-0.924032121562958,1.2833015170097402,0.9169993430608356
5.973833585705632,1.75793002195358,-0.8761317309379579,-0.872216061115265,0.9169993430608356
5.974439279224711,1.89444613523483,-0.464188371562958,-0.00282397127151467,0.9169993430608356
5.975044972743792,-3.36980679445267,2.63975694093704,-0.0507243618965147,0.9169993430608356
5.975650666262871,-2.84529751710892,-0.7156654223442079,1.06295972013474,0.9169993430608356
5.976256359781949,3.9062625414848298,-1.50362684812546,-0.730909908771515,0.9169993430608356
5.97686205330103,0.46701449460983296,0.47944932374954197,-0.09862475252151469,0.9169993430608356
5.977467746820109,-1.99267056398392,0.536929792499542,-0.472247799396515,0.9169993430608356
5.9780734403391875,0.20356234617233301,0.0459507885932922,-0.160895260334015,0.9169993430608356
5.978679133858268,0.649035978984833,-1.2162245043754598,0.528870364665985,0.9169993430608356
5.979284827377347,3.25242220945358,-0.35880751218795803,-0.177660397052765,0.9169993430608356
5.979890520896426,-1.84417935304642,3.09720567140579,0.0426813998222353,0.9169993430608356
5.980496214415505,-4.39727017335892,-0.236661516094208,0.332478763103485,0.9169993430608356
5.981101907934585,2.56984164304733,-2.4185243090629602,-0.124969967365265,0.9169993430608356
5.981707601453664,1.60464877195358,0.6375206128120421,0.107346927165985,0.9169993430608356
5.9823132949727436,-1.76274868898392,0.824332136249542,-0.275856197834015,0.9169993430608356
5.982918988491822,-0.397587556171417,0.393228620624542,-0.09383471345901469,0.9169993430608356
5.983524682010902,0.522099943828583,-1.5443421801567099,0.00915112638473533,0.9169993430608356
5.984130375529982,3.68113070554733,-0.9192420825004579,-0.30938647127151503,0.9169993430608356
5.9847360690490605,-0.189220856952667,2.3212193432807897,1.2282160677909901,0.9169993430608356
5.985341762568139,-4.65832730226517,1.8158702221870402,-0.855450924396515,0.9169993430608356
5.98594745608722,-0.160480622577667,-2.9310584887504603,0.480969974040985,0.9169993430608356
5.986553149606299,2.36386996335983,0.218392194843292,-0.280646236896515,0.9169993430608356
5.987158843125378,-1.06100796632767,0.568065046405792,-0.484222897052765,0.9169993430608356
5.987764536644457,-0.29220669679641703,0.103431257343292,-0.481827877521515,0.9169993430608356
5.988370230163537,0.42629916257858297,-0.430658098125458,-0.213585690021515,0.9169993430608356
5.9889759236826166,1.75074496335983,-1.38148085203171,-0.383632076740265,0.9169993430608356
5.989581617201695,1.88965609617233,0.896182722187042,0.725261966228485,0.9169993430608356
5.990187310720774,-4.8810641186714205,1.74641465578079,0.0953718295097353,0.9169993430608356
5.990793004239855,-1.65976284914017,-0.6773451098442079,-0.278251217365265,0.9169993430608356
5.9913986977589335,3.38414828367233,-1.7551038989067098,1.84613110685349,0.9169993430608356
5.992004391278012,0.20835238523483302,1.26262071046829,-2.46250902986526,0.9169993430608356
5.992610084797093,-1.54001187257767,-0.461793352031708,0.718076907634735,0.9169993430608356
5.993215778316172,0.10297152585983299,-0.0809852465629578,-0.608763912677765,0.9169993430608356
5.9938214718352505,1.4010721117973302,-0.792306047344208,-0.419557369709015,0.9169993430608356
5.994427165354331,2.2393289477348297,-0.150440812969208,0.615091067790985,0.9169993430608356
5.99503285887341,-2.83092739992142,2.43618028078079,-0.539308346271515,0.9169993430608356
5.995638552392489,-3.89671109132767,-0.430658098125458,0.457019778728485,0.9169993430608356
5.996244245911568,4.09786410398483,-1.62816786375046,-0.172870357990265,0.9169993430608356
5.996849939430648,1.27174105710983,0.182466901874542,0.593535892009735,0.9169993430608356
5.997455632949727,-2.3207882397651702,1.34884141359329,-1.5308464322090098,0.9169993430608356
5.9980613264688065,0.349658537578583,-0.792306047344208,0.861778079509735,0.9169993430608356
5.998667019987885,1.0849295336723301,-1.12281874265671,-0.09862475252151469,0.9169993430608356
5.999272713506965,2.94346468992233,-0.049849992656707795,-0.395607174396515,0.9169993430608356
5.999878407026045,-0.950837067890167,2.12722276124954,1.2737214388847402,0.9169993430608356
6.0004841005451235,-4.3421847241401705,0.48902940187454197,-0.615948971271515,0.9169993430608356
6.001089794064202,1.6669192797660801,-2.48079481687546,0.430674563884735,0.9169993430608356
6.001695487583283,2.15071322507858,0.6590757885932921,-0.0315642056465147,0.9169993430608356
6.002301181102362,-1.75795864992142,0.764456647968292,-0.280646236896515,0.9169993430608356
6.002906874621441,-0.675409821796417,0.26150254640579196,-0.867426022052765,0.9169993430608356
6.00351256814052,0.641850920391083,-1.1731141528129598,-0.13215502595901502,0.9169993430608356
6.0041182616596,3.57574984617233,-1.4772816332817098,0.552820559978485,0.9169993430608356
6.0047239551786795,0.349658537578583,2.88404893312454,-0.271066158771515,0.9169993430608356
6.005329648697758,-5.13493618898392,1.23388047609329,0.140877200603485,0.9169993430608356
6.005935342216838,-0.198800935077667,-2.71311171140671,0.0522614779472353,0.9169993430608356
6.006541035735918,3.16859652585983,0.443524030780792,-0.134550045490265,0.9169993430608356
6.0071467292549965,-1.6956881421089198,0.414783796405792,-0.366866940021515,0.9169993430608356
6.007752422774075,-0.00959439210891722,0.433943952655792,-0.649479244709015,0.9169993430608356
6.008358116293156,0.531680021953583,-0.689320207500458,0.533660403728485,0.9169993430608356
6.008963809812235,1.58788363523483,-0.921637102031708,-0.541703365802765,0.9169993430608356
6.0095695033313135,1.6453641039848301,-0.593519426250458,0.562400638103485,0.9169993430608356
6.010175196850394,-4.0092770092964205,2.88165391359329,-1.1452482876777599,0.9169993430608356
6.010780890369473,-2.6968063061714203,-1.1084486254692099,2.29160473966599,0.9169993430608356
6.011386583888552,3.45120883054733,-1.62098280515671,0.224702884197235,0.7908259694205749
6.011992277407631,1.02744906492233,1.6577989331245402,-1.83261889314651,0.7908259694205749
6.012597970926711,-2.45011929445267,-0.706085344219208,1.3814973177909902,0.7908259694205749
6.01320366444579,0.5747903735160831,0.786011823749542,-2.31401781892776,0.7908259694205749
6.0138093579648695,1.00110385007858,-1.79102919187546,1.39586743497849,0.7908259694205749
6.014415051483948,2.30638949460983,0.730926374530792,-0.663849361896515,0.7908259694205749
6.015020745003028,-2.3974288647651703,1.1883751049995401,-0.0195891079902647,0.7908259694205749
6.015626438522108,-4.16734829835892,-0.605494523906708,0.758792239665985,0.7908259694205749
6.0162321320411865,3.47276400632858,-0.890501848125458,-0.278251217365265,0.7908259694205749
6.016837825560266,1.81062045164108,-0.107330461406708,0.112136966228485,0.7908259694205749
6.017443519079346,-2.08607632570267,1.0470689526557901,-0.694984615802765,0.7908259694205749
6.018049212598425,-0.165270661640167,-0.42826307859420804,-0.0674894986152647,0.7908259694205749
6.018654906117503,0.6394559008598331,-1.51799696531296,0.195962649822235,0.7908259694205749
6.019260599636584,2.82610873289108,1.46380235109329,-1.3943303189277598,0.7908259694205749
6.019866293155663,-1.33883023195267,1.39434678468704,1.07493481779099,0.7908259694205749
6.0204719866747425,-3.87276089601517,0.376463483905792,0.852198001384735,0.7908259694205749
6.021077680193821,1.86091586179733,-1.6353529223442098,-0.635109127521515,0.7908259694205749
6.021683373712901,1.7339798266410802,-1.16113905515671,1.3695222201347401,0.7908259694205749
6.022289067231981,-1.4513961499214199,1.33207627687454,-1.3895402798652599,0.7908259694205749
6.0228947607510595,-1.2118941967964199,-0.227081437969208,-0.304596432209015,0.7908259694205749
6.023500454270138,1.1448050219535801,-1.2377796801567098,0.478574954509735,0.7908259694205749
6.024106147789219,2.69917269773483,-1.27370497312546,0.600720950603485,0.7908259694205749
6.024711841308298,0.763996916484833,3.13073594484329,0.21272778654098498,0.7908259694205749
6.025317534827376,-4.44756558351517,1.1668199292182901,0.0259162631034853,0.7908259694205749
6.025923228346457,-1.4513961499214199,-2.73945692625046,0.164827395915985,0.7908259694205749
6.026528921865536,3.2907425219535797,0.177676862812042,0.521685306072235,0.7908259694205749
6.027134615384615,-1.5495919507026699,0.843492292499542,-0.170475338459015,0.7908259694205749
6.027740308903694,-0.790370759296417,0.0938511792182922,-0.251906002521515,0.7908259694205749
6.028346002422774,0.823872404766083,-0.765960832500458,-0.18724047517776501,0.7908259694205749
6.028951695941853,1.67649935789108,-0.871341691875458,-0.36926195955276503,0.7908259694205749
6.0295573894609324,1.8585208422660802,0.592015241718292,0.974343997478485,0.7908259694205749
6.030163082980011,-3.6883443921089203,2.2349986401557898,-1.4494157681465099,0.7908259694205749
6.030768776499091,-3.32430142335892,-1.68804335203171,1.43897778654099,0.7908259694205749
6.031374470018171,3.29792758054733,-1.03420302000046,0.332478763103485,0.7908259694205749
6.031980163537249,0.6993313891410831,0.6375206128120421,-1.0829777798652598,0.7908259694205749
6.032585857056329,-1.77472378664017,0.28066270265579196,0.239073001384735,0.7908259694205749
6.033191550575409,0.5340750414848331,-0.14325575437545798,-0.680614498615265,0.7908259694205749
6.033797244094488,1.36993685789108,-1.22580458250046,0.375589114665985,0.7908259694205749
6.034402937613567,2.22495883054733,0.436338972187042,0.392354251384735,0.7908259694205749
6.035008631132647,-2.44532925539017,1.10933946046829,-0.218375729084015,0.7908259694205749
6.035614324651726,-3.73624478273392,-0.11691053953170799,0.150457278728485,0.7908259694205749
6.0362200181708054,2.75665316648483,-1.60661268796921,1.1635505404472402,0.7908259694205749
6.036825711689884,2.3758450610160797,0.6973961010932921,-1.28415942049026,0.7908259694205749
6.037431405208964,-2.10284146242142,0.649495710468292,0.006756106853485331,0.7908259694205749
6.038037098728044,-0.277836579608917,-0.0761952075004578,-0.00282397127151467,0.7908259694205749
6.038642792247122,0.931648283672333,-0.885711809062958,-0.223165768146515,0.7908259694205749
6.039248485766201,2.45727572507858,-0.26779677000045804,0.852198001384735,0.7908259694205749
6.039854179285282,-0.09581509523391721,2.5271910229682897,0.07860669279098531,0.7908259694205749
6.040459872804361,-4.79963345460892,0.33095811281204196,-0.299806393146515,0.7908259694205749
6.041065566323439,0.6753811938285831,-1.7982142504692098,0.418699466228485,0.7908259694205749
6.04167125984252,2.79976351804733,0.07948106203079221,-0.182450436115265,0.7908259694205749
6.042276953361599,-1.62862759523392,0.503399519062042,-0.879401119709015,0.7908259694205749
6.0428826468806776,-0.8406661694526669,0.0555308667182922,-0.371656979084015,0.7908259694205749
6.043488340399757,0.9939187914848331,-1.5539222582817098,-0.163290279865265,0.7908259694205749
6.044094033918837,2.4357205492973297,-1.3862708910942099,0.22709790372848498,0.7908259694205749
6.044699727437916,1.34359164304733,3.37502793703079,0.0953718295097353,0.7908259694205749
6.045305420956995,-4.90980435304642,0.9991685620307921,0.679756595134735,0.7908259694205749
6.045911114476075,-1.8920797436714198,-2.5550404223442102,-0.280646236896515,0.7908259694205749
6.046516807995154,3.76016635007858,0.393228620624542,0.06902661466598531,0.7908259694205749
6.047122501514234,-1.00352749757767,0.7979869214057921,-0.855450924396515,0.7908259694205749
6.047728195033312,-0.752050446796417,0.6015953198432921,-0.386027096271515,0.7908259694205749
6.048333888552392,0.455039396953583,-1.3479505785942099,0.07142163419723531,0.7908259694205749
6.048939582071472,1.32203646726608,-1.06294325437546,-0.474642818927765,0.7908259694205749
6.0495452755905506,1.8848660571098301,1.1883751049995401,0.291763431072235,0.7908259694205749
6.05015096910963,-3.35304165773392,1.69372422609329,-0.0387492642402647,0.7908259694205749
6.05075666262871,-3.1662301342964203,-0.811466203594208,0.952788821697235,0.7908259694205749
6.051362356147789,3.86315218992233,-1.0318080004692098,-0.884191158771515,0.7908259694205749
6.051968049666868,1.0681643969535801,0.0914561596870422,0.761187259197235,0.7908259694205749
6.052573743185947,-2.1483468335151703,1.0686241284370401,-0.13215502595901502,0.7908259694205749
6.053179436705027,-0.00719937257766723,-0.7156654223442079,-0.304596432209015,0.7908259694205749
6.053785130224107,1.44178744382858,-1.12042372312546,1.3479670443534901,0.7908259694205749
6.054390823743185,2.8716141039848297,0.6375206128120421,-0.261486080646515,0.7908259694205749
6.054996517262264,-1.79148892335892,0.8578624096870421,0.382774173259735,0.7908259694205749
6.055602210781345,-4.47870083742142,-0.0857752856254578,-0.010009029865264701,0.7908259694205749
6.0562079043004236,2.23693392820358,-1.5706873950004598,0.833037845134735,0.7908259694205749
6.056813597819502,2.96022982664108,0.433943952655792,-0.496197994709015,0.7908259694205749
6.057419291338583,-2.36389859132767,0.735716413593292,-0.644689205646515,0.7908259694205749
6.058024984857662,-0.524523591327667,0.0555308667182922,-0.656664303302765,0.7908259694205749
6.0586306783767405,0.869377775859833,-1.8269544848442099,0.267813235759735,0.7908259694205749
6.059236371895821,2.61295199460983,0.0770860424995422,0.294158450603485,0.7908259694205749
6.0598420654149,-0.395192536640167,2.9032090893745397,0.0163361849784853,0.7908259694205749
6.060447758933979,-5.22355191164017,-0.150440812969208,0.308528567790985,0.7908259694205749
6.061053452453058,0.9747586352348331,-2.32990858640671,0.490550052165985,0.7908259694205749
6.061659145972138,2.2321438891410796,-0.100145402812958,-0.479432857990265,0.7908259694205749
6.062264839491217,-1.19752407960892,0.793196882343292,-0.338126705646515,0.7908259694205749
6.0628705330102965,-0.953232087421417,0.287847761249542,0.785137454509735,0.7908259694205749
6.063476226529375,0.704121428203583,-0.251031633281708,-1.8517790493965098,0.7908259694205749
6.064081920048455,2.88358920164108,-2.1694422778129603,0.648621341228485,0.7908259694205749
6.064687613567535,1.01547396726608,2.35953965578079,-0.620739010334015,0.7908259694205749
6.0652933070866135,-4.61761197023392,1.9835215893745402,-0.433927486896515,0.7908259694205749
6.065899000605692,-2.0884713452339203,-2.32032850828171,1.6856647982597401,0.7908259694205749
6.066504694124773,3.8823123461723297,0.615965437030792,-0.354891842365265,0.7908259694205749
6.067110387643852,-1.00831753664017,-0.540828996562958,0.195962649822235,0.7908259694205749
6.067716081162931,-0.5197335522651669,0.687816022968292,-1.0470524868965099,0.7908259694205749
6.06832177468201,0.5388650805473331,-0.454608293437958,-0.290226315021515,0.7908259694205749
6.06892746820109,1.25258090085983,-1.9083851489067098,0.651016360759735,0.7908259694205749
6.0695331617201695,2.47643588132858,1.3201011792182902,-0.386027096271515,0.7908259694205749
6.070138855239248,-3.8943160717964203,1.35602647218704,-0.0195891079902647,0.7908259694205749
6.070744548758327,-3.66678921632767,-1.4629115160942099,0.907283450603485,0.7908259694205749
6.071350242277408,3.9493728930473297,-0.600704484844208,-0.342916744709015,0.7908259694205749
6.0719559357964865,1.56632845945358,0.194441999530792,-0.273461178302765,0.7908259694205749
6.072561629315565,-1.9854855053901699,1.32728623781204,-0.546493404865265,0.7908259694205749
6.073167322834646,-0.404772614765167,-0.325277238750458,-0.156105221271515,0.7908259694205749
6.073773016353725,1.24539584226608,-1.5874525317192099,0.0402863802909853,0.7908259694205749
6.0743787098728035,2.24411898679733,0.187256940937042,0.457019778728485,0.7908259694205749
6.074984403391884,-1.36517544679642,1.76317979249954,-0.30938647127151503,0.7908259694205749
6.075590096910963,-4.38050503664017,-0.0330848559379578,0.370799075603485,0.7908259694205749
6.076195790430042,2.25130404539108,-1.2449647387504599,0.380379153728485,0.7908259694205749
6.076801483949121,3.06321566648483,-0.102540422344208,-0.539308346271515,0.7908259694205749
6.077407177468201,-2.1148165600776703,0.208812116718292,-0.194425533771515,0.7908259694205749
6.07801287098728,-0.6227193921089169,0.515374616718292,-0.711749752521515,0.7908259694205749
6.0786185645063595,0.8933279711723331,-1.48207167234421,0.337268802165985,0.7908259694205749
6.079224258025438,2.6416922289848297,0.544114851093292,-0.0698845181465147,0.7908259694205749
6.079829951544518,0.26822787351608296,2.58467149171829,0.354033938884735,0.7908259694205749
6.080435645063598,-5.04632046632767,-0.612679582500458,0.516895267009735,0.7908259694205749
6.0810413385826765,0.263437834453583,-1.38148085203171,-0.0674894986152647,0.7908259694205749
6.081647032101755,3.46797396726608,-0.0115296801567078,0.0929768099784853,0.7908259694205749
6.082252725620836,-1.48013638429642,0.7213462964057921,0.11932202482223499,0.7908259694205749
6.082858419139915,-0.828691071796417,1.17400498781204,-0.654269283771515,0.7908259694205749
6.0834641126589935,0.17721713132858302,-1.90599012937546,0.176802493572235,0.7908259694205749
6.084069806178073,2.5123611742973297,-0.888106828594208,-0.546493404865265,0.7908259694205749
6.084675499697153,1.5974637133598302,1.87095567140579,0.622276126384735,0.7908259694205749
6.0852811932162325,-4.89064419679642,1.90927598390579,-0.13694506502151502,0.7908259694205749
6.085886886735311,-2.2585177319526704,-2.05448134031296,0.310923587322235,0.7908259694205749
6.086492580254391,3.95176791257858,-0.7180604418754579,0.421094485759735,0.7908259694205749
6.087098273773471,-0.713730134296417,1.06622910890579,-0.917721432209015,0.7908259694205749
6.0877039672925495,-1.39391568117142,0.285452741718292,-0.38842211580276503,0.7908259694205749
6.088309660811628,0.8358475024223331,-0.452213273906708,-0.556073482990265,0.7908259694205749
6.088915354330709,1.63099398679733,-0.959957414531708,0.492945071697235,0.7908259694205749
6.089521047849788,2.56026156492233,0.766851667499542,-0.09622973299026469,0.7908259694205749
6.0901267413688664,-3.3793868725776703,1.33447129640579,-0.09143969392776469,0.7908259694205749
6.090732434887947,-4.07154751710892,-0.806676164531708,0.955183841228485,0.7908259694205749
6.091338128407026,3.8392019946098297,-0.6390247973442079,-0.139340084552765,0.7908259694205749
6.091943821926105,1.54956332273483,0.333353132343292,0.0953718295097353,0.7908259694205749
6.092549515445184,-2.13637173585892,0.994378522968292,-0.920116451740265,0.7908259694205749
6.093155208964264,-0.0167794507026672,-0.49532362546920805,-0.321361568927765,0.7908259694205749
6.093760902483343,1.1184598071098302,-1.08928846921921,0.612696048259735,0.7908259694205749
6.0943665960024225,2.6919876391410797,0.172886823749542,0.497735110759735,0.7908259694205749
6.094972289521501,-1.59030728273392,1.22909043703079,-0.26867113924026503,0.7908259694205749
6.095577983040581,-4.854718903827671,0.297427839374542,0.0498664584159853,0.7908259694205749
6.096183676559661,2.28722933835983,-1.5706873950004598,1.59225903654099,0.7908259694205749
6.0967893700787394,3.3003226000785797,0.275872663593292,-0.888981197834015,0.7908259694205749
6.097395063597819,-2.3112081616401703,0.503399519062042,-0.148920162677765,0.7908259694205749
6.098000757116899,-0.8430611889839169,0.101036237812042,-0.572838619709015,0.7908259694205749
6.098606450635978,0.972363615703583,-1.5826624926567099,0.298948489665985,0.7908259694205749
6.099212144155057,2.16508334226608,-0.234266496562958,0.27020825529098497,0.7908259694205749
6.099817837674137,0.215537443828583,2.50563584718704,-0.0339592251777647,0.7908259694205749
6.100423531193216,-4.33978970460892,-0.047454973125457794,1.04140454435349,0.7908259694205749
6.1010292247122955,0.251462736797333,-1.5060218676567099,-1.61946215486526,0.7908259694205749
6.101634918231374,3.0440555102348297,-0.492928605937958,0.976739017009735,0.7908259694205749
6.102240611750454,-1.28374478273392,0.867442487812042,-0.189635494709015,0.7908259694205749
6.102846305269534,-1.13285855226517,0.656680769062042,-0.762045162677765,0.7908259694205749
6.103451998788612,0.304153166484833,-1.3742957934379598,0.698916751384735,0.7908259694205749
6.104057692307691,2.3590799242973297,-0.900081926250458,-1.32008471345901,0.7908259694205749
6.104663385826772,2.20340365476608,2.4673155346870397,0.854593020915985,0.7908259694205749
6.105269079345851,-4.8810641186714205,1.7176744214057902,0.413909427165985,0.7908259694205749
6.105874772864929,-2.2776778882026703,-2.72987684812546,-0.11299486970901501,0.7908259694205749
6.10648046638401,3.71226595945358,-0.272586809062958,0.955183841228485,0.7908259694205749
6.107086159903089,-1.09932827882767,1.02311875734329,-0.0171940884590147,0.7908259694205749
6.107691853422168,-0.529313630390167,0.132171491718292,-0.776415279865265,0.7908259694205749
6.108297546941247,0.313733244609833,-1.00546278562546,-0.000428951740264675,0.7908259694205749
6.108903240460327,1.49687289304733,-1.0365980395317098,-0.0890446743965147,0.7908259694205749
6.109508933979406,2.25369906492233,1.2698057690620401,-0.37884203767776503,0.7908259694205749
6.110114627498485,-3.6284689038276703,1.4566172924995402,0.428279544353485,0.7908259694205749
6.110720321017564,-3.54943325929642,-0.5360389575004579,0.509710208415985,0.7908259694205749
6.111326014536644,3.2572122485160797,-0.9144520434379579,0.229492923259735,0.8464390872260342
6.111931708055724,1.83217562742233,0.14654160890579201,0.126507083415985,0.8464390872260342
6.112537401574802,-1.8489693921089199,0.874627546405792,-0.232745846271515,0.8464390872260342
6.113143095093882,-0.45027798585891704,-0.15283583250045799,-0.788390377521515,0.8464390872260342
6.113748788612962,1.32203646726608,-1.2545448168754598,0.514500247478485,0.8464390872260342
6.114354482132041,2.8380838305473297,-0.449818254375458,0.464204837322235,0.8464390872260342
6.11496017565112,-1.2334493725776698,1.74162461671829,-0.888981197834015,0.8464390872260342
6.1155658691702,-4.59366177492142,0.0028404370307922398,0.742027102947235,0.8464390872260342
6.116171562689279,1.7004495532035802,-1.39345594968796,0.286973392009735,0.8464390872260342
6.116777256208358,3.13985629148483,-0.193551164531708,-0.362076900959015,0.8464390872260342
6.117382949727437,-1.89447476320267,0.347723249530792,0.06902661466598531,0.8464390872260342
6.117988643246517,-0.967602204608917,0.7596666089057921,-0.958436764240265,0.8464390872260342
6.118594336765597,0.7376517016410831,-1.97544569578171,0.337268802165985,0.8464390872260342
6.119200030284675,2.51715121335983,-0.263006730937958,0.246258059978485,0.8464390872260342
6.119805723803754,0.225117521953583,2.6110167065620398,0.0378913607597353,0.8464390872260342
6.120411417322835,-4.17453335695267,0.0914561596870422,0.552820559978485,0.8464390872260342
6.121017110841914,0.150871916484833,-1.6688831957817098,-0.577628658771515,0.8464390872260342
6.121622804360992,3.22607699460983,-0.27737684812545804,0.337268802165985,0.8464390872260342
6.122228497880073,-1.1783639233589198,0.5201646557807921,-0.405187252521515,0.8464390872260342
6.122834191399152,-1.18075894289017,0.6782359448432921,-0.623134029865265,0.8464390872260342
6.1234398849182305,0.23230258054733302,-1.3311854418754598,0.413909427165985,0.8464390872260342
6.12404557843731,1.81301547117233,-1.32400038328171,-0.774020260334015,0.8464390872260342
6.12465127195639,2.66564242429733,2.4505503979682897,0.337268802165985,0.8464390872260342
6.125256965475469,-4.17932339601517,1.9571763745307902,0.775557376384735,0.8464390872260342
6.125862658994548,-2.3183932202339204,-2.17662733640671,-0.244720943927765,0.8464390872260342
6.126468352513628,3.4464187914848297,-0.952772355937958,0.586350833415985,0.8464390872260342
6.127074046032707,-0.368847321796417,1.01114365968704,-0.371656979084015,0.8464390872260342
6.127679739551787,-0.8981466382026669,0.37885850343704197,-0.568048580646515,0.8464390872260342
6.128285433070865,0.349658537578583,-0.0187147387504578,-0.797970455646515,0.8464390872260342
6.128891126589945,1.5854886157035801,-1.59463759031296,0.440254642009735,0.8464390872260342
6.129496820109025,2.97938998289108,0.790801862812042,-0.263881100177765,0.8464390872260342
6.1301025136281035,-3.30993130617142,2.17033311281204,-0.326151607990265,0.8464390872260342
6.130708207147183,-4.6415621655464205,-1.37190077390671,1.35036206388474,0.8464390872260342
6.131313900666263,3.65718051023483,-0.548014055156708,-0.881796139240265,0.8464390872260342
6.131919594185342,1.37712191648483,-0.0785902270317078,0.375589114665985,0.8464390872260342
6.132525287704421,-1.4729513257026698,0.9368980542182921,-0.522543209552765,0.8464390872260342
6.1331309812235,-0.287416657733917,-0.464188371562958,-0.10341479158401501,0.8464390872260342
6.13373667474258,1.15199008054733,-1.2545448168754598,0.38995923185348497,0.8464390872260342
6.13434236826166,2.5219412524223297,0.37885850343704197,-0.251906002521515,0.8464390872260342
6.134948061780738,-1.5543819897651698,1.01114365968704,0.418699466228485,0.8464390872260342
6.135553755299817,-4.52660122804642,0.627940534687042,-0.182450436115265,0.8464390872260342
6.136159448818898,1.2430008227348301,-1.24017469968796,0.215122806072235,0.8464390872260342
6.1367651423379765,3.3601980883598297,-0.28935194578170803,-0.11299486970901501,0.8464390872260342
6.137370835857055,-1.78190884523392,1.05664903078079,-0.702169674396515,0.8464390872260342
6.137976529376136,-1.18075894289017,0.946478132343292,-0.8530559048652651,0.8464390872260342
6.138582222895215,0.986733732891083,-2.0664564379692103,0.0618415560722353,0.8464390872260342
6.1391879164142935,2.55786654539108,-0.133675676250458,0.286973392009735,0.8464390872260342
6.139793609933374,-0.09581509523391721,2.84093858156204,0.370799075603485,0.8464390872260342
6.140399303452453,-4.63916714601517,-0.332462297344208,0.811482669353485,0.8464390872260342
6.141004996971532,-0.20598599367141698,-0.926427141094208,-0.944066647052765,0.8464390872260342
6.141610690490611,3.1709915453910797,-0.251031633281708,0.291763431072235,0.8464390872260342
6.142216384009691,-1.30050991945267,0.6015953198432921,0.308528567790985,0.8464390872260342
6.14282207752877,-0.8574313061714169,1.2099302807807901,-0.491407955646515,0.8464390872260342
6.1434277710478495,0.196377287578583,-1.9299403246879598,0.888123294353485,0.8464390872260342
6.144033464566928,1.69086947507858,-0.950377336406708,-1.1212980923652598,0.8464390872260342
6.144639158086008,2.78299838132858,2.08411240968704,1.2497712435722401,0.8464390872260342
6.145244851605088,-4.50025601320267,1.37039658937454,0.07860669279098531,0.8464390872260342
6.1458505451241665,-2.1483468335151703,-1.4724915942192098,-0.594393795490265,0.8464390872260342
6.146456238643245,2.86203402585983,-1.56829237546921,1.37431225919724,0.8464390872260342
6.147061932162326,-0.5436837475776669,1.09975938234329,-1.31529467439651,0.8464390872260342
6.147667625681405,-1.00831753664017,1.01832871828079,0.466599856853485,0.8464390872260342
6.148273319200484,0.129316740703583,-0.29653700437545805,-1.0949528775215098,0.8464390872260342
6.148879012719563,1.7603250414848302,-1.7239686450004599,0.641436282634735,0.8464390872260342
6.149484706238643,2.2129837328910797,0.809962019062042,-0.199215572834015,0.8464390872260342
6.1500903997577225,-2.53873501710892,1.4661973706245401,0.600720950603485,0.8464390872260342
6.150696093276801,-4.67748745851517,-0.461793352031708,0.993504153728485,0.8464390872260342
6.15130178679588,2.90514437742233,-0.363597551250458,-1.1236931118965099,0.8464390872260342
6.151907480314961,2.13873812742233,-1.04138807859421,1.19468579435349,0.8464390872260342
6.1525131738340395,-1.1903390210151699,2.00986680421829,-2.19666186189651,0.8464390872260342
6.153118867353118,-0.397587556171417,-0.9144520434379579,0.809087649822235,0.8464390872260342
6.153724560872199,0.907698088359833,-1.12042372312546,-0.0387492642402647,0.8464390872260342
6.154330254391278,2.38063510007858,0.11780137453079201,-0.11778490877151501,0.8464390872260342
6.1549359479103565,-0.7975558178901669,0.8027769604682921,0.521685306072235,0.8464390872260342
6.155541641429437,-4.27751919679642,0.824332136249542,-0.443507565021515,0.8464390872260342
6.156147334948516,0.981943693828583,-1.6473280200004599,1.0821198763847402,0.8464390872260342
6.156753028467595,3.4464187914848297,-0.430658098125458,-0.393212154865265,0.8464390872260342
6.157358721986674,-1.74837857179642,0.5992003003120421,-0.496197994709015,0.8464390872260342
6.157964415505754,-0.9412569897651669,0.589620222187042,-0.517753170490265,0.8464390872260342
6.158570109024833,0.845427580547333,-1.4078260668754599,0.512105227947235,0.8464390872260342
6.1591758025439125,2.3758450610160797,-0.195946184062958,0.454624759197235,0.8464390872260342
6.159781496062991,0.548445158672333,2.5104258862495397,-0.172870357990265,0.8464390872260342
6.160387189582071,-4.56492154054642,-0.270191789531708,0.852198001384735,0.8464390872260342
6.160992883101151,-0.665829743671417,-1.06054823484421,-1.6386223111152598,0.8464390872260342
6.1615985766202295,3.4631839282035797,-0.500113664531708,0.473784915447235,0.8464390872260342
6.162204270139309,-0.792765778827667,0.8387022534370421,-0.0363542447090147,0.8464390872260342
6.162809963658389,-1.15920376710892,1.0135386792182899,-0.627924068927765,0.8464390872260342
6.163415657177468,0.196377287578583,-1.76468397703171,0.382774173259735,0.8464390872260342
6.164021350696546,1.48489779539108,-0.8138612231254579,-0.869821041584015,0.8464390872260342
6.164627044215626,2.5219412524223297,1.6410337964057902,1.40544751310349,0.8464390872260342
6.165232737734706,-4.41403531007767,2.3379844799995397,-0.455482662677765,0.8464390872260342
6.1658384312537855,-2.27528286867142,-1.79102919187546,0.670176517009735,0.8464390872260342
6.166444124772864,3.44881381101608,-1.20185438718796,0.751607181072235,0.8464390872260342
6.167049818291944,-0.258676423358917,1.1021544018745402,-1.16440844392776,0.8464390872260342
6.167655511811024,-1.06579800539017,0.0675059643745422,-0.10820483064651501,0.8464390872260342
6.1682612053301025,-0.0167794507026672,-0.0881703051567078,-1.0853727993965099,0.8464390872260342
6.168866898849181,1.23102572507858,-1.16113905515671,0.7635822787284849,0.8464390872260342
6.169472592368262,2.6848025805473297,0.8003819409370421,-0.639899166584015,0.8464390872260342
6.170078285887341,-2.32557827882767,1.0973643628120402,0.945603763103485,0.8464390872260342
6.170683979406419,-4.39966519289017,-0.9384022387504579,1.02942944669724,0.8464390872260342
6.1712896729255,3.10632601804733,-0.109725480937958,-1.1835686001777599,0.8464390872260342
6.171895366444579,1.3747268969535802,-0.6941102465629579,1.16594555997849,0.8464390872260342
6.172501059963658,-1.4130758374214198,1.0518589917182901,-1.49013110017776,0.8464390872260342
6.173106753482737,-0.713730134296417,-0.136070695781708,-0.00282397127151467,0.8464390872260342
6.173712447001817,0.725676603984833,-1.1300038012504598,0.792322513103485,0.8464390872260342
6.174318140520896,2.79018343992233,-0.11451552000045799,0.39953930997848497,0.8464390872260342
6.1749238340399755,-0.505363435077667,0.872232526874542,0.473784915447235,0.8464390872260342
6.175529527559054,-4.4882809155464205,0.8003819409370421,-0.321361568927765,0.8464390872260342
6.176135221078134,0.510124846172333,-1.31202528562546,0.715681888103485,0.8464390872260342
6.176740914597214,3.7098709399223297,-0.612679582500458,0.114531985759735,0.8464390872260342
6.177346608116292,-1.41547085695267,0.6423106518745421,-0.819525631427765,0.8464390872260342
6.177952301635372,-1.2118941967964199,0.695001081562042,-0.208795650959015,0.8464390872260342
6.178557995154452,0.929253264141083,-1.50123182859421,0.131297122478485,0.8464390872260342
6.179163688673531,2.31117953367233,-0.380362687969208,-0.177660397052765,0.8464390872260342
6.17976938219261,0.399953947734833,2.94152940187454,-0.32854662752151503,0.8464390872260342
6.18037507571169,-4.48588589601517,-0.492928605937958,1.17313061857224,0.8464390872260342
6.180980769230769,-1.0274776928901699,-1.1563490160942098,-1.2578142056465098,0.8464390872260342
6.1815864627498485,3.47755404539108,-0.502508684062958,0.878543216228485,0.8464390872260342
6.182192156268927,-0.768815583515167,0.364488386249542,0.183987552165985,0.8464390872260342
6.182797849788007,-1.18554898195267,1.3033360424995402,-1.5308464322090098,0.8464390872260342
6.183403543307087,0.179612150859833,-2.0496913012504603,1.05337964200974,0.8464390872260342
6.184009236826165,1.5639334399223301,-0.969537492656708,-0.443507565021515,0.8464390872260342
6.184614930345244,2.4788309008598297,1.47577744874954,0.744422122478485,0.8464390872260342
6.185220623864325,-3.55422329835892,2.59664658937454,-0.299806393146515,0.8464390872260342
6.185826317383404,-2.91475308351517,-2.1694422778129603,0.375589114665985,0.8464390872260342
6.186432010902482,3.27158236570358,-1.41980116453171,-0.00521899080276467,0.8464390872260342
6.187037704421563,0.354448576641083,1.5093077221870401,-0.683009518146515,0.8464390872260342
6.187643397940642,-1.72203335695267,0.199232038593292,0.239073001384735,0.8464390872260342
6.188249091459721,0.280202971172333,0.30940293703079197,-1.22188891267776,0.8464390872260342
6.1888547849788,1.1663601977348301,-2.05208632078171,0.571980716228485,0.8464390872260342
6.18946047849788,3.0943509203910797,0.9201329174995421,-0.400397213459015,0.8464390872260342
6.190066172016959,-2.8069772046089203,1.15244981203079,0.926443606853485,0.8464390872260342
6.190671865536038,-4.914594392108921,-0.531248918437958,0.0929768099784853,0.8464390872260342
6.191277559055117,3.3075076586723298,-0.20313124265670798,-0.11778490877151501,0.8464390872260342
6.191883252574197,1.39867709226608,-0.8354163989067079,0.995899173259735,0.8464390872260342
6.192488946093277,-1.1783639233589198,1.37039658937454,-1.9164445767402598,0.8464390872260342
6.193094639612355,-0.577214021015167,-0.806676164531708,0.706101809978485,0.8464390872260342
6.193700333131435,0.42869418210983296,-0.524063859844208,-0.129760006427765,0.8464390872260342
