Time (s),Accel X (m/s^2),Accel Y (m/s^2),Accel Z (m/s^2),CI Value
3.239375,-0.0063987250328064,0.0530831754684448,-0.15836271429061902,1.4557578931662634
3.2399810606060604,0.0462917046546936,-0.243899246406555,0.36854158258438097,1.4557578931662634
3.240587121212121,0.134907427310944,0.105773605155945,0.34938142633438096,1.4557578931662634
3.241193181818182,0.0055763726234436,0.263844894218445,-0.122437421321869,1.4557578931662634
3.2417992424242423,-0.111779584407806,-0.138518387031555,0.174545000553131,1.4557578931662634
3.242405303030303,-0.0327439398765564,-0.06906282062530521,0.119459551334381,1.4557578931662634
3.2430113636363633,-0.0063987250328064,0.0315279996871948,0.133829668521881,1.4557578931662634
3.2436174242424243,-0.126149701595306,0.0770333707809448,0.18173005914688098,1.4557578931662634
3.2442234848484848,-0.06627421331405639,-0.0666678010940552,0.00210359430313089,1.4557578931662634
3.2448295454545453,-0.0830393500328064,0.00757780437469482,0.0907193169593809,1.4557578931662634
3.2454356060606058,0.04150166559219361,-0.124148269844055,-0.014661542415619101,1.4557578931662634
3.2460416666666667,0.0822169976234436,-0.169653640937805,0.100299395084381,1.4557578931662634
3.246647727272727,0.0438966851234436,0.0770333707809448,0.14580476617813098,1.4557578931662634
3.2472537878787877,0.0127614312171936,0.0674532926559448,0.30866609430313097,1.4557578931662634
3.247859848484848,-0.0926194281578064,-0.219949051094055,0.198495195865631,1.4557578931662634
3.248465909090909,0.115747271060944,-0.205578933906555,0.20568025445938098,1.4557578931662634
3.2490719696969697,0.144487505435944,-0.0331375276565552,-0.0481918158531191,1.4557578931662634
3.24967803030303,-0.274640912532806,0.00757780437469482,0.114669512271881,1.4557578931662634
3.2502840909090907,-0.135729779720306,0.09140348796844479,0.0955093560218809,1.4557578931662634
3.2508901515151516,0.0223415093421936,-0.102593094062805,0.208075273990631,1.4557578931662634
3.251496212121212,-0.0854343695640564,0.0171578824996948,0.356566484928131,1.4557578931662634
3.2521022727272726,0.134907427310944,0.09619352703094479,-0.00268644475936911,1.4557578931662634
3.252708333333333,0.211548052310944,-0.0570877229690552,0.275135820865631,1.4557578931662634
3.2533143939393936,-0.0447190375328064,0.0219479215621948,-0.0050814642906191095,1.4557578931662634
3.2539204545454545,-0.157284955501556,0.0363180387496948,0.0739541802406309,1.4557578931662634
3.254526515151515,0.0678468804359436,0.005182784843444819,0.155384844303131,1.4557578931662634
3.2551325757575755,-0.07345927190780639,-0.0546927034378052,-0.0362167181968691,1.4557578931662634
3.2557386363636365,-0.126149701595306,-0.114568191719055,0.0931143364906309,1.4557578931662634
3.256344696969697,0.115747271060944,0.220734542655945,0.24160554742813098,1.4557578931662634
3.2569507575757575,0.0438966851234436,0.251869796562195,0.265555742740631,1.4557578931662634
3.257556818181818,0.0247365288734436,-0.006792312812805181,0.0811392388343809,1.4557578931662634
3.258162878787879,-0.0207688422203064,-0.248689285469055,-0.0625619330406191,1.4557578931662634
3.2587689393939394,-0.0016086859703064,-0.162468582344055,0.157779863834381,1.4557578931662634
3.259375,-0.0159788031578064,0.09379850749969479,0.119459551334381,1.4557578931662634
3.2599810606060604,-0.0279539008140564,-0.0355325471878052,0.32782625055313097,1.4557578931662634
3.260587121212121,-0.157284955501556,0.153673995780945,0.174545000553131,1.4557578931662634
3.261193181818182,0.0199464898109436,0.09379850749969479,-0.0721420111656191,1.4557578931662634
3.2617992424242424,0.163647661685944,-0.07864289875030521,0.220050371646881,1.4557578931662634
3.262405303030303,-0.059089154720306396,0.184809249687195,-0.0242416205406191,1.4557578931662634
3.2630113636363633,-0.226740521907806,-0.07385285968780521,0.17694002008438098,1.4557578931662634
3.2636174242424243,-0.06627421331405639,-0.112173172187805,-0.060166913509369105,1.4557578931662634
3.264223484848485,0.0175514702796936,-0.16725862140655498,-0.057771893978119104,1.4557578931662634
3.2648295454545453,-0.106989545345306,-0.08343293781280521,0.121854570865631,1.4557578931662634
3.265435606060606,-0.056694135189056395,-0.0163723909378052,-0.0913021674156191,1.4557578931662634
3.2660416666666667,0.0462917046546936,-0.152888504219055,0.14101472711563098,1.4557578931662634
3.2666477272727272,-0.056694135189056395,-0.06906282062530521,0.0955093560218809,1.4557578931662634
3.2672537878787877,-0.0806443305015564,-0.12654328937530498,0.363751543521881,1.4557578931662634
3.2678598484848482,-0.109384564876556,-0.133728347969055,0.18173005914688098,1.4557578931662634
3.268465909090909,-0.06627421331405639,-0.128938308906555,0.0811392388343809,1.4557578931662634
3.2690719696969697,0.0750319390296936,0.0363180387496948,-0.0529818549156191,1.4557578931662634
3.26967803030303,-0.0878293890953064,0.00278776531219482,0.17214998102188098,1.4557578931662634
3.2702840909090907,-0.06866923284530639,0.00278776531219482,0.303876055240631,1.4557578931662634
3.2708901515151516,0.0295265679359436,0.00278776531219482,0.0116836724281309,1.4557578931662634
3.271496212121212,0.0654518609046936,-0.13133332843780499,0.220050371646881,1.4557578931662634
3.2721022727272726,-0.0040037055015564,0.129723800468445,0.370936602115631,1.4557578931662634
3.272708333333333,0.0199464898109436,-0.00200227375030518,0.155384844303131,1.4557578931662634
3.2733143939393936,0.0846120171546936,-0.148098465156555,-0.10327726507186899,1.4557578931662634
3.2739204545454546,-0.142914838314056,0.0315279996871948,0.016473711490630902,1.4557578931662634
3.274526515151515,0.058266802310943604,0.08900846843719479,0.0811392388343809,1.4557578931662634
3.2751325757575755,-0.06627421331405639,0.00278776531219482,0.126644609928131,1.4557578931662634
3.2757386363636365,0.0750319390296936,-0.119358230781555,0.107484453678131,1.4557578931662634
3.276344696969697,0.115747271060944,-0.07145784015655521,0.0428189263343809,1.4557578931662634
3.2769507575757575,-0.0375339789390564,-0.184023758125305,0.0188687310218809,1.4557578931662634
3.277556818181818,0.189992876529694,-0.116963211250305,0.13622468805313098,1.4557578931662634
3.2781628787878785,0.0917970757484436,-0.0499026643753052,-0.000291425228119114,1.4557578931662634
3.2787689393939394,0.115747271060944,-0.0403225862503052,0.138619707584381,1.4557578931662634
3.279375,0.158857622623444,0.0123678434371948,0.057189043521880895,1.4557578931662634
3.2799810606060604,-0.0878293890953064,-0.193603836250305,-0.0242416205406191,1.4557578931662634
3.280587121212121,-0.116569623470306,-0.0427176057815552,0.323036211490631,1.4557578931662634
3.281193181818182,0.0175514702796936,-0.0642727815628052,0.43799714899063097,1.4557578931662634
3.2817992424242424,-0.0399289984703064,-0.0283474885940552,0.279925859928131,1.4557578931662634
3.282405303030303,0.101377153873444,0.148883956718445,-0.201473065853119,1.4557578931662634
3.2830113636363634,-0.140519818782806,-0.310959793281555,0.20568025445938098,1.4557578931662634
3.2836174242424243,-0.159679975032806,-0.0187674104690552,0.14580476617813098,1.4557578931662634
3.284223484848485,-0.123754682064056,0.0315279996871948,0.129039629459381,1.4557578931662634
3.2848295454545453,0.000786333560943597,-0.00439729328155518,0.208075273990631,1.4557578931662634
3.285435606060606,0.0055763726234436,0.0435030973434448,0.164964922428131,1.4557578931662634
3.2860416666666667,-0.0423240180015564,-0.169653640937805,-0.055376874446869104,1.4557578931662634
3.2866477272727272,-0.190815228939056,-0.0355325471878052,-0.0529818549156191,1.4557578931662634
3.2872537878787877,-0.260270795345306,-0.160073562812805,0.375726641178131,1.4557578931662634
3.2878598484848482,0.0702418999671936,-0.0546927034378052,-0.014661542415619101,1.4557578931662634
3.288465909090909,-0.176445111751556,0.08900846843719479,-0.055376874446869104,1.4557578931662634
3.2890719696969697,-0.269850873470306,0.00278776531219482,0.129039629459381,1.4557578931662634
3.28967803030303,-0.116569623470306,-0.006792312812805181,0.18652009820938098,1.4557578931662634
3.2902840909090907,0.0175514702796936,-0.07864289875030521,0.06916414117813091,1.4557578931662634
3.290890151515151,-0.0063987250328064,0.005182784843444819,0.0907193169593809,1.4557578931662634
3.291496212121212,-0.138124799251556,-0.0978030550003052,0.109879473209381,1.4557578931662634
3.2921022727272726,-0.0135837836265564,-0.119358230781555,0.14101472711563098,1.4557578931662634
3.292708333333333,-0.07345927190780639,-0.0499026643753052,0.06437410211563091,1.4557578931662634
3.2933143939393936,-0.102199506282806,-0.152888504219055,0.129039629459381,1.4557578931662634
3.2939204545454546,0.156462603092194,0.16804411296844501,0.119459551334381,1.4557578931662634
3.294526515151515,-0.166865033626556,-0.0403225862503052,0.0787442193031309,1.4557578931662634
3.2951325757575756,-0.334516400814056,-0.18162873859405498,0.162569902896881,1.4557578931662634
3.2957386363636365,-0.0040037055015564,0.0171578824996948,0.0500039849281309,1.4557578931662634
3.296344696969697,-0.0231638617515564,0.08661344890594479,0.13622468805313098,1.4557578931662634
3.2969507575757575,-0.0327439398765564,0.129723800468445,-0.000291425228119114,1.4557578931662634
3.297556818181818,0.132512407779694,-0.0139773714065552,-0.189497968196869,1.4557578931662634
3.2981628787878785,0.110957231998444,-0.13133332843780499,0.18652009820938098,1.4557578931662634
3.2987689393939394,-0.0207688422203064,-0.0403225862503052,0.14580476617813098,1.4557578931662634
3.299375,0.0223415093421936,0.203969405937195,-0.0386117377281191,1.4557578931662634
3.2999810606060604,0.036711626529693606,-0.13133332843780499,0.423627031803131,1.4557578931662634
3.300587121212121,-0.07585429143905639,0.09619352703094479,0.0739541802406309,1.4557578931662634
3.301193181818182,0.0678468804359436,0.09858854656219479,0.006893633365630891,1.4557578931662634
3.3017992424242424,-0.0183738226890564,-0.24150422687530498,0.325431231021881,1.4557578931662634
3.302405303030303,-0.049509076595306394,-0.0331375276565552,-0.215843183040619,1.4557578931662634
3.3030113636363634,-0.198000287532806,-0.0163723909378052,0.0835342583656309,1.4557578931662634
3.303617424242424,-0.07585429143905639,-0.0163723909378052,0.102694414615631,1.4557578931662634
3.304223484848485,0.101377153873444,-0.119358230781555,0.167359941959381,1.4557578931662634
3.3048295454545453,-0.07585429143905639,-0.0259524690628052,0.25837068414688097,1.4557578931662634
3.305435606060606,0.0462917046546936,-0.203183914375305,0.174545000553131,1.4557578931662634
3.3060416666666668,0.0319215874671936,-0.0594827425003052,0.265555742740631,1.4557578931662634
3.3066477272727273,-0.0159788031578064,0.00278776531219482,0.18173005914688098,1.4557578931662634
3.3072537878787878,0.223523149967194,-0.152888504219055,0.15059480524063099,1.4557578931662634
3.3078598484848483,0.142092485904694,-0.17204866046905498,0.12424959039688101,1.4557578931662634
3.308465909090909,-0.06387919378280639,-0.0570877229690552,0.0739541802406309,1.4557578931662634
3.3090719696969697,-0.0040037055015564,0.115353683280945,0.030843828678130902,1.4557578931662634
3.30967803030303,-0.0806443305015564,-0.08343293781280521,-0.029031659603119098,1.4557578931662634
3.3102840909090907,0.130117388248444,0.0506881559371948,-0.316434003353119,1.4557578931662634
3.310890151515151,-0.0135837836265564,0.00757780437469482,0.342196367740631,1.4557578931662634
3.311496212121212,0.0726369194984436,-0.258269363594055,0.43799714899063097,1.4557578931662634
3.3121022727272726,0.118142290592194,-0.0331375276565552,-0.10327726507186899,1.4557578931662634
3.312708333333333,0.0989821343421936,0.165649093437195,0.0476089653968809,1.4557578931662634
3.3133143939393936,0.144487505435944,-0.0379275667190552,0.160174883365631,1.4557578931662634
3.3139204545454546,-0.0926194281578064,-0.12654328937530498,0.129039629459381,1.4557578931662634
3.314526515151515,0.252263384342194,-0.10019807453155499,0.0476089653968809,1.4557578931662634
3.3151325757575756,0.235498247623444,-0.0163723909378052,-0.009871503353119109,1.4557578931662634
3.315738636363636,-0.049509076595306394,0.220734542655945,0.17694002008438098,1.4557578931662634
3.316344696969697,0.0870070366859436,-0.133728347969055,0.37812166070938097,1.4557578931662634
3.3169507575757575,0.0151564507484436,-0.267849441719055,0.162569902896881,1.4557578931662634
3.317556818181818,0.0295265679359436,-0.0163723909378052,0.162569902896881,1.4557578931662634
3.3181628787878785,0.0678468804359436,0.0411080778121948,0.184125078678131,1.4557578931662634
3.3187689393939395,-0.07345927190780639,-0.157678543281555,0.239210527896881,1.4557578931662634
3.319375,-0.0351389594078064,0.0123678434371948,0.0452139458656309,1.4557578931662634
3.3199810606060605,-0.0040037055015564,-0.07864289875030521,0.323036211490631,1.4557578931662634
3.320587121212121,0.0438966851234436,-0.08582795734405521,0.0883242974281309,1.4557578931662634
3.321193181818182,-0.056694135189056395,-0.00200227375030518,0.00928865289688089,1.4557578931662634
3.3217992424242424,-0.0111887640953064,-0.0499026643753052,0.344591387271881,1.4557578931662634
3.322405303030303,0.0510817437171936,0.0506881559371948,0.174545000553131,1.4557578931662634
3.3230113636363634,-0.241110639095306,-0.23192414875030498,0.188915117740631,1.4557578931662634
3.323617424242424,-0.0782493109703064,-0.08582795734405521,0.030843828678130902,1.4557578931662634
3.324223484848485,-0.0878293890953064,-0.0283474885940552,0.17214998102188098,1.4557578931662634
3.3248295454545453,-0.0926194281578064,-0.0211624300003052,-0.000291425228119114,1.4557578931662634
3.325435606060606,-0.06627421331405639,-0.193603836250305,0.15059480524063099,1.4557578931662634
3.326041666666667,-0.061484174251556396,0.0363180387496948,0.260765703678131,1.4557578931662634
3.3266477272727273,0.187597856998444,-0.107383133125305,0.174545000553131,1.4557578931662634
3.327253787878788,0.0295265679359436,-0.24629426593780498,0.23202546930313098,1.4557578931662634
3.3278598484848483,-0.183630170345306,0.0291329801559448,0.18173005914688098,1.4557578931662634
3.328465909090909,-0.051904096126556394,-0.08103791828155521,0.20568025445938098,1.4557578931662634
3.3290719696969697,-0.0159788031578064,-0.234319168281555,0.188915117740631,1.4557578931662634
3.3296780303030302,0.0630568413734436,-0.08343293781280521,0.143409746646881,1.4557578931662634
3.3302840909090907,-0.138124799251556,0.0171578824996948,0.164964922428131,1.4557578931662634
3.330890151515151,-0.104594525814056,-0.0499026643753052,0.138619707584381,1.4557578931662634
3.331496212121212,0.271423540592194,-0.00439729328155518,0.100299395084381,1.4557578931662634
3.3321022727272727,0.187597856998444,0.0291329801559448,-0.120042401790619,1.4557578931662634
3.332708333333333,-0.051904096126556394,-0.162468582344055,-0.0841171088218691,1.4557578931662634
3.3333143939393937,0.0199464898109436,-0.121753250312805,0.014078691959380898,1.4557578931662634
3.3339204545454546,0.039106646060943606,0.122538741874695,0.0931143364906309,1.4557578931662634
3.334526515151515,0.0271315484046936,-0.0187674104690552,-0.0266366400718691,1.4557578931662634
3.3351325757575756,-0.0327439398765564,-0.116963211250305,0.0883242974281309,1.4557578931662634
3.335738636363636,-0.186025189876556,-0.140913406562805,0.279925859928131,1.4557578931662634
3.336344696969697,-0.0135837836265564,-0.23671418781280498,0.0380288872718809,1.4557578931662634
3.3369507575757575,-0.0854343695640564,-0.12654328937530498,0.0236587700843809,1.4557578931662634
3.337556818181818,0.0534767632484436,0.0578732145309448,0.121854570865631,1.4557578931662634
3.3381628787878785,0.120537310123444,-0.07864289875030521,0.234420488834381,1.4557578931662634
3.3387689393939395,0.0175514702796936,-0.133728347969055,0.20568025445938098,1.4557578931662634
3.339375,0.166042681217194,0.208759444999695,0.0787442193031309,1.4557578931662634
3.339981060606061,0.0319215874671936,-0.0331375276565552,0.19610017633438098,1.4557578931662634
3.340587121212121,0.0654518609046936,-0.0594827425003052,0.14101472711563098,1.4557578931662634
3.341193181818182,0.213943071842194,-0.00918733234405518,0.869100664615631,1.4557578931662634
3.341799242424242,-0.114174603939056,-0.0211624300003052,0.361356523990631,1.4557578931662634
3.342405303030303,0.166042681217194,0.122538741874695,-0.220633222103119,1.4557578931662634
3.343011363636364,-0.0375339789390564,-0.07864289875030521,0.411651934146881,1.4557578931662634
3.343617424242424,-0.0830393500328064,0.105773605155945,-0.0625619330406191,1.4557578931662634
3.344223484848485,-0.0399289984703064,-0.0427176057815552,-0.0793270697593691,1.4557578931662634
3.344829545454545,-0.138124799251556,0.0674532926559448,-0.06735197210311909,1.4557578931662634
3.345435606060606,0.0870070366859436,0.129723800468445,-0.143992597103119,1.4557578931662634
3.346041666666667,-0.0399289984703064,0.00997282390594482,-0.0242416205406191,1.4557578931662634
3.346647727272727,-0.214765424251556,-0.0546927034378052,-0.0266366400718691,1.4557578931662634
3.347253787878788,-0.154889935970306,0.0243429410934448,0.0188687310218809,1.4557578931662634
3.347859848484848,-0.241110639095306,-0.0307425081253052,0.14580476617813098,1.4557578931662634
3.348465909090909,-0.353676557064056,-0.0187674104690552,0.263160723209381,1.4557578931662634
3.3490719696969697,0.0295265679359436,-0.107383133125305,-0.0410067572593691,1.4557578931662634
3.34967803030303,-0.219555463314056,0.0554781949996948,-0.160757733821869,1.4557578931662634
3.3502840909090907,-0.255480756282806,0.148883956718445,-0.0457967963218691,1.4557578931662634
3.3508901515151517,0.0438966851234436,-0.116963211250305,-0.0913021674156191,1.4557578931662634
3.3514962121212117,-0.06866923284530639,-0.116963211250305,0.06437410211563091,1.4557578931662634
3.3521022727272727,-0.140519818782806,-0.0283474885940552,0.251185625553131,1.4557578931662634
3.3527083333333327,-0.181235150814056,-0.07624787921905521,0.167359941959381,1.4557578931662634
3.3533143939393937,-0.209975385189056,-0.124148269844055,0.133829668521881,1.4557578931662634
3.353920454545455,-0.0327439398765564,-0.0355325471878052,0.18173005914688098,1.4557578931662634
3.354526515151515,-0.0279539008140564,-0.0499026643753052,0.20568025445938098,1.4557578931662634
3.355132575757576,0.173227739810944,-0.0403225862503052,0.301481035709381,1.4557578931662634
3.355738636363636,0.0462917046546936,0.134513839530945,0.0452139458656309,1.4557578931662634
3.356344696969697,-0.219555463314056,-0.0187674104690552,-0.0865121283531191,1.4557578931662634
3.356950757575758,-0.0926194281578064,-0.162468582344055,-0.143992597103119,1.4557578931662634
3.357556818181818,0.0271315484046936,-0.155283523750305,0.033238848209380896,1.4557578931662634
3.358162878787879,-0.157284955501556,-0.260664383125305,0.0715591607093809,1.4557578931662634
3.358768939393939,-0.0998044867515564,0.0602682340621948,0.0212637505531309,1.4557578931662634
3.359375,0.178017778873444,0.112958663749695,-0.0913021674156191,1.4557578931662634
3.359981060606061,-0.0351389594078064,-0.0475076448440552,0.20089021539688098,1.4557578931662634
3.360587121212121,-0.138124799251556,0.0506881559371948,-0.16794279241561902,1.4557578931662634
3.361193181818182,0.182807817935944,-0.107383133125305,0.15059480524063099,1.4557578931662634
3.361799242424242,-0.0375339789390564,-0.06906282062530521,0.49787263727188097,1.4557578931662634
3.362405303030303,-0.07106425237655639,0.108168624687195,-0.134412518978119,1.4557578931662634
3.363011363636364,-0.0040037055015564,-0.0331375276565552,0.272740801334381,1.4557578931662634
3.363617424242424,0.0103664116859436,0.144093917655945,0.20089021539688098,1.4557578931662634
3.364223484848485,0.194782915592194,-0.160073562812805,0.272740801334381,1.4557578931662634
3.364829545454545,0.113352251529694,-0.112173172187805,0.212865313053131,1.4557578931662634
3.365435606060606,-0.0135837836265564,-0.0642727815628052,0.162569902896881,1.4557578931662634
3.366041666666667,-0.23392558050155599,0.005182784843444819,0.20568025445938098,1.4557578931662634
3.366647727272727,-0.176445111751556,0.00278776531219482,-0.0936971869468691,1.4557578931662634
3.367253787878788,-0.054299115657806395,0.005182784843444819,0.033238848209380896,1.4557578931662634
3.367859848484848,0.0798219780921936,0.117748702812195,0.059584063053130895,1.4557578931662634
3.368465909090909,-0.0111887640953064,0.005182784843444819,-0.0266366400718691,1.4557578931662634
3.3690719696969698,0.0271315484046936,-0.24629426593780498,0.617623613834381,1.4557578931662634
3.36967803030303,0.103772173404694,0.0387130582809448,0.878680742740631,1.4557578931662634
3.3702840909090908,-0.17405009222030599,0.0482931364059448,0.734979570865631,1.4557578931662634
3.3708901515151517,-0.0111887640953064,-0.0618777620315552,0.313456133365631,1.4557578931662634
3.3714962121212118,0.058266802310943604,0.0123678434371948,0.600858477115631,1.4557578931662634
3.3721022727272727,-0.0327439398765564,-0.284614578437805,0.248790606021881,1.4557578931662634
3.3727083333333328,-0.106989545345306,-0.08343293781280521,-0.122437421321869,1.4557578931662634
3.3733143939393937,-0.183630170345306,-0.107383133125305,0.208075273990631,1.4557578931662634
3.373920454545455,0.039106646060943606,0.158464034843445,0.164964922428131,1.4557578931662634
3.3745265151515147,-0.202790326595306,-0.06906282062530521,0.06916414117813091,1.4557578931662634
3.375132575757576,0.0079713921546936,-0.140913406562805,0.14580476617813098,1.4557578931662634
3.3757386363636357,0.0702418999671936,-0.0451126253128052,0.296690996646881,1.4557578931662634
3.376344696969697,-0.0878293890953064,-0.0522976839065552,-0.0434017767906191,1.4557578931662634
3.376950757575758,0.178017778873444,-0.0475076448440552,0.133829668521881,1.4557578931662634
3.377556818181818,-0.059089154720306396,-0.0403225862503052,0.17214998102188098,1.4557578931662634
3.378162878787879,0.0462917046546936,0.0578732145309448,0.121854570865631,1.4557578931662634
3.378768939393939,-0.183630170345306,-0.234319168281555,0.06437410211563091,1.4557578931662634
3.379375,0.0199464898109436,0.0554781949996948,-0.0984872260093691,1.4557578931662634
3.379981060606061,0.0510817437171936,-0.0522976839065552,0.13622468805313098,1.4557578931662634
3.380587121212121,-0.140519818782806,0.156069015312195,-0.14878263616561901,1.4557578931662634
3.381193181818182,0.0678468804359436,-0.16725862140655498,0.294295977115631,1.4557578931662634
3.381799242424242,-0.0183738226890564,-0.219949051094055,-0.029031659603119098,1.4557578931662634
3.382405303030303,-0.0279539008140564,-0.0355325471878052,-0.0362167181968691,1.4557578931662634
3.383011363636364,-0.145309857845306,-0.0570877229690552,0.160174883365631,1.4557578931662634
3.383617424242424,-0.166865033626556,0.115353683280945,-0.029031659603119098,1.4557578931662634
3.384223484848485,0.0534767632484436,-0.184023758125305,0.449972246646881,1.4557578931662634
3.384829545454545,-0.0040037055015564,-0.09540803546905521,0.06916414117813091,1.4557578931662634
3.385435606060606,0.0438966851234436,0.00039274578094482,0.19131013727188098,1.4557578931662634
3.386041666666667,0.101377153873444,-0.0163723909378052,0.006893633365630891,1.4557578931662634
3.386647727272727,-0.0399289984703064,0.0291329801559448,0.00928865289688089,1.4557578931662634
3.387253787878788,0.146882524967194,-0.07145784015655521,0.119459551334381,1.4557578931662634
3.387859848484848,0.0654518609046936,-0.00200227375030518,0.100299395084381,1.4557578931662634
3.388465909090909,0.0319215874671936,-0.07145784015655521,0.13622468805313098,1.4557578931662634
3.3890719696969698,0.204362993717194,0.0650582731246948,0.157779863834381,1.4557578931662634
3.38967803030303,0.0055763726234436,0.244684737968445,0.164964922428131,1.4557578931662634
3.3902840909090908,-0.0303489203453064,0.00997282390594482,-0.0218466010093691,1.4557578931662634
3.3908901515151517,0.0965871148109436,-0.06906282062530521,0.117064531803131,1.4557578931662634
3.3914962121212118,-0.310566205501556,-0.160073562812805,0.0116836724281309,1.4557578931662634
3.3921022727272727,-0.056694135189056395,-0.0546927034378052,-0.0960922064781191,1.4557578931662634
3.3927083333333328,0.0678468804359436,-0.07145784015655521,0.13622468805313098,1.4557578931662634
3.3933143939393937,-0.186025189876556,-0.128938308906555,0.0787442193031309,1.4557578931662634
3.393920454545455,-0.07106425237655639,-0.07624787921905521,0.208075273990631,1.4557578931662634
3.3945265151515147,-0.104594525814056,0.00278776531219482,0.0859292778968809,1.4557578931662634
3.395132575757576,-0.217160443782806,0.0818234098434448,-0.055376874446869104,1.4557578931662634
3.3957386363636357,0.0750319390296936,0.153673995780945,-0.0841171088218691,1.4557578931662634
3.396344696969697,-0.056694135189056395,-0.08582795734405521,0.105089434146881,1.4557578931662634
3.396950757575758,0.146882524967194,-0.128938308906555,0.14580476617813098,1.4557578931662634
3.397556818181818,0.0774269585609436,-0.145703445625305,0.174545000553131,1.4557578931662634
3.398162878787879,-0.238715619564056,-0.10019807453155499,-0.0242416205406191,1.4557578931662634
3.398768939393939,-0.159679975032806,0.105773605155945,-0.30924894475936904,1.4557578931662634
3.399375,-0.0207688422203064,0.0482931364059448,0.23202546930313098,1.4557578931662634
3.399981060606061,-0.0016086859703064,-0.138518387031555,0.23681550836563098,1.4557578931662634
3.400587121212121,-0.0830393500328064,-0.0355325471878052,-0.285298749446869,1.4557578931662634
3.401193181818182,-0.0854343695640564,-0.150493484687805,-0.029031659603119098,1.4557578931662634
3.401799242424242,-0.207580365657806,-0.00439729328155518,-0.0314266791343691,1.4557578931662634
3.402405303030303,-0.123754682064056,-0.0475076448440552,0.193705156803131,1.4557578931662634
3.403011363636364,-0.205185346126556,0.0147628629684448,0.0835342583656309,1.4557578931662634
3.403617424242424,-0.116569623470306,0.0195529020309448,0.0907193169593809,1.4557578931662634
3.404223484848485,-0.152494916439056,-0.277429519844055,0.21047029352188099,1.4557578931662634
3.404829545454545,0.101377153873444,0.0147628629684448,-0.16315275335311902,1.4557578931662634
3.405435606060606,-0.128544721126556,0.0530831754684448,0.0236587700843809,1.4557578931662634
3.406041666666667,-0.121359662532806,-0.08582795734405521,-0.0913021674156191,1.4557578931662634
3.406647727272727,-0.274640912532806,-0.0139773714065552,0.167359941959381,1.4557578931662634
3.407253787878788,-0.408762006282806,0.0171578824996948,0.13622468805313098,1.4557578931662634
3.407859848484848,0.0678468804359436,-0.0499026643753052,-0.136807538509369,1.4557578931662634
3.408465909090909,-0.106989545345306,0.141698898124695,0.152989824771881,1.4557578931662634
3.40907196969697,0.0247365288734436,0.0243429410934448,0.12424959039688101,1.4557578931662634
3.40967803030303,0.0247365288734436,0.00039274578094482,0.174545000553131,1.4557578931662634
3.410284090909091,0.036711626529693606,0.005182784843444819,0.006893633365630891,1.4557578931662634
3.4108901515151517,0.108562212467194,-0.234319168281555,0.25837068414688097,1.4557578931662634
3.411496212121212,-0.0327439398765564,0.09619352703094479,0.277530840396881,1.4557578931662634
3.4121022727272727,-0.0159788031578064,0.0770333707809448,0.016473711490630902,1.4557578931662634
3.412708333333333,0.04150166559219361,-0.18162873859405498,0.0380288872718809,1.4557578931662634
3.4133143939393937,0.151672564029694,-0.0403225862503052,-0.0769320502281191,1.4557578931662634
3.4139204545454547,-0.049509076595306394,-0.248689285469055,0.19131013727188098,1.4557578931662634
3.4145265151515147,-0.061484174251556396,0.0267379606246948,0.0859292778968809,1.4557578931662634
3.4151325757575757,0.151672564029694,0.235104659843445,0.0883242974281309,1.4557578931662634
3.4157386363636357,0.0175514702796936,-0.17683869953155498,-0.127227460384369,1.4557578931662634
3.4163446969696967,-0.118964643001556,-0.0427176057815552,0.030843828678130902,1.4557578931662634
3.416950757575758,-0.0375339789390564,-0.00918733234405518,0.0811392388343809,1.4557578931662634
3.4175568181818177,-0.0016086859703064,0.160859054374695,0.105089434146881,1.4557578931662634
3.418162878787879,-0.322541303157806,0.0219479215621948,0.179335039615631,1.4557578931662634
3.4187689393939387,-0.29619608831405597,0.00278776531219482,-0.18710294866561902,1.4557578931662634
3.419375,-0.0399289984703064,-0.07385285968780521,0.253580645084381,1.4557578931662634
3.419981060606061,-0.0087937445640564,-0.19120881671905499,0.382911699771881,1.4557578931662634
3.420587121212121,-0.0423240180015564,0.203969405937195,-0.0769320502281191,1.4557578931662634
3.421193181818182,-0.0782493109703064,-0.155283523750305,0.179335039615631,1.4557578931662634
3.421799242424242,0.0151564507484436,0.0315279996871948,0.00449861383438089,1.4557578931662634
3.422405303030303,0.0199464898109436,0.0171578824996948,0.157779863834381,1.4557578931662634
3.423011363636364,-0.0303489203453064,-0.07385285968780521,0.222445391178131,1.4557578931662634
3.423617424242424,0.163647661685944,0.0698483121871948,-0.0242416205406191,1.4557578931662634
3.424223484848485,-0.0231638617515564,0.153673995780945,0.279925859928131,1.4557578931662634
3.424829545454545,0.000786333560943597,-0.119358230781555,0.0835342583656309,1.4557578931662634
3.425435606060606,-0.0375339789390564,-0.375625320625305,0.0931143364906309,1.4557578931662634
3.426041666666667,-0.159679975032806,-0.109778152656555,-0.206263104915619,1.4557578931662634
3.426647727272727,0.137302446842194,0.0147628629684448,0.0404239068031309,1.4557578931662634
3.427253787878788,-0.051904096126556394,-0.0259524690628052,0.119459551334381,1.4557578931662634
3.427859848484848,-0.138124799251556,-0.0115823518753052,0.0907193169593809,1.4557578931662634
3.428465909090909,0.0223415093421936,0.0243429410934448,0.301481035709381,1.4557578931662634
3.42907196969697,-0.0183738226890564,-0.0211624300003052,-0.203868085384369,1.4557578931662634
3.42967803030303,-0.0926194281578064,0.0195529020309448,0.061979082584380896,1.4557578931662634
3.430284090909091,0.0151564507484436,0.0722433317184448,-0.0625619330406191,1.4557578931662634
3.4308901515151518,0.134907427310944,-0.0427176057815552,-0.170337811946869,1.4557578931662634
3.431496212121212,0.0175514702796936,-0.30377473468780497,0.490687578678131,1.4557578931662634
3.4321022727272728,0.0846120171546936,-0.17204866046905498,0.17694002008438098,1.4557578931662634
3.432708333333333,0.257053423404694,-0.150493484687805,0.208075273990631,1.4557578931662634
3.4333143939393937,0.0151564507484436,0.0291329801559448,0.265555742740631,1.4557578931662634
3.4339204545454547,-0.07106425237655639,-0.0139773714065552,-0.055376874446869104,1.4557578931662634
3.4345265151515147,0.137302446842194,-0.0978030550003052,-0.266138593196869,1.4557578931662634
3.4351325757575757,0.0079713921546936,-0.140913406562805,0.0811392388343809,1.4557578931662634
3.4357386363636357,-0.0423240180015564,-0.23671418781280498,0.239210527896881,1.4557578931662634
3.4363446969696967,-0.054299115657806395,0.0195529020309448,0.0428189263343809,1.4557578931662634
3.436950757575758,-0.0806443305015564,0.117748702812195,0.222445391178131,1.4557578931662634
3.4375568181818177,-0.0854343695640564,-0.287009597969055,0.26795076227188097,1.4557578931662634
3.438162878787879,0.0558717827796936,-0.239109207344055,-0.11285734319686899,1.4557578931662634
3.438768939393939,-0.06387919378280639,0.146488937187195,-0.15836271429061902,1.4557578931662634
3.439375,-0.245900678157806,-0.116963211250305,0.0763491997718809,1.4557578931662634
3.439981060606061,0.060661821842193604,0.0411080778121948,-0.196683026790619,1.4557578931662634
3.440587121212121,-0.056694135189056395,0.0578732145309448,-0.0457967963218691,1.4557578931662634
3.441193181818182,-0.147704877376556,-0.136123367500305,-0.0457967963218691,1.4557578931662634
3.441799242424242,-0.06387919378280639,0.00757780437469482,-0.136807538509369,1.4557578931662634
3.442405303030303,-0.121359662532806,0.10098356609344501,0.19610017633438098,1.4557578931662634
3.443011363636364,-0.0016086859703064,-0.0187674104690552,0.0380288872718809,1.4557578931662634
3.443617424242424,-0.0471140570640564,-0.152888504219055,-0.10327726507186899,1.4557578931662634
3.444223484848485,-0.06387919378280639,-0.162468582344055,0.0835342583656309,1.4557578931662634
3.444829545454545,-0.051904096126556394,-0.222344070625305,0.0811392388343809,1.4557578931662634
3.445435606060606,-0.253085736751556,0.180019210624695,0.105089434146881,1.4557578931662634
3.446041666666667,-0.0351389594078064,0.08900846843719479,0.179335039615631,1.4557578931662634
3.446647727272727,-0.07106425237655639,-0.222344070625305,0.162569902896881,1.4557578931662634
3.447253787878788,-0.207580365657806,-0.0451126253128052,-0.00747648382186911,1.4557578931662634
3.447859848484848,-0.217160443782806,-0.0187674104690552,0.0859292778968809,1.4557578931662634
3.448465909090909,-0.049509076595306394,0.0411080778121948,0.19131013727188098,1.4557578931662634
3.44907196969697,-0.049509076595306394,0.215944503593445,0.152989824771881,1.4557578931662634
3.44967803030303,-0.142914838314056,-0.116963211250305,0.00928865289688089,1.4557578931662634
3.450284090909091,-0.0902244086265564,-0.0499026643753052,-0.0841171088218691,1.4557578931662634
3.4508901515151518,0.058266802310943604,0.13211881999969502,0.0931143364906309,1.4557578931662634
3.451496212121212,-0.0087937445640564,0.108168624687195,0.061979082584380896,1.4557578931662634
3.4521022727272728,0.0462917046546936,0.00039274578094482,0.014078691959380898,1.4557578931662634
3.452708333333333,-0.104594525814056,-0.219949051094055,0.014078691959380898,1.4557578931662634
3.4533143939393938,-0.102199506282806,-0.09301301593780521,-0.0984872260093691,1.4557578931662634
3.4539204545454547,-0.116569623470306,-0.145703445625305,-0.0218466010093691,1.4557578931662634
3.4545265151515148,-0.200395307064056,0.00278776531219482,0.23202546930313098,1.4557578931662634
3.4551325757575757,0.0055763726234436,0.0722433317184448,0.0500039849281309,1.4557578931662634
3.4557386363636358,-0.0998044867515564,0.0363180387496948,-0.00747648382186911,1.4557578931662634
3.4563446969696967,0.0510817437171936,-0.07385285968780521,0.21047029352188099,1.4557578931662634
3.456950757575758,-0.0854343695640564,-0.121753250312805,0.0955093560218809,1.4557578931662634
3.4575568181818177,0.0654518609046936,0.09140348796844479,0.138619707584381,1.4557578931662634
3.458162878787879,-0.0135837836265564,0.112958663749695,0.346986406803131,1.4557578931662634
3.4587689393939387,0.039106646060943606,-0.104988113594055,0.126644609928131,1.4557578931662634
3.459375,0.0486867241859436,-0.36365022296905497,0.466737383365631,1.4557578931662634
3.459981060606061,-0.162074994564056,-0.0403225862503052,-0.203868085384369,1.4557578931662634
3.460587121212121,-0.166865033626556,-0.0451126253128052,-0.254163495540619,1.4557578931662634
3.461193181818182,-0.118964643001556,0.09140348796844479,0.356566484928131,1.4557578931662634
3.461799242424242,-0.106989545345306,0.249474777030945,-0.239793378353119,1.4557578931662634
3.462405303030303,-0.126149701595306,-0.116963211250305,0.13143464899063098,1.4557578931662634
3.463011363636364,0.0151564507484436,-0.08343293781280521,-0.189497968196869,1.4557578931662634
3.463617424242424,-0.07106425237655639,-0.07145784015655521,0.129039629459381,1.4557578931662634
3.464223484848485,0.134907427310944,0.10098356609344501,0.0380288872718809,1.4557578931662634
3.464829545454545,0.0199464898109436,0.0267379606246948,0.121854570865631,1.4557578931662634
3.465435606060606,-0.0159788031578064,-0.217554031562805,0.346986406803131,1.4557578931662634
3.466041666666667,-0.0040037055015564,-0.128938308906555,-0.06495695257186909,1.4557578931662634
3.466647727272727,0.0654518609046936,-0.200788894844055,0.102694414615631,1.4557578931662634
3.467253787878788,0.0654518609046936,0.0722433317184448,-0.06735197210311909,1.4557578931662634
3.467859848484848,-0.0375339789390564,-0.07864289875030521,0.0811392388343809,1.4557578931662634
3.468465909090909,0.0199464898109436,-0.145703445625305,0.0715591607093809,1.4557578931662634
3.46907196969697,0.060661821842193604,-0.200788894844055,0.270345781803131,1.4557578931662634
3.46967803030303,-0.0231638617515564,-0.253479324531555,0.279925859928131,1.4557578931662634
3.470284090909091,-0.238715619564056,0.13211881999969502,-0.0434017767906191,1.4557578931662634
3.470890151515152,-0.217160443782806,-0.107383133125305,0.26795076227188097,1.4557578931662634
3.471496212121212,0.0534767632484436,-0.06906282062530521,0.148199785709381,1.4557578931662634
3.472102272727273,0.0726369194984436,-0.07145784015655521,0.0260537896156309,1.4557578931662634
3.472708333333333,0.0127614312171936,-0.08103791828155521,0.21047029352188099,1.4557578931662634
3.473314393939394,0.271423540592194,0.0602682340621948,0.402071856021881,1.4557578931662634
3.4739204545454547,-0.0399289984703064,-0.00200227375030518,0.0907193169593809,1.4557578931662634
3.474526515151515,-0.114174603939056,-0.162468582344055,0.0188687310218809,1.4557578931662634
3.4751325757575757,-0.06387919378280639,-0.313354812812805,0.0907193169593809,1.4557578931662634
3.475738636363636,0.0151564507484436,-0.210368972969055,0.0979043755531309,1.4557578931662634
3.4763446969696967,-0.140519818782806,0.115353683280945,0.148199785709381,1.4557578931662634
3.476950757575758,-0.114174603939056,0.110563644218445,0.160174883365631,1.4557578931662634
3.4775568181818177,-0.06387919378280639,-0.08822297687530521,0.255975664615631,1.4557578931662634
3.478162878787879,-0.130939740657806,-0.0570877229690552,0.291900957584381,1.4557578931662634
3.4787689393939387,0.0510817437171936,0.0674532926559448,0.198495195865631,1.4557578931662634
3.479375,-0.049509076595306394,0.0171578824996948,0.102694414615631,1.4557578931662634
3.479981060606061,0.0654518609046936,0.18720426921844502,0.133829668521881,1.4557578931662634
3.480587121212121,-0.17405009222030599,-0.0187674104690552,0.306271074771881,1.4557578931662634
3.481193181818182,-0.207580365657806,-0.263059402656555,0.313456133365631,1.4557578931662634
3.481799242424242,0.122932329654694,0.0626632535934448,-0.278113690853119,1.4557578931662634
3.482405303030303,-0.0998044867515564,0.00039274578094482,0.0907193169593809,1.4557578931662634
3.483011363636364,-0.0854343695640564,0.108168624687195,0.00928865289688089,1.4557578931662634
3.483617424242424,0.108562212467194,0.00997282390594482,0.0979043755531309,1.4557578931662634
3.484223484848485,0.194782915592194,-0.12654328937530498,0.162569902896881,1.4557578931662634
3.484829545454545,-0.147704877376556,-0.157678543281555,0.19610017633438098,1.4557578931662634
3.485435606060606,-0.0854343695640564,-0.102593094062805,0.40925691461563096,1.4557578931662634
3.486041666666667,0.0774269585609436,0.0435030973434448,0.0404239068031309,1.4557578931662634
3.486647727272727,0.0127614312171936,-0.0427176057815552,0.224840410709381,1.4557578931662634
3.487253787878788,0.216338091373444,0.0458981168746948,0.00928865289688089,1.4557578931662634
3.487859848484848,0.168437700748444,-0.0139773714065552,0.198495195865631,1.4557578931662634
3.488465909090909,-0.0854343695640564,-0.00439729328155518,0.306271074771881,1.4557578931662634
3.48907196969697,0.04150166559219361,-0.00200227375030518,0.0979043755531309,1.4557578931662634
3.48967803030303,0.034316606998443605,-0.08343293781280521,0.0715591607093809,1.4557578931662634
3.490284090909091,-0.06387919378280639,0.0530831754684448,-0.294878827571869,1.4557578931662634
3.490890151515152,-0.07585429143905639,-0.0403225862503052,0.416441973209381,1.4557578931662634
3.491496212121212,-0.226740521907806,-0.18162873859405498,0.859520586490631,1.4557578931662634
3.492102272727273,0.194782915592194,0.117748702812195,0.19610017633438098,1.4557578931662634
3.492708333333333,0.0798219780921936,0.08421842937469479,-0.0984872260093691,1.4557578931662634
3.493314393939394,0.0103664116859436,-0.152888504219055,0.057189043521880895,1.4557578931662634
3.4939204545454547,-0.0111887640953064,-0.0594827425003052,-0.00268644475936911,1.4557578931662634
3.494526515151515,-0.202790326595306,-0.136123367500305,-0.0410067572593691,1.4557578931662634
3.4951325757575757,0.120537310123444,-0.0379275667190552,0.006893633365630891,1.4557578931662634
3.495738636363636,0.139697466373444,0.0770333707809448,-0.0697469916343691,1.4557578931662634
3.4963446969696967,-0.0207688422203064,-0.0594827425003052,0.0380288872718809,1.4557578931662634
3.4969507575757577,-0.0135837836265564,-0.07864289875030521,0.167359941959381,1.4557578931662634
3.4975568181818177,0.039106646060943606,0.0147628629684448,0.13622468805313098,1.4557578931662634
3.4981628787878787,0.163647661685944,0.153673995780945,0.06676912164688091,1.4557578931662634
3.4987689393939387,-0.0231638617515564,0.00278776531219482,0.282320879459381,1.4557578931662634
3.4993749999999997,0.058266802310943604,-0.356465164375305,0.339801348209381,1.4557578931662634
3.499981060606061,0.173227739810944,-0.0331375276565552,-0.0481918158531191,1.4557578931662634
3.5005871212121207,-0.07585429143905639,0.08661344890594479,0.306271074771881,1.4557578931662634
3.501193181818182,-0.0207688422203064,0.208759444999695,0.346986406803131,1.4557578931662634
3.5017992424242417,-0.0111887640953064,0.146488937187195,-0.122437421321869,1.4557578931662634
3.502405303030303,-0.07585429143905639,-0.330119949531555,0.105089434146881,1.4557578931662634
3.503011363636364,-0.214765424251556,-0.07385285968780521,-0.321224042415619,1.4557578931662634
3.503617424242424,-0.106989545345306,0.00997282390594482,0.20568025445938098,1.4557578931662634
3.504223484848485,-0.0087937445640564,0.0435030973434448,0.28950593805313096,1.4557578931662634
3.504829545454545,0.060661821842193604,0.0339230192184448,0.188915117740631,1.4557578931662634
3.505435606060606,-0.0327439398765564,0.08661344890594479,0.279925859928131,1.4557578931662634
3.506041666666667,-0.0854343695640564,-0.155283523750305,-0.120042401790619,1.4557578931662634
3.506647727272727,-0.0040037055015564,-0.06906282062530521,0.19610017633438098,1.4557578931662634
3.507253787878788,0.168437700748444,0.225524581718445,0.0811392388343809,1.4557578931662634
3.507859848484848,-0.051904096126556394,0.112958663749695,0.239210527896881,1.4557578931662634
3.508465909090909,-0.049509076595306394,-0.00439729328155518,0.0428189263343809,1.4557578931662634
3.50907196969697,-0.0159788031578064,-0.12654328937530498,0.14101472711563098,1.4557578931662634
3.50967803030303,-0.17405009222030599,-0.0427176057815552,0.208075273990631,1.4557578931662634
3.510284090909091,-0.0111887640953064,0.09379850749969479,-0.10567228460311899,1.4557578931662634
3.510890151515151,-0.054299115657806395,0.22791960124969501,-0.060166913509369105,1.4557578931662634
3.511496212121212,-0.162074994564056,0.0219479215621948,0.24639558649063098,1.4557578931662634
3.512102272727273,-0.260270795345306,-0.143308426094055,0.117064531803131,1.4557578931662634
3.512708333333333,-0.056694135189056395,-0.0546927034378052,0.248790606021881,1.4557578931662634
3.513314393939394,-0.0351389594078064,0.201574386405945,0.282320879459381,1.4557578931662634
3.5139204545454548,-0.186025189876556,0.208759444999695,0.0476089653968809,1.4557578931662634
3.514526515151515,-0.0159788031578064,-0.112173172187805,0.311061113834381,1.4557578931662634
3.5151325757575758,-0.0279539008140564,-0.210368972969055,0.0955093560218809,1.4557578931662634
3.515738636363636,-0.07585429143905639,-0.133728347969055,0.0380288872718809,1.4557578931662634
3.5163446969696968,0.0031813530921936,0.151278976249695,0.212865313053131,1.4557578931662634
3.5169507575757577,-0.315356244564056,0.263844894218445,0.354171465396881,1.4557578931662634
3.5175568181818178,-0.133334760189056,0.110563644218445,-0.00268644475936911,1.4557578931662634
3.5181628787878787,0.110957231998444,0.08900846843719479,-0.15357267522811902,1.4557578931662634
3.5187689393939388,-0.0782493109703064,-0.0546927034378052,0.164964922428131,1.4557578931662634
3.519375,-0.236320600032806,-0.17204866046905498,0.342196367740631,1.4557578931662634
3.519981060606061,0.0534767632484436,0.326115402030945,0.411651934146881,1.4557578931662634
3.520587121212121,-0.0063987250328064,0.0458981168746948,0.15059480524063099,1.4557578931662634
3.521193181818182,-0.0231638617515564,-0.102593094062805,0.452367266178131,1.4557578931662634
3.521799242424242,0.170832720279694,-0.08103791828155521,0.179335039615631,1.4557578931662634
3.522405303030303,-0.06387919378280639,-0.243899246406555,0.0715591607093809,1.4557578931662634
3.523011363636364,-0.051904096126556394,0.148883956718445,0.0212637505531309,1.4557578931662634
3.523617424242424,-0.219555463314056,-0.0594827425003052,0.12424959039688101,1.4557578931662634
3.524223484848485,-0.07106425237655639,0.0267379606246948,-0.014661542415619101,1.4557578931662634
3.524829545454545,0.0894020562171936,-0.212763992500305,-0.0889071478843691,1.4557578931662634
3.525435606060606,0.036711626529693606,-0.255874344062805,-0.0170565619468691,1.4557578931662634
3.526041666666667,-0.0423240180015564,0.110563644218445,-0.06495695257186909,1.4557578931662634
3.526647727272727,-0.229135541439056,-0.09301301593780521,0.385306719303131,1.4557578931662634
3.527253787878788,-0.157284955501556,-0.169653640937805,0.224840410709381,1.4557578931662634
3.527859848484849,-0.0902244086265564,-0.0259524690628052,0.0523990044593809,1.4557578931662634
3.528465909090909,0.0917970757484436,-0.0211624300003052,0.203285234928131,1.4557578931662634
3.52907196969697,-0.123754682064056,0.144093917655945,0.313456133365631,1.4557578931662634
3.52967803030303,-0.056694135189056395,0.10098356609344501,0.014078691959380898,1.4557578931662634
3.530284090909091,0.0438966851234436,-0.207973953437805,0.162569902896881,1.4557578931662634
3.530890151515152,-0.0351389594078064,-0.19120881671905499,-0.029031659603119098,1.4557578931662634
3.531496212121212,0.0103664116859436,-0.07864289875030521,0.12424959039688101,1.4557578931662634
3.532102272727273,0.149277544498444,-0.143308426094055,0.380516680240631,1.4557578931662634
3.532708333333333,0.122932329654694,0.105773605155945,0.320641191959381,1.4557578931662634
3.533314393939394,-0.360861615657806,0.0602682340621948,0.0236587700843809,1.4557578931662634
3.533920454545455,-0.0327439398765564,-0.102593094062805,-0.10327726507186899,1.4557578931662634
3.534526515151515,0.0199464898109436,-0.09301301593780521,0.129039629459381,1.4557578931662634
3.535132575757576,0.0295265679359436,-0.203183914375305,0.0404239068031309,1.4557578931662634
3.535738636363636,-0.0255588812828064,0.120143722343445,0.19131013727188098,1.4557578931662634
3.5363446969696968,-0.0111887640953064,0.230314620780945,0.13143464899063098,1.4557578931662634
3.5369507575757577,0.103772173404694,-0.150493484687805,0.059584063053130895,1.4557578931662634
3.5375568181818178,0.0031813530921936,-0.162468582344055,-0.0721420111656191,1.4557578931662634
3.5381628787878787,-0.133334760189056,-0.0499026643753052,0.152989824771881,1.4557578931662634
3.5387689393939388,-0.336911420345306,0.0195529020309448,0.224840410709381,1.4557578931662634
3.5393749999999997,-0.207580365657806,-0.109778152656555,0.119459551334381,0.6663960952774698
3.5399810606060607,0.0127614312171936,-0.0211624300003052,-0.0218466010093691,0.6663960952774698
3.5405871212121207,-0.183630170345306,-0.215159012031555,0.399676836490631,0.6663960952774698
3.5411931818181817,0.0079713921546936,0.13211881999969502,-0.23739835882186902,0.6663960952774698
3.5417992424242417,0.103772173404694,0.09858854656219479,0.162569902896881,0.6663960952774698
3.5424053030303027,-0.109384564876556,-0.298984695625305,0.6128335747718809,0.6663960952774698
3.543011363636364,0.252263384342194,-0.140913406562805,-0.06495695257186909,0.6663960952774698
3.5436174242424237,0.0534767632484436,-0.397180496406555,0.270345781803131,0.6663960952774698
3.544223484848485,-0.051904096126556394,0.09379850749969479,-0.10327726507186899,0.6663960952774698
3.5448295454545447,0.211548052310944,0.08900846843719479,0.059584063053130895,0.6663960952774698
3.545435606060606,-0.06866923284530639,0.148883956718445,0.107484453678131,0.6663960952774698
3.546041666666667,-0.049509076595306394,-0.00439729328155518,0.143409746646881,0.6663960952774698
3.546647727272727,0.199572954654694,-0.217554031562805,0.152989824771881,0.6663960952774698
3.547253787878788,-0.0040037055015564,-0.0594827425003052,0.057189043521880895,0.6663960952774698
3.547859848484848,-0.059089154720306396,0.00278776531219482,-0.014661542415619101,0.6663960952774698
3.548465909090909,0.161252642154694,0.117748702812195,-0.06735197210311909,0.6663960952774698
3.54907196969697,-0.0782493109703064,-0.119358230781555,-0.120042401790619,0.6663960952774698
3.54967803030303,-0.221950482845306,-0.0163723909378052,0.006893633365630891,0.6663960952774698
3.550284090909091,0.12532734918594401,0.141698898124695,0.440392168521881,0.6663960952774698
3.550890151515152,-0.06627421331405639,-0.0331375276565552,0.392491777896881,0.6663960952774698
3.551496212121212,-0.0159788031578064,-0.152888504219055,0.0188687310218809,0.6663960952774698
3.552102272727273,-0.0399289984703064,-0.265454422187805,0.227235430240631,0.6663960952774698
3.552708333333333,-0.183630170345306,-0.255874344062805,-0.0170565619468691,0.6663960952774698
3.553314393939394,0.257053423404694,-0.0331375276565552,-0.134412518978119,0.6663960952774698
3.553920454545455,0.0941920952796936,-0.0475076448440552,0.148199785709381,0.6663960952774698
3.554526515151515,-0.217160443782806,-0.128938308906555,0.31824617242813097,0.6663960952774698
3.555132575757576,0.0630568413734436,-0.07385285968780521,0.0787442193031309,0.6663960952774698
3.555738636363636,0.0534767632484436,-0.215159012031555,0.016473711490630902,0.6663960952774698
3.556344696969697,-0.111779584407806,-0.0618777620315552,0.126644609928131,0.6663960952774698
3.5569507575757577,-0.111779584407806,0.0147628629684448,0.164964922428131,0.6663960952774698
3.557556818181818,0.0151564507484436,0.0530831754684448,0.126644609928131,0.6663960952774698
3.5581628787878787,-0.0471140570640564,-0.109778152656555,0.028448809146880902,0.6663960952774698
3.558768939393939,0.0726369194984436,-0.169653640937805,0.0955093560218809,0.6663960952774698
3.5593749999999997,-0.190815228939056,-0.104988113594055,0.0380288872718809,0.6663960952774698
3.559981060606061,0.034316606998443605,-0.0331375276565552,-0.000291425228119114,0.6663960952774698
3.5605871212121207,-0.0854343695640564,-0.0379275667190552,0.275135820865631,0.6663960952774698
3.561193181818182,0.0870070366859436,0.00757780437469482,-0.160757733821869,0.6663960952774698
3.5617992424242417,0.230708208560944,-0.124148269844055,0.282320879459381,0.6663960952774698
3.562405303030303,-0.140519818782806,-0.112173172187805,0.296690996646881,0.6663960952774698
3.563011363636364,0.213943071842194,-0.006792312812805181,0.0715591607093809,0.6663960952774698
3.563617424242424,-0.07106425237655639,-0.07864289875030521,0.370936602115631,0.6663960952774698
3.564223484848485,0.101377153873444,-0.0978030550003052,-0.00268644475936911,0.6663960952774698
3.564829545454545,0.156462603092194,-0.313354812812805,0.287110918521881,0.6663960952774698
3.565435606060606,-0.133334760189056,-0.0187674104690552,0.0236587700843809,0.6663960952774698
3.566041666666667,-0.0303489203453064,0.0435030973434448,0.26795076227188097,0.6663960952774698
3.566647727272727,-0.133334760189056,0.00039274578094482,0.0907193169593809,0.6663960952774698
3.567253787878788,0.120537310123444,-0.0379275667190552,-0.0266366400718691,0.6663960952774698
3.567859848484848,0.166042681217194,-0.06906282062530521,0.0979043755531309,0.6663960952774698
3.568465909090909,-0.274640912532806,-0.251084305000305,-0.0865121283531191,0.6663960952774698
3.56907196969697,-0.0998044867515564,-0.251084305000305,0.184125078678131,0.6663960952774698
3.56967803030303,-0.07106425237655639,0.141698898124695,0.0907193169593809,0.6663960952774698
3.570284090909091,-0.056694135189056395,0.0770333707809448,0.20089021539688098,0.6663960952774698
3.570890151515152,-0.0447190375328064,-0.229529129219055,0.272740801334381,0.6663960952774698
3.571496212121212,-0.133334760189056,0.0818234098434448,0.0763491997718809,0.6663960952774698
3.572102272727273,-0.0279539008140564,0.0171578824996948,0.14101472711563098,0.6663960952774698
3.572708333333333,-0.214765424251556,-0.380415359687805,-0.0266366400718691,0.6663960952774698
3.573314393939394,-0.06387919378280639,-0.0403225862503052,-0.0697469916343691,0.6663960952774698
3.573920454545455,-0.0040037055015564,-0.124148269844055,0.14101472711563098,0.6663960952774698
3.574526515151515,0.0917970757484436,-0.248689285469055,0.054794023990630894,0.6663960952774698
3.575132575757576,-0.06627421331405639,-0.09540803546905521,-0.055376874446869104,0.6663960952774698
3.575738636363636,0.04150166559219361,-0.0522976839065552,-0.0266366400718691,0.6663960952774698
3.576344696969697,0.115747271060944,0.120143722343445,0.0428189263343809,0.6663960952774698
3.5769507575757578,-0.118964643001556,-0.121753250312805,0.152989824771881,0.6663960952774698
3.577556818181818,-0.128544721126556,-0.114568191719055,0.248790606021881,0.6663960952774698
3.5781628787878788,-0.0423240180015564,0.0387130582809448,0.0380288872718809,0.6663960952774698
3.578768939393939,-0.0447190375328064,-0.200788894844055,0.033238848209380896,0.6663960952774698
3.5793749999999998,-0.0423240180015564,0.0530831754684448,0.296690996646881,0.6663960952774698
3.5799810606060607,-0.0207688422203064,0.139303878593445,0.524217852115631,0.6663960952774698
3.5805871212121207,-0.159679975032806,-0.0427176057815552,0.109879473209381,0.6663960952774698
3.5811931818181817,0.0726369194984436,0.194389327812195,0.356566484928131,0.6663960952774698
3.5817992424242417,0.130117388248444,-0.07145784015655521,0.44757722711563097,0.6663960952774698
3.5824053030303027,-0.059089154720306396,-0.116963211250305,-0.417024823665619,0.6663960952774698
3.583011363636364,-0.193210248470306,0.0387130582809448,-0.143992597103119,0.6663960952774698
3.5836174242424237,-0.238715619564056,-0.10019807453155499,0.279925859928131,0.6663960952774698
3.584223484848485,-0.138124799251556,-0.0139773714065552,0.06916414117813091,0.6663960952774698
3.5848295454545447,0.146882524967194,0.0171578824996948,0.133829668521881,0.6663960952774698
3.585435606060606,0.0774269585609436,0.09619352703094479,0.13622468805313098,0.6663960952774698
3.586041666666667,-0.114174603939056,-0.0379275667190552,0.203285234928131,0.6663960952774698
3.586647727272727,-0.164470014095306,-0.09301301593780521,0.0212637505531309,0.6663960952774698
3.587253787878788,0.0846120171546936,-0.0427176057815552,-0.0362167181968691,0.6663960952774698
3.587859848484849,0.130117388248444,0.0123678434371948,0.15059480524063099,0.6663960952774698
3.588465909090909,0.0103664116859436,0.00757780437469482,0.248790606021881,0.6663960952774698
3.58907196969697,-0.0207688422203064,0.0123678434371948,0.148199785709381,0.6663960952774698
3.58967803030303,0.034316606998443605,0.0315279996871948,-0.17752287054061902,0.6663960952774698
3.590284090909091,-0.0040037055015564,-0.00439729328155518,0.14580476617813098,0.6663960952774698
3.590890151515152,-0.0926194281578064,0.0530831754684448,0.107484453678131,0.6663960952774698
3.591496212121212,-0.056694135189056395,-0.0546927034378052,0.0428189263343809,0.6663960952774698
3.592102272727273,-0.138124799251556,-0.0139773714065552,0.119459551334381,0.6663960952774698
3.592708333333333,-0.0471140570640564,-0.0403225862503052,0.0452139458656309,0.6663960952774698
3.593314393939394,0.0151564507484436,-0.260664383125305,0.18652009820938098,0.6663960952774698
3.593920454545455,0.0989821343421936,-0.212763992500305,0.0907193169593809,0.6663960952774698
3.594526515151515,0.101377153873444,0.0722433317184448,-0.0697469916343691,0.6663960952774698
3.595132575757576,-0.198000287532806,0.18241423015594502,0.0500039849281309,0.6663960952774698
3.595738636363636,-0.0974094672203064,-0.162468582344055,0.148199785709381,0.6663960952774698
3.596344696969697,0.0726369194984436,-0.174443680000305,0.014078691959380898,0.6663960952774698
3.5969507575757578,0.218733110904694,0.0147628629684448,-0.00747648382186911,0.6663960952774698
3.597556818181818,-0.176445111751556,-0.0139773714065552,0.006893633365630891,0.6663960952774698
3.5981628787878788,-0.236320600032806,0.139303878593445,-0.00268644475936911,0.6663960952774698
3.598768939393939,-0.0375339789390564,0.0482931364059448,0.061979082584380896,0.6663960952774698
3.5993749999999998,-0.17405009222030599,-0.162468582344055,0.0739541802406309,0.6663960952774698
3.5999810606060607,0.0127614312171936,0.12732878093719502,0.0763491997718809,0.6663960952774698
3.6005871212121208,-0.217160443782806,0.08900846843719479,0.335011309146881,0.6663960952774698
3.6011931818181817,-0.291406049251556,0.0578732145309448,0.057189043521880895,0.6663960952774698
3.6017992424242418,0.034316606998443605,-0.19120881671905499,0.0763491997718809,0.6663960952774698
3.6024053030303027,-0.0159788031578064,-0.19120881671905499,0.390096758365631,0.6663960952774698
3.603011363636364,-0.0063987250328064,0.0458981168746948,0.325431231021881,0.6663960952774698
3.6036174242424237,0.0894020562171936,-0.0235574495315552,0.255975664615631,0.6663960952774698
3.604223484848485,-0.169260053157806,0.0363180387496948,0.188915117740631,0.6663960952774698
3.6048295454545447,-0.277035932064056,-0.18641877765655498,0.282320879459381,0.6663960952774698
3.605435606060606,-0.284220990657806,0.0435030973434448,0.105089434146881,0.6663960952774698
3.606041666666667,-0.106989545345306,-0.0115823518753052,0.203285234928131,0.6663960952774698
3.606647727272727,-0.135729779720306,-0.0522976839065552,0.0476089653968809,0.6663960952774698
3.607253787878788,0.0295265679359436,-0.0594827425003052,0.0715591607093809,0.6663960952774698
3.607859848484848,0.259448442935944,-0.0451126253128052,0.279925859928131,0.6663960952774698
3.608465909090909,-0.0423240180015564,-0.0427176057815552,0.160174883365631,0.6663960952774698
3.60907196969697,-0.133334760189056,0.0363180387496948,0.016473711490630902,0.6663960952774698
3.60967803030303,-0.0279539008140564,-0.0522976839065552,0.40925691461563096,0.6663960952774698
3.610284090909091,-0.0327439398765564,0.00757780437469482,0.0955093560218809,0.6663960952774698
3.610890151515152,-0.106989545345306,0.136908859062195,0.445182207584381,0.6663960952774698
3.611496212121212,0.194782915592194,0.105773605155945,0.828385332584381,0.6663960952774698
3.612102272727273,0.101377153873444,-0.0427176057815552,0.138619707584381,0.6663960952774698
3.612708333333333,-0.0399289984703064,-0.10019807453155499,0.054794023990630894,0.6663960952774698
3.613314393939394,-0.123754682064056,0.17762419109344502,0.25837068414688097,0.6663960952774698
3.613920454545455,-0.169260053157806,-0.124148269844055,0.0859292778968809,0.6663960952774698
3.614526515151515,0.0534767632484436,-0.124148269844055,0.0236587700843809,0.6663960952774698
3.615132575757576,0.118142290592194,-0.08103791828155521,0.234420488834381,0.6663960952774698
3.615738636363636,-0.152494916439056,-0.0403225862503052,-0.0457967963218691,0.6663960952774698
3.616344696969697,-0.104594525814056,0.203969405937195,0.20089021539688098,0.6663960952774698
3.616950757575758,-0.104594525814056,0.0602682340621948,0.033238848209380896,0.6663960952774698
3.617556818181818,-0.150099896907806,-0.124148269844055,0.215260332584381,0.6663960952774698
3.618162878787879,-0.0399289984703064,-0.07864289875030521,0.193705156803131,0.6663960952774698
3.618768939393939,-0.138124799251556,-0.0307425081253052,0.028448809146880902,0.6663960952774698
3.619375,-0.0016086859703064,0.196784347343445,0.0500039849281309,0.6663960952774698
3.6199810606060607,-0.049509076595306394,-0.0355325471878052,-0.009871503353119109,0.6663960952774698
3.620587121212121,0.0175514702796936,-0.184023758125305,0.121854570865631,0.6663960952774698
3.6211931818181817,0.0630568413734436,-0.09540803546905521,0.00928865289688089,0.6663960952774698
3.621799242424242,-0.138124799251556,-0.289404617500305,0.277530840396881,0.6663960952774698
3.6224053030303027,0.0558717827796936,0.0674532926559448,-0.029031659603119098,0.6663960952774698
3.6230113636363637,-0.051904096126556394,0.0387130582809448,0.0787442193031309,0.6663960952774698
3.6236174242424237,-0.0016086859703064,-0.145703445625305,0.028448809146880902,0.6663960952774698
3.6242234848484847,-0.0135837836265564,-0.0211624300003052,-0.129622479915619,0.6663960952774698
3.6248295454545447,-0.255480756282806,-0.140913406562805,0.282320879459381,0.6663960952774698
3.6254356060606057,0.0798219780921936,0.24707975749969502,0.31824617242813097,0.6663960952774698
3.626041666666667,-0.0255588812828064,0.199179366874695,0.102694414615631,0.6663960952774698
3.6266477272727267,-0.0111887640953064,-0.195998855781555,-0.000291425228119114,0.6663960952774698
3.627253787878788,0.139697466373444,-0.298984695625305,0.31824617242813097,0.6663960952774698
3.6278598484848477,0.0031813530921936,-0.0618777620315552,0.00210359430313089,0.6663960952774698
3.628465909090909,-0.0974094672203064,-0.0666678010940552,0.13622468805313098,0.6663960952774698
3.62907196969697,-0.303381146907806,0.0411080778121948,0.337406328678131,0.6663960952774698
3.62967803030303,-0.061484174251556396,-0.006792312812805181,0.030843828678130902,0.6663960952774698
3.630284090909091,-0.0207688422203064,-0.361255203437805,0.126644609928131,0.6663960952774698
3.630890151515152,-0.159679975032806,-0.179233719062805,-0.21823820257186902,0.6663960952774698
3.631496212121212,-0.0087937445640564,0.148883956718445,0.0715591607093809,0.6663960952774698
3.632102272727273,-0.102199506282806,-0.0163723909378052,0.402071856021881,0.6663960952774698
3.632708333333333,0.0079713921546936,-0.140913406562805,0.416441973209381,0.6663960952774698
3.633314393939394,-0.0423240180015564,-0.160073562812805,0.0811392388343809,0.6663960952774698
3.633920454545455,-0.0878293890953064,-0.124148269844055,0.035633867740630897,0.6663960952774698
3.634526515151515,0.0462917046546936,0.225524581718445,0.0883242974281309,0.6663960952774698
3.635132575757576,0.0223415093421936,0.203969405937195,0.112274492740631,0.6663960952774698
3.635738636363636,-0.0087937445640564,0.0698483121871948,0.028448809146880902,0.6663960952774698
3.636344696969697,-0.135729779720306,0.0482931364059448,0.0380288872718809,0.6663960952774698
3.636950757575758,-0.17405009222030599,-0.162468582344055,0.0883242974281309,0.6663960952774698
3.637556818181818,0.115747271060944,-0.0187674104690552,0.00928865289688089,0.6663960952774698
3.638162878787879,-0.059089154720306396,0.0195529020309448,0.29908601617813096,0.6663960952774698
3.638768939393939,-0.145309857845306,-0.152888504219055,0.06916414117813091,0.6663960952774698
3.639375,-0.142914838314056,-0.205578933906555,-0.179917890071869,0.8271484817169928
3.6399810606060607,-0.281825971126556,-0.08103791828155521,-0.225423261165619,0.8271484817169928
3.640587121212121,-0.06387919378280639,0.0387130582809448,-0.294878827571869,0.8271484817169928
3.6411931818181817,-0.0998044867515564,0.0147628629684448,0.306271074771881,0.8271484817169928
3.641799242424242,-0.200395307064056,-0.0475076448440552,0.416441973209381,0.8271484817169928
3.6424053030303027,-0.0399289984703064,0.266239913749695,0.0931143364906309,0.8271484817169928
3.643011363636364,-0.06866923284530639,0.0291329801559448,0.0979043755531309,0.8271484817169928
3.6436174242424237,-0.128544721126556,-0.184023758125305,0.138619707584381,0.8271484817169928
3.644223484848485,-0.07585429143905639,0.266239913749695,0.24639558649063098,0.8271484817169928
3.6448295454545447,0.0127614312171936,0.0291329801559448,0.208075273990631,0.8271484817169928
3.645435606060606,-0.0016086859703064,-0.195998855781555,0.06437410211563091,0.8271484817169928
3.646041666666667,-0.231530560970306,-0.10019807453155499,0.105089434146881,0.8271484817169928
3.646647727272727,-0.372836713314056,0.0171578824996948,0.109879473209381,0.8271484817169928
3.647253787878788,-0.183630170345306,-0.0499026643753052,0.119459551334381,0.8271484817169928
3.647859848484849,0.0534767632484436,0.0626632535934448,0.06916414117813091,0.8271484817169928
3.648465909090909,0.0295265679359436,-0.229529129219055,-0.000291425228119114,0.8271484817169928
3.64907196969697,-0.159679975032806,-0.17683869953155498,-0.06495695257186909,0.8271484817169928
3.64967803030303,0.127722368717194,-0.00918733234405518,0.057189043521880895,0.8271484817169928
3.650284090909091,0.0223415093421936,0.0363180387496948,0.311061113834381,0.8271484817169928
3.650890151515152,-0.178840131282806,0.141698898124695,0.0260537896156309,0.8271484817169928
3.651496212121212,0.039106646060943606,-0.22713410968780498,0.152989824771881,0.8271484817169928
3.652102272727273,-0.212370404720306,-0.306169754219055,0.248790606021881,0.8271484817169928
3.652708333333333,-0.121359662532806,-0.0235574495315552,0.0476089653968809,0.8271484817169928
3.653314393939394,0.0223415093421936,-0.0451126253128052,0.138619707584381,0.8271484817169928
3.653920454545455,0.266633501529694,0.194389327812195,0.291900957584381,0.8271484817169928
3.654526515151515,0.122932329654694,-0.07145784015655521,-0.0697469916343691,0.8271484817169928
3.655132575757576,-0.0087937445640564,-0.162468582344055,-0.0050814642906191095,0.8271484817169928
3.655738636363636,-0.147704877376556,-0.179233719062805,0.0859292778968809,0.8271484817169928
3.656344696969697,-0.0087937445640564,-0.16725862140655498,0.32782625055313097,0.8271484817169928
3.656950757575758,0.0223415093421936,0.0291329801559448,0.117064531803131,0.8271484817169928
3.657556818181818,-0.145309857845306,-0.296589676094055,-0.134412518978119,0.8271484817169928
3.658162878787879,-0.06387919378280639,-0.0978030550003052,0.059584063053130895,0.8271484817169928
3.658768939393939,-0.109384564876556,-0.119358230781555,-0.16315275335311902,0.8271484817169928
3.659375,0.0486867241859436,0.0650582731246948,0.248790606021881,0.8271484817169928
3.6599810606060608,-0.241110639095306,0.199179366874695,0.0931143364906309,0.8271484817169928
3.660587121212121,0.170832720279694,-0.08343293781280521,0.0523990044593809,0.8271484817169928
3.6611931818181818,0.0271315484046936,-0.219949051094055,0.260765703678131,0.8271484817169928
3.661799242424242,0.0127614312171936,-0.174443680000305,0.06437410211563091,0.8271484817169928
3.6624053030303028,0.12532734918594401,-0.0115823518753052,0.198495195865631,0.8271484817169928
3.6630113636363637,-0.147704877376556,-0.0187674104690552,0.19610017633438098,0.8271484817169928
3.6636174242424238,0.209153032779694,0.00757780437469482,-0.0050814642906191095,0.8271484817169928
3.6642234848484847,-0.0087937445640564,-0.315749832344055,0.119459551334381,0.8271484817169928
3.6648295454545448,0.058266802310943604,-0.08343293781280521,0.133829668521881,0.8271484817169928
3.6654356060606057,0.103772173404694,0.0746383512496948,0.13622468805313098,0.8271484817169928
3.666041666666667,-0.221950482845306,-0.0546927034378052,0.13622468805313098,0.8271484817169928
3.6666477272727267,-0.159679975032806,-0.0331375276565552,0.167359941959381,0.8271484817169928
3.667253787878788,-0.0303489203453064,-0.150493484687805,0.179335039615631,0.8271484817169928
3.6678598484848477,0.166042681217194,-0.0139773714065552,0.14101472711563098,0.8271484817169928
3.668465909090909,0.0654518609046936,0.0626632535934448,0.212865313053131,0.8271484817169928
3.66907196969697,-0.116569623470306,0.10098356609344501,-0.0960922064781191,0.8271484817169928
3.66967803030303,0.0870070366859436,0.0506881559371948,0.203285234928131,0.8271484817169928
3.670284090909091,-0.0854343695640564,-0.0187674104690552,0.43799714899063097,0.8271484817169928
3.670890151515152,-0.17405009222030599,-0.0499026643753052,0.651153887271881,0.8271484817169928
3.671496212121212,-0.0447190375328064,0.256659835624695,0.610438555240631,0.8271484817169928
3.672102272727273,0.130117388248444,0.273424972343445,0.0523990044593809,0.8271484817169928
3.672708333333333,0.237893267154694,-0.10019807453155499,0.06916414117813091,0.8271484817169928
3.673314393939394,-0.051904096126556394,-0.162468582344055,0.282320879459381,0.8271484817169928
3.673920454545455,-0.253085736751556,0.0482931364059448,0.217655352115631,0.8271484817169928
3.674526515151515,-0.162074994564056,0.0315279996871948,0.06916414117813091,0.8271484817169928
3.675132575757576,-0.133334760189056,0.0219479215621948,0.12424959039688101,0.8271484817169928
3.675738636363636,-0.0159788031578064,0.105773605155945,0.0428189263343809,0.8271484817169928
3.676344696969697,0.0750319390296936,-0.30377473468780497,0.152989824771881,0.8271484817169928
3.676950757575758,-0.169260053157806,-0.193603836250305,0.0428189263343809,0.8271484817169928
3.677556818181818,0.0199464898109436,0.208759444999695,-0.129622479915619,0.8271484817169928
3.678162878787879,-0.0063987250328064,-0.00918733234405518,0.100299395084381,0.8271484817169928
3.678768939393939,0.161252642154694,-0.16725862140655498,-0.055376874446869104,0.8271484817169928
3.679375,0.0127614312171936,-0.104988113594055,0.0979043755531309,0.8271484817169928
3.679981060606061,-0.0016086859703064,0.0219479215621948,0.184125078678131,0.8271484817169928
3.680587121212121,0.257053423404694,0.0722433317184448,0.0116836724281309,0.8271484817169928
3.681193181818182,0.058266802310943604,-0.0403225862503052,0.275135820865631,0.8271484817169928
3.681799242424242,-0.0447190375328064,-0.179233719062805,0.0739541802406309,0.8271484817169928
3.682405303030303,-0.0087937445640564,-0.0163723909378052,0.0428189263343809,0.8271484817169928
3.6830113636363637,-0.0447190375328064,-0.104988113594055,0.335011309146881,0.8271484817169928
3.6836174242424238,-0.0063987250328064,-0.06906282062530521,0.215260332584381,0.8271484817169928
3.6842234848484847,-0.0447190375328064,-0.0379275667190552,0.148199785709381,0.8271484817169928
3.6848295454545448,-0.169260053157806,0.0650582731246948,0.0476089653968809,0.8271484817169928
3.6854356060606057,-0.0279539008140564,-0.128938308906555,0.0811392388343809,0.8271484817169928
3.686041666666667,0.060661821842193604,-0.222344070625305,0.272740801334381,0.8271484817169928
3.6866477272727267,-0.06866923284530639,-0.215159012031555,0.35896150445938096,0.8271484817169928
3.687253787878788,-0.140519818782806,-0.09540803546905521,0.06437410211563091,0.8271484817169928
3.6878598484848477,0.0917970757484436,-0.13133332843780499,0.0955093560218809,0.8271484817169928
3.688465909090909,0.000786333560943597,-0.287009597969055,0.0955093560218809,0.8271484817169928
3.68907196969697,-0.109384564876556,-0.0331375276565552,-0.0170565619468691,0.8271484817169928
3.68967803030303,-0.0902244086265564,-0.0499026643753052,0.114669512271881,0.8271484817169928
3.690284090909091,-0.06866923284530639,0.129723800468445,0.148199785709381,0.8271484817169928
3.690890151515152,-0.0830393500328064,0.153673995780945,0.0811392388343809,0.8271484817169928
3.691496212121212,-0.0279539008140564,-0.143308426094055,0.208075273990631,0.8271484817169928
3.692102272727273,0.0031813530921936,-0.16725862140655498,0.0188687310218809,0.8271484817169928
3.692708333333333,-0.0303489203453064,0.108168624687195,0.179335039615631,0.8271484817169928
3.693314393939394,-0.0183738226890564,-0.0115823518753052,0.454762285709381,0.8271484817169928
3.693920454545455,0.178017778873444,0.0482931364059448,0.0188687310218809,0.8271484817169928
3.694526515151515,0.170832720279694,-0.17204866046905498,0.24639558649063098,0.8271484817169928
3.695132575757576,0.108562212467194,-0.248689285469055,0.0715591607093809,0.8271484817169928
3.695738636363636,0.103772173404694,-0.0283474885940552,0.0212637505531309,0.8271484817169928
3.696344696969697,-0.130939740657806,0.230314620780945,0.291900957584381,0.8271484817169928
3.696950757575758,-0.130939740657806,0.0674532926559448,0.06437410211563091,0.8271484817169928
3.697556818181818,0.0175514702796936,-0.119358230781555,-0.0170565619468691,0.8271484817169928
3.698162878787879,0.144487505435944,-0.138518387031555,0.00210359430313089,0.8271484817169928
3.698768939393939,-0.0351389594078064,-0.215159012031555,0.14580476617813098,0.8271484817169928
3.699375,0.0319215874671936,0.139303878593445,0.174545000553131,0.8271484817169928
3.699981060606061,0.192387896060944,0.23749967937469502,-0.014661542415619101,0.8271484817169928
3.700587121212121,-0.0207688422203064,0.0794283903121948,-0.0457967963218691,0.8271484817169928
3.701193181818182,-0.0231638617515564,-0.174443680000305,0.313456133365631,0.8271484817169928
3.701799242424242,0.0127614312171936,-0.18162873859405498,0.48829255914688097,0.8271484817169928
3.702405303030303,-0.056694135189056395,0.206364425468445,0.337406328678131,0.8271484817169928
3.7030113636363637,-0.111779584407806,0.122538741874695,0.0212637505531309,0.8271484817169928
3.703617424242424,-0.0183738226890564,-0.0570877229690552,0.0212637505531309,0.8271484817169928
3.7042234848484847,0.132512407779694,-0.124148269844055,0.0212637505531309,0.8271484817169928
3.704829545454545,-0.0135837836265564,-0.121753250312805,0.155384844303131,0.8271484817169928
3.7054356060606057,-0.106989545345306,-0.0235574495315552,0.0212637505531309,0.8271484817169928
3.7060416666666667,-0.238715619564056,-0.160073562812805,0.0116836724281309,0.8271484817169928
3.7066477272727267,-0.059089154720306396,-0.224739090156555,0.311061113834381,0.8271484817169928
3.7072537878787877,0.158857622623444,-0.133728347969055,0.14101472711563098,0.8271484817169928
3.707859848484849,0.0702418999671936,-0.138518387031555,-0.014661542415619101,0.8271484817169928
3.7084659090909087,0.178017778873444,-0.09061799640655521,0.0907193169593809,0.8271484817169928
3.70907196969697,-0.06627421331405639,-0.0451126253128052,0.313456133365631,0.8271484817169928
3.7096780303030297,-0.243505658626556,-0.07624787921905521,0.162569902896881,0.8271484817169928
3.710284090909091,-0.293801068782806,0.0123678434371948,0.0260537896156309,0.8271484817169928
3.7108901515151507,-0.212370404720306,-0.08343293781280521,-0.0745370306968691,0.8271484817169928
3.711496212121212,-0.0974094672203064,-0.00439729328155518,0.164964922428131,0.8271484817169928
3.712102272727273,-0.0854343695640564,0.146488937187195,-0.0984872260093691,0.8271484817169928
3.712708333333333,0.0438966851234436,0.17762419109344502,-0.146387616634369,0.8271484817169928
3.713314393939394,-0.056694135189056395,0.146488937187195,-0.0913021674156191,0.8271484817169928
3.713920454545455,-0.320146283626556,-0.06906282062530521,0.06437410211563091,0.8271484817169928
3.714526515151515,0.0534767632484436,-0.06906282062530521,0.15059480524063099,0.8271484817169928
3.715132575757576,-0.121359662532806,0.0554781949996948,0.0907193169593809,0.8271484817169928
3.715738636363636,-0.298591107845306,0.194389327812195,0.323036211490631,0.8271484817169928
3.716344696969697,-0.0974094672203064,-0.00200227375030518,0.13143464899063098,0.8271484817169928
3.716950757575758,0.0295265679359436,-0.195998855781555,0.193705156803131,0.8271484817169928
3.717556818181818,-0.0135837836265564,0.0267379606246948,0.107484453678131,0.8271484817169928
3.718162878787879,-0.111779584407806,-0.148098465156555,0.13143464899063098,0.8271484817169928
3.718768939393939,-0.111779584407806,-0.0522976839065552,0.0715591607093809,0.8271484817169928
3.719375,-0.0878293890953064,0.0435030973434448,0.157779863834381,0.8271484817169928
3.719981060606061,-0.104594525814056,-0.0211624300003052,0.00928865289688089,0.8271484817169928
3.720587121212121,-0.07106425237655639,0.112958663749695,0.109879473209381,0.8271484817169928
3.721193181818182,0.0678468804359436,0.0650582731246948,0.323036211490631,0.8271484817169928
3.721799242424242,-0.0399289984703064,0.08421842937469479,0.0979043755531309,0.8271484817169928
3.722405303030303,-0.059089154720306396,-0.0187674104690552,0.18173005914688098,0.8271484817169928
3.7230113636363638,0.18520283746719401,-0.174443680000305,0.0811392388343809,0.8271484817169928
3.723617424242424,0.0989821343421936,-0.0211624300003052,-0.0745370306968691,0.8271484817169928
3.7242234848484848,-0.0255588812828064,-0.0115823518753052,0.00928865289688089,0.8271484817169928
3.724829545454545,0.115747271060944,-0.0522976839065552,0.143409746646881,0.8271484817169928
3.7254356060606058,-0.0135837836265564,0.0315279996871948,0.00449861383438089,0.8271484817169928
3.726041666666667,-0.07345927190780639,-0.219949051094055,0.234420488834381,0.8271484817169928
3.7266477272727268,-0.226740521907806,-0.219949051094055,0.23681550836563098,0.8271484817169928
3.727253787878788,-0.169260053157806,-0.0475076448440552,-0.0913021674156191,0.8271484817169928
3.7278598484848477,-0.164470014095306,-0.0403225862503052,0.244000566959381,0.8271484817169928
3.728465909090909,-0.236320600032806,-0.148098465156555,0.23202546930313098,0.8271484817169928
3.72907196969697,-0.140519818782806,-0.164863601875305,-0.244583417415619,0.8271484817169928
3.72967803030303,0.0558717827796936,-0.140913406562805,0.473922441959381,0.8271484817169928
3.730284090909091,-0.054299115657806395,-0.0546927034378052,0.167359941959381,0.8271484817169928
3.730890151515152,-0.229135541439056,0.08900846843719479,0.0236587700843809,0.8271484817169928
3.731496212121212,-0.269850873470306,-0.0211624300003052,0.17694002008438098,0.8271484817169928
3.732102272727273,-0.0159788031578064,-0.114568191719055,-0.16315275335311902,0.8271484817169928
3.732708333333333,0.0510817437171936,0.0171578824996948,0.033238848209380896,0.8271484817169928
3.733314393939394,-0.0399289984703064,-0.128938308906555,0.20568025445938098,0.8271484817169928
3.733920454545455,0.0438966851234436,-0.08582795734405521,0.382911699771881,0.8271484817169928
3.734526515151515,0.0223415093421936,0.0530831754684448,0.059584063053130895,0.8271484817169928
3.735132575757576,0.139697466373444,-0.119358230781555,0.006893633365630891,0.8271484817169928
3.735738636363636,-0.0183738226890564,-0.251084305000305,0.0428189263343809,0.8271484817169928
3.736344696969697,-0.059089154720306396,-0.0499026643753052,-0.0481918158531191,0.8271484817169928
3.736950757575758,-0.123754682064056,0.08421842937469479,0.126644609928131,0.8271484817169928
3.737556818181818,-0.193210248470306,0.117748702812195,-0.117647382259369,0.8271484817169928
3.738162878787879,-0.121359662532806,0.0746383512496948,-0.0434017767906191,0.8271484817169928
3.738768939393939,0.182807817935944,-0.212763992500305,0.21047029352188099,0.8271484817169928
3.739375,-0.049509076595306394,-0.0403225862503052,-0.151177655696869,0.8618328637352727
3.739981060606061,0.0055763726234436,0.0698483121871948,0.016473711490630902,0.8618328637352727
3.740587121212121,-0.133334760189056,-0.143308426094055,0.30866609430313097,0.8618328637352727
3.741193181818182,-0.0159788031578064,0.148883956718445,-0.30924894475936904,0.8618328637352727
3.741799242424242,0.0989821343421936,-0.162468582344055,0.301481035709381,0.8618328637352727
3.742405303030303,-0.059089154720306396,-0.155283523750305,0.306271074771881,0.8618328637352727
3.7430113636363638,0.0702418999671936,0.124933761405945,0.100299395084381,0.8618328637352727
3.743617424242424,-0.061484174251556396,0.0123678434371948,0.385306719303131,0.8618328637352727
3.7442234848484848,-0.164470014095306,0.120143722343445,-0.033821698665619106,0.8618328637352727
3.744829545454545,-0.221950482845306,-0.0546927034378052,0.114669512271881,0.8618328637352727
3.7454356060606058,-0.0016086859703064,-0.0355325471878052,0.035633867740630897,0.8618328637352727
3.7460416666666667,-0.0255588812828064,-0.150493484687805,0.14580476617813098,0.8618328637352727
3.7466477272727268,-0.0447190375328064,0.108168624687195,0.059584063053130895,0.8618328637352727
3.7472537878787877,-0.06627421331405639,-0.07864289875030521,0.152989824771881,0.8618328637352727
3.7478598484848487,0.0510817437171936,-0.155283523750305,0.112274492740631,0.8618328637352727
3.7484659090909087,-0.0399289984703064,-0.0235574495315552,-0.10806730413436899,0.8618328637352727
3.7490719696969697,-0.0327439398765564,-0.08103791828155521,0.121854570865631,0.8618328637352727
3.7496780303030297,-0.0375339789390564,-0.0978030550003052,0.133829668521881,0.8618328637352727
3.7502840909090907,0.0319215874671936,-0.143308426094055,0.169754961490631,0.8618328637352727
3.7508901515151507,-0.061484174251556396,-0.07864289875030521,0.06676912164688091,0.8618328637352727
3.7514962121212116,-0.121359662532806,-0.155283523750305,0.0476089653968809,0.8618328637352727
3.752102272727273,-0.0902244086265564,0.0435030973434448,0.24160554742813098,0.8618328637352727
3.7527083333333326,0.000786333560943597,-0.00200227375030518,0.109879473209381,0.8618328637352727
3.753314393939394,-0.130939740657806,-0.174443680000305,0.119459551334381,0.8618328637352727
3.753920454545455,0.0055763726234436,-0.179233719062805,0.315851152896881,0.8618328637352727
3.754526515151515,0.118142290592194,-0.267849441719055,0.339801348209381,0.8618328637352727
3.755132575757576,0.0079713921546936,0.0291329801559448,-0.10567228460311899,0.8618328637352727
3.755738636363636,0.127722368717194,-0.0139773714065552,0.253580645084381,0.8618328637352727
3.756344696969697,0.0127614312171936,-0.0642727815628052,0.121854570865631,0.8618328637352727
3.756950757575758,-0.0471140570640564,-0.109778152656555,0.133829668521881,0.8618328637352727
3.757556818181818,-0.0303489203453064,-0.0331375276565552,-0.235003339290619,0.8618328637352727
3.758162878787879,-0.0159788031578064,0.17762419109344502,-0.0745370306968691,0.8618328637352727
3.758768939393939,-0.118964643001556,-0.0235574495315552,0.301481035709381,0.8618328637352727
3.759375,-0.0159788031578064,0.453051437187195,-0.462530194759369,0.8618328637352727
3.759981060606061,0.04150166559219361,-0.447475906562805,0.540982988834381,0.8618328637352727
3.760587121212121,0.252263384342194,-0.006792312812805181,-0.321224042415619,0.8618328637352727
3.761193181818182,0.0750319390296936,0.156069015312195,0.36854158258438097,0.8618328637352727
3.761799242424242,-0.0878293890953064,-0.385205398750305,1.25469880914688,0.8618328637352727
3.762405303030303,0.0917970757484436,0.551247237968445,-0.376309491634369,0.8618328637352727
3.763011363636364,-0.384811810970306,-0.265454422187805,0.481107500553131,0.8618328637352727
3.763617424242424,-0.051904096126556394,-0.006792312812805181,-0.0889071478843691,0.8618328637352727
3.764223484848485,-0.0375339789390564,0.10098356609344501,0.277530840396881,0.8618328637352727
3.7648295454545457,-0.0135837836265564,-0.119358230781555,0.184125078678131,0.8618328637352727
3.765435606060606,0.151672564029694,0.189599288749695,-0.191892987728119,0.8618328637352727
3.7660416666666667,-0.118964643001556,-0.24629426593780498,0.392491777896881,0.8618328637352727
3.766647727272727,-0.061484174251556396,-0.0403225862503052,-0.230213300228119,0.8618328637352727
3.7672537878787877,0.0917970757484436,0.0339230192184448,0.282320879459381,0.8618328637352727
3.767859848484848,-0.0447190375328064,-0.119358230781555,0.0931143364906309,0.8618328637352727
3.7684659090909087,-0.121359662532806,0.223129562187195,0.188915117740631,0.8618328637352727
3.76907196969697,0.0319215874671936,0.10337858562469501,-0.0697469916343691,0.8618328637352727
3.76967803030303,0.0199464898109436,-0.504956375312805,0.0476089653968809,0.8618328637352727
3.770284090909091,0.0630568413734436,0.0219479215621948,0.160174883365631,0.8618328637352727
3.770890151515151,-0.138124799251556,0.151278976249695,0.152989824771881,0.8618328637352727
3.771496212121212,-0.0351389594078064,-0.0618777620315552,0.406861895084381,0.8618328637352727
3.772102272727273,0.0534767632484436,0.0147628629684448,0.0883242974281309,0.8618328637352727
3.772708333333333,-0.154889935970306,-0.308564773750305,0.203285234928131,0.8618328637352727
3.773314393939394,-0.195605268001556,0.09140348796844479,-0.009871503353119109,0.8618328637352727
3.773920454545455,-0.157284955501556,-0.112173172187805,0.212865313053131,0.8618328637352727
3.774526515151515,-0.0231638617515564,0.558432296562195,-0.345174237728119,0.8618328637352727
3.775132575757576,-0.06866923284530639,-0.725298172187805,0.315851152896881,0.8618328637352727
3.775738636363636,-0.07106425237655639,-0.224739090156555,-0.46013517522811903,0.8618328637352727
3.776344696969697,-0.0016086859703064,0.22791960124969501,-0.27092863225936903,0.8618328637352727
3.776950757575758,0.235498247623444,-0.634287430000305,0.6727090630531309,0.8618328637352727
3.777556818181818,0.0965871148109436,0.48418669109344503,-0.476900311946869,0.8618328637352727
3.778162878787879,-0.298591107845306,-0.447475906562805,0.699054277896881,0.8618328637352727
3.778768939393939,0.209153032779694,0.005182784843444819,-0.0218466010093691,0.8618328637352727
3.779375,0.0798219780921936,0.397965987968445,-0.254163495540619,0.8618328637352727
3.779981060606061,0.0103664116859436,-0.979170242500305,0.8523355278968809,0.8618328637352727
3.780587121212121,0.240288286685944,0.433891280937195,-0.960694257259369,0.8618328637352727
3.781193181818182,-0.485402631282806,0.345275558280945,0.564933184146881,0.8618328637352727
3.781799242424242,0.0079713921546936,-0.579201980781555,0.543378008365631,0.8618328637352727
3.782405303030303,0.273818560123444,0.388385909843445,-0.706822186946869,0.8618328637352727
3.783011363636364,-0.181235150814056,-0.200788894844055,0.605648516178131,0.8618328637352727
3.783617424242424,-0.109384564876556,0.09858854656219479,-0.0697469916343691,0.8618328637352727
3.784223484848485,-0.260270795345306,0.08900846843719479,0.399676836490631,0.8618328637352727
3.784829545454545,0.103772173404694,-0.234319168281555,-0.134412518978119,0.8618328637352727
3.785435606060606,-0.0878293890953064,-0.09540803546905521,-0.0529818549156191,0.8618328637352727
3.7860416666666667,-0.286616010189056,0.0602682340621948,0.275135820865631,0.8618328637352727
3.786647727272727,0.0438966851234436,-0.09061799640655521,0.0859292778968809,0.8618328637352727
3.7872537878787877,-0.193210248470306,0.22791960124969501,0.033238848209380896,0.8618328637352727
3.787859848484848,-0.0327439398765564,0.00039274578094482,-0.122437421321869,0.8618328637352727
3.7884659090909087,-0.049509076595306394,-0.24150422687530498,0.164964922428131,0.8618328637352727
3.7890719696969697,-0.130939740657806,0.271029952812195,-0.143992597103119,0.8618328637352727
3.7896780303030297,-0.054299115657806395,-0.18162873859405498,0.471527422428131,0.8618328637352727
3.7902840909090907,-0.150099896907806,0.08421842937469479,-0.0817220892906191,0.8618328637352727
3.7908901515151516,-0.0375339789390564,-0.0163723909378052,0.215260332584381,0.8618328637352727
3.7914962121212117,-0.0806443305015564,0.0171578824996948,0.284715898990631,0.8618328637352727
3.7921022727272726,0.233103228092194,0.24228971843719502,-0.16794279241561902,0.8618328637352727
3.7927083333333327,0.201967974185944,-0.160073562812805,0.363751543521881,0.8618328637352727
3.7933143939393936,-0.164470014095306,0.273424972343445,0.126644609928131,0.8618328637352727
3.793920454545455,-0.267455853939056,-0.0570877229690552,0.255975664615631,0.8618328637352727
3.7945265151515146,0.532480669498444,0.16804411296844501,-0.328409101009369,0.8618328637352727
3.795132575757576,-0.0111887640953064,-0.809123855781555,0.25837068414688097,0.8618328637352727
3.7957386363636356,-0.0303489203453064,0.139303878593445,-0.771487714290619,0.8618328637352727
3.796344696969697,-0.142914838314056,0.251869796562195,0.380516680240631,0.8618328637352727
3.796950757575758,0.127722368717194,-0.435500808906555,0.138619707584381,0.8618328637352727
3.797556818181818,0.309743853092194,0.223129562187195,-0.464925214290619,0.8618328637352727
3.798162878787879,-0.245900678157806,-0.461846023750305,0.42841707086563097,0.8618328637352727
3.798768939393939,0.276213579654694,0.0387130582809448,-0.278113690853119,0.8618328637352727
3.799375,0.146882524967194,0.625492843437195,0.14580476617813098,0.8618328637352727
3.799981060606061,0.304953814029694,-0.950430008125305,0.433207109928131,0.8618328637352727
3.800587121212121,0.288188677310944,0.0530831754684448,-1.18343107366562,0.8618328637352727
3.801193181818182,-0.727299603939056,0.163254073905945,0.636783770084381,0.8618328637352727
3.801799242424242,0.134907427310944,-0.296589676094055,0.526612871646881,0.8618328637352727
3.802405303030303,0.484580278873444,0.706923507499695,-0.716402265071869,0.8618328637352727
3.803011363636364,-0.231530560970306,-0.519326492500305,0.581698320865631,0.8618328637352727
3.803617424242424,0.266633501529694,0.0195529020309448,-0.594256268978119,0.8618328637352727
3.804223484848485,-0.334516400814056,-0.0187674104690552,0.519427813053131,0.8618328637352727
3.804829545454545,0.223523149967194,0.0291329801559448,-0.000291425228119114,0.8618328637352727
3.805435606060606,-0.051904096126556394,-0.114568191719055,0.059584063053130895,0.8618328637352727
3.8060416666666668,-0.447082318782806,0.08661344890594479,0.188915117740631,0.8618328637352727
3.806647727272727,0.321718950748444,-0.322934890937805,0.0787442193031309,0.8618328637352727
3.8072537878787878,-0.142914838314056,-0.215159012031555,-0.0170565619468691,0.8618328637352727
3.807859848484848,-0.0327439398765564,0.108168624687195,-0.235003339290619,0.8618328637352727
3.8084659090909088,0.039106646060943606,-0.0211624300003052,0.148199785709381,0.8618328637352727
3.80907196969697,-0.169260053157806,0.508136886405945,0.057189043521880895,0.8618328637352727
3.8096780303030298,0.04150166559219361,-0.349280105781555,0.36854158258438097,0.8618328637352727
3.810284090909091,-0.217160443782806,-0.140913406562805,-0.055376874446869104,0.8618328637352727
3.810890151515152,-0.303381146907806,-0.136123367500305,0.457157305240631,0.8618328637352727
3.811496212121212,0.0295265679359436,-0.00200227375030518,0.36854158258438097,0.8618328637352727
3.812102272727273,-0.0255588812828064,0.326115402030945,-0.0122665228843691,0.8618328637352727
3.812708333333333,-0.193210248470306,-0.488191238594055,0.540982988834381,0.8618328637352727
3.813314393939394,0.058266802310943604,-0.00200227375030518,-0.0936971869468691,0.8618328637352727
3.813920454545455,-0.147704877376556,-0.09301301593780521,0.380516680240631,0.8618328637352727
3.814526515151515,-0.0087937445640564,0.556037277030945,-0.0194515814781191,0.8618328637352727
3.815132575757576,0.0678468804359436,-0.452265945625305,0.624808672428131,0.8618328637352727
3.815738636363636,0.142092485904694,-0.09301301593780521,-0.287693768978119,0.8618328637352727
3.816344696969697,-0.293801068782806,0.385990890312195,0.129039629459381,0.8618328637352727
3.816950757575758,0.0822169976234436,-0.425920730781555,0.363751543521881,0.8618328637352727
3.817556818181818,0.441469927310944,-0.0211624300003052,-0.381099530696869,0.8618328637352727
3.818162878787879,-0.339306439876556,-0.263059402656555,0.430812090396881,0.8618328637352727
3.818768939393939,-0.0255588812828064,0.0387130582809448,-0.527195722103119,0.8618328637352727
3.819375,-0.0231638617515564,0.534482101249695,0.112274492740631,0.8618328637352727
3.819981060606061,-0.241110639095306,-1.03665071125031,0.794855059146881,0.8618328637352727
3.820587121212121,0.443864946842194,0.362040694999695,-1.34868742132187,0.8618328637352727
3.821193181818182,-0.6722141547203061,0.338090499687195,1.0439370903968799,0.8618328637352727
3.821799242424242,0.235498247623444,-0.370835281562805,1.01759187555313,0.8618328637352727
3.822405303030303,0.793537798404694,0.338090499687195,-0.735562421321869,0.8618328637352727
3.823011363636364,-0.6338938422203061,-0.552856765937805,0.761324785709381,0.8618328637352727
3.823617424242424,0.130117388248444,0.448261398124695,-0.809808026790619,0.8618328637352727
3.824223484848485,-0.308171185970306,0.0171578824996948,0.550563066959381,0.8618328637352727
3.824829545454545,0.410334673404694,0.005182784843444819,0.033238848209380896,0.8618328637352727
3.825435606060606,0.0917970757484436,-0.404365555000305,-0.189497968196869,0.8618328637352727
3.826041666666667,-0.842260541439056,-0.00200227375030518,0.119459551334381,0.8618328637352727
3.826647727272727,0.316928911685944,-0.0499026643753052,0.033238848209380896,0.8618328637352727
3.827253787878788,0.292978716373444,0.0291329801559448,0.057189043521880895,0.8618328637352727
3.827859848484848,0.0702418999671936,0.0435030973434448,-0.261348554134369,0.8618328637352727
3.828465909090909,-0.06387919378280639,-0.318144851875305,0.18173005914688098,0.8618328637352727
3.8290719696969697,-0.200395307064056,0.244684737968445,-0.235003339290619,0.8618328637352727
3.82967803030303,0.281003618717194,-0.217554031562805,0.20568025445938098,0.8618328637352727
3.8302840909090907,0.137302446842194,0.09619352703094479,-0.18231290960311902,0.8618328637352727
3.8308901515151517,-0.403971967220306,0.17762419109344502,0.0931143364906309,0.8618328637352727
3.8314962121212117,0.0894020562171936,-0.136123367500305,0.277530840396881,0.8618328637352727
3.8321022727272727,0.0031813530921936,0.156069015312195,-0.10806730413436899,0.8618328637352727
3.8327083333333327,-0.360861615657806,-0.0546927034378052,0.24639558649063098,0.8618328637352727
3.8333143939393937,-0.238715619564056,0.122538741874695,-0.029031659603119098,0.8618328637352727
3.833920454545455,-0.332121381282806,-0.07624787921905521,0.188915117740631,0.8618328637352727
3.8345265151515147,0.120537310123444,0.340485519218445,0.054794023990630894,0.8618328637352727
3.835132575757576,-0.0399289984703064,-0.612732254219055,0.416441973209381,0.8618328637352727
3.8357386363636357,0.000786333560943597,0.09140348796844479,-0.529590741634369,0.8618328637352727
3.836344696969697,-0.198000287532806,0.316535323905945,0.555353106021881,0.8618328637352727
3.836950757575758,0.106167192935944,-0.378020340156555,0.596068438053131,0.8618328637352727
3.837556818181818,0.0247365288734436,-0.00918733234405518,-0.357149335384369,0.8618328637352727
3.838162878787879,0.000786333560943597,-0.351675125312805,0.402071856021881,0.8618328637352727
3.838768939393939,0.24507832574844401,0.08661344890594479,-0.124832440853119,0.6971187077332407
3.839375,-0.250690717220306,0.673393234062195,0.030843828678130902,0.6971187077332407
3.839981060606061,-0.17405009222030599,-0.823493972969055,0.512242754459381,0.6971187077332407
3.840587121212121,0.252263384342194,0.115353683280945,-1.18103605413437,0.6971187077332407
3.841193181818182,-0.746459760189056,0.290190109062195,1.00801179742813,0.6971187077332407
3.841799242424242,-0.0447190375328064,-0.282219558906555,0.557748125553131,0.6971187077332407
3.842405303030303,0.654626665592194,0.378805831718445,-1.02056974554062,0.6971187077332407
3.843011363636364,-0.483007611751556,-0.490586258125305,0.7732998833656309,0.6971187077332407
3.843617424242424,0.436679888248444,0.450656417655945,-0.716402265071869,0.6971187077332407
3.844223484848485,-0.300986127376556,0.005182784843444819,0.454762285709381,0.6971187077332407
3.844829545454545,0.0079713921546936,-0.07624787921905521,-0.014661542415619101,0.6971187077332407
3.845435606060606,0.276213579654694,-0.0331375276565552,0.361356523990631,0.6971187077332407
3.846041666666667,-0.509352826595306,0.287795089530945,0.275135820865631,0.6971187077332407
3.846647727272727,0.388779497623444,-0.157678543281555,-0.0817220892906191,0.6971187077332407
3.847253787878788,-0.0303489203453064,-0.0235574495315552,0.193705156803131,0.6971187077332407
3.8478598484848487,-0.121359662532806,-0.0355325471878052,-0.20865812444686901,0.6971187077332407
3.848465909090909,0.0103664116859436,-0.08343293781280521,0.25837068414688097,0.6971187077332407
3.8490719696969697,-0.365651654720306,0.278215011405945,-0.10327726507186899,0.6971187077332407
3.84967803030303,0.391174517154694,-0.6582376253128049,0.605648516178131,0.6971187077332407
3.8502840909090907,0.139697466373444,-0.203183914375305,-0.160757733821869,0.6971187077332407
3.850890151515152,-0.406366986751556,-0.08103791828155521,-0.194288007259369,0.6971187077332407
3.8514962121212117,0.0438966851234436,-0.310959793281555,0.0883242974281309,0.6971187077332407
3.852102272727273,0.0894020562171936,0.215944503593445,-0.14878263616561901,0.6971187077332407
3.8527083333333327,-0.145309857845306,-0.198393875312805,0.48829255914688097,0.6971187077332407
3.853314393939394,-0.0974094672203064,-0.255874344062805,0.0763491997718809,0.6971187077332407
3.853920454545455,-0.0279539008140564,0.10098356609344501,0.23202546930313098,0.6971187077332407
3.854526515151515,0.0151564507484436,0.335695480155945,-0.155967694759369,0.6971187077332407
3.855132575757576,0.146882524967194,-0.471426101875305,0.37812166070938097,0.6971187077332407
3.855738636363636,-0.0111887640953064,0.144093917655945,-0.175127851009369,0.6971187077332407
3.856344696969697,-0.157284955501556,0.438681319999695,0.155384844303131,0.6971187077332407
3.856950757575758,0.273818560123444,-0.428315750312805,0.493082598209381,0.6971187077332407
3.857556818181818,0.060661821842193604,0.0267379606246948,-0.424209882259369,0.6971187077332407
3.858162878787879,-0.250690717220306,-0.0570877229690552,0.402071856021881,0.6971187077332407
3.858768939393939,0.0870070366859436,-0.0115823518753052,-0.160757733821869,0.6971187077332407
3.859375,-0.200395307064056,0.716503585624695,-0.361939374446869,0.6971187077332407
3.859981060606061,-0.209975385189056,-1.3192630159378,0.859520586490631,0.6971187077332407
3.860587121212121,0.161252642154694,0.141698898124695,-1.14511076116562,0.6971187077332407
3.861193181818182,-0.8997410101890561,0.666208175468445,0.655943926334381,0.6971187077332407
3.861799242424242,-0.305776166439056,-0.787568680000305,1.1253677544593799,0.6971187077332407
3.862405303030303,0.475000200748444,0.48418669109344503,-0.886448651790619,0.6971187077332407
3.863011363636364,-0.624313764095306,-0.593572097969055,0.964901445865631,0.6971187077332407
3.863617424242424,0.338484087467194,0.160859054374695,-0.721192304134369,0.6971187077332407
3.864223484848485,0.151672564029694,0.122538741874695,0.402071856021881,0.6971187077332407
3.864829545454545,0.0726369194984436,-0.00918733234405518,0.215260332584381,0.6971187077332407
3.865435606060606,0.218733110904694,-0.08822297687530521,-0.189497968196869,0.6971187077332407
3.866041666666667,-0.382416791439056,0.10098356609344501,0.502662676334381,0.6971187077332407
3.866647727272727,0.297768755435944,-0.198393875312805,-0.21344816350936902,0.6971187077332407
3.867253787878788,-0.061484174251556396,-0.0187674104690552,0.06916414117813091,0.6971187077332407
3.8678598484848488,-0.0447190375328064,0.256659835624695,-0.304458905696869,0.6971187077332407
3.868465909090909,0.161252642154694,-0.19120881671905499,0.24160554742813098,0.6971187077332407
3.8690719696969698,-0.135729779720306,0.19199430828094502,0.0523990044593809,0.6971187077332407
3.86967803030303,0.0199464898109436,-0.442685867500305,0.193705156803131,0.6971187077332407
3.8702840909090908,-0.0399289984703064,0.0123678434371948,0.17694002008438098,0.6971187077332407
3.870890151515151,-0.238715619564056,0.338090499687195,0.0859292778968809,0.6971187077332407
3.8714962121212118,0.144487505435944,0.0602682340621948,0.282320879459381,0.6971187077332407
3.8721022727272727,-0.0351389594078064,0.0578732145309448,-0.10088224554061899,0.6971187077332407
3.8727083333333328,-0.243505658626556,-0.258269363594055,0.035633867740630897,0.6971187077332407
3.8733143939393937,0.0223415093421936,0.170439132499695,-0.009871503353119109,0.6971187077332407
3.8739204545454546,-0.111779584407806,0.151278976249695,0.20089021539688098,0.6971187077332407
3.8745265151515147,0.0271315484046936,0.129723800468445,0.0907193169593809,0.6971187077332407
3.8751325757575756,0.12532734918594401,-0.682187820625305,0.0883242974281309,0.6971187077332407
3.8757386363636357,-0.123754682064056,-0.107383133125305,-0.405049726009369,0.6971187077332407
3.8763446969696966,-0.478217572689056,0.362040694999695,0.560143145084381,0.6971187077332407
3.876950757575758,0.137302446842194,-0.251084305000305,0.6128335747718809,0.6971187077332407
3.8775568181818176,0.039106646060943606,-0.00439729328155518,-0.335594159603119,0.6971187077332407
3.878162878787879,-0.394391889095306,-0.296589676094055,-0.0745370306968691,0.6971187077332407
3.8787689393939386,0.139697466373444,-0.17683869953155498,-0.376309491634369,0.6971187077332407
3.879375,0.060661821842193604,0.716503585624695,-0.215843183040619,0.6971187077332407
3.879981060606061,-0.0231638617515564,-0.8977395784378049,0.643968828678131,0.6971187077332407
3.880587121212121,0.319323931217194,0.323720382499695,-1.00140958929062,0.6971187077332407
3.881193181818182,-0.7560398383140561,0.498556808280945,0.445182207584381,0.6971187077332407
3.881799242424242,0.0319215874671936,-0.368440262031555,0.917001055240631,0.6971187077332407
3.882405303030303,0.6809718804359439,0.673393234062195,-0.702032147884369,0.6971187077332407
3.883011363636364,-0.6147336859703061,-0.655842605781555,0.749349688053131,0.6971187077332407
3.883617424242424,0.242683306217194,0.170439132499695,-0.608626386165619,0.6971187077332407
3.884223484848485,-0.262665814876556,-0.133728347969055,0.529007891178131,0.6971187077332407
3.884829545454546,0.206758013248444,0.005182784843444819,-0.0865121283531191,0.6971187077332407
3.885435606060606,0.139697466373444,-0.112173172187805,-0.00747648382186911,0.6971187077332407
3.886041666666667,-0.521327924251556,0.273424972343445,0.46913240289688096,0.6971187077332407
3.886647727272727,0.374409380435944,-0.10019807453155499,-0.318829022884369,0.6971187077332407
3.887253787878788,0.163647661685944,-0.287009597969055,0.0476089653968809,0.6971187077332407
3.887859848484848,-0.0231638617515564,0.189599288749695,-0.244583417415619,0.6971187077332407
3.888465909090909,-0.147704877376556,-0.169653640937805,0.382911699771881,0.6971187077332407
3.8890719696969698,-0.200395307064056,0.472211593437195,-0.0314266791343691,0.6971187077332407
3.88967803030303,0.201967974185944,-0.291799637031555,0.059584063053130895,0.6971187077332407
3.8902840909090908,0.0870070366859436,-0.23671418781280498,-0.0721420111656191,0.6971187077332407
3.890890151515151,-0.0854343695640564,0.223129562187195,-0.00747648382186911,0.6971187077332407
3.8914962121212118,0.225918169498444,-0.09061799640655521,0.29908601617813096,0.6971187077332407
3.892102272727273,-0.0327439398765564,0.112958663749695,0.160174883365631,0.6971187077332407
3.8927083333333328,-0.188420209407806,-0.284614578437805,0.198495195865631,0.6971187077332407
3.893314393939394,-0.253085736751556,-0.24150422687530498,-0.0960922064781191,0.6971187077332407
3.893920454545455,-0.265060834407806,0.10337858562469501,-0.0218466010093691,0.6971187077332407
3.894526515151515,0.118142290592194,0.175229171562195,0.0835342583656309,0.6971187077332407
3.895132575757576,0.175622759342194,-0.291799637031555,0.634388750553131,0.6971187077332407
3.895738636363636,0.182807817935944,0.0602682340621948,-0.189497968196869,0.6971187077332407
3.896344696969697,-0.0950144476890564,0.249474777030945,0.24639558649063098,0.6971187077332407
3.896950757575758,0.106167192935944,-0.116963211250305,0.117064531803131,0.6971187077332407
3.897556818181818,0.130117388248444,-0.140913406562805,-0.0457967963218691,0.6971187077332407
3.898162878787879,-0.241110639095306,-0.0115823518753052,0.20089021539688098,0.6971187077332407
3.898768939393939,0.137302446842194,-0.0522976839065552,0.0907193169593809,0.6971187077332407
3.899375,0.0175514702796936,0.587172530937195,0.36854158258438097,0.6971187077332407
3.899981060606061,-0.243505658626556,-0.845049148750305,0.260765703678131,0.6971187077332407
3.900587121212121,0.6402565484046939,0.433891280937195,-0.941534101009369,0.6971187077332407
3.901193181818182,-0.7704099555015561,0.220734542655945,1.22835359430313,0.6971187077332407
3.901799242424242,-0.23392558050155599,-0.188813797187805,0.059584063053130895,0.6971187077332407
3.902405303030303,0.472605181217194,0.259054855155945,-0.601441327571869,0.6971187077332407
3.903011363636364,-0.6003635687828061,-0.646262527656555,0.873890703678131,0.6971187077332407
3.903617424242424,0.448654985904694,0.627887862968445,-0.917583905696869,0.6971187077332407
3.904223484848485,-0.353676557064056,0.09140348796844479,0.636783770084381,0.6971187077332407
3.904829545454545,0.201967974185944,0.297375167655945,-0.297273847103119,0.6971187077332407
3.905435606060606,0.142092485904694,-0.296589676094055,0.23681550836563098,0.6971187077332407
3.906041666666667,-0.305776166439056,0.400361007499695,-0.0122665228843691,0.6971187077332407
3.906647727272727,0.455840044498444,-0.332514969062805,0.054794023990630894,0.6971187077332407
3.907253787878788,0.0055763726234436,-0.219949051094055,0.133829668521881,0.6971187077332407
3.907859848484848,-0.0087937445640564,0.347670577812195,-0.22302824163436902,0.6971187077332407
3.908465909090909,-0.202790326595306,-0.114568191719055,0.28950593805313096,0.6971187077332407
3.90907196969697,-0.150099896907806,0.378805831718445,0.0404239068031309,0.6971187077332407
3.90967803030303,0.0870070366859436,-0.253479324531555,0.028448809146880902,0.6971187077332407
3.910284090909091,-0.051904096126556394,0.0650582731246948,-0.266138593196869,0.6971187077332407
3.9108901515151517,-0.334516400814056,0.0530831754684448,0.643968828678131,0.6971187077332407
3.911496212121212,0.30255879449844403,-0.13133332843780499,0.342196367740631,0.6971187077332407
3.9121022727272727,0.0965871148109436,0.196784347343445,-0.127227460384369,0.6971187077332407
3.912708333333333,-0.162074994564056,-0.195998855781555,0.0907193169593809,0.6971187077332407
3.9133143939393937,-0.0303489203453064,-0.08822297687530521,0.06437410211563091,0.6971187077332407
3.9139204545454547,-0.418342084407806,-0.0259524690628052,0.18173005914688098,0.6971187077332407
3.9145265151515147,0.266633501529694,0.19199430828094502,-0.11046232366561899,0.6971187077332407
3.9151325757575757,0.0079713921546936,-0.418735672187805,0.270345781803131,0.6971187077332407
3.9157386363636357,0.0031813530921936,0.244684737968445,-0.869683515071869,0.6971187077332407
3.9163446969696967,-0.209975385189056,0.144093917655945,0.502662676334381,0.6971187077332407
3.916950757575758,0.0247365288734436,-0.114568191719055,0.20089021539688098,0.6971187077332407
3.9175568181818177,0.297768755435944,0.09619352703094479,-0.0793270697593691,0.6971187077332407
3.918162878787879,-0.207580365657806,-0.284614578437805,0.282320879459381,0.6971187077332407
3.9187689393939387,0.0462917046546936,0.0770333707809448,-0.335594159603119,0.6971187077332407
3.919375,-0.0447190375328064,0.419521163749695,0.521822832584381,0.6971187077332407
3.919981060606061,-0.269850873470306,-0.698952957344055,0.0955093560218809,0.6971187077332407
3.920587121212121,0.498950396060944,0.184809249687195,-0.831363202571869,0.6971187077332407
3.921193181818182,-0.9356663031578061,0.184809249687195,1.0654922661781299,0.6971187077332407
3.921799242424242,0.0846120171546936,0.005182784843444819,-0.235003339290619,0.6971187077332407
3.922405303030303,0.736057329654694,0.0363180387496948,-0.39067960882186903,0.6971187077332407
3.923011363636364,-0.641078900814056,-0.41394563312530497,0.617623613834381,0.6971187077332407
3.923617424242424,0.225918169498444,0.42431120281219503,-0.924768964290619,0.6971187077332407
3.924223484848485,-0.272245893001556,-0.114568191719055,0.854730547428131,0.6971187077332407
3.924829545454545,0.292978716373444,0.206364425468445,-0.230213300228119,0.6971187077332407
3.925435606060606,-0.0327439398765564,-0.315749832344055,0.112274492740631,0.6971187077332407
3.926041666666667,-0.526117963314056,0.278215011405945,-0.287693768978119,0.6971187077332407
3.926647727272727,0.230708208560944,-0.306169754219055,-0.0505868353843691,0.6971187077332407
3.927253787878788,-0.0806443305015564,-0.272639480781555,-0.0314266791343691,0.6971187077332407
3.927859848484848,-0.0854343695640564,0.134513839530945,-0.21344816350936902,0.6971187077332407
3.928465909090909,-0.07106425237655639,-0.119358230781555,0.416441973209381,0.6971187077332407
3.92907196969697,-0.183630170345306,0.09858854656219479,-0.10088224554061899,0.6971187077332407
3.92967803030303,0.132512407779694,-0.219949051094055,-0.0410067572593691,0.6971187077332407
3.930284090909091,-0.0135837836265564,0.0315279996871948,-0.318829022884369,0.6971187077332407
3.9308901515151518,-0.257875775814056,-0.09540803546905521,0.23202546930313098,0.6971187077332407
3.931496212121212,0.180412798404694,-0.08822297687530521,-0.0865121283531191,0.6971187077332407
3.9321022727272728,-0.0926194281578064,0.112958663749695,0.0811392388343809,0.6971187077332407
3.932708333333333,-0.281825971126556,-0.160073562812805,0.20568025445938098,0.6971187077332407
3.9333143939393937,-0.06387919378280639,-0.121753250312805,0.0428189263343809,0.6971187077332407
3.933920454545455,-0.269850873470306,-0.0475076448440552,0.390096758365631,0.6971187077332407
3.9345265151515147,0.235498247623444,0.239894698905945,0.06437410211563091,0.6971187077332407
3.935132575757576,0.166042681217194,-0.655842605781555,0.126644609928131,0.6971187077332407
3.9357386363636357,-0.0255588812828064,-0.18162873859405498,-0.378704511165619,0.6971187077332407
3.936344696969697,-0.363256635189056,0.345275558280945,0.641573809146881,0.6971187077332407
3.936950757575758,0.0822169976234436,0.0219479215621948,-0.151177655696869,0.6971187077332407
3.937556818181818,0.259448442935944,-0.109778152656555,-0.0170565619468691,0.6971187077332407
3.938162878787879,-0.135729779720306,-0.0331375276565552,0.40925691461563096,0.6971187077332407
3.938768939393939,0.132512407779694,-0.07385285968780521,-0.0050814642906191095,0.6971187077332407
3.939375,-0.152494916439056,0.0794283903121948,0.37812166070938097,0.4276149959857043
3.939981060606061,-0.389601850032806,-0.624707351875305,-0.15357267522811902,0.4276149959857043
3.940587121212121,0.649836626529694,0.215944503593445,-0.8433383002281191,0.4276149959857043
3.941193181818182,-0.6386838812828061,0.0171578824996948,1.5444961724281299,0.4276149959857043
3.941799242424242,0.180412798404694,-0.107383133125305,0.531402910709381,0.4276149959857043
3.942405303030303,0.6234914116859439,0.0674532926559448,0.215260332584381,0.4276149959857043
3.943011363636364,-0.648263959407806,-0.389995437812805,0.588883379459381,0.4276149959857043
3.943617424242424,0.285793657779694,0.249474777030945,-0.771487714290619,0.4276149959857043
3.944223484848485,-0.336911420345306,-0.265454422187805,0.538587969303131,0.4276149959857043
3.944829545454545,0.326508989810944,0.278215011405945,-0.522405683040619,0.4276149959857043
3.945435606060606,0.0822169976234436,-0.296589676094055,0.23202546930313098,0.4276149959857043
3.946041666666667,-0.368046674251556,0.342880538749695,-0.345174237728119,0.4276149959857043
3.946647727272727,0.0510817437171936,-0.339700027656555,0.0452139458656309,0.4276149959857043
3.947253787878788,-0.118964643001556,-0.272639480781555,-0.029031659603119098,0.4276149959857043
3.947859848484848,0.0870070366859436,0.0435030973434448,-0.124832440853119,0.4276149959857043
3.948465909090909,-0.0303489203453064,-0.193603836250305,0.346986406803131,0.4276149959857043
3.94907196969697,-0.0998044867515564,0.297375167655945,0.059584063053130895,0.4276149959857043
3.94967803030303,0.0151564507484436,-0.375625320625305,0.119459551334381,0.4276149959857043
3.950284090909091,0.0055763726234436,-0.188813797187805,-0.146387616634369,0.4276149959857043
3.9508901515151518,-0.111779584407806,0.124933761405945,0.0907193169593809,0.4276149959857043
3.951496212121212,-0.054299115657806395,0.0123678434371948,-0.18231290960311902,0.4276149959857043
3.9521022727272728,-0.0135837836265564,0.08900846843719479,0.0260537896156309,0.4276149959857043
3.952708333333333,-0.0399289984703064,-0.07624787921905521,0.0188687310218809,0.4276149959857043
3.9533143939393938,-0.0207688422203064,-0.155283523750305,-0.0457967963218691,0.4276149959857043
3.9539204545454547,-0.138124799251556,0.134513839530945,0.25837068414688097,0.4276149959857043
3.9545265151515148,-0.0135837836265564,0.0506881559371948,0.356566484928131,0.4276149959857043
3.9551325757575757,-0.130939740657806,-0.447475906562805,0.0859292778968809,0.4276149959857043
3.9557386363636358,0.0175514702796936,-0.121753250312805,-0.328409101009369,0.4276149959857043
3.9563446969696967,-0.243505658626556,0.110563644218445,0.631993731021881,0.4276149959857043
3.9569507575757576,0.103772173404694,0.122538741874695,-0.22302824163436902,0.4276149959857043
3.9575568181818177,0.130117388248444,-0.349280105781555,0.222445391178131,0.4276149959857043
3.9581628787878786,-0.320146283626556,-0.08343293781280521,0.0428189263343809,0.4276149959857043
3.9587689393939387,-0.128544721126556,-0.150493484687805,-0.151177655696869,0.4276149959857043
3.9593749999999996,-0.0998044867515564,0.211154464530945,0.567328203678131,0.4276149959857043
3.959981060606061,-0.221950482845306,-0.567226883125305,-0.11285734319686899,0.4276149959857043
3.9605871212121206,0.453445024967194,0.278215011405945,-0.541565839290619,0.4276149959857043
3.961193181818182,-0.861420697689056,0.24707975749969502,1.09423250055313,0.4276149959857043
3.9617992424242416,-0.138124799251556,0.144093917655945,-0.47929533147811904,0.4276149959857043
3.962405303030303,0.489370317935944,-0.0475076448440552,0.059584063053130895,0.4276149959857043
3.963011363636364,-0.5404880805015561,-0.346885086250305,0.481107500553131,0.4276149959857043
3.963617424242424,0.398359575748444,0.184809249687195,-0.776277753353119,0.4276149959857043
3.964223484848485,-0.377626752376556,-0.313354812812805,0.8331753716468809,0.4276149959857043
3.964829545454545,0.161252642154694,0.239894698905945,-0.452950116634369,0.4276149959857043
3.965435606060606,-0.126149701595306,-0.47382112140655497,0.366146563053131,0.4276149959857043
3.966041666666667,-0.420737103939056,0.611122726249695,-0.347569257259369,0.4276149959857043
3.966647727272727,0.0989821343421936,-0.251084305000305,0.12424959039688101,0.4276149959857043
3.967253787878788,0.04150166559219361,-0.12654328937530498,0.0979043755531309,0.4276149959857043
3.967859848484849,0.034316606998443605,0.218339523124695,0.174545000553131,0.4276149959857043
3.968465909090909,-0.0399289984703064,0.0506881559371948,0.222445391178131,0.4276149959857043
3.96907196969697,-0.169260053157806,0.108168624687195,-0.060166913509369105,0.4276149959857043
3.96967803030303,0.213943071842194,-0.22713410968780498,0.188915117740631,0.4276149959857043
3.970284090909091,0.328904009342194,0.206364425468445,-0.352359296321869,0.4276149959857043
3.970890151515152,-0.205185346126556,-0.13133332843780499,0.0835342583656309,0.4276149959857043
3.971496212121212,-0.0016086859703064,-0.0283474885940552,0.430812090396881,0.4276149959857043
3.972102272727273,-0.140519818782806,-0.00918733234405518,0.40925691461563096,0.4276149959857043
3.972708333333333,-0.0902244086265564,-0.133728347969055,0.006893633365630891,0.4276149959857043
3.973314393939394,-0.238715619564056,-0.128938308906555,0.255975664615631,0.4276149959857043
3.9739204545454547,-0.059089154720306396,-0.0187674104690552,0.28950593805313096,0.4276149959857043
3.974526515151515,0.161252642154694,0.00757780437469482,0.26795076227188097,0.4276149959857043
3.975132575757576,-0.114174603939056,-0.394785476875305,-0.0889071478843691,0.4276149959857043
3.975738636363636,0.0031813530921936,-0.358860183906555,-0.275718671321869,0.4276149959857043
3.976344696969697,-0.360861615657806,0.0698483121871948,0.20089021539688098,0.4276149959857043
3.976950757575758,0.252263384342194,0.105773605155945,-0.21344816350936902,0.4276149959857043
3.977556818181818,0.132512407779694,-0.394785476875305,0.461947344303131,0.4276149959857043
3.978162878787879,-0.277035932064056,-0.0427176057815552,-0.17752287054061902,0.4276149959857043
3.978768939393939,0.0917970757484436,-0.19120881671905499,-0.0936971869468691,0.4276149959857043
3.979375,-0.0327439398765564,0.306955245780945,0.505057695865631,0.4276149959857043
3.979981060606061,-0.130939740657806,-0.291799637031555,-0.567911054134369,0.4276149959857043
3.980587121212121,0.5636159234046939,-0.19120881671905499,-0.15357267522811902,0.4276149959857043
3.981193181818182,-0.787175092220306,0.146488937187195,0.986456621646881,0.4276149959857043
3.981799242424242,0.199572954654694,0.280610030937195,-0.917583905696869,0.4276149959857043
3.982405303030303,0.292978716373444,-0.646262527656555,0.277530840396881,0.4276149959857043
3.983011363636364,-0.454267377376556,-0.08582795734405521,-0.0841171088218691,0.4276149959857043
3.983617424242424,0.36243428277969403,0.0195529020309448,-0.448160077571869,0.4276149959857043
3.984223484848485,-0.432712201595306,-0.401970535469055,0.567328203678131,0.4276149959857043
3.984829545454545,0.460630083560944,0.405151046562195,-0.46013517522811903,0.4276149959857043
3.985435606060606,-0.0447190375328064,-0.313354812812805,0.18173005914688098,0.4276149959857043
3.986041666666667,-0.420737103939056,0.333300460624695,-0.639761640071869,0.4276149959857043
3.986647727272727,0.0630568413734436,-0.435500808906555,0.26795076227188097,0.4276149959857043
3.987253787878788,0.0534767632484436,0.08661344890594479,-0.201473065853119,0.4276149959857043
3.987859848484849,0.106167192935944,0.0171578824996948,0.217655352115631,0.4276149959857043
3.988465909090909,-0.157284955501556,-0.128938308906555,0.19131013727188098,0.4276149959857043
3.98907196969697,-0.435107221126556,0.12732878093719502,-0.0481918158531191,0.4276149959857043
3.98967803030303,0.0295265679359436,-0.351675125312805,0.339801348209381,0.4276149959857043
3.990284090909091,-0.0111887640953064,-0.148098465156555,-0.0936971869468691,0.4276149959857043
3.990890151515151,-0.190815228939056,-0.107383133125305,0.109879473209381,0.4276149959857043
3.991496212121212,0.355249224185944,-0.09061799640655521,0.14101472711563098,0.4276149959857043
3.992102272727273,0.178017778873444,-0.0331375276565552,0.17694002008438098,0.4276149959857043
3.992708333333333,-0.0231638617515564,0.0506881559371948,-0.029031659603119098,0.4276149959857043
3.993314393939394,0.168437700748444,-0.006792312812805181,0.222445391178131,0.4276149959857043
3.9939204545454547,-0.109384564876556,-0.07864289875030521,0.109879473209381,0.4276149959857043
3.994526515151515,0.230708208560944,-0.188813797187805,0.380516680240631,0.4276149959857043
3.9951325757575757,0.0103664116859436,-0.06906282062530521,-0.0745370306968691,0.4276149959857043
3.995738636363636,0.0917970757484436,-0.00200227375030518,-0.17273283147811902,0.4276149959857043
3.9963446969696967,-0.272245893001556,0.0770333707809448,0.47871248102188096,0.4276149959857043
3.9969507575757577,-0.0255588812828064,0.271029952812195,-0.35954435491561904,0.4276149959857043
3.9975568181818177,-0.0447190375328064,-0.516931472969055,0.26795076227188097,0.4276149959857043
3.9981628787878787,-0.430317182064056,0.244684737968445,-0.337989179134369,0.4276149959857043
3.9987689393939387,0.264238481998444,0.0530831754684448,0.164964922428131,0.4276149959857043
3.9993749999999997,0.213943071842194,0.455446456718445,0.330221270084381,0.4276149959857043
3.9999810606060606,-0.0351389594078064,-0.0451126253128052,-0.0194515814781191,0.4276149959857043
4.000587121212121,0.6594167046546939,-0.248689285469055,-0.0410067572593691,0.4276149959857043
4.001193181818182,-0.727299603939056,0.230314620780945,1.09183748102188,0.4276149959857043
4.001799242424242,0.168437700748444,0.357250655937195,-0.773882733821869,0.4276149959857043
4.002405303030303,0.5181105523109439,-0.385205398750305,0.291900957584381,0.4276149959857043
4.003011363636364,-0.403971967220306,0.09858854656219479,-0.151177655696869,0.4276149959857043
4.003617424242424,0.372014360904694,-0.116963211250305,-0.639761640071869,0.4276149959857043
4.004223484848485,-0.403971967220306,-0.42352571125030497,0.639178789615631,0.4276149959857043
