Time (s),Accel X (m/s^2),Accel Y (m/s^2),Accel Z (m/s^2)
6.009375,-0.210080073738098,1.1462889049529998,-0.288842910575867
6.00998069351908,0.604226566886902,-1.29423599739075,0.752990585517883
6.010586387038159,0.915579105949402,-1.2535206653595001,-0.880412734794617
6.0111920805572385,-2.1308857378006,1.1630540416717499,0.295541855049133
6.011797774076317,-0.286720698738098,1.34028548698425,0.547018905830383
6.012403467595397,2.1514091840744,-0.659555821609497,-0.650490859794617
6.013009161114477,-0.566937983894348,-0.633210606765747,0.444033065986633
6.0136148546335555,-1.1920380815506,0.401437830734253,-0.547505019950867
6.014220548152635,-0.583703120613098,-0.166181798171997,0.657189804267883
6.014826241671715,0.735952641105652,0.842121424484253,-0.11640150432586699
6.015431935190794,0.886838871574402,-1.76844986457825,-0.528344863700867
6.016037628709873,-0.871105464363098,0.106850428390503,-0.06610609416961649
6.016643322228952,-1.6470917924881001,2.40846419792175,0.973332382392883
6.017249015748032,1.3083623090743999,-0.297907872390747,-0.0613160551071165
6.0178547092671115,0.541956059074402,-1.05952408332825,0.709880233955383
6.01846040278619,-1.44351513233185,-0.305092930984497,-0.0397608793258665
6.01906609630527,0.110852543449402,-0.0584059192657471,-0.125981582450867
6.01967178982435,0.149172855949402,0.961872401046753,0.551808944892883
6.0202774833434285,1.2149565473556498,-1.2271754505157502,-0.022995742607116502
6.020883176862508,0.525190922355652,-0.903847813796997,-0.262497695732117
6.021488870381587,-1.69259716358185,2.0324461315155,0.295541855049133
6.022094563900667,0.0653471723556519,0.399042811203003,0.479958358955383
6.022700257419746,0.735952641105652,-0.831997227859497,0.297936874580383
6.023305950938825,-0.337016108894348,-0.029665684890747102,-0.346323379325867
6.023911644457905,-0.382521479988098,0.466103358078003,-0.607380508232117
6.024517337976984,-0.420841792488098,-0.245217442703247,0.551808944892883
6.025123031496063,1.0305400434493999,-0.994858555984497,-1.01453382854462
6.025728725015143,0.422205082511902,-0.745776524734497,0.376972519111633
6.026334418534222,-1.7069672807693501,2.20728255729675,0.163815780830383
6.0269401120533015,-0.303485835456848,0.607409510421753,0.139865585517883
6.027545805572381,1.38739795360565,-1.2918409778595001,0.585339218330383
6.02815149909146,-0.162179683113098,-0.216477208328247,-0.710366348075867
6.02875719261054,-0.921400874519348,0.217021326828003,-0.372668594169617
6.0293628861296185,-0.131044429206848,0.763085779953003,0.573364120674133
6.029968579648698,0.7575078168869019,-1.3948268177032501,0.281171737861633
6.030574273167778,1.0880205121994,-1.24154556770325,-1.12470472698212
6.031179966686857,-1.7716328081131,1.155868983078,0.937407089424133
6.031785660205936,-0.523827632331848,1.46003646354675,-0.351113418388367
6.032391353725015,1.9334624067306498,-0.920612950515747,-0.343928359794617
6.032997047244095,-0.545382808113098,-0.707456212234497,0.709880233955383
6.0336027407631745,-0.808834956550598,0.494843592453003,-1.14386488323212
6.034208434282253,-0.471137202644348,-0.0248756458282471,0.985307480049133
6.034814127801333,0.175518070793152,0.475683436203003,-0.250522598075867
6.035419821320413,1.8448466840744,-2.570781407547,-0.775031875419617
6.0360255148394915,-0.416051753425598,0.619384608078003,0.180580917549133
6.036631208358571,-2.3320673784256,2.851542811203,1.30145005817413
6.03723690187765,1.95741260204315,-0.949353184890747,0.0440648042678835
6.03784259539673,0.180308109855652,-1.0571290637970001,-0.341533340263367
6.038448288915809,-1.52015575733185,-0.158996739578247,-0.238547500419617
6.039053982434888,0.182703129386902,0.214626307296753,-0.408593887138367
6.039659675953968,0.0509770551681519,0.866071619796753,0.879926620674133
6.040265369473047,1.6580351606369,-1.6127735950470001,-0.583430312919617
6.040871062992126,0.338379398918152,-0.980488438796997,-0.0852662504196165
6.041476756511206,-2.2410566362381,2.88746810417175,0.264406601142883
6.042082450030285,0.424600102043152,-0.14702164192199701,0.714670273017883
6.0426881435493645,1.26764697704315,-0.472744298171997,-0.583430312919617
6.043293837068444,-1.05073192920685,-0.173366856765747,0.230876327705383
6.043899530587523,-0.123859370613098,-0.307487950515747,0.0823851167678835
6.044505224106603,-0.104699214363098,0.700815272140503,-0.504394668388367
6.045110917625681,1.12394580516815,-1.2535206653595001,-0.149931777763367
6.045716611144761,0.6784721723556519,-0.546989903640747,-0.312793105888367
6.046322304663841,-1.9464692338943501,2.2432078502654997,0.441638046455383
6.04692799818292,0.223418461418152,0.504423670578003,-0.046945937919616494
6.047533691701999,1.59815967235565,-1.53852798957825,0.398527694892883
6.048139385221078,-0.612443354988098,-0.149416661453247,0.364997421455383
6.048745078740158,-0.945351069831848,0.514003748703003,0.295541855049133
6.0493507722592375,-0.696269038581848,0.616989588546753,1.17690904254913
6.049956465778316,0.5587211957931519,-1.04994400520325,0.31949205036163303
6.050562159297396,1.6340849653243998,-1.4762574817657501,-1.0025587308883699
6.051167852816476,-2.2650068315506,1.38339583854675,0.865556503486633
6.051773546335554,-0.483112300300598,2.1761473033905,-0.597800430107117
6.052379239854634,2.2615800825119,-1.938496251297,0.848791366767883
6.052984933373713,-0.674713862800598,-0.295512852859497,-0.561875137138367
6.053590626892793,-0.847155269050598,0.0134446666717529,-0.889992812919617
6.054196320411872,-0.502272456550598,-0.455979161453247,1.0595530855178799
6.054802013930951,0.700027348136902,1.3331004283905,-0.940288223075867
6.055407707450031,1.3299174848556499,-2.70250748176575,-0.178672012138367
6.05601340096911,-0.727404292488098,0.437363123703003,-0.281657851982117
6.056619094488189,-1.9033588823318501,2.1953074596405,1.7732689058303799
6.057224788007269,1.4616435590744,-0.400893712234497,-0.535529922294617
6.057830481526348,0.494055668449402,-1.124189610672,0.10873033161163301
6.058436175045427,-0.854340327644348,-0.0440358020782471,-0.308003066825867
6.059041868564507,0.244973637199402,0.0805052135467529,-0.815747207450867
6.059647562083586,-0.0567988237380981,0.595434412765503,0.839211288642883
6.060253255602666,1.27722705516815,-1.191250157547,-0.286447891044617
6.060858949121744,0.199468266105652,-1.04036392707825,-0.346323379325867
6.061464642640824,-2.3608076128006,2.4659446666717497,0.034484726142883504
6.062070336159904,0.702422367668152,-0.472744298171997,0.882321640205383
6.062676029678983,1.8208964887619,-0.793676915359497,-0.06610609416961649
6.063281723198062,-1.0052265581131001,0.578669276046753,-0.188252090263367
6.063887416717141,-0.406471675300598,0.224206385421753,-0.319978164482117
6.064493110236221,-0.356176265144348,0.217021326828003,0.14226060504913302
6.0650988037553,1.47840869579315,-0.913427891921997,-0.487629531669617
6.065704497274379,0.767087895011902,-0.587705235671997,0.041669784736633506
6.066310190793459,-2.3033271440506002,1.8168943737029999,0.594919296455383
6.066915884312539,0.685657230949402,0.839726404953003,-0.11879652385711699
6.067521577831617,0.783853031730652,-0.915822911453247,0.997282577705383
6.068127271350697,-0.605258296394348,0.605014490890503,-1.56778334026337
6.068732964869776,-0.744169429206848,-0.350598302078247,0.00813951129913347
6.069338658388856,-0.866315425300598,0.355932459640503,0.245246444892883
6.069944351907935,1.2221416059494,-1.1768800403595001,-0.9331031644821169
6.070550045427014,1.23890674266815,-1.1193995716095,0.295541855049133
6.071155738946094,-2.00873974170685,2.17854232292175,0.882321640205383
6.0717614324651725,-0.178944819831848,1.0456980846405,-0.822932266044617
6.072367125984252,2.14422412548065,-1.8259303333282502,0.597314315986633
6.072972819503332,-0.849550288581848,-0.132651524734497,0.398527694892883
6.073578513022411,-0.899845698738098,0.957082361984253,-1.23966566448212
6.07418420654149,-0.521432612800598,-0.451189122390747,1.5433470308303798
6.07478990006057,0.702422367668152,0.911576990890503,-1.29475111370087
6.075395593579649,1.39697803173065,-2.94679947395325,0.252431503486633
6.0760012870987286,-1.0818671831131002,0.863676600265503,-0.178672012138367
6.076606980617807,-1.39082470264435,2.40367415885925,1.01644273395538
6.077212674136887,1.8065263715744,-0.906242833328247,0.362602401924133
6.077818367655967,0.362329594230652,-0.479929356765747,-0.885202773857117
6.0784240611750455,-1.3692695268631,-1.152929845047,0.6835350191116331
6.079029754694125,-0.250795405769348,0.506818690109253,0.293146835517883
6.079635448213205,0.197073246574402,0.837331385421753,0.774545761299133
6.080241141732284,1.8208964887619,-0.724221348953247,-0.341533340263367
6.080846835251363,-0.296300776863098,-0.702666173171997,0.247641464424133
6.081452528770442,-1.6949921831131,1.4576414440154999,0.163815780830383
6.082058222289522,0.520400883293152,0.135590662765503,0.10873033161163301
6.0826639158086016,1.0544902387619,-0.245217442703247,0.144655624580383
6.08326960932768,-0.595678218269348,-0.123071446609497,0.0632249605178835
6.08387530284676,-0.808834956550598,0.21223128776550299,-0.298422988700867
6.084480996365839,0.0653471723556519,0.188281092453003,0.036879745674133504
6.0850866898849185,1.36344775829315,-1.41398697395325,0.11352037067413301
6.085692383403998,0.561116215324402,0.286476893234253,-0.243337539482117
6.086298076923077,-1.8913837846756,1.7546238658905,0.496723495674133
6.086903770442157,-0.303485835456848,0.39425277214050297,0.11831040973663301
6.087509463961236,0.692842289543152,-1.1577198841095,0.204531112861633
6.088115157480315,-0.372941401863098,-0.544594884109497,-0.14753675823211698
6.088720850999395,-0.480717280769348,0.499633631515503,-0.44930921916961697
6.089326544518474,-0.214870112800598,0.787035975265503,0.432057968330383
6.089932238037553,1.2125615278244,-0.585310216140747,-0.236152480888367
6.090537931556633,1.1550810590743998,-1.51936783332825,-0.401408828544617
6.091143625075712,-2.5571992143631,0.892416834640503,0.434452987861633
6.0917493185947915,-0.911820796394348,2.05879134635925,-0.427754043388367
6.09235501211387,1.7538359418868998,-1.1457447864532502,1.04997300739288
6.09296070563295,0.158752934074402,-0.235637364578247,-0.370273574638367
6.09356639915203,-1.1058173784256,-0.0847511341094971,-0.545110000419617
6.0941720926711085,-0.633998530769348,-0.379338536453247,0.757780624580383
6.094777786190188,0.470105473136902,1.23490462760925,-0.715156387138367
6.095383479709268,0.951504398918152,-1.85467056770325,-0.257707656669617
6.095989173228347,-0.890265620613098,0.188281092453003,-0.456494277763367
6.096594866747426,-1.28065380420685,1.8767698619842499,0.717065292549133
6.097200560266505,1.9789677778244,-0.683506016921997,0.14705064411163302
6.097806253785585,0.163542973136902,-0.460769200515747,-0.650490859794617
6.0984119473046645,-1.1776679643631,0.111640467453003,0.11831040973663301
6.099017640823743,0.441365238761902,-0.173366856765747,0.273986679267883
6.099623334342823,0.127617680168152,0.652914881515503,-0.183462051200867
6.100229027861903,1.0473051801681499,-1.1193995716095,0.0919651948928835
6.1008347213809815,-0.0232685503005981,-0.44400406379699703,-0.612170547294617
6.101440414900061,-1.1537177690506,2.3461936901092497,0.204531112861633
6.10204610841914,0.118037602043152,-0.127861485671997,0.846396347236633
6.10265180193822,1.15747607860565,-0.618840489578247,0.15184068317413302
6.103257495457299,-0.895055659675598,-0.410473790359497,0.192556015205383
6.103863188976378,-0.708244136238098,0.214626307296753,-0.39901380901336697
6.104468882495458,0.407834965324402,-0.175761876296997,0.693115097236633
6.105074576014537,0.585066410636902,-0.669135899734497,-1.09835951213837
6.105680269533616,0.829358402824402,-0.503879552078247,0.0272996675491335
6.106285963052696,-1.2734687456131,1.366630701828,0.616474472236633
6.106891656571775,-0.49508739795684803,0.911576990890503,0.0584349214553835
6.1074973500908545,1.0592802778244,-0.839182286453247,0.20213609333038302
6.108103043609934,-0.0424287065505981,-0.252402501296997,-0.257707656669617
6.108708737129013,-1.1034223588943501,0.0829002330780029,0.369787460517883
6.109314430648093,-0.0759589799880981,0.343957361984253,-0.281657851982117
6.1099201241671715,0.17072803173065199,-1.43793716926575,0.386552597236633
6.110525817686251,1.0640703168869,-0.250007481765747,-0.0349708402633665
6.11113151120533,-1.67343700733185,1.0121678112030001,0.848791366767883
6.11173720472441,-0.257980464363098,1.251669764328,-0.810957168388367
6.112342898243489,1.7538359418868998,-1.2535206653595001,0.678744980049133
6.112948591762568,-0.478322261238098,-0.285932774734497,-0.130771621513367
6.113554285281648,-0.933375972175598,0.708000330734253,-0.810957168388367
6.1141599788007275,-0.511852534675598,-0.11349136848449701,0.724250351142883
6.114765672319806,0.776667973136902,0.557114100265503,-0.387038711357117
6.115371365838886,1.0065898481369,-2.43426529426575,0.14226060504913302
6.115977059357966,-0.507062495613098,0.878046717453003,-0.882807754325867
6.1165827528770444,-1.8722236284256,1.8863499401092498,1.44994126911163
6.117188446396124,1.2556718793869,-0.178156895828247,-0.224177383232117
6.117794139915203,0.144382816886902,-0.654765782546997,0.190160995674133
6.118399833434283,-1.05073192920685,-0.420053868484497,0.0775950777053835
6.119005526953362,0.458130375480652,0.178701014328003,-0.667255996513367
6.119611220472441,-0.0304536088943481,0.698420252609253,0.300331894111633
6.120216913991521,1.04251514110565,-0.719431309890747,0.13747056598663301
6.1208226075106005,0.300059086418152,-0.820022130203247,-0.0325758207321165
6.121428301029679,-1.9416791948318501,2.11148177604675,-0.501999648857117
6.122033994548758,-0.0400336870193481,-0.479929356765747,1.29186998004913
6.122639688067839,1.6197148481369,-0.515854649734497,-0.164301894950867
6.1232453815869174,-0.490297358894348,0.468498377609253,-0.437334121513367
6.123851075105996,-0.653158687019348,-0.053615880203247104,-0.319978164482117
6.124456768625076,0.14198779735565198,0.449338221359253,-0.590615371513367
6.125062462144156,0.616201664543152,-1.737314610672,0.855976425361633
6.125668155663234,0.702422367668152,0.552324061203003,-1.0073487699508699
6.126273849182314,-1.3836396440506,1.90551009635925,1.07152818317413
6.126879542701394,0.182703129386902,0.430178065109253,0.223691269111633
6.127485236220473,1.7394658246994,-0.367363438796997,-0.463679336357117
6.128090929739552,-1.1968281206131,-0.525434727859497,0.31949205036163303
6.128696623258631,-0.854340327644348,0.317612147140503,-0.698391250419617
6.129302316777711,-0.346596187019348,-0.166181798171997,0.580549179267883
6.12990801029679,0.606621586418152,-1.5361329700470001,-0.267287734794617
6.130513703815869,1.4616435590744,-0.920612950515747,-0.494814590263367
6.131119397334949,-1.8434833940506001,2.190517420578,0.812866073799133
6.131725090854029,-0.32504101123809803,0.844516444015503,0.477563339424133
6.132330784373107,1.70833057079315,-1.3397413684845,-0.751081680107117
6.132936477892187,-1.48662548389435,-0.182946934890747,0.10633531208038301
6.133542171411267,-0.545382808113098,0.130800623703003,0.312306991767883
6.134147864930346,0.285688969230652,0.561904139328003,0.173395858955383
6.134753558449425,-0.574123042488098,0.0876902721405029,0.391342636299133
6.135359251968504,1.4233232465744,-2.08938248176575,-1.2109254301071202
6.135964945487584,-0.665133784675598,0.624174647140503,0.477563339424133
6.136570639006663,-1.3548994096756,2.34140365104675,0.774545761299133
6.137176332525742,2.15859424266815,-0.671530919265747,-0.679231094169617
6.137782026044821,-0.00171337451934814,-1.191250157547,1.15295884723663
6.138387719563902,-0.995646479988098,0.236181483078003,-1.01692884807587
6.13899341308298,0.14677783641815198,-0.621235509109497,0.333862167549133
6.139599106602059,-0.528617671394348,0.767875819015503,0.463193222236633
6.14020480012114,1.58378955516815,-1.24154556770325,-0.470864394950867
6.140810493640219,0.673682133293152,-0.453584141921997,-0.185857070732117
6.141416187159297,-1.2159882768631,1.9653855846405,-0.154721816825867
6.142021880678377,0.570696293449402,0.0038645885467529497,1.16732896442413
6.142627574197457,-0.028058589363098102,0.217021326828003,0.022509628486633498
6.1432332677165356,-0.511852534675598,-1.2535206653595001,0.441638046455383
6.143838961235615,-0.21726513233184802,0.775060877609253,-0.679231094169617
6.144444654754694,-0.246005366706848,0.403832850265503,0.362602401924133
6.145050348273774,2.30229541454315,-1.2535206653595001,-0.616960586357117
6.145656041792853,0.0581621137619019,0.597829432296753,-0.312793105888367
6.146261735311932,-1.73091747608185,1.2061643932342498,1.88343980426788
6.146867428831013,-0.183734858894348,0.554719080734253,-0.250522598075867
6.147473122350092,-0.346596187019348,-0.858342442703247,0.717065292549133
6.14807881586917,1.01856494579315,-0.544594884109497,-0.312793105888367
6.14868450938825,-0.09272411670684809,0.137985682296753,-0.741501601982117
6.14929020290733,-0.569333003425598,0.523583826828003,0.408107773017883
6.1498958964264085,0.836543461418152,-1.1098194934845,0.336257187080383
6.150501589945488,-0.131044429206848,-0.882292638015747,-0.686416152763367
6.151107283464567,-1.47704540576935,1.31633529167175,0.764965683174133
6.151712976983647,-0.229240229988098,1.22532454948425,0.422477890205383
6.152318670502726,1.98615283641815,-0.453584141921997,-0.439729141044617
6.152924364021805,0.228208500480652,-0.963723302078247,0.12070542926788301
6.153530057540884,-1.11779247608185,0.0948753307342529,-0.238547500419617
6.154135751059965,-0.715429194831848,0.540348963546753,0.628449569892883
6.154741444579043,-0.430421870613098,0.147565760421753,-0.353508437919617
6.155347138098122,1.65564014110565,-1.6558839466095001,-1.01932386760712
6.155952831617203,-0.0472187456130981,-0.633210606765747,0.479958358955383
6.1565585251362815,-1.36208446826935,2.2336277721405,0.408107773017883
6.15716421865536,0.944319340324402,-0.360178380203247,0.570969101142883
6.15776991217444,-0.15738964405059802,-1.516972813797,-0.0924513090133665
6.15837560569352,-0.902240718269348,0.15235579948425299,-0.466074355888367
6.1589812992125985,-0.21247509326934802,-0.439214024734497,0.398527694892883
6.159586992731678,0.187493168449402,1.5007517955779999,-0.854067519950867
6.160192686250757,1.5095439496993999,-1.1960401966095,0.832026230049133
6.160798379769837,1.07604541454315,-0.470349278640747,-1.4767725980758701
6.161404073288916,-1.77402782764435,1.4791966197967499,0.836816269111633
6.162009766807995,-0.760934565925598,-0.218872227859497,0.585339218330383
6.162615460327076,1.29638721141815,0.188281092453003,-0.767846816825867
6.1632211538461545,-0.37533642139434803,-1.1074244739532502,1.16493394489288
6.163826847365233,0.07732227001190191,0.940317225265503,-1.6132887113571202
6.164432540884313,-0.183734858894348,-0.326648106765747,0.896691757392883
6.165038234403393,1.3730278364181498,-0.666740880203247,-1.0911744535446202
6.1656439279224715,0.781458012199402,-0.412868809890747,0.597314315986633
6.166249621441551,-2.19076122608185,1.65642806510925,0.11591539020538301
6.16685531496063,0.012656742668151899,0.837331385421753,0.0943602144241335
6.16746100847971,0.932344242668152,-1.38045670051575,0.580549179267883
6.168066701998789,0.6377568403244019,0.149960779953003,-0.945078262138367
6.168672395517868,-1.0866572221756001,0.106850428390503,0.489538437080383
6.169278089036947,-0.804044917488098,1.165449061203,-0.14753675823211698
6.1698837825560275,0.712002445793152,-1.28465591926575,0.860766464424133
6.170489476075106,1.27722705516815,-1.16969498176575,-0.794192031669617
6.171095169594185,-1.98957958545685,0.911576990890503,1.11703355426788
6.171700863113266,-0.693874019050598,1.9079051158904998,-0.691206191825867
6.1723065566323445,1.8783769575119,-1.382851720047,0.980517440986633
6.172912250151423,-0.200499995613098,0.0852952526092529,-0.233757461357117
6.173517943670503,-1.0914472612381,0.207441248703003,-0.741501601982117
6.174123637189583,-1.1345576128006,-0.250007481765747,0.9230369722366331
6.1747293307086615,0.695237309074402,0.942712244796753,-0.8732276762008669
6.175335024227741,1.55983935985565,-2.2211085559845,0.472773300361633
6.17594071774682,-0.382521479988098,0.631359705734253,-0.621750625419617
6.1765464112659,-2.1260956987381,2.133036951828,1.2607347261428798
6.177152104784979,1.34907764110565,0.0948753307342529,-0.21220228557586698
6.177757798304058,0.352749516105652,-1.3493214466095,-0.0900562894821165
6.178363491823137,-0.598073237800598,0.0517649791717529,-0.497209609794617
6.1789691853422175,0.115642582511902,0.252946619796753,0.0943602144241335
6.179574878861296,-0.416051753425598,0.715185389328003,0.695510116767883
6.180180572380376,1.49756885204315,-0.786491856765747,-0.885202773857117
6.180786265899456,0.415020023918152,-1.05473404426575,-0.0373658597946165
6.1813919594185345,-1.9488642534256,1.8863499401092498,0.580549179267883
6.181997652937614,0.134802738761902,0.475683436203003,0.295541855049133
6.182603346456693,1.1215507856369,-0.918217930984497,0.951777206611633
6.183209039975773,-0.210080073738098,-0.127861485671997,-0.609775527763367
6.183814733494852,-0.399286616706848,0.0709251354217529,-0.315188125419617
6.184420427013931,-0.418446772956848,0.262526697921753,0.386552597236633
6.18502612053301,1.5095439496993999,-1.3493214466095,-0.348718398857117
6.1856318140520905,0.585066410636902,-0.616445470046997,0.0728050386428835
6.186237507571169,-1.8267182573318501,1.9270652721405,-0.12358656291961699
6.186843201090248,-0.186129878425598,0.389462733078003,0.336257187080383
6.187448894609329,1.12394580516815,-0.736196446609497,0.0560399019241335
6.1880545881284075,-0.21247509326934802,-0.580520177078247,-0.125981582450867
6.188660281647486,-0.329831050300598,0.140380701828003,-0.159511855888367
6.189265975166566,-0.7393793901443481,1.0983885143279999,-0.284052871513367
6.189871668685646,0.747927738761902,-1.114609532547,0.467983261299133
6.190477362204724,1.79934131298065,-1.4762574817657501,-0.145141738700867
6.191083055723804,-2.06143017139435,1.155868983078,0.0105345308303835
6.191688749242883,-0.576518062019348,1.37860579948425,-0.523554824638367
6.192294442761963,2.09632373485565,-1.2487306262970002,0.515883651924133
6.192900136281042,-0.346596187019348,-0.321858067703247,0.0129295503616335
6.193505829800121,-1.1153974565506,0.255341639328003,-0.8732276762008669
6.194111523319201,-0.6387885698318481,-0.192527013015747,1.26312974567413
6.1947172168382805,0.426995121574402,1.0983885143279999,-1.04566908245087
6.195322910357359,1.3897929731368999,-2.43905533332825,-0.22178236370086699
6.195928603876439,-0.356176265144348,0.461313319015503,0.209321151924133
6.196534297395519,-1.6207465776443502,2.497079920578,0.242851425361633
6.197139990914597,1.1646611371994,-0.853552403640747,-0.006230605888366519
6.197745684433677,0.743137699699402,-0.671530919265747,0.491933456611633
6.198351377952756,-1.0579169878006,0.00865462760925295,-0.0828712308883665
6.198957071471836,-0.234030269050598,0.315217127609253,-0.14274671916961698
6.199562764990915,0.005471684074401861,0.851701502609253,1.00446763629913
6.200168458509994,1.4496684614181499,-1.2654957630157502,0.822446151924133
6.200774152029074,0.640151859855652,-0.606865391921997,-0.645700820732117
6.2013798455481535,-1.61116649951935,1.8312644908905,0.13747056598663301
6.201985539067232,0.338379398918152,0.401437830734253,0.745805526924133
6.202591232586311,0.836543461418152,-0.424843907546997,0.252431503486633
6.203196926105392,-0.492692378425598,-0.180551915359497,-0.327163223075867
6.20380261962447,-0.229240229988098,0.353537440109253,-0.348718398857117
6.204408313143549,-0.45437206592559803,-0.11349136848449701,0.963752304267883
6.20501400666263,1.67001025829315,-0.405683751296997,-1.66597914104462
6.205619700181709,0.659312016105652,-0.872712559890747,1.20564927692413
6.206225393700787,-1.5465009721756,2.65754622917175,-0.351113418388367
6.206831087219867,-0.286720698738098,0.0876902721405029,0.875136581611633
6.207436780738947,1.06646533641815,-0.824812169265747,-0.0828712308883665
6.208042474258026,0.137197758293152,0.327192225265503,-0.717551406669617
6.208648167777105,-1.21359325733185,-0.240427403640747,0.853581405830383
6.209253861296184,-0.183734858894348,1.6396629283905,-1.1390748441696201
6.209859554815264,0.745532719230652,-2.07022232551575,1.1625389253616298
6.210465248334343,1.6532451215744,-0.137441563796997,-2.08271253948212
6.211070941853422,-2.3129072221756,0.743925623703003,1.78045396442413
6.211676635372502,-0.471137202644348,1.25406478385925,-0.540319961357117
6.212282328891582,2.04842334423065,-1.2439405872345,0.688325058174133
6.21288802241066,-0.816020015144348,-0.496694493484497,0.223691269111633
6.21349371592974,-0.557357905769348,0.104455408859253,-1.26601087932587
6.21409940944882,-0.631603511238098,-0.487114415359497,1.6535179292678799
6.214705102967899,0.479685551261902,1.26364486198425,-1.25643080120087
6.215310796486978,1.1167607465744,-2.78872818489075,0.891901718330383
6.215916490006057,-0.741774409675598,0.880441736984253,-1.12230970745087
6.216522183525137,-1.25670360889435,1.9174851940155,0.606894394111633
6.217127877044216,1.19100635204315,-1.1170045520782501,1.37330064411163
6.217733570563295,0.132407719230652,-0.357783360671997,-0.782216934013367
6.218339264082374,-0.902240718269348,-0.546989903640747,0.444033065986633
6.218944957601455,-0.164574702644348,0.137985682296753,-0.267287734794617
6.219550651120533,0.666497074699402,0.885231776046753,-0.425359023857117
6.220156344639612,0.910789066886902,-1.14095474739075,0.0895701753616335
6.220762038158693,-0.600468257331848,-0.295512852859497,-0.755871719169617
6.221367731677772,-1.1465327104568501,0.952292322921753,0.879926620674133
6.22197342519685,0.319219242668152,1.0433030651092499,-0.006230605888366519
6.22257911871593,0.189888187980652,-0.513459630203247,0.695510116767883
6.22318481223501,0.436575199699402,-1.037968907547,-0.06371107463836649
6.2237905057540885,-0.428026851081848,0.676865076828003,-0.990583633232117
6.224396199273168,-0.363361323738098,0.166725916671753,1.04997300739288
6.225001892792247,1.1646611371994,-0.980488438796997,-0.415778945732117
6.225607586311327,0.194678227043152,0.0014695690155029498,-0.0972413480758665
6.226213279830406,-0.5597529253005981,1.4863816783905,0.159025741767883
6.226818973349485,-0.298695796394348,0.161935877609253,0.278776718330383
6.227424666868566,0.412625004386902,-0.5685450794219971,0.276381698799133
6.228030360387645,-0.250795405769348,-0.400893712234497,-0.578640273857117
6.228636053906723,-0.792069819831848,0.255341639328003,0.633239608955383
6.229241747425803,-0.19810497608184802,0.794221033859253,0.125495468330383
6.229847440944883,0.357539555168152,-1.191250157547,0.15663072223663302
6.2304531344639615,1.0161699262619,-1.12179459114075,0.000954452705383475
6.231058827983041,-1.41477489795685,1.0600682018279999,0.139865585517883
6.23166452150212,-0.763329585456848,1.5247019908905,-0.418173965263367
6.2322702150212,1.54067920360565,-0.817627110671997,-0.106821426200867
6.232875908540279,-0.0136884721755981,-1.0571290637970001,-0.0253907621383665
6.233481602059358,-0.689083979988098,0.485263514328003,-0.803772109794617
6.234087295578437,-0.665133784675598,-0.0200856067657471,0.796100937080383
6.234692989097518,0.34316943798065197,0.504423670578003,-0.0182057035446165
6.235298682616596,0.616201664543152,-1.57205826301575,-0.413383926200867
6.235904376135675,-0.389706538581848,-0.204502110671997,-0.214597305107117
6.236510069654756,-1.6087714799881,1.682773279953,0.477563339424133
6.2371157631738345,1.39697803173065,-0.142231602859497,0.254826523017883
6.237721456692913,0.312034184074402,-0.599680333328247,0.664374862861633
6.238327150211993,-1.16090282764435,-0.029665684890747102,-0.741501601982117
6.238932843731073,0.489265629386902,-0.348203282546997,-0.248127578544617
6.2395385372501515,-0.598073237800598,0.308032069015503,0.0823851167678835
6.240144230769231,1.14310596141815,-0.388918614578247,-0.358298476982117
6.24074992428831,0.448550297355652,-0.786491856765747,0.324282089424133
6.24135561780739,-1.2782587846756,2.12106185417175,-0.39901380901336697
6.241961311326469,-0.0711689409255981,0.317612147140503,0.681139999580383
6.242567004845548,0.486870609855652,-0.923007970046997,0.535043808174133
6.243172698364627,-0.0065034135818481395,-0.252402501296997,-0.303213027763367
6.2437783918837075,-0.411261714363098,-0.0727760364532471,-0.0277857816696165
6.244384085402786,0.113247562980652,0.767875819015503,-0.137956680107117
6.244989778921866,0.599436527824402,-1.01641373176575,-0.334348281669617
6.245595472440946,0.999404789543152,-0.822417149734497,-0.054130996513366496
6.2462011659600245,-0.993251460456848,1.3426805065154999,1.10026841754913
6.246806859479104,-0.926190913581848,1.4456663463592498,-0.336743301200867
6.247412552998183,0.534771000480652,-1.2152003528595001,0.920641952705383
6.248018246517263,0.122827641105652,-0.491904454421997,-0.825327285575867
6.248623940036342,-0.303485835456848,0.0565550182342529,-0.451704238700867
6.249229633555421,-0.971696284675598,0.351142420578003,0.343442245674133
6.2498353270745,0.575486332511902,-0.393708653640747,-0.0732911527633665
6.2504410205935805,1.35865771923065,-1.7756349231720001,0.300331894111633
6.251046714112659,-1.0866572221756001,1.5869724987029998,-1.0025587308883699
6.251652407631738,-0.873500483894348,1.29238509635925,0.154235702705383
6.252258101150819,1.6125297895431498,-1.27986588020325,0.235666366767883
6.2528637946698975,0.0366069379806519,-0.269167638015747,0.247641464424133
6.253469488188976,-1.2830488237381001,0.288871912765503,-0.434939101982117
6.254075181708056,-0.145414546394348,-0.101516270828247,0.650004745674133
6.254680875227136,0.288083988761902,0.854096522140503,-0.0301808012008665
6.2552865687462145,1.20058643016815,-1.7421046497345,-0.528344863700867
6.255892262265294,-0.09272411670684809,-0.453584141921997,-0.022995742607116502
6.256497955784373,-2.0734052690506,2.37014388542175,-0.106821426200867
6.257103649303453,1.26764697704315,-0.769726720046997,0.853581405830383
6.257709342822532,0.158752934074402,-0.786491856765747,0.719460312080383
6.258315036341611,-0.899845698738098,0.288871912765503,-0.825327285575867
6.258920729860691,0.345564457511902,-0.214082188796997,0.867951523017883
6.2595264233797705,-0.705849116706848,1.1798191783904999,1.1840941011428798
6.260132116898849,1.2149565473556498,-0.901452794265747,0.022509628486633498
6.260737810417929,0.604226566886902,-0.743381505203247,-0.485234512138367
6.261343503937009,-1.3501093706131,1.62768783073425,0.829631210517883
6.2619491974560875,0.23060352001190199,0.854096522140503,-0.276867812919617
6.262554890975167,0.635361820793152,-1.06431412239075,0.542228866767883
6.263160584494246,-0.164574702644348,-0.245217442703247,-0.16190687541961699
6.263766278013326,-0.190919917488098,0.341562342453003,-0.26968275432586697
6.264371971532405,-0.183734858894348,0.166725916671753,0.288356796455383
6.264977665051484,1.52151904735565,-0.618840489578247,-0.858857559013367
6.265583358570563,-0.00410839405059814,-0.638000645828247,1.26552476520538
6.2661890520896435,-1.3596894487381002,2.1474070690155,-0.775031875419617
6.266794745608722,0.0413969770431519,-0.32425308723449703,0.676349960517883
6.267400439127801,0.855703617668152,-0.523039708328247,0.489538437080383
6.268006132646882,-0.0160834917068481,-0.07038101692199711,-0.724736465263367
6.2686118261659605,-0.528617671394348,-0.0488258411407471,0.360207382392883
6.269217519685039,-0.44479198780059803,0.945107264328003,-0.782216934013367
6.269823213204119,0.477290531730652,-1.440332188797,-0.0613160551071165
6.270428906723199,0.980244633293152,-1.1098194934845,-0.370273574638367
6.271034600242277,-1.4363300737381,1.1414988658904999,0.290751815986633
6.271640293761357,-0.408866694831848,1.558232264328,0.0201146089553835
6.272245987280437,1.31075732860565,-1.02120377082825,0.305121933174133
6.272851680799516,0.10606250438690201,-0.738591466140747,0.348232284736633
6.273457374318595,-0.923795894050598,0.236181483078003,-0.707971328544617
6.274063067837674,-0.928585933113098,0.444548182296753,-0.171486953544617
6.274668761356754,0.27371387157440197,0.585854334640503,-0.051735976982116495
6.2752744548758335,1.6891704145431499,-1.794795079422,0.182975937080383
6.275880148394912,-0.344201167488098,-0.515854649734497,0.000954452705383475
6.276485841913992,-2.1739960893631,1.9965208385467499,-0.15711683635711698
6.277091535433072,1.39218799266815,-0.379338536453247,0.798495956611633
6.27769722895215,0.163542973136902,-0.235637364578247,-0.336743301200867
6.27830292247123,-0.971696284675598,-0.221267247390747,-0.140351699638367
6.278908615990309,0.175518070793152,-0.592495274734497,0.336257187080383
6.279514309509389,-0.214870112800598,0.995402674484253,-0.281657851982117
6.280120003028468,1.2125615278244,-0.422448888015747,0.11591539020538301
6.280725696547547,0.743137699699402,-1.1337696887970001,0.511093612861633
6.281331390066626,-1.0339667924881,2.7557420299529998,-0.851672500419617
6.2819370835857065,-0.566937983894348,0.248156580734253,0.369787460517883
6.282542777104785,0.654521977043152,-1.25112564582825,0.475168319892883
6.283148470623864,0.017446781730651898,0.605014490890503,-0.535529922294617
6.283754164142945,-0.32504101123809803,-0.281142735671997,0.0943602144241335
6.284359857662023,-0.238820308113098,0.0948753307342529,-0.444519180107117
6.284965551181102,0.568301273918152,-0.750566563796997,-0.145141738700867
6.285571244700183,0.781458012199402,-0.300302891921997,-0.0445509183883665
6.286176938219262,-0.911820796394348,1.00019271354675,1.0379979097366299
6.28678263173834,-0.650763667488098,1.3043601940154999,-0.305608047294617
6.28738832525742,0.834148441886902,-1.00683365364075,0.755385605049133
6.2879940187765,-0.183734858894348,-0.158996739578247,-0.260102676200867
6.288599712295579,-1.01720165576935,0.533163904953003,-0.880412734794617
6.289205405814658,-0.7585395463943481,0.185886072921753,1.15535386676788
6.289811099333737,0.489265629386902,-0.14702164192199701,-0.600195449638367
6.290416792852817,1.44008838329315,-2.206738438797,0.309911972236633
6.291022486371896,-1.43872509326935,1.242089686203,0.0296946870803835
6.291628179890975,-1.47704540576935,2.506659998703,-0.760661758232117
6.292233873410055,1.6245048871994,-2.17560318489075,1.4786815034866299
6.292839566929135,0.314429203605652,0.226601404953003,-1.24924574260712
6.293445260448213,-1.1201874956131002,0.233786463546753,0.0991502534866335
6.294050953967293,-0.0759589799880981,-0.233242345046997,0.726645370674133
6.294656647486373,0.137197758293152,0.945107264328003,-0.501999648857117
6.295262341005452,1.3945830121993998,-1.73491959114075,-0.106821426200867
6.295868034524531,-0.39449657764434803,-0.410473790359497,0.166210800361633
6.29647372804361,-2.0255048784256,2.6838914440155,-0.166696914482117
6.29707942156269,1.5670244184494,-0.652370763015747,0.32907212848663303
6.297685115081769,0.376699711418152,-1.26070572395325,0.410502792549133
6.298290808600848,-1.0579169878006,0.657704920578003,-1.3139112699508702
6.298896502119927,-0.286720698738098,-0.7481715442657471,0.6236595308303831
6.299502195639008,0.0198418012619019,1.4408763072967499,-0.511579726982117
6.300107889158086,1.6891704145431499,-1.3589015247345,0.429662948799133
6.300713582677165,0.726372562980652,-0.587705235671997,-1.04566908245087
6.301319276196246,-1.67343700733185,1.81928939323425,0.20692613239288302
6.301924969715325,0.33358935985565197,-0.0991212512969971,1.20564927692413
6.302530663234403,0.850913578605652,0.185886072921753,-0.8732276762008669
6.303136356753483,-0.344201167488098,-0.573335118484497,0.472773300361633
6.303742050272563,-0.262770503425598,0.0230247447967529,-0.542714980888367
6.3043477437916415,-0.236425288581848,0.645729822921753,-0.272077773857117
6.304953437310721,1.44487842235565,-1.2056202747345002,0.130285507392883
6.3055591308298,0.539561039543152,-0.240427403640747,0.10633531208038301
6.30616482434888,-1.7620527299881001,1.8312644908905,-0.0780811918258665
6.306770517867959,-0.174154780769348,0.389462733078003,0.0823851167678835
6.307376211387038,1.10478564891815,-0.362573399734497,0.432057968330383
6.307981904906119,-0.174154780769348,-0.676320958328247,-0.394223769950867
6.308587598425198,-0.420841792488098,0.375092615890503,-0.822932266044617
6.309193291944276,-0.926190913581848,0.679260096359253,0.494328476142883
6.309798985463356,0.726372562980652,-0.853552403640747,-0.604985488700867
6.310404678982436,1.4376933637619,-1.3517164661407501,-0.286447891044617
6.3110103725015145,-1.9728144487381,0.901996912765503,0.693115097236633
6.311616066020594,-0.303485835456848,1.8480296276092498,-0.0948463285446165
6.312221759539673,1.23890674266815,-1.5121827747345,0.927827011299133
6.312827453058753,-0.0160834917068481,0.0829002330780029,-1.6995094144821201
6.313433146577832,-0.904635737800598,-0.491904454421997,0.458403183174133
6.314038840096911,-1.09863231983185,0.396647791671753,-0.0828712308883665
6.31464453361599,0.398254887199402,1.1510789440155,-0.561875137138367
6.315250227135071,1.4879887739181499,-2.407920079422,0.283566757392883
6.315855920654149,-0.404076655769348,0.181096033859253,-1.1127296293258702
6.316461614173228,-2.1931562456131,1.7833641002654999,1.0547630464553799
6.317067307692309,1.0880205121994,0.0493699596405029,0.0871751558303835
6.3176730012113875,0.656916996574402,-1.28465591926575,0.688325058174133
6.318278694730466,-1.0339667924881,0.130800623703003,-0.6337257230758669
6.318884388249546,-0.09032909717559809,-0.300302891921997,0.11831040973663301
6.319490081768626,-0.09272411670684809,0.434968104171753,0.858371444892883
6.3200957752877045,1.3347075239181498,-0.302697911453247,0.264406601142883
6.320701468806784,0.285688969230652,-1.20322525520325,-0.233757461357117
6.321307162325863,-1.7476826128006,1.7067234752654998,-0.38943373088836697
6.321912855844943,-0.241215327644348,0.461313319015503,0.911061874580383
6.322518549364022,0.6377568403244019,-0.467954259109497,-0.0182057035446165
6.323124242883101,-0.416051753425598,-0.130256505203247,0.0728050386428835
6.32372993640218,-0.418446772956848,-0.0320607044219971,-0.022995742607116502
6.3243356299212605,0.017446781730651898,0.343957361984253,-0.566665176200867
6.324941323440339,1.2029814496994,-0.805652013015747,-0.255312637138367
6.325547016959419,0.589856449699402,-0.362573399734497,0.276381698799133
6.326152710478499,-1.5009956010818502,1.6109226940155,0.230876327705383
6.3267584039975775,-0.605258296394348,0.415807947921753,0.465588241767883
6.327364097516657,1.3945830121993998,-0.288327794265747,0.283566757392883
6.327969791035736,-0.178944819831848,-0.331438145828247,-0.698391250419617
6.328575484554816,-0.806439937019348,0.514003748703003,-0.379853652763367
6.329181178073895,-0.301090815925598,0.616989588546753,0.961357284736633
6.329786871592974,0.539561039543152,-0.642790684890747,-0.434939101982117
6.330392565112053,1.31554736766815,-1.4163819934845001,-0.614565566825867
6.3309982586311335,-1.67343700733185,0.626569666671753,0.714670273017883
6.331603952150212,-0.736984370613098,2.3964891002654998,-0.425359023857117
6.332209645669291,1.33949756298065,-1.7492897083282501,1.07152818317413
6.332815339188372,0.532375980949402,-0.0392457630157471,-1.0408790433883701
6.3334210327074505,-1.23275341358185,-0.432028966140747,0.11352037067413301
6.334026726226529,-0.45437206592559803,0.286476893234253,-0.346323379325867
6.334632419745609,0.371909672355652,1.0552781627655,-0.33913832073211697
6.335238113264689,1.0976005903244,-2.3743898059845,0.233271347236633
6.3358438067837675,-0.329831050300598,0.183491053390503,-0.719946426200867
6.336449500302847,-2.09496044483185,2.2911082408905,0.233271347236633
6.337055193821926,2.09153369579315,-1.05473404426575,0.793705917549133
6.337660887341006,0.44376025829315197,-0.127861485671997,-0.602590469169617
6.338266580860085,-1.7764228471756,0.305637049484253,-0.387038711357117
6.338872274379164,0.609016605949402,-0.824812169265747,0.820051132392883
6.339477967898245,0.479685551261902,1.3235203502655,-0.588220351982117
6.3400836614173235,1.0257500043869,-1.1553248645782501,0.345837265205383
6.340689354936402,0.244973637199402,-0.784096837234497,-0.796587051200867
6.341295048455482,-1.5848212846756,1.6803782604217499,0.611684433174133
6.341900741974562,-0.0448237260818481,0.288871912765503,0.331467148017883
6.3425064354936405,0.391069828605652,-0.393708653640747,-0.413383926200867
6.34311212901272,-0.121464351081848,-0.369758458328247,0.556598983955383
6.343717822531799,-0.0711689409255981,0.0421849010467529,-0.475654434013367
6.344323516050879,-0.20768505420684802,0.904391932296753,-0.056526016044616496
6.344929209569958,0.762297855949402,-1.2870509387970002,0.664374862861633
6.345534903089037,0.513215824699402,-0.170971837234497,-0.918733047294617
6.346140596608116,-1.45788524951935,1.4241111705779999,0.257221542549133
6.3467462901271965,0.0629521528244019,0.281686854171753,0.673954940986633
6.347351983646275,0.702422367668152,-0.618840489578247,0.424872909736633
6.347957677165354,-0.32504101123809803,0.0852952526092529,-0.928313125419617
6.348563370684435,-0.787279780769348,-0.257192540359497,0.350627304267883
6.3491690642035135,-0.485507319831848,0.475683436203003,-0.224177383232117
6.349774757722592,0.676077152824402,-0.779306798171997,-0.430149062919617
6.350380451241672,0.6976323286056519,-1.7157594348907501,0.192556015205383
6.350986144760752,-1.2998139604568502,1.11515365104675,-0.0277857816696165
6.35159183827983,-0.705849116706848,1.5654173229217498,0.11352037067413301
6.35219753179891,1.2029814496994,-1.3205812122345,0.817656112861633
6.35280322531799,-0.162179683113098,-0.647580723953247,-0.585825332450867
6.353408918837069,-0.727404292488098,0.173910975265503,-0.815747207450867
6.354014612356148,-0.720219233894348,-0.14702164192199701,1.45952134723663
6.354620305875227,0.21144336376190198,1.021747889328,-0.494814590263367
6.355225999394307,1.1287358442306499,-1.85467056770325,-0.135561660575867
6.3558316929133865,-0.166969722175598,-0.623630528640747,-0.11879652385711699
6.356437386432465,-1.88419872608185,2.612040858078,-0.197832168388367
6.357043079951545,1.3323125043869,-0.345808263015747,0.238061386299133
6.357648773470625,1.1407109418869,-0.834392247390747,-0.102031387138367
6.358254466989703,-1.5656611284256001,0.221811365890503,-0.322373184013367
6.358860160508783,0.149172855949402,-0.757751622390747,-0.00383558635711652
6.359465854027862,0.09887744579315191,0.767875819015503,-0.0373658597946165
6.360071547546942,0.680867191886902,-0.415263829421997,-0.490024551200867
6.360677241066021,0.8772587934494019,-0.980488438796997,0.0775950777053835
6.3612829345851,-1.6279316362381,1.7570188854217499,0.685930038642883
6.36188862810418,0.0533720746994019,0.789430994796753,-0.0325758207321165
6.3624943216232595,0.779062992668152,-1.0523390247345001,0.0943602144241335
6.363100015142338,-0.0567988237380981,-0.173366856765747,-0.772636855888367
6.363705708661417,-0.09272411670684809,0.12361556510925299,-0.296027969169617
6.364311402180498,-0.27474560108184803,0.272106776046753,0.870346542549133
6.364917095699576,0.683262211418152,-0.475139317703247,-0.506789687919617
6.365522789218655,0.14677783641815198,-0.647580723953247,-0.293632949638367
6.366128482737736,-0.971696284675598,1.1678440807342498,0.788915878486633
6.366734176256815,-0.360966304206848,0.818171229171753,-0.07089613323211649
6.367339869775893,0.613806645011902,-0.846367345046997,0.333862167549133
6.367945563294973,-0.229240229988098,-0.257192540359497,-0.394223769950867
6.368551256814053,-0.727404292488098,-0.125466466140747,0.247641464424133
6.369156950333132,-0.753749507331848,0.791826014328003,0.0488548433303835
6.369762643852211,0.199468266105652,-0.453584141921997,-0.346323379325867
6.37036833737129,1.20537646923065,-1.7133644153595,0.31949205036163303
6.37097403089037,-0.768119624519348,1.0433030651092499,-0.585825332450867
6.371579724409449,-1.0004365190506002,1.6492430065155,0.288356796455383
6.372185417928528,0.867678715324402,-1.1289796497345002,0.733830429267883
6.372791111447607,0.668892094230652,-0.281142735671997,-0.925918105888367
6.373396804966688,-1.3261591753006001,-0.0751710559844971,-0.102031387138367
6.374002498485766,-0.607653315925598,0.372697596359253,-0.276867812919617
6.374608192004846,0.292874027824402,0.521188807296753,0.101545273017883
6.375213885523926,1.3682377973556499,-1.7516847278595,-0.190647109794617
6.375819579043005,-0.456767085456848,0.425388026046753,-0.545110000419617
6.376425272562084,-2.4182880815506,1.50314681510925,1.09547837848663
6.377030966081163,1.98136279735565,-0.530224766921997,-0.45888929729461697
6.377636659600243,0.415020023918152,-1.08347427864075,0.609289413642883
6.378242353119322,-1.1632978471756001,0.605014490890503,-0.319978164482117
6.378848046638401,0.628176762199402,-0.511064610671997,0.0967552339553835
6.37945374015748,-0.0567988237380981,0.597829432296753,0.0512498628616335
6.380059433676561,1.20537646923065,-0.245217442703247,-0.21220228557586698
6.380665127195639,0.359934574699402,-1.2439405872345,0.451218124580383
6.381270820714718,-1.33334423389435,1.98215072135925,-0.303213027763367
6.381876514233799,0.671287113761902,0.514003748703003,0.515883651924133
6.382482207752878,0.347959477043152,-1.04515396614075,0.453613144111633
6.383087901271956,-0.114279292488098,0.401437830734253,-1.08398939495087
6.383693594791036,-0.0520087846755981,-0.391313634109497,0.513488632392883
6.384299288310116,-0.08553905811309809,0.372697596359253,-0.391828750419617
6.3849049818291945,0.712002445793152,-0.621235509109497,-0.880412734794617
6.385510675348274,0.491660648918152,-1.02120377082825,1.10984849567413
6.386116368867353,-1.06989208545685,1.8312644908905,-0.557085098075867
6.386722062386433,-0.569333003425598,0.379882654953003,0.14705064411163302
6.387327755905512,1.01856494579315,-0.388918614578247,0.230876327705383
6.387933449424591,0.350354496574402,-0.161391759109497,-0.379853652763367
6.388539142943672,-0.471137202644348,0.116430506515503,0.307516952705383
6.3891448364627506,-0.6986640581130981,0.741530604171753,0.178185898017883
6.389750529981829,0.9371342817306519,-0.705061192703247,0.209321151924133
6.390356223500909,0.611411625480652,-2.0845924427032503,0.314702011299133
6.390961917019989,-0.923795894050598,1.6492430065155,-1.58454847698212
6.3915676105390675,-0.904635737800598,1.47440658073425,1.21522935504913
6.392173304058147,1.06646533641815,-1.066709141922,1.1625389253616298
6.392778997577226,0.752717777824402,0.027814783859252897,-1.54143812541962
6.393384691096306,-1.1776679643631,-0.5685450794219971,0.961357284736633
6.393990384615385,-0.653158687019348,0.413412928390503,-0.355903457450867
6.394596078134464,0.14198779735565198,0.422993006515503,0.0296946870803835
6.395201771653543,1.21974658641815,-1.56247818489075,-0.106821426200867
6.3958074651726236,-0.0591938432693481,-0.494299473953247,-0.564270156669617
6.396413158691702,-1.63990673389435,2.1282469127655,0.511093612861633
6.397018852210781,0.575486332511902,-0.230847325515747,0.590129257392883
6.397624545729862,0.803013187980652,-1.0714991809845,-0.310398086357117
6.3982302392489405,-1.1082123979568501,0.327192225265503,-0.882807754325867
6.398835932768019,-0.0711689409255981,-0.532619786453247,0.262011581611633
6.399441626287099,0.261738773918152,0.751110682296753,0.139865585517883
6.400047319806179,0.913184086418152,-0.597285313796997,-0.205017226982117
6.4006530133252575,0.949109379386902,-1.24154556770325,-0.466074355888367
6.401258706844337,-1.4027998003006001,1.6971433971404999,0.364997421455383
6.401864400363416,-0.5789130815505981,0.832541346359253,0.103940292549133
6.402470093882496,1.2317216840743999,-1.07868423957825,0.834421249580383
6.403075787401575,0.0461870161056519,0.0613450572967529,-0.260102676200867
6.403681480920654,-0.583703120613098,-0.07038101692199711,-0.214597305107117
6.404287174439733,-0.166969722175598,-0.015295567703247099,0.125495468330383
6.4048928679588135,1.0089848676681499,-0.618840489578247,-0.578640273857117
6.405498561477892,0.587461430168152,-1.04515396614075,0.724250351142883
6.406104254996972,-1.15611278858185,1.8480296276092498,-0.578640273857117
6.406709948516052,-0.509457515144348,0.796616053390503,0.103940292549133
6.4073156420351305,0.807803227043152,-0.752961583328247,0.32907212848663303
6.40792133555421,0.288083988761902,-0.26437759895324703,-0.456494277763367
6.408527029073289,-0.760934565925598,0.0038645885467529497,-0.06850111370086649
6.409132722592369,-0.8782905229568481,0.806196131515503,-0.0732911527633665
6.409738416111448,0.467710453605652,-0.623630528640747,0.695510116767883
6.410344109630527,1.14789600048065,-1.92652115364075,0.0272996675491335
6.410949803149606,-0.820810054206848,0.882836756515503,-0.0158106840133665
6.4115554966686865,-1.0195966753006,1.69953841667175,0.532648788642883
6.412161190187765,1.10957568798065,-1.344531407547,1.15535386676788
6.412766883706844,0.33358935985565197,0.181096033859253,-1.1175196683883701
6.413372577225925,-1.45309521045685,-0.290722813796997,-0.0253907621383665
6.4139782707450035,-0.15738964405059802,0.360722498703003,0.223691269111633
6.414583964264082,0.261738773918152,1.22053451042175,-0.384643691825867
6.415189657783162,1.0017998090744,-1.842695470047,0.041669784736633506
6.415795351302242,0.08929736766815191,-0.587705235671997,0.190160995674133
6.4164010448213205,-1.8650385698318501,2.7222117565154997,0.223691269111633
6.4170067383404,0.740742680168152,-0.420053868484497,0.527858749580383
6.41761243185948,0.870073734855652,-0.954143223953247,-0.15232679729461698
6.418218125378559,-0.983671382331848,0.540348963546753,-0.581035293388367
6.418823818897638,-0.372941401863098,-0.827207188796997,0.544623886299133
6.419429512416717,-0.09511913623809809,1.2468797252655,-0.638515762138367
6.420035205935797,1.2101665082931499,-0.829602208328247,-0.0373658597946165
6.4206408994548765,0.733557621574402,-1.1505348255157501,-0.310398086357117
6.421246592973955,-1.5512910112381,1.67079818229675,0.11352037067413301
6.421852286493035,0.139592777824402,0.715185389328003,0.513488632392883
6.422457980012115,0.594646488761902,-1.0810792591095,0.736225448799133
6.4230636735311935,-0.329831050300598,0.0709251354217529,-0.758266738700867
6.423669367050273,-0.181339839363098,0.205046229171753,-0.33913832073211697
6.424275060569352,-0.372941401863098,-0.348203282546997,0.798495956611633
6.424880754088432,1.0353300825118998,-0.606865391921997,-0.695996230888367
6.425486447607511,0.7383476606369019,-0.487114415359497,-0.130771621513367
6.42609214112659,-1.6806220659256002,1.357050623703,0.927827011299133
6.426697834645669,-0.401681636238098,1.165449061203,-0.255312637138367
6.4273035281647495,0.949109379386902,-1.1170045520782501,0.626054550361633
6.427909221683828,-0.12864940967559801,-0.367363438796997,-0.492419570732117
6.428514915202907,-0.487902339363098,0.233786463546753,-0.32955824260711697
6.429120608721988,-0.835180171394348,0.434968104171753,0.508698593330383
6.4297263022410664,0.527585941886902,-0.211687169265747,-0.308003066825867
6.430331995760145,0.946714359855652,-2.532461095047,0.415292831611633
6.430937689279226,-1.06989208545685,1.4887766979217498,-1.01213880901337
6.431543382798305,-1.2734687456131,1.8791648815155,0.614079452705383
6.432149076317383,1.0880205121994,-1.45230728645325,0.973332382392883
6.432754769836463,0.529980961418152,0.166725916671753,-1.16781507854462
6.433360463355543,-1.4027998003006001,-0.582915196609497,0.333862167549133
6.433966156874622,-0.15738964405059802,0.231391444015503,-0.267287734794617
6.434571850393701,-0.401681636238098,0.583459315109253,0.20692613239288302
6.43517754391278,1.22453662548065,-1.363691563797,-0.317583144950867
6.43578323743186,0.381489750480652,-1.16011490364075,0.039274765205383505
6.4363889309509394,-2.0877753862381,2.4348094127655,-0.341533340263367
6.436994624470018,0.889233891105652,-0.14702164192199701,0.44882310504913303
6.437600317989098,0.676077152824402,-1.48104752082825,0.204531112861633
6.438206011508178,-1.21838329639435,0.195466151046753,-0.363088516044617
6.438811705027256,0.012656742668151899,-0.367363438796997,-0.406198867607117
6.439417398546336,0.20186328563690198,0.784640955734253,0.21171617145538302
6.440023092065415,0.941924320793152,-0.937378087234497,0.963752304267883
6.440628785584495,0.814988285636902,-0.863132481765747,-0.832512344169617
6.441234479103574,-1.5848212846756,1.30675521354675,0.467983261299133
6.441840172622653,-0.339411128425598,0.949897303390503,0.453613144111633
6.442445866141733,1.13831592235565,-0.336228184890747,0.417687851142883
6.443051559660812,0.0198418012619019,-0.525434727859497,-0.315188125419617
6.443657253179891,-0.291510737800598,-0.307487950515747,-0.06371107463836649
6.44426294669897,-0.298695796394348,0.892416834640503,-0.06610609416961649
6.444868640218051,0.776667973136902,-0.681110997390747,0.0129295503616335
6.445474333737129,0.6185966840744019,-0.652370763015747,-0.298422988700867
6.446080027256208,-1.3022089799881,1.29717513542175,-0.054130996513366496
6.446685720775289,-0.363361323738098,0.616989588546753,0.285961776924133
6.447291414294368,0.901208988761902,-0.618840489578247,0.271591659736633
6.447897107813446,0.328799320793152,-0.482324376296997,-0.248127578544617
6.448502801332526,-0.614838374519348,-0.278747716140747,-0.245732559013367
6.449108494851606,-0.851945308113098,1.021747889328,-0.26968275432586697
6.4497141883706846,0.175518070793152,-0.779306798171997,0.0967552339553835
6.450319881889764,1.2317216840743999,-2.04627213020325,-0.523554824638367
6.450925575408843,-0.751354487800598,1.155868983078,-0.022995742607116502
6.451531268927923,-1.1489277299881,1.6396629283905,0.594919296455383
6.452136962447002,1.1502910200118999,-0.839182286453247,0.489538437080383
6.452742655966081,0.625781742668152,-0.185341954421997,-0.973818496513367
6.45334834948516,-1.0579169878006,-0.810442052078247,0.360207382392883
6.453954043004241,-0.564542964363098,0.612199549484253,-0.240942519950867
6.454559736523319,-0.20289501514434802,0.777455897140503,-0.00144056682586652
6.455165430042399,1.4903837934494,-1.823535313797,0.185370956611633
6.455771123561479,0.359934574699402,-0.350598302078247,-1.12709974651337
6.4563768170805576,-1.9728144487381,1.692353358078,0.745805526924133
6.456982510599637,0.834148441886902,0.157145838546753,0.410502792549133
6.457588204118716,0.886838871574402,-1.1193995716095,0.345837265205383
6.458193897637796,-0.904635737800598,0.425388026046753,-0.839697402763367
6.458799591156875,-0.370546382331848,-0.805652013015747,0.21171617145538302
6.459405284675954,0.450945316886902,1.1510789440155,-0.322373184013367
6.460010978195033,0.814988285636902,-0.463164220046997,0.041669784736633506
6.460616671714114,0.726372562980652,-1.2319654895782501,-0.0253907621383665
6.461222365233192,-1.49141552295685,1.87197982292175,-0.205017226982117
6.461828058752271,-0.267560542488098,0.293661951828003,0.865556503486633
6.462433752271352,1.2939921918869,-0.623630528640747,0.194951034736633
6.4630394457904305,-0.473532222175598,0.181096033859253,-0.772636855888367
6.463645139309509,-0.720219233894348,-0.379338536453247,0.436848007392883
6.464250832828589,-0.200499995613098,0.784640955734253,-1.10793959026337
6.464856526347669,0.985034672355652,-1.09305435676575,0.314702011299133
6.4654622198667475,0.611411625480652,-0.949353184890747,0.456008163642883
6.466067913385827,-1.2543085893631,1.9749656627655,-0.846882461357117
6.466673606904906,-0.542987788581848,0.327192225265503,1.33498033161163
6.467279300423986,0.8772587934494019,-0.285932774734497,-0.418173965263367
6.467884993943065,0.10366748485565201,-0.774516759109497,0.705090194892883
6.468490687462144,-0.236425288581848,0.260131678390503,-0.137956680107117
6.469096380981225,-1.07468212451935,0.743925623703003,-0.183462051200867
6.4697020745003035,0.465315434074402,-0.580520177078247,0.580549179267883
6.470307768019382,1.4568535200119,-1.68222916145325,-0.751081680107117
6.470913461538462,-1.1441376909256,0.492448572921753,0.357812362861633
6.471519155057542,-1.3812446245193502,2.372538904953,0.12310044879913301
6.4721248485766205,1.58378955516815,-1.191250157547,1.02602281208038
6.4727305420957,0.946714359855652,-0.398498692703247,-0.863647598075867
6.473336235614779,-1.2303583940506,-0.293117833328247,-0.178672012138367
6.473941929133859,-0.502272456550598,0.190676111984253,-0.06850111370086649
6.474547622652938,-0.0735639604568481,0.870861658859253,-0.0972413480758665
6.475153316172017,1.1287358442306499,-1.82114029426575,0.544623886299133
6.475759009691096,-0.0544038042068481,-0.511064610671997,-0.997768691825867
6.4763647032101765,-2.0063447221756,2.19770247917175,0.659584823799133
6.476970396729255,0.642546879386902,0.0158396862030029,0.6835350191116331
6.477576090248334,1.06167529735565,-1.25112564582825,-0.33913832073211697
6.478181783767415,-0.7393793901443481,0.312822108078003,-0.16190687541961699
6.4787874772864935,-0.25558544483184803,-0.817627110671997,0.496723495674133
6.479393170805572,0.395859867668152,1.02414290885925,-0.470864394950867
6.479998864324652,0.865283695793152,-0.501484532546997,0.400922714424133
6.480604557843732,0.649731937980652,-1.5792433216095,-0.5738502347946169
6.4812102513628105,-1.19922314014435,1.7929441783905,-0.21699232463836698
6.48181594488189,-0.569333003425598,0.834936365890503,0.578154159736633
6.482421638400969,0.848518559074402,-0.530224766921997,-0.243337539482117
6.483027331920049,-0.159784663581848,-0.788886876296997,0.381762558174133
6.483633025439128,-0.339411128425598,-0.149416661453247,-0.571455215263367
6.484238718958207,-0.286720698738098,0.636149744796753,-0.171486953544617
6.484844412477287,0.929949223136902,-1.20801529426575,0.424872909736633
6.4854501059963665,1.30117725048065,-0.305092930984497,-0.487629531669617
6.486055799515445,-1.7788178667068502,1.38818587760925,0.37936753864288303
6.486661493034525,-0.574123042488098,0.734345545578003,0.139865585517883
6.487267186553605,1.44487842235565,-0.305092930984497,-0.193042129325867
6.4878728800726835,0.005471684074401861,-0.604470372390747,-0.226572402763367
6.488478573591763,-0.269955562019348,0.21223128776550299,-0.418173965263367
6.489084267110842,-0.823205073738098,0.585854334640503,0.6835350191116331
6.489689960629922,0.417415043449402,0.185886072921753,-0.482839492607117
6.490295654149001,0.793433109855652,-2.49653580207825,-0.11879652385711699
6.49090134766808,-0.897450679206848,1.0121678112030001,-0.681626113700867
6.491507041187159,-1.33334423389435,2.41804427604675,0.501513534736633
6.4921127347062395,0.946714359855652,-1.49062759895325,1.62717271442413
6.492718428225318,0.982639652824402,0.293661951828003,-1.65400404338837
6.493324121744397,-1.36687450733185,-0.875107579421997,0.733830429267883
6.493929815263478,-0.569333003425598,0.746320643234253,-0.27926283245086697
6.4945355087825565,-0.463952144050598,0.719975428390503,0.475168319892883
6.495141202301635,1.3802128950119,-1.48104752082825,-0.319978164482117
6.495746895820715,0.32400928173065197,-1.603193516922,-0.228967422294617
6.496352589339795,-2.0686152299881,2.9617137096404997,-0.336743301200867
6.4969582828588734,1.0257500043869,0.672075037765503,0.774545761299133
6.497563976377953,0.9371342817306519,-1.72054947395325,0.345837265205383
6.498169669897033,-1.04115185108185,0.324797205734253,-1.40492201213837
6.498775363416112,-0.243610347175598,-1.1457447864532502,0.654794784736633
6.499381056935191,-0.13822948780059802,1.7234886119842499,0.214111190986633
6.49998675045427,0.632966801261902,-0.939773106765747,1.13379869098663
6.50059244397335,1.60294971141815,-1.33734634895325,-1.19655531291962
6.5011981374924295,-2.2123164018631,1.615712733078,0.748200546455383
6.501803831011508,-0.622023433113098,1.2828050182342499,-0.0780811918258665
6.502409524530587,1.67001025829315,-0.913427891921997,0.0991502534866335
6.503015218049668,-0.502272456550598,-0.302697911453247,0.432057968330383
6.503620911568746,-0.471137202644348,0.367907557296753,-0.842092422294617
6.504226605087826,-0.298695796394348,0.161935877609253,0.271591659736633
6.504832298606905,0.915579105949402,-0.841577305984497,-0.11161146526336699
6.505437992125985,1.46882861766815,-1.5409230091095,-0.20262220745086698
6.506043685645064,-1.5177607378006,1.90072005729675,-0.15232679729461698
6.506649379164143,-0.945351069831848,1.25885482292175,0.705090194892883
6.507255072683222,1.8687968793868999,-0.908637852859497,0.436848007392883
6.5078607662023025,-0.38491649951934803,-0.182946934890747,-0.597800430107117
6.508466459721381,-1.00762157764435,-0.597285313796997,-0.288842910575867
6.50907215324046,-0.0496137651443481,1.280409998703,-0.125981582450867
6.509677846759541,-0.483112300300598,0.480473475265503,0.460798202705383
6.510283540278619,1.09999560985565,-3.107265782547,-0.367878555107117
6.510889233797698,-0.353781245613098,0.971452479171753,-0.525949844169617
6.511494927316779,-1.21359325733185,2.104296717453,0.609289413642883
6.512100620835858,1.5143339887618998,-0.930193028640747,0.10873033161163301
6.512706314354936,0.0701372114181519,-0.247612462234497,-0.296027969169617
6.513312007874016,-0.873500483894348,-0.302697911453247,0.0919651948928835
6.513917701393096,-0.401681636238098,0.403832850265503,-0.430149062919617
6.514523394912175,-1.03157177295685,0.636149744796753,-0.334348281669617
6.515129088431254,1.8256865278243999,-2.0342970325470002,-0.38943373088836697
6.515734781950333,0.371909672355652,-0.626025548171997,-0.681626113700867
6.516340475469414,-2.1500458940506,3.17966048698425,0.487143417549133
6.516946168988492,0.920369145011902,-0.494299473953247,0.688325058174133
6.517551862507571,0.438970219230652,-1.33255630989075,-0.32955824260711697
6.51815755602665,-0.9190058549880981,0.0517649791717529,0.180580917549133
6.518763249545731,-0.154994624519348,-0.642790684890747,0.0488548433303835
6.519368943064809,-0.00171337451934814,1.3211253307342499,-0.255312637138367
6.519974636583889,0.862888676261902,-1.3469264270782502,0.0512498628616335
6.520580330102968,1.0832304731369,-1.2631007434845,-0.688811172294617
6.521186023622048,-1.65427685108185,2.24560286979675,0.041669784736633506
6.521791717141127,-0.542987788581848,0.832541346359253,0.357812362861633
6.522397410660206,1.1287358442306499,-0.470349278640747,0.434452987861633
6.523003104179285,-0.20289501514434802,-0.364968419265747,-0.348718398857117
6.523608797698365,-0.322645991706848,-0.199712071609497,-0.197832168388367
6.524214491217444,-0.696269038581848,0.751110682296753,-0.14274671916961698
6.524820184736523,1.2556718793869,-1.34213638801575,-0.0924513090133665
6.525425878255604,1.0209599653244,-0.755356602859497,-0.296027969169617
6.526031571774682,-1.45309521045685,2.47552474479675,0.159025741767883
6.526637265293761,-0.0783539995193481,-0.388918614578247,1.49784165973663
6.527242958812842,0.676077152824402,0.358327479171753,-1.34983656291962
6.527848652331921,0.139592777824402,-0.364968419265747,0.597314315986633
6.528454345850999,0.0461870161056519,-0.721826329421997,0.0943602144241335
6.529060039370079,-1.16569286670685,1.7163035533905,-0.319978164482117
6.529665732889159,0.561116215324402,-0.348203282546997,0.990097519111633
6.5302714264082375,0.925159184074402,-2.03190201301575,-0.566665176200867
6.530877119927317,-1.80755810108185,0.571484217453003,-0.0182057035446165
6.531482813446396,-0.337016108894348,1.31154525260925,0.556598983955383
6.532088506965476,1.23890674266815,-0.376943516921997,0.844001327705383
6.532694200484555,0.15635791454315198,0.0589500377655029,-1.2588258207321201
6.533299894003634,-0.21247509326934802,-1.61995865364075,0.779335800361633
6.533905587522714,-0.895055659675598,0.674470057296753,0.161420761299133
6.534511281041794,-0.535802729988098,1.34507552604675,-0.322373184013367
6.535116974560872,1.0305400434493999,-1.45230728645325,0.324282089424133
6.535722668079951,0.14677783641815198,-0.774516759109497,-0.475654434013367
6.536328361599031,-0.892660640144348,1.4456663463592498,0.281171737861633
6.5369340551181105,0.280898930168152,0.820566248703003,0.353022323799133
6.53753974863719,0.20186328563690198,-0.700271153640747,0.609289413642883
6.538145442156269,-0.746564448738098,-0.707456212234497,-0.377458633232117
6.538751135675349,-0.399286616706848,-0.633210606765747,0.281171737861633
6.539356829194428,0.515610844230652,1.11515365104675,-0.255312637138367
6.539962522713507,0.941924320793152,-0.309882970046997,-0.365483535575867
6.540568216232586,0.664102055168152,-1.29902603645325,-0.0325758207321165
6.541173909751667,-0.947746089363098,0.741530604171753,-0.382248672294617
6.541779603270745,-1.20880321826935,1.50314681510925,0.793705917549133
6.542385296789824,0.702422367668152,-0.135046544265747,0.853581405830383
6.542990990308905,0.656916996574402,-0.889477696609497,-0.585825332450867
6.5435966838279835,-0.463952144050598,0.312822108078003,-0.703181289482117
6.544202377347062,-0.214870112800598,-0.422448888015747,0.482353378486633
6.544808070866142,0.791038090324402,0.0541599987030029,-0.695996230888367
6.545413764385222,0.436575199699402,-0.712246251296997,0.781730819892883
6.5460194579043005,-0.713034175300598,0.341562342453003,0.420082870674133
6.54662515142338,-1.5704511674881,1.7642039440155,-0.621750625419617
6.547230844942459,0.973059574699402,-0.843972325515747,1.20325425739288
6.547836538461539,1.0544902387619,-0.429633946609497,-1.01692884807587
6.548442231980618,-1.0291767534256,-0.056010899734497105,0.185370956611633
6.549047925499697,-0.648368647956848,0.154750819015503,0.235666366767883
6.549653619018777,0.00307666454315186,0.284081873703003,-0.494814590263367
6.5502593125378565,0.561116215324402,-2.043877110672,0.441638046455383
6.550865006056935,0.21623340282440198,0.554719080734253,-1.08877943401337
6.551470699576015,-2.1021455034256,1.606132654953,1.79003404254913
6.552076393095095,1.0017998090744,-0.475139317703247,0.230876327705383
6.5526820866141735,1.4113481489181499,-0.396103673171997,-0.806167129325867
6.553287780133253,-1.9776044878006,-0.053615880203247104,0.405712753486633
6.553893473652332,0.0413969770431519,0.458918299484253,-0.983398574638367
6.554499167171412,-0.281930659675598,0.176305994796753,1.0763182222366299
6.555104860690491,1.1335258832931498,-0.26437759895324703,-0.367878555107117
6.55571055420957,0.604226566886902,-1.5600831653595,0.230876327705383
6.556316247728649,-2.27219189014435,2.2527879283905,-0.197832168388367
6.5569219412477295,0.355144535636902,0.442153162765503,0.915851913642883
6.557527634766808,1.28201709423065,-1.2343605091095,0.271591659736633
6.558133328285887,-0.990856440925598,0.312822108078003,-0.755871719169617
6.558739021804968,-0.416051753425598,-1.0691041614532502,0.0680149995803835
6.5593447153240465,0.424600102043152,0.741530604171753,-0.245732559013367
6.559950408843125,0.422205082511902,0.0230247447967529,0.271591659736633
6.560556102362205,1.6436650434494,-1.469072423172,-0.236152480888367
6.561161795881285,-1.63511669483185,1.13910384635925,0.0177195894241335
6.5617674894003635,-0.921400874519348,1.9797557018279999,-0.176276992607117
6.562373182919443,1.43050830516815,-1.229570470047,1.62477769489288
6.562978876438523,-0.169364741706848,0.466103358078003,-1.40731703166962
6.563584569957602,-0.449582026863098,-0.458374180984497,0.235666366767883
6.564190263476681,-0.0304536088943481,0.238576502609253,-0.348718398857117
6.56479595699576,0.609016605949402,-0.214082188796997,-0.537924941825867
6.56540165051484,1.0161699262619,-1.0044386341095,0.820051132392883
6.5660073440339195,-0.650763667488098,1.8408445690155,-0.509184707450867
6.566613037552998,-1.6135615190506,0.722370447921753,0.7434105073928831
6.567218731072078,1.20537646923065,-0.170971837234497,-0.557085098075867
6.567824424591158,0.405439945793152,-1.0906593372345001,0.642819687080383
6.5684301181102365,-0.782489741706848,0.475683436203003,-0.626540664482117
6.569035811629316,-0.839970210456848,0.6888401744842529,0.257221542549133
6.569641505148395,0.20186328563690198,-0.235637364578247,0.209321151924133
6.570247198667475,1.5670244184494,-2.0965675403595,-0.38943373088836697
6.570852892186554,-0.399286616706848,0.231391444015503,-0.353508437919617
6.571458585705633,-1.9919746049881,2.04442122917175,0.187765976142883
6.572064279224712,1.23411670360565,-0.760146641921997,0.891901718330383
6.5726699727437925,1.0928105512619,-0.372153477859497,-0.559480117607117
6.573275666262871,-1.6710419878006,-0.343413243484497,0.0775950777053835
6.57388135978195,-0.21247509326934802,-0.06798599739074711,-0.602590469169617
6.574487053301031,-0.317855952644348,0.662494959640503,0.0272996675491335
6.5750927468201095,1.5191240278244,-0.875107579421997,-0.331953262138367
6.575698440339188,0.194678227043152,-1.3253712512970002,0.024904648017883498
6.576304133858269,-2.2314765581131,2.4539695690155,0.357812362861633
6.576909827377348,0.508425785636902,-0.204502110671997,0.731435409736633
6.577515520896426,1.0161699262619,-0.954143223953247,-0.695996230888367
6.578121214415506,-0.957326167488098,-0.11828140754699701,0.240456405830383
6.578726907934586,-0.301090815925598,-0.312277989578247,-0.487629531669617
6.579332601453665,0.335984379386902,0.997797694015503,0.321887069892883
6.579938294972744,0.609016605949402,-0.185341954421997,0.12310044879913301
6.580543988491823,1.4041630903244,-1.57684830207825,-0.351113418388367
6.581149682010903,-1.6997822221756,1.2229295299529999,0.343442245674133
6.5817553755299825,-0.526222651863098,1.5055418346404998,0.10873033161163301
6.582361069049061,1.50235889110565,-0.894267735671997,0.9230369722366331
6.58296676256814,0.0222368207931519,0.114035486984253,-1.31151625041962
6.583572456087221,-0.648368647956848,-0.537409825515747,-0.06371107463836649
6.584178149606299,-0.20289501514434802,0.537953944015503,-0.44930921916961697
6.584783843125379,1.0353300825118998,-0.0895411731719971,-0.197832168388367
6.585389536644458,1.16226611766815,-1.24633560676575,0.724250351142883
6.585995230163538,-0.861525386238098,1.4073460338592498,-0.228967422294617
6.586600923682617,-1.06989208545685,1.242089686203,0.465588241767883
6.587206617201696,0.927554203605652,-0.717036290359497,0.568574081611633
6.587812310720775,0.585066410636902,-0.300302891921997,-0.360693496513367
6.5884180042398555,-0.516642573738098,0.11882552604675299,-0.169091934013367
6.589023697758934,-0.521432612800598,0.502028651046753,0.209321151924133
6.589629391278013,0.20186328563690198,-0.393708653640747,0.616474472236633
6.590235084797094,0.905999027824402,-2.43426529426575,-0.056526016044616496
6.590840778316172,-0.588493159675598,1.2061643932342498,-0.827722305107117
6.591446471835251,-2.2266865190506,1.289990076828,1.97684556598663
6.592052165354332,1.2125615278244,-0.487114415359497,-0.561875137138367
6.592657858873411,0.676077152824402,-0.523039708328247,-0.597800430107117
6.593263552392489,-1.6039814409256001,-0.7481715442657471,0.396132675361633
6.593869245911569,0.09408740673065191,0.806196131515503,-1.00974378948212
6.594474939430649,-0.605258296394348,0.145170740890503,1.13140367145538
6.595080632949728,1.5574443403244,-0.966118321609497,-0.437334121513367
6.595686326468807,0.271318852043152,-1.68222916145325,-0.128376601982117
6.596292019987886,-2.27219189014435,2.947343592453,-0.597800430107117
6.596897713506966,0.925159184074402,-0.290722813796997,1.50263169879913
6.597503407026045,0.949109379386902,-1.2367555286407501,-0.341533340263367
6.598109100545124,-0.856735347175598,0.358327479171753,-0.609775527763367
6.598714794064203,-0.0400336870193481,-0.963723302078247,0.13747056598663301
6.599320487583284,0.08929736766815191,1.529492029953,-0.178672012138367
6.599926181102362,0.8580986371994019,-0.707456212234497,0.9829124605178831
6.600531874621442,1.4185332075119,-1.30381607551575,-0.923523086357117
6.601137568140521,-1.8243232378006,1.5342820690155,0.0775950777053835
6.601743261659601,-0.31546093311309803,0.930737147140503,0.37936753864288303
6.60234895517868,1.0640703168869,-1.0020436145782499,0.614079452705383
6.602954648697759,-0.00889843311309814,0.300847010421753,-1.3402564847946201
6.603560342216839,-0.190919917488098,-0.721826329421997,0.800890976142883
6.604166035735918,-0.696269038581848,0.12122054557800299,0.0129295503616335
6.604771729254997,1.2987822309494,-0.235637364578247,-0.648095840263367
6.605377422774076,0.671287113761902,-1.52415787239075,1.21043931598663
6.605983116293157,-1.3860346635818501,2.2264427135467497,-1.29475111370087
6.606588809812235,-0.624418452644348,0.516398768234253,1.49305162067413
6.607194503331314,0.999404789543152,-0.199712071609497,-0.14274671916961698
6.607800196850395,0.192283207511902,-0.506274571609497,0.0775950777053835
6.608405890369474,-0.533407710456848,-0.376943516921997,-0.195437148857117
6.609011583888552,-0.689083979988098,1.14389388542175,-0.382248672294617
6.609617277407632,-0.0711689409255981,-0.273957677078247,0.173395858955383
6.610222970926712,1.3083623090743999,-2.4127101184845,-1.01692884807587
6.6108286644457905,-0.667528804206848,0.930737147140503,-0.0277857816696165
6.61143435796487,-1.3980097612381,2.1234568737029997,1.01404771442413
6.612040051483949,1.18621631298065,-0.930193028640747,0.362602401924133
6.612645745003029,0.635361820793152,-0.135046544265747,-0.942683242607117
6.613251438522108,-1.2495185503006,-0.877502598953247,0.700300155830383
6.613857132041187,-0.480717280769348,0.679260096359253,-0.775031875419617
6.614462825560267,-0.293905757331848,0.696025233078003,0.149445663642883
6.615068519079347,1.39218799266815,-1.5217628528595,-0.470864394950867
6.615674212598425,0.417415043449402,-0.963723302078247,-0.0277857816696165
6.616279906117504,-2.31530224170685,2.267158045578,0.415292831611633
6.616885599636585,0.702422367668152,-0.235637364578247,0.633239608955383
6.6174912931556635,1.2604619184494,-0.887082677078247,-0.415778945732117
6.618096986674743,-1.1465327104568501,0.303242029953003,-0.276867812919617
6.618702680193822,-0.0112934526443481,-0.439214024734497,-0.224177383232117
6.619308373712902,0.07253223094940191,0.789430994796753,0.281171737861633
6.619914067231981,1.26764697704315,-0.204502110671997,0.578154159736633
6.62051976075106,0.6377568403244019,-0.978093419265747,-0.751081680107117
6.621125454270139,-2.2266865190506,0.873256678390503,0.276381698799133
6.62173114778922,0.10845752391815201,0.997797694015503,0.0512498628616335
6.622336841308298,1.15268603954315,-0.954143223953247,0.532648788642883
6.622942534827377,-0.320250972175598,0.382277674484253,-0.844487441825867
6.623548228346458,-0.514247554206848,-0.254797520828247,0.487143417549133
6.6241539218655365,-0.109489253425598,0.169120936203003,-0.169091934013367
6.624759615384615,1.0952055707931498,-0.233242345046997,-0.228967422294617
6.625365308903695,0.628176762199402,-0.901452794265747,0.036879745674133504
6.625971002422775,-1.0483369096756001,1.6684031627654998,-1.01453382854462
6.6265766959418535,-0.363361323738098,0.590644373703003,0.872741562080383
6.627182389460933,0.9371342817306519,-0.532619786453247,0.336257187080383
6.627788082980012,0.247368656730652,-0.199712071609497,-0.461284316825867
6.628393776499092,-0.856735347175598,-0.312277989578247,-0.102031387138367
6.628999470018171,-0.322645991706848,1.1319187877655,-0.0182057035446165
6.62960516353725,0.510820805168152,-0.630815587234497,0.726645370674133
6.63021085705633,0.786248051261902,-2.04627213020325,-0.593010391044617
6.6308165505754095,-0.701059077644348,1.404951014328,-0.631330703544617
6.631422244094488,-1.2159882768631,1.1414988658904999,1.10984849567413
6.632027937613568,1.2556718793869,-0.556569981765747,0.230876327705383
6.632633631132648,0.271318852043152,-0.204502110671997,-0.188252090263367
6.6332393246517265,-1.5009956010818502,-0.398498692703247,-0.0732911527633665
6.633845018170806,-0.605258296394348,0.310427088546753,-0.545110000419617
6.634450711689885,0.007866703605651861,0.698420252609253,0.350627304267883
6.635056405208965,1.48319873485565,-1.037968907547,-0.801377090263367
6.635662098728044,-0.296300776863098,-1.2487306262970002,0.276381698799133
6.636267792247123,-1.88898876514435,2.60485579948425,0.0752000581741335
6.636873485766202,0.573091312980652,-0.681110997390747,0.719460312080383
6.6374791792852825,0.870073734855652,-0.934983067703247,-0.214597305107117
6.638084872804361,-0.986066401863098,0.33437728385925297,-0.619355605888367
6.63869056632344,-0.190919917488098,-0.946958165359497,0.10873033161163301
6.639296259842521,0.12522266063690202,1.0456980846405,-0.372668594169617
6.6399019533615995,0.822173344230652,-1.066709141922,0.427267929267883
6.640507646880678,0.826963383293152,-0.467954259109497,-1.13188978557587
6.641113340399758,-1.6614619096756,1.51272689323425,0.975727401924133
6.641719033918838,0.189888187980652,1.01456283073425,0.398527694892883
6.6423247274379165,0.925159184074402,-0.32425308723449703,0.14705064411163302
6.642930420956996,-0.257980464363098,-0.501484532546997,0.309911972236633
6.643536114476076,-0.241215327644348,-0.108701329421997,-0.420568984794617
6.644141807995155,-0.195709956550598,0.324797205734253,0.041669784736633506
6.644747501514234,0.903604008293152,-0.738591466140747,0.0440648042678835
6.645353195033313,0.862888676261902,-0.590100255203247,-0.319978164482117
6.645958888552393,-1.1393476518631,1.31154525260925,0.0608299409866335
6.6465645820714725,-0.586098140144348,1.02414290885925,0.0177195894241335
6.647170275590551,0.450945316886902,-0.8080470325469971,0.285961776924133
6.647775969109631,0.314429203605652,-0.477534337234497,0.0680149995803835
6.648381662628711,-0.116674312019348,0.341562342453003,-0.303213027763367
6.6489873561477895,-0.768119624519348,0.418202967453003,0.896691757392883
6.649593049666869,0.0605571332931519,0.0613450572967529,-1.0025587308883699
6.650198743185948,0.7383476606369019,-2.3336744739532502,0.808076034736633
6.650804436705028,-0.485507319831848,1.18221419792175,-0.219387344169617
6.651410130224107,-1.3046039995193501,2.2767381237029998,-0.614565566825867
6.652015823743186,1.1790312543869,-1.430752110672,1.61759263629913
6.652621517262265,0.779062992668152,-0.333833165359497,-1.29954115276337
6.6532272107813455,-1.4219599565506,-0.673925938796997,0.513488632392883
6.653832904300424,-0.382521479988098,0.576274256515503,-0.638515762138367
6.654438597819503,-0.622023433113098,0.497238611984253,0.515883651924133
6.655044291338584,1.5909746137618999,-1.12658463020325,-0.44930921916961697
6.6556499848576625,0.347959477043152,-1.3253712512970002,-0.164301894950867
6.656255678376741,-2.03268993701935,2.861122889328,-0.0421558988571165
6.656861371895822,0.589856449699402,0.164330897140503,0.877531601142883
6.657467065414901,0.654521977043152,-1.7133644153595,0.15184068317413302
6.658072758933979,-0.792069819831848,0.751110682296753,-1.45282240276337
6.658678452453059,-0.411261714363098,-1.229570470047,0.822446151924133
6.659284145972139,0.652126957511902,1.3378904674529999,-0.600195449638367
6.659889839491218,0.814988285636902,-0.812837071609497,0.580549179267883
6.660495533010297,0.944319340324402,-1.114609532547,-1.0911744535446202
6.661101226529376,-1.80755810108185,1.6468479869842498,0.506303573799133
6.661706920048456,-0.5190375932693481,0.978637537765503,0.154235702705383
6.6623126135675355,1.0880205121994,-0.887082677078247,0.223691269111633
6.662918307086614,-0.346596187019348,-0.525434727859497,0.0536448823928835
6.663524000605693,-0.317855952644348,0.0206297252655029,-0.461284316825867
6.664129694124774,-0.337016108894348,0.636149744796753,0.135075546455383
6.664735387643852,0.862888676261902,-0.530224766921997,-0.27926283245086697
6.665341081162932,1.0736503950118998,-1.44751724739075,0.11591539020538301
6.665946774682011,-1.56805614795685,1.768993983078,-0.0397608793258665
6.666552468201091,-0.887870601081848,1.41692611198425,0.515883651924133
6.66715816172017,1.1119707075118999,-0.563755040359497,0.024904648017883498
6.667763855239249,0.209048344230652,-0.654765782546997,-0.317583144950867
6.668369548758328,-0.408866694831848,0.0972703502655029,-0.130771621513367
6.6689752422774085,-1.11779247608185,1.1247337291717499,-0.166696914482117
6.669580935796487,0.209048344230652,-0.0248756458282471,-0.346323379325867
6.670186629315566,1.3562626996994,-2.9204542591095,0.767360702705383
6.670792322834647,-0.588493159675598,1.5606272838592499,-1.25164076213837
6.671398016353725,-1.64469677295685,1.69474837760925,1.5217918550491298
6.672003709872804,1.7634160200119,-0.9876734973907471,0.527858749580383
6.672609403391885,0.836543461418152,-0.307487950515747,-0.444519180107117
6.673215096910964,-1.6327216753006,-0.702666173171997,0.0129295503616335
6.673820790430042,-0.00171337451934814,0.8085911510467529,-1.04327406291962
6.674426483949122,-0.380126460456848,0.686445154953003,1.1745140230178799
6.675032177468202,1.4520634809494,-1.2319654895782501,-1.35941664104462
6.675637870987281,0.252158695793152,-1.7612648059845,0.103940292549133
6.67624356450636,-1.9776044878006,2.79645736198425,0.214111190986633
6.676849258025439,0.963479496574402,-0.0871461536407471,0.915851913642883
6.677454951544519,1.08562549266815,-1.0906593372345001,-0.178672012138367
6.678060645063598,-1.0962373003006,-0.056010899734497105,-0.346323379325867
6.678666338582677,-0.09272411670684809,-0.285932774734497,-0.312793105888367
6.679272032101756,-0.0567988237380981,1.05767318229675,0.678744980049133
6.679877725620837,1.21974658641815,-0.942168126296997,0.930222030830383
6.680483419139915,1.1167607465744,-1.0523390247345001,-0.820537246513367
6.681089112658994,-1.92730907764435,1.558232264328,0.345837265205383
6.681694806178074,-0.14301952686309802,1.3211253307342499,0.0608299409866335
6.682300499697154,1.0137749067306498,-0.7481715442657471,0.796100937080383
6.682906193216233,-0.662738765144348,-0.178156895828247,-0.695996230888367
6.683511886735312,-0.171759761238098,-0.247612462234497,-0.145141738700867
6.684117580254392,0.122827641105652,0.228996424484253,0.25961656208038303
6.684723273773471,0.733557621574402,-0.752961583328247,-0.736711562919617
6.68532896729255,1.2173515668869,-0.762541661453247,0.041669784736633506
6.685934660811629,-1.96083935108185,1.3618406627655,-0.0349708402633665
6.68654035433071,-0.528617671394348,1.127128748703,0.139865585517883
6.687146047849788,1.3562626996994,-0.491904454421997,0.539833847236633
6.687751741368867,-0.0735639604568481,-0.408078770828247,0.20213609333038302
6.688357434887948,-0.341806147956848,0.317612147140503,-0.415778945732117
6.688963128407027,-0.947746089363098,0.684050135421753,0.477563339424133
6.689568821926105,0.113247562980652,-0.381733555984497,0.264406601142883
6.690174515445185,1.0688603559493999,-1.7612648059845,-0.662465957450867
6.690780208964265,-0.868710444831848,0.672075037765503,0.341047226142883
6.6913859024833435,-0.976486323738098,1.90072005729675,0.302726913642883
6.691991596002423,1.1023906293869,-0.259587559890747,0.611684433174133
6.692597289521502,0.510820805168152,-0.714641270828247,0.0728050386428835
6.693202983040582,-1.0243867143631,-0.156601720046997,-0.949868301200867
6.693808676559661,-0.643578608894348,0.133195643234253,0.410502792549133
6.69441437007874,0.395859867668152,0.909181971359253,-0.252917617607117
6.69502006359782,0.477290531730652,-1.0571290637970001,-0.736711562919617
6.6956257571169,-0.250795405769348,-1.2702858020782501,0.11112535114288301
6.696231450635978,-0.9980414995193481,2.23602279167175,-0.0804762113571165
6.696837144155058,0.0701372114181519,-0.0464308216094971,1.15295884723663
6.697442837674138,1.1335258832931498,-0.915822911453247,-0.351113418388367
6.6980485311932165,-0.923795894050598,0.0493699596405029,-0.286447891044617
6.698654224712296,-0.253190425300598,-0.163786778640747,0.0632249605178835
6.699259918231375,0.589856449699402,0.796616053390503,-0.15232679729461698
6.699865611750455,0.424600102043152,-0.424843907546997,0.19734605426788301
6.700471305269534,0.834148441886902,-0.805652013015747,-0.425359023857117
6.701076998788613,-0.959721187019348,1.0169578502655001,0.26919664020538303
6.701682692307692,-0.732194331550598,1.452851404953,0.204531112861633
6.7022883858267726,0.640151859855652,-0.800861973953247,0.676349960517883
6.702894079345851,0.244973637199402,-0.616445470046997,-0.964238418388367
6.70349977286493,-0.44479198780059803,0.0038645885467529497,-0.322373184013367
6.704105466384011,-0.102304194831848,0.286476893234253,-0.049340957450866495
6.7047111599030895,0.623386723136902,-0.178156895828247,-0.133166641044617
6.705316853422168,0.963479496574402,-0.599680333328247,0.408107773017883
6.705922546941248,-0.636393550300598,0.796616053390503,-0.243337539482117
6.706528240460328,-0.861525386238098,1.27322494010925,0.460798202705383
6.7071339339794065,0.625781742668152,0.0900852916717529,0.15184068317413302
6.707739627498486,0.20665332469940198,-0.518249669265747,-0.418173965263367
6.708345321017565,-0.7393793901443481,0.12122054557800299,-0.581035293388367
6.708951014536645,-0.746564448738098,0.0709251354217529,0.556598983955383
6.709556708055724,0.340774418449402,-0.0991212512969971,0.494328476142883
6.710162401574803,0.640151859855652,-1.89778091926575,-0.288842910575867
6.710768095093883,-0.0065034135818481395,0.355932459640503,0.467983261299133
6.7113737886129625,-1.5273408159256001,2.19770247917175,0.554203964424133
6.711979482132041,0.929949223136902,-0.810442052078247,0.034484726142883504
6.712585175651121,0.707212406730652,-0.769726720046997,-0.391828750419617
6.713190869170201,-1.1010273393631,-0.0368507434844971,-0.351113418388367
6.7137965626892795,-0.0208735307693481,0.142775721359253,0.218901230049133
6.714402256208359,-0.241215327644348,0.935527186203003,0.32907212848663303
6.715007949727438,0.874863773918152,-1.38045670051575,-0.286447891044617
6.715613643246518,0.127617680168152,-1.4355421497345,0.288356796455383
6.716219336765597,-1.7668427690506001,2.5856956432342497,0.192556015205383
6.716825030284676,0.592251469230652,-0.238032384109497,0.889506698799133
6.717430723803755,1.10957568798065,-0.966118321609497,-0.444519180107117
6.7180364173228355,-1.1345576128006,0.377487635421753,-1.10554457073212
6.718642110841914,0.20665332469940198,-1.3493214466095,1.01404771442413
6.719247804360993,-0.238820308113098,1.4768016002655,-0.506789687919617
6.719853497880074,0.659312016105652,-0.467954259109497,0.12070542926788301
6.7204591913991525,1.26764697704315,-1.25112564582825,-0.530739883232117
6.721064884918231,-1.6087714799881,1.3642356822967499,-0.0972413480758665
6.721670578437311,0.07253223094940191,0.990612635421753,0.161420761299133
6.722276271956391,0.582671391105652,-0.736196446609497,0.659584823799133
6.7228819654754695,-0.341806147956848,0.0757151744842529,-0.851672500419617
6.723487658994549,0.149172855949402,-0.125466466140747,-0.07089613323211649
6.724093352513629,-0.0735639604568481,0.0781101940155029,0.233271347236633
6.724699046032708,1.1263408246994,-0.331438145828247,-0.22178236370086699
6.725304739551787,0.882048832511902,-1.421172032547,0.403317733955383
6.725910433070866,-0.969301265144348,2.00131087760925,-0.722341445732117
6.726516126589946,-1.21359325733185,1.2013743541717499,1.03320787067413
6.7271218201090255,0.867678715324402,-0.836787266921997,0.144655624580383
6.727727513628104,0.431785160636902,-0.843972325515747,0.312306991767883
6.728333207147184,-0.571728022956848,0.372697596359253,-0.636120742607117
6.728938900666264,-0.9381660112380981,0.758295740890503,0.424872909736633
6.7295445941853425,0.16593799266815198,-0.137441563796997,-0.319978164482117
6.730150287704422,1.11436572704315,-2.10854263801575,-0.051735976982116495
6.730755981223501,-0.933375972175598,0.736740565109253,-0.154721816825867
6.731361674742581,-1.2303583940506,2.01568099479675,0.762570663642883
6.73196736826166,1.5263090864181499,-1.04994400520325,1.0643431245803798
6.732573061780739,0.702422367668152,0.037394861984252896,-1.4983277738571201
6.733178755299818,-1.18964306201935,-0.769726720046997,1.02123277301788
6.7337844488188985,-0.440001948738098,0.252946619796753,-0.995373672294617
6.734390142337977,-0.401681636238098,0.849306483078003,0.0584349214553835
6.734995835857056,1.30596728954315,-1.5217628528595,0.154235702705383
6.735601529376137,0.326404301261902,-0.815232091140747,-0.779821914482117
6.7362072228952155,-2.50690380420685,2.56174544792175,0.429662948799133
6.736812916414294,0.7982231489181519,-0.254797520828247,0.793705917549133
6.737418609933375,1.0137749067306498,-0.896662755203247,-0.322373184013367
6.738024303452454,-1.4459101518631001,0.377487635421753,0.37936753864288303
6.738629996971532,0.316824223136902,-0.604470372390747,0.19734605426788301
6.739235690490612,0.007866703605651861,0.945107264328003,-0.051735976982116495
6.739841384009692,1.08562549266815,-0.896662755203247,1.23199449176788
6.740447077528771,0.695237309074402,-0.968513341140747,-1.00495375041962
6.74105277104785,-1.45788524951935,1.6468479869842498,-0.11640150432586699
6.741658464566929,-0.08553905811309809,0.899601893234253,0.927827011299133
6.742264158086009,0.714397465324402,-0.913427891921997,0.364997421455383
6.7428698516050884,0.0102617231369019,0.137985682296753,-1.00016371135712
6.743475545124167,-0.377731440925598,-0.405683751296997,0.491933456611633
6.744081238643246,-0.169364741706848,0.291266932296753,0.039274765205383505
6.744686932162327,1.13831592235565,-0.0823561145782471,-0.135561660575867
6.745292625681405,0.534771000480652,-0.405683751296997,0.0177195894241335
6.745898319200485,-1.0387568315506,1.0265379283904998,-0.461284316825867
6.746504012719564,-0.392101558113098,0.846911463546753,0.338652206611633
6.747109706238644,0.455735355949402,-0.614050450515747,0.393737655830383
6.747715399757723,0.666497074699402,-0.211687169265747,-0.420568984794617
6.748321093276802,-1.17527294483185,-0.101516270828247,0.0871751558303835
6.748926786795881,-0.562147944831848,0.547534022140503,-0.542714980888367
6.7495324803149614,0.810198246574402,-0.242822423171997,-0.193042129325867
6.75013817383404,0.321614262199402,-2.07022232551575,0.0105345308303835
6.750743867353119,-0.109489253425598,1.175029139328,-1.0312989652633702
6.7513495608722,-1.36687450733185,1.31154525260925,1.63914781208038
6.751955254391278,0.685657230949402,-0.00332047004699705,-0.0948463285446165
6.752560947910357,0.635361820793152,-1.124189610672,-0.348718398857117
6.753166641429438,-1.2111982378006,-0.261982579421997,-0.200227187919617
6.753772334948517,-0.377731440925598,0.511608729171753,-0.638515762138367
6.754378028467595,-0.396891597175598,0.609804529953003,0.290751815986633
6.754983721986675,1.0065898481369,-0.815232091140747,-0.569060195732117
6.755589415505755,0.668892094230652,-1.622353673172,-0.0732911527633665
6.756195109024834,-1.6997822221756,2.62401595573425,0.199741073799133
6.756800802543913,-0.0472187456130981,0.324797205734253,0.611684433174133
6.757406496062992,1.3802128950119,-0.918217930984497,0.230876327705383
6.758012189582072,-0.933375972175598,0.176305994796753,-0.0972413480758665
6.758617883101151,0.0246318403244019,-0.611655430984497,-0.504394668388367
6.75922357662023,0.352749516105652,0.964267420578003,-0.21699232463836698
6.75982927013931,0.666497074699402,-0.606865391921997,0.309911972236633
6.76043496365839,1.3418925825119,-1.1457447864532502,-0.669651016044617
6.761040657177468,-1.7045722612381,1.41692611198425,0.0296946870803835
6.761646350696547,-0.396891597175598,0.952292322921753,0.491933456611633
6.762252044215627,1.2556718793869,-0.451189122390747,0.209321151924133
6.7628577377347066,-0.174154780769348,-0.312277989578247,-0.264892715263367
6.763463431253786,-0.535802729988098,-0.0895411731719971,-0.257707656669617
6.764069124772865,-0.437606929206848,0.224206385421753,0.0320897066116335
6.764674818291945,0.7383476606369019,-0.544594884109497,-0.051735976982116495
6.765280511811024,1.33949756298065,-1.0307838489532501,0.127890487861633
6.765886205330103,-1.3261591753006001,1.3259153697967498,-0.128376601982117
6.766491898849182,-1.1201874956131002,0.993007654953003,0.350627304267883
6.767097592368263,0.973059574699402,-0.693086095046997,-0.190647109794617
6.767703285887341,0.335984379386902,-0.362573399734497,0.0296946870803835
6.76830897940642,-0.713034175300598,0.114035486984253,-0.410988906669617
6.768914672925501,-0.547777827644348,-0.0392457630157471,0.532648788642883
6.7695203664445796,0.606621586418152,0.269711756515503,0.32907212848663303
6.770126059963658,0.597041508293152,-2.18039322395325,-0.051735976982116495
6.770731753482738,-0.744169429206848,0.616989588546753,-0.197832168388367
6.771337447001818,-1.01720165576935,2.03005111198425,0.295541855049133
6.7719431405208965,1.11915576610565,-0.968513341140747,0.185370956611633
6.772548834039976,0.498845707511902,-0.0392457630157471,-0.664860976982117
6.773154527559055,-1.19922314014435,-0.762541661453247,0.544623886299133
6.773760221078135,-0.14780956592559802,0.511608729171753,-0.367878555107117
6.774365914597214,-0.509457515144348,0.324797205734253,0.568574081611633
6.774971608116293,1.4927788129806498,-1.0307838489532501,-0.0780811918258665
6.775577301635373,0.110852543449402,-1.0475489856720002,-0.022995742607116502
6.7761829951544525,-2.08538036670685,2.2911082408905,-0.839697402763367
6.776788688673531,1.22932666454315,-0.535014805984497,1.03560289020538
6.777394382192611,0.652126957511902,-0.968513341140747,-0.0924513090133665
6.778000075711691,-1.2231733354568501,0.731950526046753,-0.600195449638367
6.7786057692307695,-0.00410839405059814,-1.3852467395782502,1.0427879487991298
6.779211462749849,0.14677783641815198,1.57020736198425,-1.04566908245087
6.779817156268928,1.02335498485565,-0.6882960559844971,0.769755722236633
6.780422849788008,1.0089848676681499,-0.693086095046997,-0.619355605888367
6.781028543307087,-1.71654735889435,1.49356673698425,-0.149931777763367
6.781634236826166,-0.44479198780059803,0.890021815109253,0.633239608955383
6.782239930345245,0.149172855949402,-0.602075352859497,0.12310044879913301
6.7828456238643255,0.395859867668152,-0.6284205677032471,-0.521159805107117
6.783451317383404,-0.456767085456848,-0.326648106765747,0.0967552339553835
6.784057010902483,-0.413656733894348,0.837331385421753,-0.593010391044617
6.784662704421564,1.6676152387618999,-0.326648106765747,0.0440648042678835
6.7852683979406425,0.252158695793152,-1.41398697395325,1.02123277301788
6.785874091459721,-1.21359325733185,2.13064193229675,-1.14146986370087
6.786479784978801,-0.332226069831848,-0.223662266921997,1.7828489839553798
6.787085478497881,0.721582523918152,-0.252402501296997,0.0895701753616335
6.7876911720169595,0.484475590324402,0.173910975265503,-1.24206068401337
6.788296865536039,-1.0195966753006,-0.872712559890747,0.587734237861633
6.788902559055118,-0.921400874519348,1.1199436901092499,-0.913943008232117
6.789508252574198,0.609016605949402,-0.654765782546997,0.0943602144241335
6.790113946093277,0.6185966840744019,-2.23308365364075,0.446428085517883
6.790719639612356,-0.425631831550598,1.127128748703,-0.830117324638367
6.791325333131436,-1.2782587846756,1.4025559947967499,0.669164901924133
6.7919310266505155,1.1598710981369,-0.685901036453247,0.688325058174133
6.792536720169594,0.357539555168152,-0.762541661453247,-0.609775527763367
6.793142413688674,-1.1153974565506,-0.633210606765747,0.0799900972366335
6.793748107207754,-0.296300776863098,0.343957361984253,-0.310398086357117
6.7943538007268325,-0.111884272956848,0.451733240890503,0.034484726142883504
6.794959494245912,1.2460918012619,-1.20801529426575,-0.0780811918258665
6.795565187764991,-0.08793407764434809,-0.975698399734497,-0.724736465263367
6.796170881284071,-1.4842304643631001,2.1953074596405,0.348232284736633
6.79677657480315,0.537166020011902,-0.254797520828247,0.851186386299133
6.797382268322229,1.1934013715743998,-0.9876734973907471,-0.281657851982117
6.797987961841308,-1.1800629838943502,0.188281092453003,-0.020600723075866502
6.7985936553603885,-0.09272411670684809,-0.420053868484497,-0.672046035575867
6.799199348879467,0.26413379344940197,0.753505701828003,0.573364120674133
6.799805042398546,0.45334033641815197,-0.393708653640747,0.44882310504913303
6.800410735917627,1.2460918012619,-1.2319654895782501,-0.27926283245086697
6.8010164294367055,-1.2974189409256,1.567812342453,0.305121933174133
6.801622122955784,-0.20768505420684802,1.2828050182342499,0.336257187080383
6.802227816474865,0.680867191886902,-0.968513341140747,0.518278671455383
6.802833509993944,-0.21726513233184802,0.33437728385925297,-1.04806410198212
6.8034392035130224,-0.0615888628005981,-0.755356602859497,0.717065292549133
6.804044897032102,0.10606250438690201,0.573879236984253,-0.616960586357117
6.804650590551182,0.254553715324402,-0.523039708328247,0.254826523017883
6.805256284070261,0.630571781730652,-1.622353673172,0.281171737861633
6.80586197758934,-0.480717280769348,1.82886947135925,-1.02171888713837
6.806467671108419,-0.990856440925598,0.638544764328003,1.67028306598663
6.807073364627499,1.12394580516815,-0.0895411731719971,-0.351113418388367
6.8076790581465785,0.16593799266815198,-0.44400406379699703,0.331467148017883
6.808284751665657,-0.9381660112380981,-0.532619786453247,0.362602401924133
6.808890445184736,-0.392101558113098,0.444548182296753,-0.571455215263367
6.809496138703817,0.0701372114181519,-0.479929356765747,0.324282089424133
6.8101018322228954,0.951504398918152,-1.6726490833282501,-0.545110000419617
6.810707525741975,-0.332226069831848,0.6888401744842529,0.451218124580383
6.811313219261054,-1.5225507768631001,2.094716639328,0.14705064411163302
6.811918912780134,1.2700419965743999,-1.20322525520325,0.355417343330383
6.812524606299213,0.716792484855652,-0.626025548171997,-0.12358656291961699
6.813130299818292,-1.47225536670685,-0.123071446609497,-0.521159805107117
6.813735993337371,-0.14301952686309802,-0.0919361927032471,0.0296946870803835
6.8143416868564515,-0.497482417488098,1.175029139328,0.139865585517883
6.81494738037553,1.3945830121993998,-1.6654640247345,-0.521159805107117
6.815553073894609,0.664102055168152,-1.2631007434845,-0.375063613700867
6.81615876741369,-2.25782177295685,2.57132552604675,0.417687851142883
6.816764460932768,0.721582523918152,0.0230247447967529,0.736225448799133
6.817370154451847,0.999404789543152,-1.06431412239075,-0.439729141044617
6.817975847970928,-1.1848530229568501,-0.293117833328247,-0.351113418388367
6.818581541490007,0.127617680168152,-0.544594884109497,-0.444519180107117
6.819187235009085,-0.229240229988098,0.724765467453003,0.0464598237991335
6.819792928528165,1.02814502391815,-0.432028966140747,0.139865585517883
6.820398622047245,1.2556718793869,-1.0259938098907502,-0.576245254325867
6.821004315566324,-1.6327216753006,1.472011561203,0.295541855049133
6.821610009085403,-0.602863276863098,0.700815272140503,-0.0852662504196165
6.822215702604482,0.862888676261902,-0.415263829421997,0.489538437080383
6.822821396123563,0.127617680168152,-0.017690587234497103,0.168605819892883
6.823427089642641,-0.514247554206848,0.276896815109253,-0.437334121513367
6.82403278316172,-0.260375483894348,0.439758143234253,0.288356796455383
6.824638476680799,0.831753422355652,-1.2439405872345,0.144655624580383
6.82524417019988,1.5478642621993999,-0.451189122390747,-0.739106582450867
6.825849863718958,-1.2614936479568502,1.510331873703,-0.07089613323211649
6.826455557238038,-0.729799312019348,1.127128748703,0.669164901924133
6.827061250757117,1.0952055707931498,-0.863132481765747,0.43924302692413303
6.827666944276197,0.0461870161056519,-0.187736973953247,-0.564270156669617
6.828272637795276,-0.516642573738098,-0.0368507434844971,0.240456405830383
6.828878331314355,-0.612443354988098,0.990612635421753,-0.171486953544617
6.829484024833434,0.09169238719940191,0.552324061203003,0.309911972236633
6.830089718352514,0.913184086418152,-2.82704849739075,0.580549179267883
6.830695411871593,-0.363361323738098,1.0433030651092499,-1.40731703166962
6.831301105390672,-1.67343700733185,1.050488123703,2.09899156208038
6.831906798909753,0.985034672355652,-0.166181798171997,-0.758266738700867
6.832512492428831,1.0017998090744,-0.743381505203247,-0.363088516044617
6.83311818594791,-1.05073192920685,-0.518249669265747,0.0919651948928835
6.833723879466991,-0.760934565925598,0.288871912765503,-0.463679336357117
6.83432957298607,-0.705849116706848,0.360722498703003,0.590129257392883
6.834935266505148,1.5909746137618999,-0.899057774734497,-1.05045912151337
6.835540960024228,0.565906254386902,-1.402011876297,-0.250522598075867
6.836146653543308,-2.1213056596756,2.3366136119842498,-0.243337539482117
6.8367523470623865,0.822173344230652,-0.362573399734497,1.3637205659866298
6.837358040581466,0.973059574699402,-0.451189122390747,-0.439729141044617
6.837963734100545,-1.08905224170685,0.0517649791717529,0.21171617145538302
6.838569427619625,-0.0256635698318481,-0.302697911453247,-0.590615371513367
6.839175121138704,0.197073246574402,0.571484217453003,0.518278671455383
6.839780814657783,0.965874516105652,-0.0895411731719971,0.0464598237991335
6.840386508176863,0.910789066886902,-1.49541763801575,-0.0972413480758665
6.840992201695943,-1.4554902299881,1.519911951828,0.034484726142883504
6.841597895215021,-0.7585395463943481,1.01935286979675,0.487143417549133
6.8422035887341,0.510820805168152,-0.757751622390747,0.980517440986633
6.84280928225318,0.16114795360565198,-0.0248756458282471,-1.45282240276337
6.8434149757722595,-0.37533642139434803,-1.27986588020325,1.30624009723663
6.844020669291339,-0.490297358894348,1.31633529167175,-0.466074355888367
6.844626362810418,1.11436572704315,-0.673925938796997,-0.0613160551071165
6.845232056329498,1.16226611766815,-1.3014210559845,0.338652206611633
6.845837749848577,-1.97041942920685,2.0228660533905,-1.4336622465133702
6.846443443367656,-0.717824214363098,0.406227869796753,1.4738914644241299
6.847049136886735,0.6976323286056519,-0.396103673171997,0.355417343330383
6.847654830405816,0.237788578605652,0.0493699596405029,-1.03848402385712
6.848260523924894,0.0150517621994019,-0.616445470046997,0.731435409736633
6.848866217443973,-1.24712353076935,0.875651697921753,-0.336743301200867
6.849471910963054,0.956294437980652,0.245761561203003,-0.195437148857117
6.8500776044821325,0.939529301261902,-2.618681798172,0.508698593330383
6.850683298001211,-0.861525386238098,1.4456663463592498,-1.14386488323212
6.851288991520291,-1.3117890581131,1.14868392448425,1.52658189411163
6.851894685039371,1.3754228559494,-0.573335118484497,-0.243337539482117
6.8525003785584495,1.04251514110565,-0.408078770828247,-0.485234512138367
6.853106072077529,-1.24712353076935,-0.566150059890747,0.0296946870803835
6.853711765596608,-0.432816890144348,0.851701502609253,-0.739106582450867
6.854317459115688,-0.406471675300598,0.272106776046753,0.944592148017883
6.854923152634767,1.6939604536056498,-1.076289220047,-0.784611953544617
6.855528846153846,0.22102344188690198,-1.2343605091095,-0.523554824638367
6.856134539672926,-1.7836079057693501,1.86239974479675,0.44882310504913303
6.8567402331920055,0.17072803173065199,0.516398768234253,1.05236802692413
6.857345926711084,0.9371342817306519,-0.695481114578247,-0.205017226982117
6.857951620230164,-0.871105464363098,-0.597285313796997,0.130285507392883
6.858557313749244,-0.18852489795684801,-0.053615880203247104,-1.0911744535446202
6.8591630072683225,0.180308109855652,0.188281092453003,0.405712753486633
6.859768700787402,1.0449101606369,-0.192527013015747,0.0536448823928835
6.860374394306481,0.764692875480652,-1.05473404426575,-0.698391250419617
6.860980087825561,-1.65427685108185,1.1606590221405,0.38894761676788303
6.86158578134464,-0.863920405769348,1.127128748703,0.43924302692413303
6.862191474863719,1.0832304731369,-0.489509434890747,0.0656199800491335
6.862797168382798,0.204258305168152,-0.386523595046997,-0.346323379325867
6.8634028619018785,-0.782489741706848,-0.240427403640747,-0.27926283245086697
6.864008555420957,0.285688969230652,0.463708338546753,-0.504394668388367
6.864614248940036,0.585066410636902,-1.13616470832825,0.336257187080383
6.865219942459117,0.609016605949402,-0.434423985671997,-0.597800430107117
6.8658256359781955,-1.00283153858185,1.0121678112030001,-0.130771621513367
6.866431329497274,-0.681898921394348,0.844516444015503,0.6236595308303831
6.867037023016354,1.15268603954315,0.0517649791717529,-0.205017226982117
6.867642716535434,0.5778813520431519,-0.836787266921997,0.12070542926788301
6.8682484100545125,-0.511852534675598,0.142775721359253,-0.564270156669617
6.868854103573592,-1.37645458545685,0.372697596359253,0.20692613239288302
6.869459797092672,0.371909672355652,0.217021326828003,0.0320897066116335
6.870065490611751,0.812593266105652,-2.2594288684845,-0.243337539482117
6.87067118413083,-0.339411128425598,0.485263514328003,-0.494814590263367
6.871276877649909,-1.54889599170685,1.98215072135925,1.2224144136428798
6.871882571168989,0.6377568403244019,-0.798466954421997,0.0991502534866335
6.8724882646880685,1.04251514110565,-0.616445470046997,-0.909152969169617
6.873093958207147,-1.6375117143631,-0.388918614578247,0.295541855049133
6.873699651726227,-0.205290034675598,0.315217127609253,-0.681626113700867
6.874305345245307,-0.0376386674880981,0.480473475265503,0.827236190986633
6.8749110387643855,1.14789600048065,-0.843972325515747,-0.355903457450867
6.875516732283465,0.501240727043152,-1.3469264270782502,-0.487629531669617
6.876122425802544,-2.1452558549881,2.15459212760925,-0.0828712308883665
6.876728119321624,0.611411625480652,-0.0200856067657471,0.827236190986633
6.877333812840703,1.43529834423065,-0.738591466140747,0.0272996675491335
6.877939506359782,-1.1537177690506,0.145170740890503,0.175790878486633
6.878545199878861,-0.0065034135818481395,-0.273957677078247,-0.691206191825867
6.8791508933979415,-0.205290034675598,0.576274256515503,0.293146835517883
6.87975658691702,0.568301273918152,-0.149416661453247,0.300331894111633
6.880362280436099,1.05688525829315,-1.8522755481720001,-0.267287734794617
6.88096797395518,-1.12258251514435,1.69474837760925,-0.0732911527633665
6.8815736674742585,-0.825600093269348,1.251669764328,0.257221542549133
6.882179360993337,1.27243701610565,-0.937378087234497,0.606894394111633
6.882785054512418,-0.09511913623809809,-0.0272706653594971,-0.331953262138367
6.883390748031497,-0.930980952644348,-0.0224806262969971,-0.0876612699508665
6.883996441550575,0.319219242668152,0.676865076828003,-0.006230605888366519
6.884602135069655,0.700027348136902,-1.0331788684845,0.163815780830383
6.885207828588735,1.23890674266815,-0.254797520828247,-1.2803809965133701
6.885813522107814,-1.28065380420685,1.0480931041717498,0.851186386299133
6.886419215626893,-0.753749507331848,1.2492747447967498,0.226086288642883
6.887024909145972,1.3035722700119,-0.348203282546997,-0.07089613323211649
6.887630602665052,-0.0591938432693481,-0.767331700515747,0.0847801362991335
6.8882362961841315,-0.0544038042068481,0.164330897140503,-0.868437637138367
6.88884198970321,-0.6387885698318481,0.470893397140503,0.954172226142883
6.889447683222289,-0.425631831550598,0.159540858078003,-0.214597305107117
6.89005337674137,1.19579639110565,-2.1636280872345,-0.370273574638367
6.890659070260448,-0.24840038623809801,0.945107264328003,-0.185857070732117
6.891264763779528,-1.69259716358185,1.35465560417175,1.98163560504913
6.891870457298607,1.1934013715743998,-0.259587559890747,-0.676836074638367
6.892476150817687,0.642546879386902,-0.836787266921997,0.000954452705383475
6.893081844336766,-1.04594189014435,-0.331438145828247,-0.233757461357117
6.893687537855845,-0.363361323738098,0.444548182296753,-0.763056777763367
6.894293231374924,-0.246005366706848,-0.0272706653594971,1.34456040973663
6.8948989248940045,1.6101347700119,-0.745776524734497,-1.0911744535446202
6.895504618413083,0.335984379386902,-1.4451222278595002,-0.394223769950867
6.896110311932162,-1.6231415971756,2.1186668346405,-0.0110206449508665
6.896716005451243,-0.028058589363098102,0.114035486984253,1.17211900348663
6.897321698970321,0.755112797355652,-0.546989903640747,-0.669651016044617
6.8979273924894,-0.622023433113098,-0.381733555984497,0.424872909736633
6.898533086008481,0.177913090324402,-0.166181798171997,-0.700786269950867
6.89913877952756,0.182703129386902,1.02414290885925,-0.16190687541961699
6.899744473046638,0.405439945793152,-0.7481715442657471,0.846396347236633
6.900350166565718,0.903604008293152,-1.34213638801575,-1.0576441801071201
6.900955860084798,-1.31418407764435,1.280409998703,0.250036483955383
6.901561553603877,-0.784884761238098,1.0456980846405,1.14337876911163
6.902167247122956,0.814988285636902,-0.458374180984497,0.185370956611633
6.902772940642035,0.180308109855652,-0.489509434890747,-0.619355605888367
6.903378634161116,-0.15259960498809802,-0.261982579421997,-0.0613160551071165
6.903984327680194,-0.358571284675598,0.45412826042175297,0.0464598237991335
6.904590021199273,0.0461870161056519,-0.678715977859497,-0.365483535575867
6.905195714718352,1.43529834423065,-0.925402989578247,0.453613144111633
6.905801408237433,-0.933375972175598,1.4025559947967499,0.101545273017883
6.906407101756511,-0.952536128425598,1.3139402721405,-0.200227187919617
6.907012795275591,0.870073734855652,-0.911032872390747,0.465588241767883
6.90761848879467,0.290479008293152,-0.463164220046997,-0.607380508232117
6.90822418231375,-0.466347163581848,0.0589500377655029,-0.12358656291961699
6.908829875832829,-1.17048290576935,0.576274256515503,0.190160995674133
6.909435569351908,0.22102344188690198,0.360722498703003,-0.250522598075867
6.910041262870988,1.07604541454315,-2.30014420051575,-0.020600723075866502
6.910646956390067,-0.121464351081848,0.684050135421753,-0.921128066825867
6.911252649909146,-1.72133739795685,1.6779832408905,1.64633287067413
6.911858343428225,1.1550810590743998,-0.501484532546997,-0.176276992607117
6.912464036947306,0.862888676261902,-0.920612950515747,-0.485234512138367
6.913069730466384,-1.4794404253006002,-0.693086095046997,0.489538437080383
6.913675423985463,0.204258305168152,0.308032069015503,-1.02890394573212
6.914281117504544,-0.437606929206848,0.475683436203003,0.434452987861633
6.914886811023623,1.1359209028244,-0.884687657546997,-0.549900039482117
6.915492504542701,0.987429691886902,-1.6247486927032502,-0.209807266044617
6.916098198061781,-2.29614208545685,2.12585189323425,0.0440648042678835
6.916703891580861,0.153962895011902,0.324797205734253,1.06673814411163
6.9173095850999395,1.20058643016815,-1.009228673172,-0.597800430107117
6.917915278619019,-0.696269038581848,-0.238032384109497,-0.255312637138367
6.918520972138098,0.17072803173065199,-0.149416661453247,-0.262497695732117
6.919126665657178,-0.31546093311309803,0.537953944015503,0.590129257392883
6.919732359176257,0.973059574699402,-0.0895411731719971,0.0560399019241335
6.920338052695336,1.1215507856369,-1.507392735672,-0.530739883232117
6.920943746214416,-1.48662548389435,1.357050623703,0.11591539020538301
6.921549439733496,-0.806439937019348,1.2875950572967498,0.444033065986633
6.922155133252574,1.2149565473556498,-0.824812169265747,0.38894761676788303
6.922760826771653,0.467710453605652,-0.204502110671997,-0.521159805107117
6.923366520290734,-0.811229976081848,-0.297907872390747,0.132680526924133
6.9239722138098125,-0.123859370613098,0.559509119796753,-0.310398086357117
6.924577907328892,0.604226566886902,-0.954143223953247,0.240456405830383
6.925183600847971,0.9179741254806519,-0.673925938796997,0.000954452705383475
6.925789294367051,-0.777699702644348,1.3905808971405,-0.0876612699508665
6.92639498788613,-1.17527294483185,0.724765467453003,0.434452987861633
6.927000681405209,0.668892094230652,-0.216477208328247,0.036879745674133504
6.927606374924288,0.541956059074402,-0.913427891921997,0.171000839424133
6.928212068443369,-0.499877437019348,0.329587244796753,-0.430149062919617
6.928817761962447,-0.794464839363098,1.02414290885925,0.429662948799133
6.929423455481526,0.113247562980652,-0.228452305984497,-0.231362441825867
6.930029149000607,1.29638721141815,-2.1827882434845,-0.909152969169617
6.9306348425196855,-0.442396968269348,0.437363123703003,-0.15711683635711698
6.931240536038764,-1.8339033159256,1.65642806510925,1.16972398395538
6.931846229557844,1.15268603954315,-0.06798599739074711,-0.296027969169617
6.932451923076924,0.865283695793152,-0.740986485671997,0.317097030830383
6.9330576165960025,-1.1297675737381,-0.283537755203247,-0.166696914482117
6.933663310115082,-0.399286616706848,0.276896815109253,-0.729526504325867
6.934269003634161,-0.224450190925598,0.767875819015503,0.587734237861633
6.934874697153241,1.3754228559494,-0.992463536453247,-0.183462051200867
6.93548039067232,0.700027348136902,-1.3589015247345,0.036879745674133504
6.936086084191399,-1.8147431596756,2.669521326828,0.0464598237991335
6.936691777710479,0.338379398918152,0.190676111984253,1.06673814411163
6.9372974712295585,1.41613818798065,-0.647580723953247,-0.597800430107117
6.937903164748637,-1.0483369096756001,-0.0775660755157471,0.127890487861633
6.938508858267717,-0.0567988237380981,-0.226057286453247,-0.39901380901336697
6.939114551786797,-0.0256635698318481,0.815776209640503,0.410502792549133
6.9397202453058755,0.716792484855652,-0.00571548957824705,-0.171486953544617
6.940325938824954,1.2508818403244,-1.7325245716095001,-0.205017226982117
6.940931632344034,-1.1848530229568501,1.45524642448425,0.175790878486633
6.941537325863114,-0.964511226081848,1.845634608078,0.10873033161163301
6.942143019382193,1.0161699262619,-1.181670079422,1.21522935504913
6.942748712901272,0.307244145011902,0.185886072921753,-1.27319593791962
6.943354406420351,-0.636393550300598,-0.573335118484497,0.283566757392883
6.9439600999394315,-0.291510737800598,0.655309901046753,-0.470864394950867
6.94456579345851,0.680867191886902,-0.882292638015747,0.561389023017883
6.945171486977589,1.1263408246994,-1.0259938098907502,-0.276867812919617
6.94577718049667,-1.0435468706131001,1.7881541393279998,-0.801377090263367
6.9463828740157485,-1.24233349170685,0.770270838546753,1.89062486286163
6.946988567534827,1.0113798871994,0.691235194015503,-0.921128066825867
6.947594261053907,0.846123539543152,-0.410473790359497,0.537438827705383
6.948199954572987,-0.660343745613098,-0.101516270828247,-0.137956680107117
6.9488056480920655,-1.0148066362381,0.276896815109253,-1.1007545316696201
6.949411341611145,0.0246318403244019,-0.7481715442657471,1.0763182222366299
6.950017035130225,1.0161699262619,-2.235478673172,0.0728050386428835
6.950622728649304,0.0581621137619019,1.7163035533905,-0.564270156669617
6.951228422168383,-1.9464692338943501,1.46482650260925,1.67267808551788
6.951834115687462,1.47840869579315,-1.1481398059845,-0.298422988700867
6.952439809206542,0.824568363761902,-0.640395665359497,-0.291237930107117
6.9530455027256215,-1.9680244096756,0.0661350963592529,-0.262497695732117
6.9536511962447,-0.21726513233184802,0.581064295578003,0.429662948799133
6.95425688976378,-0.313065913581848,0.593039393234253,0.681139999580383
6.95486258328286,1.1886113325118999,-1.306211095047,-0.887597793388367
6.9554682768019385,0.599436527824402,-1.20322525520325,-0.341533340263367
6.956073970321018,-2.2458466753006,2.3390086315155,0.132680526924133
6.956679663840097,0.759902836418152,0.303242029953003,1.0643431245803798
6.957285357359177,1.2221416059494,-0.721826329421997,-0.324768203544617
6.957891050878256,-1.2231733354568501,-0.827207188796997,-0.0924513090133665
6.958496744397335,0.266528812980652,-0.803256993484497,-0.655280898857117
6.959102437916414,-0.277140620613098,0.537953944015503,0.652399765205383
6.9597081314354945,1.0736503950118998,-0.170971837234497,-0.169091934013367
6.960313824954573,1.3275224653244,-1.239150548172,-0.535529922294617
6.960919518473652,-1.4890205034256,1.1630540416717499,0.604499374580383
6.961525211992733,-0.404076655769348,1.1031785533904999,-0.442124160575867
6.9621309055118115,0.783853031730652,-0.226057286453247,1.06913316364288
6.96273659903089,-0.0232685503005981,-0.0799610950469971,-0.06850111370086649
6.963342292549971,-0.250795405769348,-0.281142735671997,-0.276867812919617
6.96394798606905,-0.552567866706848,0.794221033859253,0.15663072223663302
6.964553679588128,1.2365117231369,-0.479929356765747,-0.621750625419617
6.965159373107208,0.884443852043152,-0.767331700515747,-0.363088516044617
6.965765066626288,-0.768119624519348,1.4097410533905,0.0129295503616335
6.966370760145367,-0.418446772956848,1.0169578502655001,0.705090194892883
6.966976453664446,-0.701059077644348,-0.834392247390747,0.424872909736633
6.967582147183525,0.721582523918152,-0.403288731765747,-0.422964004325867
6.968187840702605,-0.14301952686309802,0.0972703502655029,0.403317733955383
6.9687935342216845,-0.854340327644348,0.935527186203003,-0.652885879325867
6.969399227740763,1.01856494579315,-0.053615880203247104,-0.621750625419617
6.970004921259842,0.15635791454315198,-2.5851515247345,0.472773300361633
6.970610614778923,0.0701372114181519,1.14868392448425,-0.296027969169617
6.971216308298001,-1.6255366167068501,1.94862044792175,1.45473130817413
6.971822001817081,0.256948734855652,0.0038645885467529497,-0.331953262138367
6.97242769533616,1.4281132856368999,-1.2750758411407501,0.103940292549133
6.97303338885524,-0.782489741706848,-0.611655430984497,-0.317583144950867
6.973639082374319,-0.0783539995193481,0.487658533859253,0.252431503486633
6.974244775893398,-0.988461421394348,0.329587244796753,0.551808944892883
6.974850469412477,0.814988285636902,-0.616445470046997,0.0560399019241335
6.9754561629315575,0.932344242668152,-1.80677017707825,0.372182480049133
6.976061856450636,-1.4363300737381,1.5270970104217498,-0.576245254325867
6.976667549969715,0.0270268598556519,0.947502283859253,0.846396347236633
6.977273243488796,0.752717777824402,-0.865527501296997,0.0704100191116335
6.977878937007874,-0.528617671394348,-0.233242345046997,0.180580917549133
6.978484630526953,-0.466347163581848,-0.494299473953247,-0.5139747465133669
6.979090324046034,0.23060352001190199,0.408622889328003,0.757780624580383
6.979696017565113,0.668892094230652,0.351142420578003,0.355417343330383
6.980301711084191,1.28201709423065,-1.4451222278595002,-0.125981582450867
6.980907404603271,-0.708244136238098,1.01935286979675,0.257221542549133
6.981513098122351,-1.3477143510818501,1.33549544792175,0.166210800361633
6.98211879164143,0.819778324699402,-0.621235509109497,0.398527694892883
6.982724485160509,0.599436527824402,-0.434423985671997,-0.0301808012008665
6.983330178679588,-0.411261714363098,-0.32425308723449703,-0.190647109794617
6.983935872198668,-0.21247509326934802,0.619384608078003,-0.849277480888367
6.984541565717747,0.448550297355652,-1.0188087512969999,0.659584823799133
6.985147259236826,1.53588916454315,-0.911032872390747,-0.782216934013367
6.985752952755905,-0.741774409675598,1.0983885143279999,-0.367878555107117
6.986358646274986,-1.3357392534256,1.3618406627655,1.1194285737991299
6.986964339794064,0.949109379386902,0.0182347057342529,-0.238547500419617
6.987570033313144,0.613806645011902,-0.925402989578247,0.257221542549133
6.988175726832223,-0.377731440925598,0.0900852916717529,-0.463679336357117
6.988781420351303,-0.557357905769348,0.624174647140503,0.0584349214553835
6.989387113870382,-0.20768505420684802,0.554719080734253,0.37936753864288303
6.989992807389461,1.2748320356368998,-1.5505030872345,-1.21332044963837
6.990598500908541,-0.18852489795684801,-0.8080470325469971,0.896691757392883
6.99120419442762,-1.83629833545685,2.14980208854675,0.6236595308303831
6.991809887946699,1.2556718793869,-0.202107091140747,-0.137956680107117
6.992415581465778,0.886838871574402,-1.2152003528595001,0.446428085517883
6.993021274984859,-0.823205073738098,0.331982264328003,-0.921128066825867
6.993626968503937,-0.461557124519348,-0.743381505203247,1.02362779254913
6.994232662023016,-0.286720698738098,1.01935286979675,-0.20741224651336698
6.994838355542097,1.0113798871994,-0.915822911453247,-0.104426406669617
6.995444049061176,1.14310596141815,-1.7612648059845,-0.15232679729461698
6.996049742580254,-2.04706005420685,2.209677576828,0.15184068317413302
