Time (s),Accel X (m/s^2),Accel Y (m/s^2),Accel Z (m/s^2)
5.7085,-0.22637733964919998,-2.1287345237731903,3.35234466962814
5.70910569351908,-3.99853310136795,2.8672762184143097,-0.125223689746856
5.709711387038158,-1.86696571855545,-0.823448879241943,-3.18845367021561
5.710317080557238,2.0512862345695497,-4.2219815940856895,2.98830170087814
5.710922774076317,3.8547359416008,3.2265291481018097,-4.3021377522468605
5.711528467595397,-3.6943656208992,-2.8208951683044403,4.23131683759689
5.712134161114476,-0.592815327930451,3.98096030044556,-2.08674468584061
5.712739854633555,2.07523642988205,-0.20074380111694298,2.96195648603439
5.713345548152635,-0.832317281055451,-0.933619777679443,-1.21495757646561
5.713951241671714,-2.4585355427742,0.175274265289307,-4.46739409990311
5.714556935190793,-0.429953999805451,-4.23156167221069,5.60845306806564
5.715162628709873,2.91828330488205,5.22397543716431,-3.47346099443436
5.715768322228952,1.2130293986320502,-4.03277505111694,3.31881439619064
5.716374015748031,-0.32696815996170103,-0.468985988616943,-2.65196929521561
5.716979709267111,-2.47051064043045,4.6467757301330606,0.109488224315644
5.71758540278619,0.7316304728507991,-0.6510074729919431,2.9140560954093897
5.71819109630527,2.37221885175705,0.5488973121643069,-4.2494473225593605
5.718796789824349,-2.3435746052742004,-3.06279214096069,3.27091400556564
5.719402483343428,-1.11013954668045,3.16186362075806,-0.8365444905281061
5.720008176862508,1.52438193769455,-0.8881144065856931,4.09719574384689
5.7206138703815865,2.8224825236320497,-2.51672768783569,-4.33327300615311
5.721219563900666,0.9735274455070491,-0.684537746429443,0.07595795087814361
5.721825257419746,-4.6523734333992,3.5259065895080597,4.78456634931564
5.722430950938825,0.925627054882049,3.5953621559143096,-5.01345855302811
5.723036644457904,3.4236324259758,-6.47808999252319,6.51137543134689
5.723642337976983,-2.2525638630867,5.64070883560181,-5.43019195146561
5.724248031496063,-2.5878665974617,-2.41374184799194,0.744168400096894
5.724853725015143,0.5136836955070491,-0.559996730804443,-0.359935603809356
5.725459418534221,1.9387203166008,0.963235691070557,-0.218629451465606
5.726065112053301,1.2537447306633,-3.9058390159606904,1.05073090009689
5.726670805572381,-3.40935829668045,2.4912581520080597,-2.71184478349686
5.7272764990914595,-1.0263138630867,0.14413901138305701,4.41333832197189
5.727882192610539,3.5529634806633,2.90559653091431,-1.9406484944343598
5.728487886129618,-2.17831825761795,-3.44120522689819,2.5021127360343898
5.729093579648698,-1.26821083574295,0.5680574684143069,-4.95118804521561
5.729699273167777,-1.0790042927741998,-0.7300431175231931,3.60142670087814
5.730304966686856,1.0621431681633,1.31530356216431,-1.04970122880936
5.730910660205936,2.78416221113205,-2.8472403831481903,-2.02926421709061
5.731516353725015,-2.4561405232429503,-1.54434975814819,2.3488314860343897
5.732122047244094,-2.0513822224617,5.72932455825806,-0.9203701741218561
5.732727740763174,2.9158882853507997,-1.90839272689819,1.9560482829093901
5.733333434282253,0.599904398632049,-0.904879543304443,-2.8435708577156102
5.7339391278013325,-1.5412430623054498,0.675833347320557,1.50099457197189
5.734544821320412,-1.5316629841804499,-0.873744289398193,1.87701263837814
5.735150514839491,1.44774131269455,1.85418295669556,-5.45174712724686
5.735756208358571,3.6607393595695497,-4.42316323471069,4.17862640790939
5.7363619018776495,-0.896982808399201,0.127373874664307,-1.78018218584061
5.736967595396729,-3.21296669511795,4.44559408950806,-1.6580361897468598
5.737573288915809,1.61060264081955,-2.20058510971069,6.33893402509689
5.738178982434888,2.4799947306632997,2.63256430435181,-2.8076455647468603
5.738784675953967,-3.2848172810554503,-1.48926430892944,1.3093930094718902
5.739390369473046,-0.5640750935554509,-0.260619289398193,-4.96316314287186
5.739996062992126,0.528053812694549,-1.43657387924194,4.14988617353439
5.7406017565112055,2.4536495158195497,0.730918796539307,-2.3046914631843602
5.741207450030284,0.12808555097580002,-1.65931069564819,-1.18861236162186
5.741813143549364,-2.6309769490242,1.03029623794556,3.80739838056564
5.742418837068444,0.920837015819549,5.731719577789311,-1.62929595537186
5.7430245305875225,0.657384867382049,-3.5729313011169404,3.5894516032218897
5.743630224106602,-0.19045204668045,1.30332846450806,-6.8504385334968605
5.744235917625681,-2.15436806230545,-2.26046059799194,5.24201507978439
5.744841611144761,-1.03349892168045,2.4816780738830597,-1.8376626545906098
5.74544730466384,2.15666709394455,-2.1790299339294403,-0.264134822559356
5.746052998182919,1.7423287150383,-3.14182778549194,0.550171818065644
5.746658691701999,-2.8273685505867,4.541394870758061,-1.49277984209061
5.747264385221078,-1.5101078083992,0.39322104263305696,3.8552987711906397
5.747870078740157,2.8224825236320497,1.1859725074768102,-4.21352202959061
5.748475772259237,0.20712119550705,-4.15013100814819,6.8347030680656395
5.749081465778316,-1.7064994099617,3.7654085426330597,-4.27339751787186
5.7496871592973955,-3.06926552324295,-2.33949624252319,0.159783634471894
5.750292852816475,1.4453462931633,-1.4269938011169399,-0.019842830371856402
5.750898546335554,2.8296675822257997,1.48295492935181,0.11427826337814401
5.751504239854634,-2.62379189043045,-2.9502262229919403,2.55001312665939
5.7521099333737125,-0.11381142168045,4.98447348403931,-5.52599273271561
5.752715626892792,0.698100199413299,-2.03772378158569,8.29087494306564
5.753321320411872,0.386747660350799,1.50211508560181,-4.24705230302811
5.753927013930951,-1.68973427324295,-2.30596596908569,-1.72988677568436
5.75453270745003,-1.7711649373054499,-1.4820792503356899,2.2123153727531397
5.755138400969109,3.1721553751945497,4.079156101226809,-0.7143984944343561
5.755744094488189,1.0765132853508002,-6.149972316741939,3.1008676188468898
5.7563497880072685,1.3255953166008,2.52239340591431,-7.50188384599686
5.756955481526347,-3.2632621052742,1.30332846450806,6.75806244306564
5.757561175045427,-1.07660927324295,1.91645346450806,-0.5994375569343561
5.758166868564507,3.3278316447257996,-0.15523843002319299,-2.9202114827156103
5.7587725620835855,-1.7304496052742,-3.43162514877319,3.20145843915939
5.759378255602665,-0.7437015583992009,3.8085188941955597,-1.5813955647468598
5.759983949121744,0.626249613475799,-2.1191544456481903,2.3488314860343897
5.760589642640824,2.5326851603508,-0.816263820648193,-5.76070464677811
5.761195336159903,0.7483956095695491,-1.83893716049194,4.818096622753139
5.761801029678982,-3.9865580037117003,4.18453696060181,-0.0246328694343564
5.762406723198062,0.47296836347579896,2.44575278091431,-2.63520415849686
5.763012416717141,1.99859580488205,-5.32129555892944,5.22045990400314
5.76361811023622,-0.5880252888679509,6.090972507476811,-5.42300689287186
5.7642238037553,-2.7603080037117,-2.9574112815856903,1.70936127119064
5.764829497274379,-0.6239505818367009,-0.045067531585693404,-1.61253081865311
5.7654351907934585,1.9004000041008,0.544107273101807,3.14876800947189
5.766040884312538,1.40463096113205,-3.00291665267944,-2.2448159749031102
5.766646577831617,-2.63337196855545,0.630327976226807,-1.06167632646561
5.767252271350697,-1.1987552693366998,2.0433894996643103,3.2469638102531397
5.767857964869775,2.0632613322258,1.83023276138306,-0.278504939746856
5.768463658388855,-1.11013954668045,-3.3094791526794403,0.504666446971894
5.769069351907935,-0.8227372029304509,1.19315756607056,-4.84580718584061
5.769675045427014,-1.6442289021492,-0.813868801116943,5.63958832197189
5.770280738946093,1.8668697306633,0.877014987945557,-2.26397613115311
5.770886432465172,2.6236959025382998,-3.71423745346069,-0.333590388965606
5.771492125984252,-1.8909159138679499,0.165694187164307,0.497481388378144
5.7720978195033315,-3.0381302693367003,4.148611667633061,-0.25934478349685597
5.77270351302241,2.7458418986320496,-0.674957668304443,0.851944279003144
5.77330920654149,0.0322847697257995,-0.5312564964294431,-1.78736724443436
5.77391490006057,-0.676641011524201,-0.437850734710693,2.81586029462814
5.774520593579648,-1.07181923418045,-0.864164211273193,-0.6976333577156061
5.775126287098728,0.24544150800705,2.80979574966431,-4.32369292802811
5.775731980617807,2.34826865644455,-5.18477944564819,5.59887298994064
5.776337674136887,0.9519722697257991,1.9906990699768101,-5.79183990068436
5.776943367655966,-2.9758597615242,2.1152400856018096,2.4015219157218897
5.777549061175045,1.37110068769455,-1.25934243392944,2.87813080244064
5.778154754694125,2.8033223673820498,3.4301058082580598,-2.58969878740311
5.778760448213204,-3.60574989824295,-3.0172867698669403,4.1403060954093895
5.779366141732283,0.1711959025383,1.11891196060181,-5.72477935380936
5.779971835251363,-0.8251322224617009,-2.3514713401794403,5.75215423994064
5.780577528770442,2.9158882853507997,2.28049643325806,-4.3955435139656105
5.781183222289521,0.6909151408195491,-4.06870034408569,2.71526947431564
5.781788915808601,-2.8225785115242004,3.1331233863830596,-1.02335601396561
5.78239460932768,-0.856267476367951,4.31626303482056,1.1561117594718902
5.78300030284676,1.1244136759758,-3.3933048362731904,1.98718353681564
5.783605996365838,0.966342386913299,0.714153659820557,-5.14278960771561
5.784211689884918,-1.8549906208992,-2.23411538314819,7.1268954508781395
5.784817383403998,-0.817947163867951,3.3462801246643097,-4.14646148271561
5.785423076923077,0.9495772501945491,-3.8747037620544402,0.751353458690644
5.786028770442156,2.91828330488205,-0.631847316741943,-2.55377349443436
5.786634463961236,-3.34229774980545,2.2781014137268096,1.80276703290939
5.787240157480315,-0.968833394336701,1.3655989723205602,-0.156358943653106
5.787845850999394,2.6260909220695496,-0.526466457366943,0.272349552440644
5.788451544518473,-0.2167972615242,-2.5909732933044403,4.0205551188468895
5.789057238037553,-0.793996968555451,2.16074545669556,-4.5751699788093605
5.789662931556633,-3.0213651326179503,-1.12522134017944,-0.38867583818435597
5.790268625075711,1.36631064863205,-0.926434719085693,-1.41613921709061
5.790874318594791,2.6476460978508,-0.358815090179443,2.50690277509689
5.791480012113871,-1.5292679646492,-0.31570473861694304,-2.25918609209061
5.7920857056329496,-0.36768349199295103,1.50930014419556,-0.417416072559356
5.792691399152029,0.803481058788299,0.575242527008057,5.00969818525314
5.793297092671108,0.08737021894454951,0.180064304351807,-2.76214019365311
5.793902786190188,-1.1819901326179498,-2.6077384300231903,0.502271427440644
5.794508479709267,-2.4034500935554504,-0.203138820648193,-0.252159724903106
5.795114173228346,2.2788130900383,3.02774252700806,0.610047306346894
5.795719866747426,2.0249410197258,-4.80397134017944,0.08074798994064361
5.796325560266505,1.24176963300705,1.01832114028931,-5.11165435380936
5.796931253785584,-2.93035439043045,2.57029379653931,7.98670746259689
5.797536947304664,-1.82864540605545,2.34037192153931,-2.6878945881843603
5.798142640823743,3.6080489298820497,-1.52997964096069,-2.5873037678718602
5.7987483343428226,-0.47545937089920104,-2.5550480003356904,3.3930600016593897
5.799354027861902,-2.0849124958992,3.10917319107056,-1.96938872880936
5.799959721380981,0.1951460978508,-1.94910805892944,0.186128849315644
5.800565414900061,2.7338668009758,-0.104943019866943,-4.043475642871861
5.8011711084191395,1.0334029337883002,-2.41374184799194,5.9629159586906395
5.801776801938219,-3.2105716755867,3.80612387466431,-1.96699370927811
5.802382495457299,-0.532939839649201,2.65651449966431,-0.7982241780281061
5.802988188976378,2.4320943400383,-3.8723087425231904,4.9186874430656395
5.803593882495457,0.1903560587883,4.15340170669556,-4.65181060380936
5.804199576014536,-3.57221962480545,-1.99221841049194,0.7010580485343939
5.804805269533616,-0.401213765430451,-0.938409816741943,-1.5718154866218599
5.8054109630526955,2.79853232831955,-0.330074855804443,2.9739315836906397
5.806016656571774,0.429858011913299,-0.32528481674194304,-3.8949844319343603
5.806622350090854,-1.8358304646491999,-0.272594387054443,1.7213363688468901
5.807228043609934,-1.3568265583991999,1.3320686988830601,3.00506683759689
5.8078337371290125,2.4440694376945498,2.11045004653931,-2.0987197834968603
5.808439430648092,-0.990388570117951,-3.1035074729919403,0.07116791181564361
5.809045124167171,-2.55194130449295,0.48423178482055695,-3.7848135334968602
5.809650817686251,-0.2838578083992,0.287840183258057,5.15579437665939
5.8102565112053295,0.920837015819549,-0.653402492523193,-0.7742739827156061
5.810862204724409,3.48350791425705,-3.0699771995544403,-1.8328726155281099
5.811467898243489,-0.777231831836701,0.936890476226807,-0.041398006153106404
5.812073591762568,-3.8500418904304503,3.48519125747681,1.59440033369064
5.8126792852816465,2.8057173869132996,-0.418690578460693,-0.49884673662185597
5.813284978800727,0.29813193769455,-1.0461856956481899,-0.5419570881843561
5.813890672319806,-1.4717874958991999,0.0243880348205566,2.25063568525314
5.8144963658388855,-0.930513081836701,-1.2808976097106899,-2.94176665849686
5.815102059357965,0.8681465861320491,1.66737143325806,-1.55744536943436
5.815707752877044,1.7902291056633,-3.1202726097106903,4.18102142744064
5.816313446396124,0.935207133007049,1.01592612075806,-5.03261870927811
5.8169191399152025,-2.9758597615242,1.2937483863830601,3.25893890790939
5.817524833434282,0.398722758007049,0.934495456695557,0.11906830244064401
5.818130526953362,2.9589986369132997,0.795584323883057,0.143018497753144
5.818736220472441,-2.5734964802742,-1.77906167221069,0.6004672282218939
5.81934191399152,0.013124613475799601,0.637513034820557,-2.9800869709968603
5.8199476075106,-0.980808491992951,-1.15396157455444,4.9115023844718895
5.820553301029679,2.7027315470695497,1.84220785903931,-5.39426665849686
5.821158994548758,1.6920333048820502,-4.17647622299194,3.12242279462814
5.821764688067838,-2.17831825761795,3.27203451919556,-2.53221831865311
5.822370381586917,-1.4047269490242,3.7558284645080597,2.39673187665939
5.822976075105996,0.803481058788299,-2.18381997299194,0.650762638378144
5.8235817686250755,0.975922465038299,-0.27738442611694303,-3.32017974443436
5.824187462144155,-2.8656888630867003,-0.871349269866943,5.11986908369064
5.824793155663234,0.0538399455070495,1.8877132301330601,-3.8087637288093603
5.825398849182314,1.7950191447258002,-3.8124332542419404,1.02917572431564
5.826004542701393,1.59144248456955,-0.016327297210693398,-2.8004605061531103
5.826610236220472,-3.1243509724617002,1.70329672622681,3.6397470133781398
5.827215929739552,-1.32090126543045,2.22062094497681,-1.4831997639656098
5.827821623258631,2.28599814863205,-1.15156655502319,1.0746810954093902
5.82842731677771,0.678940043163299,-1.7215812034606899,2.04466400556564
5.82903301029679,-1.1460648396492,1.11891196060181,-4.39075347490311
5.829638703815869,-3.0860306599617,-0.892904445648193,0.672317814159394
5.8302443973349485,1.1244136759758,0.134558933258057,-1.1790322834968598
5.830850090854028,1.5890474650383,-2.2149552268981902,2.7416146891593898
5.831455784373107,-0.561680074024201,1.37278403091431,-4.23268218584061
5.832061477892187,-1.11492958574295,0.38364096450805696,1.89377777509689
5.832667171411266,1.58665244550705,0.865039890289307,2.90687103681564
5.833272864930345,0.2861568400383,-0.0498575706481934,-1.0856265217781098
5.833878558449425,-1.8837308552742,-2.68677407455444,0.140623478221894
5.834484251968504,-1.62746376543045,1.2889583473205601,-1.29159820146561
5.835089945487583,1.63934287519455,1.51888022232056,2.02789886884689
5.835695639006663,3.1314400431633,-4.12618081283569,-3.52136138505936
5.836301332525742,0.978317484569549,0.603982761383057,-3.17887359209061
5.836907026044821,-4.0296683552742,2.80979574966431,7.70170013837814
5.837512719563901,-0.729331441211701,2.84811606216431,-2.88907622880936
5.83811841308298,3.1218599650382997,-2.85921548080444,0.550171818065644
5.838724106602059,-0.578445210742951,-0.5312564964294431,0.492691349315644
5.839329800121139,-1.5484281208992,1.63384115982056,-0.867679744434356
5.839935493640218,-0.23835243730545,-2.13352456283569,-0.0677432209968564
5.840541187159297,3.0883296916007996,0.663858249664307,-3.31778472490311
5.841146880678377,0.666964945507049,-3.25199868392944,6.40599457197189
5.841752574197456,-2.70043251543045,5.20242026138306,-3.70098784990311
5.842358267716535,-0.0587259724617005,0.326160495758057,3.27091400556564
5.842963961235615,2.4752046916008,-2.21974526596069,1.34292328290939
5.843569654754694,-0.580840230274201,2.40743246841431,-2.1322500569343603
5.844175348273773,-2.7890482380867003,-1.57548501205444,-0.26892486162185597
5.844781041792853,-1.10534950761795,0.467466648101807,-1.74904693193436
5.845386735311932,1.9435103556633,-0.684537746429443,3.01464691572189
5.845992428831012,2.8105074259758,-1.66889077377319,-4.44104888505936
5.846598122350091,-2.5303861287117,-0.332469875335693,2.2290805094718897
5.84720381586917,-2.04419716386795,4.46235922622681,0.751353458690644
5.84780950938825,2.8775679728508,-1.36472329330444,2.15004486494064
5.848415202907329,-0.535334859180451,-0.380370265960693,-5.03980376787186
5.849020896426408,-2.68127235918045,-1.5467447776794399,0.751353458690644
5.849626589945488,-0.7437015583992009,-0.437850734710693,3.68525238447189
5.850232283464567,0.8897017619132991,0.709363620758057,-4.80748687334061
5.850837976983646,3.1745503947258,-3.29510903549194,4.03492523603439
5.851443670502726,-0.669455952930451,4.1677718238830606,-1.9310684163093599
5.852049364021805,-3.7997464802742003,0.170484226226807,1.61595550947189
5.8526550575408836,2.75063193769455,-0.744413234710693,-0.8173843342781061
5.853260751059964,-0.12818153886795,0.048338230133056596,0.6555526774406439
5.853866444579043,-2.2860941365242002,1.0710115699768101,1.74289154462814
5.854472138098122,-1.26342079668045,-0.370790187835693,-5.06614898271561
5.855077831617202,1.0046626994132999,-3.2831339378356903,2.29135101728439
5.855683525136281,3.3038814494133,0.529737155914307,0.07595795087814361
5.85628921865536,-0.322178120899201,1.86376303482056,-1.0257510334968598
5.85689491217444,-2.0633573201179503,-0.35642007064819303,3.3331845133781397
5.857500605693519,1.19386924238205,1.67455649185181,-2.81962066240311
5.858106299212598,1.13159873456955,-0.5312564964294431,3.09128754072189
5.858711992731678,-2.56152138261795,-1.21623208236694,-1.49277984209061
5.8593176862507566,-0.9065628865242009,0.141743991851807,-1.42571929521561
5.859923379769836,0.360402445507049,-0.37558022689819304,2.71526947431564
5.860529073288916,2.57819053144455,0.520157077789307,-3.89977447099686
5.861134766807995,1.27529990644455,-0.291754543304443,1.99676361494064
5.861740460327075,-1.7256595662117,1.91166342544556,-0.908395076465606
5.862346153846154,-0.619160542774201,1.0710115699768101,1.20161713056564
5.862951847365233,-0.1880570271492,-0.47377602767944305,-0.886839900684356
5.863557540884313,-0.631135640430451,-0.330074855804443,-0.8006191975593561
5.864163234403392,-1.6945243123054499,0.592007663726807,3.83613861494064
5.864768927922471,0.8298262736320491,-0.114523097991943,-2.39330718584061
5.865374621441551,1.9626705119133,-4.004034816741941,-0.992220760059356
5.8659803149606295,0.7939009806632991,2.62298422622681,-1.46882964677811
5.866586008479709,-3.81172157793045,2.0793147926330597,3.8984091227531397
5.867191701998789,0.547213968944549,0.515367038726807,-3.0567275959968603
5.867797395517868,2.0153609416008003,-1.7814566917419399,1.98478851728439
5.8684030890369465,-0.952068257617951,-0.8881144065856931,1.01959564619064
5.869008782556027,-0.600000386524201,1.78712240982056,-3.66027251787186
5.869614476075106,-2.2621439412117,-1.19707192611694,1.08905121259689
5.870220169594185,2.5494502970695496,-1.39825356674194,-0.491661678028106
5.870825863113265,0.678940043163299,-1.58985512924194,2.30811615400314
5.871431556632344,-1.80948524980545,3.66481772232056,-4.85299224443436
5.872037250151423,0.0322847697257995,-0.981520168304443,3.14876800947189
5.8726429436705025,2.24288779706955,-0.6294522972106931,2.08777435712814
5.873248637189582,-1.60830360918045,1.02311117935181,-1.88316802568436
5.873854330708661,-1.22510048418045,-1.69523598861694,-0.37909576005935597
5.874460024227741,-1.32569130449295,0.898570163726807,0.234029239940644
5.8750657177468195,1.6513179728508,0.582427585601807,0.404075626659394
5.875671411265899,2.85122275800705,-4.95006753158569,-0.9754556233406061
5.876277104784979,-1.95318642168045,4.47912436294556,-2.31666656084061
5.876882798304058,-0.932908101367951,1.09017172622681,6.1760726969718895
5.8774884918231365,1.43816123456955,-0.701302883148193,-3.27467437334061
5.878094185342217,-0.00364052324295045,1.3320686988830601,-3.2363540608406103
5.878699878861296,-1.90528603105545,-3.7525577659606904,5.34739593915939
5.8793055723803755,0.722050394725799,4.79526694107056,-4.10814117021561
5.879911265899455,-0.1880570271492,-4.0231949729919405,2.28416595869064
5.880516959418534,3.5409883830070497,-1.37909341049194,-5.18589995927811
5.881122652937614,-1.19157021074295,1.37278403091431,6.58083099775314
5.8817283464566925,-3.5362943318367,3.9378499488830596,-1.48559478349686
5.882334039975772,4.93967978925705,-1.14198647689819,-1.78018218584061
5.882939733494852,-0.23835243730545,-4.05912026596069,5.77849945478439
5.883545427013931,-1.96276649980545,5.35570151138306,-5.48527740068436
5.8841511205330095,-1.8957059529304499,-3.2064933128356903,2.9835116618156396
5.88475681405209,-0.880217671680451,1.43744955825806,-2.61364898271561
5.885362507571169,3.6008638712882997,-1.4006485862731899,1.3357382243156402
5.885968201090248,-0.42516396074295104,-2.21016518783569,-2.0819546467781103
5.886573894609328,-4.1254691365242,4.447989109039311,-0.7407437092781061
5.887179588128407,2.1494820353508,0.340530612945557,3.09847259931564
5.887785281647486,1.8285494181633,-0.0785978050231934,-0.369515681934356
5.8883909751665655,-2.35075966386795,-0.698907863616943,-2.6040689045906102
5.888996668685645,-1.7543998005866999,-2.03293374252319,0.6172323649406439
5.889602362204724,-0.815552144336701,2.8912264137268098,2.99788177900314
5.890208055723804,3.4667427775383,-2.42332192611694,-1.41613921709061
5.8908137492428825,1.3878658244133,-3.23523354721069,-2.72621490068436
5.891419442761962,-3.4979740193367004,5.23595053482056,0.950140079784394
5.892025136281042,-0.9640433552742009,0.0651033668518066,3.80979340009689
5.892630829800121,4.10142295331955,-0.0618326683044434,-3.36808013505936
5.8932365233192,-2.7698880818367,-1.44615395736694,2.8206503336906397
5.89384221683828,-0.5257547810554509,0.26388998794555696,-0.223419490528106
5.894447910357359,-0.29822792558669997,0.47225668716430697,-2.3645669514656102
5.8950536038764385,1.16512900800705,-0.562391750335693,0.219659122753144
5.895659297395518,2.8967281291008,-3.56095620346069,3.15595306806564
5.896264990914597,-3.0429203083992,2.92236166763306,-2.0556094319343603
5.896870684433677,-0.829922261524201,2.03620444107056,-0.216234431934356
5.8974763779527555,3.1122798869132997,-1.97784829330444,1.70217621259689
5.898082071471835,0.09216025800704951,2.6277742652893097,-0.256949763965606
5.898687764990915,-3.42851845293045,-2.59576333236694,-0.019842830371856402
5.899293458509994,-0.37486855058670104,-0.0977579612731934,-0.9012100178718561
5.899899152029073,0.465783304882049,0.5465022926330569,3.32120941572189
5.900504845548153,3.8930562541008,-0.955174953460693,-4.39075347490311
5.901110539067232,-1.6945243123054499,-1.81259194564819,2.24824066572189
5.901716232586311,-2.6788773396492003,4.60845541763306,-0.728768611621856
5.902321926105391,2.8344576212883,0.639908054351807,2.3320663493156397
5.90292761962447,-0.561680074024201,-0.114523097991943,-1.8376626545906098
5.903533313143549,-2.2190335896492,-0.981520168304443,0.107093204784394
5.9041390066626285,-0.489829488086701,0.287840183258057,3.23259369306564
5.904744700181708,0.08976523847579951,1.20273764419556,-2.18733550615311
5.905350393700787,2.6260909220695496,-4.7273307151794395,-0.906000056934356
5.905956087219867,0.1376656291008,1.36320395278931,-1.8208975178718598
5.906561780738946,-5.10982216386795,2.54394858169556,4.48758392744064
5.907167474258025,3.5840987345695496,2.0553645973205596,-4.03150054521561
5.907773167777105,1.2297945353508,-3.54419106674194,4.68158050947189
5.908378861296184,-2.11604774980545,1.56438559341431,-1.72509673662186
5.908984554815263,-0.23116737871169998,-1.19467690658569,-0.982640681934356
5.909590248334343,-1.03349892168045,-0.349235012054443,1.05073090009689
5.910195941853422,1.6082076212883,1.05664145278931,-2.19452056474686
5.910801635372502,0.2574166056633,-3.43881020736694,2.97632660322189
5.911407328891581,-2.5495462849617003,2.30923666763306,-3.65069243974686
5.91201302241066,1.3639156291008,-0.0929679222106934,1.8147421305656402
5.91261871592974,3.1601802775383,0.21359457778930702,2.1859701579093898
5.913224409448819,-2.53757118730545,0.831509616851807,-0.807804256153106
5.913830102967898,-0.990388570117951,-2.8472403831481903,0.547776798534394
5.914435796486978,-1.2466556599617,1.92842856216431,-1.25327788896561
5.915041490006057,1.5028267619133,0.618352878570557,1.84348236494064
5.915647183525136,3.1889205119132997,-5.41470132064819,-3.95246490068436
5.916252877044216,-1.0885843708992,3.52830160903931,-2.93458159990311
5.916858570563295,-3.2728421833992,1.9523787574768101,8.638152775096891
5.917464264082374,2.3602437541007997,2.39066733169556,-5.9858364827156105
5.918069957601454,0.499313578319549,-4.27946206283569,4.38220306806564
5.918675651120533,-1.8262503865242,0.8075594215393069,-1.49038482255936
5.919281344639612,-0.540124898242951,1.96674887466431,-1.31315337724686
5.919887038158692,0.1472457072258,-2.89514077377319,2.18836517744064
5.920492731677771,3.5529634806633,0.21838461685180702,-3.92611968584061
5.92109842519685,-2.3292044880867,-2.8137101097106902,5.06957367353439
5.92170411871593,-1.94360634355545,7.17831137466431,-4.282977595996861
5.922309812235009,2.11355674238205,-3.49389565658569,6.14733246259689
5.922915505754088,1.6585030314445501,0.42196127700805697,-3.9979702717781103
5.923521199273168,-2.87287392168045,1.30332846450806,2.28656097822189
5.924126892792247,-1.62746376543045,-2.14789468002319,-0.7766690022468561
5.924732586311326,0.317292093944549,1.83981283950806,-4.13448638505936
5.925338279830406,1.4549263712883,-2.70353921127319,5.46954193525314
5.925943973349485,1.5818624064445501,-0.363605129241943,-6.4049649006843605
5.926549666868565,-3.7566361287117003,-0.133683254241943,4.32951263837814
5.927155360387644,0.11132041425705,5.458687351226811,-1.04730620927811
5.927761053906723,2.28120810956955,-3.62322671127319,2.7080844157218897
5.928366747425803,-0.8227372029304509,0.601587741851807,-4.58475005693436
5.928972440944882,-3.0093900349617,-1.6832608909606899,3.15834808759689
5.929578134463961,0.0490499064445495,2.31402670669556,2.38715179853439
5.930183827983041,1.28487998456955,-1.13959145736694,-2.61604400224686
5.93078952150212,3.07635459394455,-6.02303628158569,1.1345565836906402
5.931395215021199,-2.3914749958992,5.50179770278931,-3.51417632646561
5.932000908540279,-3.6871805623054503,0.735708835601807,5.476726993846889
5.932606602059358,4.5876119181633,-0.109733058929443,-2.5513784749031103
5.9332122955784365,-0.7868119099617009,-0.8689542503356931,0.9764852946281439
5.933817989097517,-3.05968544511795,1.03748129653931,0.023267521190643597
5.934423682616596,0.616669535350799,-1.17551675033569,-3.4590908772468603
5.935029376135675,1.73035361738205,-0.507306301116943,2.8110702555656397
5.935635069654755,1.8980049845695501,-1.43657387924194,-0.276109920215606
5.936240763173834,-0.49461952714920104,0.256704929351807,-1.92148833818436
5.936846456692913,-3.1530912068367,1.75359213638306,3.31402435712814
5.937452150211993,2.45843955488205,1.77754233169556,-1.47601470537186
5.938057843731072,1.5387520548820501,-1.35993325424194,2.83023041181564
5.938663537250151,-3.0884256794929503,0.297420261383057,-3.89737945146561
5.939269230769231,-0.0587259724617005,-1.30484780502319,0.990855411815644
5.9398749242883095,0.480153422069549,0.46267660903930696,1.88898773603439
5.940480617807389,2.95181357831955,0.797979343414307,-3.97881011552811
5.941086311326469,0.736420511913299,-4.114205715179439,3.47209564619064
5.941692004845548,-3.68239052324295,5.25511069107056,-2.99206206865311
5.9422976983646265,0.28855185956955,0.697388523101807,4.24329193525314
5.942903391883707,2.29557822675705,-0.377975246429443,-3.6890127522468603
5.943509085402786,-2.1663431599617002,-1.7048160667419399,1.4985995524406401
5.944114778921866,-1.2083353474617,1.66258139419556,1.37166351728439
5.944720472440945,0.46338828535079896,-0.128893215179443,-1.4736196858406099
5.945326165960024,2.3123433634758,-2.6676139183044403,-0.11564361162185599
5.945931859479104,1.01184775800705,0.651883152008057,-1.1526870686531099
5.9465375529981825,-4.4272415974617,-0.06422768783569341,3.96307465009689
5.947143246517262,0.9088619181632991,3.51393149185181,-4.43386382646561
5.947748940036342,2.1111617228507997,-3.78369301986694,5.59408295087814
5.948354633555421,-1.2131253865242,3.1762337379455596,-3.5093862874031103
5.9489603270744995,-3.0429203083992,-2.7873648948669403,-1.1359219319343599
5.94956602059358,-0.0323807576179505,-0.440245754241943,0.746563419628144
5.950171714112659,1.5315669962883,2.72836508560181,0.507061466503144
5.950777407631738,0.41309287519454896,-4.97162270736694,1.1896420329093902
5.951383101150818,-0.614370503711701,3.25766440200806,-5.42540191240311
5.951988794669897,-2.2070584919929503,-0.243854152679443,6.76524750165939
5.952594488188976,3.23921592206955,0.6878084449768069,-1.84484771318436
5.9532001817080555,-0.00603554277420045,-0.148053371429443,-0.7982241780281061
5.953805875227135,-2.9040091755867,-1.87486245346069,1.32136810712814
5.954411568746214,0.0227046916007996,2.47928305435181,-2.2280508381843602
5.955017262265294,-0.16650185136794998,-1.23778725814819,3.73794281415939
5.9556229557843725,3.6200240275383,-2.11675942611694,-6.64686187334061
5.956228649303452,0.805876078319549,-1.31682290267944,2.2051303141593896
5.956834342822532,-4.35778603105545,5.279060886383061,3.14876800947189
5.957440036341611,1.7614888712883001,0.9081502418518069,-2.9872720295906103
5.9580457298606895,2.1830123087883,-4.653085109710689,3.5295761149406397
5.95865142337977,-2.4657206013679502,3.8252840309143097,-2.47952788896561
5.959257116898849,0.0682100626945495,-1.5419547386169399,1.27825775556564
5.9598628104179285,0.2813668009758,-0.112128078460693,-3.06870269365311
5.960468503937008,2.1973824259757997,-0.902484523773193,1.3956137125968902
5.961074197456087,1.23697959394455,-1.31442788314819,1.2590975993156401
5.961679890975167,-4.5469925740242,3.7294832496643098,-2.28074126787186
5.9622855844942455,1.6177876994133,-1.41022866439819,3.49844086103439
5.962891278013325,2.4536495158195497,1.92363852310181,-3.15731841630936
5.963496971532405,-3.3111624958992003,-1.06534585189819,3.97265472822189
5.964102665051484,-0.0419608357429505,0.20880453872680702,-4.14646148271561
5.964708358570563,-1.5005277302742,-0.339654933929443,1.03396576337814
5.965314052089643,0.959157328319549,0.0674983863830566,0.8423642008781439
5.965919745608722,3.2847212931632996,-2.3155460472106904,-3.9117495686531103
5.966525439127801,-3.84525185136795,0.479441745758057,3.80739838056564
5.967131132646881,-1.84780556230545,5.88021078872681,-1.6197158772468598
5.96773682616596,2.8919380900383,-4.8734269065856894,2.35362152509689
5.968342519685039,0.34363730878829896,2.08410483169556,-4.1823867756843605
5.9689482132041185,-2.8225785115242004,-2.72509438705444,4.78217132978439
5.969553906723198,0.755580668163299,1.69850668716431,-1.2652529866218598
5.970159600242277,0.0298897501945496,-0.571971828460693,-1.8807730061531098
5.970765293761357,2.7099166056632997,-4.959647609710689,1.52733978681564
5.9713709872804355,-0.30541298418045,3.9282698707580597,-2.31427154130936
5.971976680799515,-4.0679886677742,1.19315756607056,3.53436615400314
5.972582374318595,3.3517818400382997,0.438726413726807,-2.1657803303718604
5.973188067837674,0.46338828535079896,-1.51560952377319,1.68541107587814
5.973793761356752,-2.7794681599617004,1.18357748794556,-1.4736196858406099
5.974399454875833,0.0155196330070496,-0.198348781585693,-3.0830728108406102
5.975005148394912,0.999872660350799,-2.6316886253356904,4.83486175947189
5.9756108419139915,3.0883296916007996,0.445911472320557,-2.19452056474686
5.976216535433071,-0.461089253711701,-0.34444497299194304,-1.6245059163093598
5.97682222895215,-3.3351126912117,0.941680515289307,3.3930600016593897
5.97742792247123,1.14596885175705,4.06239096450806,-1.40416411943436
5.978033615990309,0.14006064863205,-2.03293374252319,3.44814545087814
5.978639309509388,-0.22398232011795,-0.00435219955444337,-5.10686431474686
5.979245003028468,-0.6838260701179509,-1.55153481674194,1.92251800947189
5.979850696547547,-0.16650185136794998,1.73922201919556,-0.587462459278106
5.980456390066626,2.9685787150382996,-1.19946694564819,-1.43050933427811
5.981062083585706,0.645409769725799,-2.9478312034606904,2.5284579508781397
5.981667777104785,-2.32201942949295,5.64070883560181,-2.52982329912186
5.982273470623864,-1.02391884355545,-0.7300431175231931,5.297100529003139
5.982879164142944,2.5039449259757998,1.83502280044556,-6.55585113115311
5.983484857662023,-0.9664383748054509,-4.004034816741941,4.61451996259689
5.984090551181102,-1.2514456990242,2.7044148902893097,-0.903605037403106
5.9846962447001815,-0.657480855274201,-0.41629555892944303,-0.786249080371856
5.985301938219261,1.96027549238205,-2.9238810081481903,-0.965875545215606
5.98590763173834,1.3327803751945502,0.386035984039307,0.947745060253144
5.98651332525742,-4.3266507771492,0.354900730133057,2.21710541181564
5.987119018776498,1.22739951581955,3.26245444107056,-3.85666411943436
5.987724712295578,1.51001182050705,-4.17887124252319,7.02151459150314
5.988330405814658,-0.1401566365242,4.91741293716431,-6.5774063069343605
5.988936099333737,-3.5434793904304502,-4.46866860580444,2.91166107587814
5.989541792852816,-0.7868119099617009,0.47225668716430697,-1.73228179521561
5.990147486371896,2.0920015666008,1.78712240982056,1.1992221110343901
5.990753179890975,0.683730082225799,-4.593209621429439,0.9788803141593939
5.991358873410055,-0.319783101367951,3.0469026832580597,-5.78704986162186
5.991964566929134,-2.26932899980545,-1.52279458236694,7.61068939619064
5.992570260448213,1.7566988322258001,3.7558284645080597,-3.51657134599686
5.993175953967293,-0.458694234180451,-1.49405434799194,0.322644962596894
5.993781647486372,-1.6178836873054498,-2.71311928939819,0.128648380565644
5.994387341005451,0.00354453535079955,3.09240805435181,0.0136874430656436
5.994993034524531,-0.506594624805451,-3.0939273948669404,3.03620209150314
5.99559872804361,4.44151572675705,0.896175144195557,-8.02399810380936
5.996204421562689,-1.0981644490242,-2.91190591049194,7.76397064619064
5.996810115081769,-3.5650345662117,5.944876316070561,-3.33694488115311
5.997415808600848,1.51959189863205,0.0603133277893066,-0.261739803028106
5.998021502119927,1.7998091837883001,-4.6411100120544395,4.36304291181564
5.998627195639007,-0.441929097461701,4.052810886383059,-3.64111236162186
5.999232889158086,-2.4154251912117,-2.88556069564819,3.85050873212814
5.999838582677165,0.24783652753830002,2.69004477310181,-6.95102935380936
6.000444276196245,2.0488912150383,-3.57772134017944,5.23003998212814
6.001049969715324,1.80699424238205,0.479441745758057,-1.33470855302811
6.001655663234403,-3.3375077107429503,3.01576742935181,-1.75862701005936
6.002261356753483,0.420277933788299,-1.19707192611694,3.96786468915939
6.002867050272562,2.1159517619133,3.65763266372681,-2.63999419755936
6.003472743791641,-2.8992191365242004,-3.02447182846069,3.46491058759689
6.004078437310721,-0.27667274980545,0.716548679351807,-5.52599273271561
6.0046841308298,-1.8549906208992,-0.943199855804443,4.08282562665939
6.005289824348879,2.1446919962882998,0.762054050445557,-1.54547027177811
6.005895517867959,2.79853232831955,-2.6939591331481902,-1.7945523030281099
6.006501211387038,-3.2177567341804503,0.230359714508057,2.4254721110343898
6.007106904906118,-1.74721474199295,5.38204672622681,-1.96699370927811
6.007712598425197,1.62976279706955,-3.79806313705444,1.86264252119064
6.008318291944276,1.0765132853508002,1.02550619888306,-2.56574859209061
6.008923985463356,-2.5926566365242003,-2.31075600814819,4.82288666181564
6.009529678982435,-0.451509175586701,2.3116316871643097,-3.1333682209968603
6.010135372501514,0.314897074413299,-1.79103676986694,0.0184774821281436
6.010741066020594,3.17694541425705,-3.38132973861694,-0.194679256153106
6.011346759539673,-0.911352925586701,3.19778891372681,-0.7958291584968561
6.011952453058752,-4.329045796680449,2.21104086685181,2.1189096110343897
6.012558146577832,2.8129024455070497,-1.14677651596069,-1.36105376787186
6.013163840096911,1.6848482462883,-1.72876626205444,1.39800873212814
6.0137695336159895,-3.3015824177742004,1.80149252700806,-1.22453765459061
6.01437522713507,-0.698196187305451,0.467466648101807,-2.7142398030281103
6.014980920654149,0.33405723066329895,-4.03517007064819,4.64086517744064
6.015586614173228,4.7600533244133,2.4984432106018097,-5.25296050615311
6.016192307692308,-0.640715718555451,-1.85091225814819,0.827994083690644
6.016798001211387,-3.40935829668045,0.742893894195557,1.9392831461906401
6.017403694730466,1.5698873087883,4.71623129653931,-0.0677432209968564
6.018009388249546,-0.480249409961701,-3.80045815658569,4.05169037275314
6.018615081768625,0.846591410350799,1.7511971168518101,-8.395226131153109
6.019220775287704,-1.9004959919929498,-3.09871743392944,5.14142425947189
6.019826468806784,1.0717232462883,3.5690169410705597,-2.8172256428718603
6.0204321623258625,2.21893760175705,-4.57165444564819,2.31051117353439
6.021037855844942,1.5411470744133,-0.701302883148193,-2.06758452959061
6.021643549364022,-3.39977821855545,5.42755209732056,0.487901310253144
6.022249242883101,-1.8070902302742,-1.31682290267944,4.67439545087814
6.0228549364021795,4.97321006269455,0.752473972320557,-6.32592925615311
6.02346062992126,-1.50292274980545,-4.09265053939819,6.88260345869064
6.024066323440339,-2.3866849568367003,4.63240561294556,-3.29143951005936
6.024672016959419,-0.6479007771492009,-2.4185318870544403,0.025662540721893598
6.025277710478498,1.6656880900383,-2.20777016830444,-1.43769439287186
6.025883403997577,1.7231685587883,1.56199057388306,1.23514740400314
6.026489097516657,-3.5674295857429503,-0.016327297210693398,2.4182870524406397
6.0270947910357355,0.16401084394455,3.18581381607056,-3.9021694905281104
6.027700484554815,3.2895113322258,-3.9585294456481903,4.8516268961906395
6.028306178073895,-0.611975484180451,2.85290610122681,-2.84596587724686
6.028911871592974,-4.23803505449295,-0.655797512054443,-0.7742739827156061
6.0295175651120525,-1.19157021074295,-2.18381997299194,0.684292911815644
6.030123258631133,2.39137900800705,2.48646811294556,0.27953461103439403
6.030728952150212,1.23218955488205,-4.38963296127319,-0.314430232715606
6.031334645669291,0.0466548869132995,1.76556723403931,-4.60391021318436
6.031940339188371,-1.3328763630867,2.7978206520080597,5.97010101728439
6.03254603270745,0.437043070507049,0.49141684341430697,-0.44855132646560597
6.033151726226529,1.35194053144455,-1.40304360580444,-3.28185943193436
6.0337574197456085,-3.82609169511795,-1.92515786361694,2.7943051188468897
6.034363113264688,-0.38684364824295103,3.1139632301330598,-0.862889705371856
6.034968806783767,2.2548628947258,-3.60406655502319,1.69259613447189
6.035574500302847,3.10030478925705,1.22189780044556,-7.01569488115311
6.0361801938219255,-0.449114156055451,-1.43657387924194,7.452618107128139
6.036785887341005,-3.75424110918045,4.4000887184143105,-0.870074763965606
6.037391580860085,1.5004317423820501,1.51888022232056,-4.46499908037186
6.037997274379164,1.91716514081955,-6.53796548080444,5.97728607587814
6.038602967898244,-1.8645706990242,5.83949545669556,-4.4817642170906105
6.039208661417323,-1.8933109333992,-2.96938637924194,3.82416351728439
6.039814354936402,2.1590621134758,1.1739974098205601,-3.90935454912186
6.0404200484554815,0.920837015819549,-2.88556069564819,4.6193100016593895
6.041025741974561,1.7279585978508,0.5872176246643069,-3.40879546709061
6.04163143549364,-3.67281044511795,2.50323324966431,0.7154281657218939
6.04223712901272,-0.24074745683669999,0.0579183082580566,2.4015219157218897
6.0428428225317985,3.3853121134757997,1.76556723403931,-2.69268462724686
6.043448516050878,-4.388921284961699,-2.9143009300231904,3.63495697431564
6.044054209569958,-0.28864784746169997,2.11045004653931,-5.40384673662186
6.044659903089037,0.1711959025383,-1.88204751205444,5.01448822431564
6.045265596608116,1.18907920331955,1.89489828872681,-3.4327456624031103
6.045871290127196,1.92195517988205,-4.49740884017944,1.2495175211906402
6.046476983646275,-2.4034500935554504,2.66369955825806,0.38970550947189403
6.047082677165354,-3.0189701130867004,4.66833090591431,1.0411508219718901
6.047688370684434,3.41644736738205,-3.49389565658569,-1.8711929280281099
6.048294064203513,1.11722861738205,0.194434421539307,-0.692843318653106
6.048899757722592,-4.168579488086699,-0.411505519866943,5.26357025556564
6.0495054512416715,1.12201865644455,1.2338728981018101,-4.42667876787186
6.050111144760751,-0.21919228105545,-2.65563882064819,3.23259369306564
6.05071683827983,1.9339302775383,-0.804288722991943,-1.84724273271561
6.05132253179891,-0.8275272419929509,0.31418539810180696,1.61595550947189
6.0519282253179885,-3.90752235918045,3.5953621559143096,-1.3586587483406098
6.052533918837068,3.7804903361320497,-0.8306339378356931,-0.012657771778106399
6.053139612356148,0.901676859569549,-2.29399087142944,2.9308212321281397
6.053745305875227,-3.6464652302742,3.14749350357056,-3.89977447099686
6.054350999394306,0.47057334394454897,-1.7599015159606899,1.68062103681564
6.054956692913386,-0.1545267537117,-1.7048160667419399,-0.31922027177810597
6.055562386432465,3.8259957072258,0.994370944976807,-3.82313384599686
6.0561680799515445,-0.508989644336701,-3.34061440658569,2.7775399821281397
6.056773773470624,-3.20338661699295,4.77850180435181,-1.0640713459968598
6.057379466989703,2.3219234416008,1.48774496841431,3.51041595869064
6.057985160508783,0.607089457225799,-3.06518716049194,0.444790958690644
6.058590854027862,-1.1700150349617,1.36320395278931,-4.17280669755936
6.059196547546941,-1.7160794880866999,-2.1550797386169402,3.3667147868156397
6.059802241066021,1.1747090861320502,3.48519125747681,-1.91669829912186
6.0604079345851,1.92195517988205,-3.86991372299194,1.41477386884689
6.061013628104179,2.7578169962883,-0.840214015960693,-3.62434722490311
6.061619321623259,-3.80214149980545,4.76173666763306,2.9475863688468897
6.062225015142338,-1.11013954668045,0.580032566070557,0.7824887125968939
6.062830708661417,4.61395713300705,-0.605502101898193,-1.62690093584061
6.063436402180497,-3.1962015583992,-1.41741372299194,4.44447357587814
6.064042095699576,-1.2274955037117,1.60031088638306,-3.3824502522468602
6.064647789218655,0.317292093944549,-1.1060611839294399,-0.927555232715606
6.0652534827377345,0.7939009806632991,-0.952779933929443,-1.04012115068436
6.065859176256814,2.3841939494132998,-1.1827018089294399,0.8399691813468939
6.066464869775893,-3.5841947224617003,2.5607137184143096,-0.278504939746856
6.067070563294973,-1.16762001543045,0.754868991851807,2.0494540446281397
6.067676256814052,5.0282955119133,-1.9874283714294398,1.06510101728439
6.068281950333131,-1.9172611287116998,1.30093344497681,-0.149173885059356
6.068887643852211,-2.9614896443367003,0.409986179351807,-2.61843902177811
6.06949333737129,-1.1939652302741999,-1.41741372299194,-0.09408843584060639
6.070099030890369,1.18428916425705,1.86376303482056,0.808833927440644
6.070704724409449,3.10030478925705,-4.63152993392944,-2.30948150224686
6.071310417928528,-1.39275185136795,1.11651694107056,-0.393465877246856
6.071916111447607,-2.0418021443367,3.3893904762268097,4.77977631025314
6.072521804966687,1.8620796916008,-0.327679836273193,-2.25679107255936
6.073127498485766,-0.26709267168045,-0.9695450706481931,-1.25327788896561
6.073733192004846,-3.0908206990242,-1.25694741439819,1.24472748212814
6.074338885523925,0.537633890819549,1.73203696060181,-1.02814605302811
6.074944579043004,0.1759859416008,-2.5287027854919404,0.111883243846894
6.075550272562084,4.03436240644455,0.716548679351807,-4.62307036943436
6.076155966081163,-1.6394388630866998,-3.63999184799194,7.36160736494064
6.076761659600242,-3.6512552693367,7.82975668716431,-5.12841949052811
6.077367353119322,2.1590621134758,-1.61620034408569,1.98239349775314
6.077973046638401,1.7758589884758,-3.0939273948669404,0.5813070719718939
6.07857874015748,-1.5771683552742,3.86120932388306,-1.5813955647468598
6.07918443367656,-1.1772000935554499,-2.98136147689819,1.39800873212814
6.079790127195639,0.762765726757049,1.5332503395080601,-2.17057036943436
6.080395820714718,1.82615439863205,-3.1298526878356903,5.26596527509689
6.081001514233798,2.1039766642570497,0.00762289810180663,-4.67576079912186
6.081607207752877,-4.5565726521492,1.93561362075806,1.9009628336906401
6.082212901271956,1.2489546916008,2.1391902809143097,-0.470106502246856
6.082818594791036,2.31473838300705,-0.37558022689819304,1.95365326337814
6.083424288310115,-3.4812088826179504,-0.0570426292419434,-1.12634185380936
6.084029981829194,-0.33654823808670103,-0.962360012054443,-2.3046914631843602
6.084635675348274,0.0322847697257995,-0.674957668304443,3.58466156415939
6.085241368867353,1.71598350019455,1.89010824966431,-3.7584683186531103
6.085847062386432,1.52917197675705,-6.595445949554439,2.24824066572189
6.086452755905512,-2.1136527302742003,6.0837874488830606,-2.18254546709061
6.087058449424591,-2.98783485918045,2.4218025856018097,5.63479828290939
6.087664142943671,3.4978780314445497,-1.84372719955444,-5.37750152177811
6.08826983646275,0.1041353556633,-1.9658731956481899,1.46506927900314
6.088875529981829,-2.4776956990242,0.594402683258057,1.35010834150314
6.089481223500909,-0.34612831621170104,0.833904636383057,-2.90584136552811
6.090086917019988,-0.2455374958992,-3.13943276596069,3.01225189619064
6.090692610539067,3.56972861738205,1.12130698013306,-4.85538726396561
6.091298304058147,-2.1807132771492004,-2.99812661361694,6.5281405680656395
6.091903997577226,-2.7938382771492,6.330474460601811,-6.72589751787186
6.092509691096305,2.5566353556632997,-2.11436440658569,4.11875091962814
6.093115384615385,0.901676859569549,-1.41980874252319,2.2985360758781397
6.093721078134464,-2.75791298418045,2.02422934341431,-3.3561050374031103
6.0943267716535425,-0.760466695117951,-3.19212319564819,3.18229828290939
6.094932465172623,0.1376656291008,1.23626791763306,-4.12730132646561
6.095538158691702,3.32064658613205,-0.823448879241943,0.231634220409394
6.096143852210781,-0.334153218555451,-2.20777016830444,0.945350040721894
6.096749545729861,-2.6261869099617003,4.84316733169556,-1.2987832600593598
6.09735523924894,1.5507271525383,-0.459405910491943,5.69946381025314
6.097960932768019,1.3806807658195501,-0.0235123558044434,-4.40512359209061
6.098566626287099,-1.4550223591804499,-1.66410073471069,-0.256949763965606
6.099172319806178,-1.8406205037116998,-0.6486124534606931,1.86503754072189
6.099778013325257,0.47296836347579896,3.08282797622681,-1.50714995927811
6.100383706844337,2.5805855509758,-5.49613198471069,1.76684173994064
6.1009894003634155,2.5518453166008,1.34404379653931,-5.9523062092781105
6.101595093882495,-5.05234169511795,2.55592367935181,5.76891937665939
6.102200787401575,0.2526265666008,2.3188167457580597,-2.2879263264656102
6.102806480920654,3.39249717206955,-2.15747475814819,2.03747894697189
6.1034121744397325,-2.1711331990242,-0.124103176116943,1.85066742353439
6.104017867958813,-0.736516499805451,0.280655124664307,-2.37654204912186
6.104623561477892,-0.698196187305451,-0.559996730804443,-0.664103084278106
6.1052292549969716,1.34715049238205,0.735708835601807,-1.27483306474686
6.105834948516051,1.6201827189445501,-4.09265053939819,4.77019623212814
6.10644064203513,-3.04052528886795,4.122266452789311,-5.64574370927811
6.10704633555421,-1.0358939412116999,-0.624662258148193,4.93066254072189
6.1076520290732885,3.51224814863205,0.644698093414307,-0.803014217090606
6.108257722592368,-1.1604349568366998,-0.318099758148193,0.475926212596894
6.108863416111448,-1.70889442949295,-0.548021633148193,-1.9957339436531099
6.109469109630527,-2.55673134355545,0.0962386207580566,-0.326405330371856
6.1100748031496055,1.02621787519455,0.271075046539307,3.57029144697189
6.110680496668686,4.0607076212883,-1.98982339096069,-5.24817046709061
6.111286190187765,-2.0561722615242,-1.82217202377319,2.03268890790939
6.111891883706844,-1.09097939043045,4.94375815200806,1.64230072431564
6.112497577225924,1.04537803144455,-0.595922023773193,1.3093930094718902
6.113103270745003,0.6885201212882991,-1.30005776596069,-2.8675210530281103
6.113708964264082,-1.3616165974616998,-1.35274819564819,1.4722543375968902
6.1143146577831615,-1.5723783162117,1.73922201919556,0.126253361034394
6.114920351302241,1.11243857831955,-1.26652749252319,-2.84117583818436
6.11552604482132,4.5157613322258,-1.8030118675231899,0.428025821971894
6.1161317383404,-1.9220511677742,-0.545626613616943,2.65299896650314
6.1167374318594785,-3.10758583574295,4.79047690200806,-2.57053863115311
6.117343125378558,1.75430381269455,0.405196140289307,1.3620834391593901
6.117948818897638,1.7087984416008,-2.02574868392944,0.246004337596894
6.118554512416717,-0.11860146074295,0.340530612945557,0.315459904003144
6.1191602059357955,-2.1567630818367003,0.44112143325805697,-2.01010406084061
6.119765899454876,-0.1784769490242,0.326160495758057,0.473531193065644
6.120371592973955,2.9542085978508,-2.0952042503356902,2.01113373212814
6.1209772864930345,1.2345845744133002,-0.40432046127319304,-3.89737945146561
6.121582980012114,-2.8944290974617,0.8458797340393069,2.56917328290939
6.122188673531193,0.585534281444549,4.1605867652893105,-0.312035213184356
6.122794367050273,1.3758907267570502,-0.751598293304443,3.16792816572189
6.123400060569352,-1.16762001543045,-0.308519680023193,-4.19675689287186
6.124005754088431,-2.35554970293045,-1.6281754417419398,0.08793304853439361
6.124611447607511,-0.2024271443367,1.14525717544556,1.74528656415939
6.12521714112659,2.8009273478508,-0.18637368392944298,-2.07955962724686
6.125822834645669,1.0549581095695502,-3.9752945823669403,1.5369198649406401
6.126428528164749,-1.7807450154304498,4.2468074684143104,-1.78976226396561
6.127034221683828,-3.2943973591804503,1.57636069107056,3.94391449384689
6.127639915202907,3.4188423869133,0.043548191070556595,-4.16083159990311
6.128245608721987,0.827431254100799,-3.1561979026794402,1.5153646891593902
6.128851302241066,-3.1411161091804503,1.9691438941955601,-0.0845083577156064
6.129456995760145,-0.899377827930451,-0.586341945648193,-1.61253081865311
6.1300626892792245,1.12201865644455,-2.91190591049194,0.710638126659394
6.130668382798304,2.48238975019455,1.40631430435181,-2.2352358967781103
6.131274076317383,-1.87175575761795,-2.6149234886169404,4.59535980634689
6.131879769836463,-1.4095169880867,4.294707859039311,-3.89258941240311
6.1324854633555415,1.6034175822258,-0.13128823471069298,3.1631381266593896
6.133091156874621,0.8106661173820491,-1.82935708236694,1.87701263837814
6.133696850393701,-1.6825492146492,1.67934653091431,-4.75240142412186
6.13430254391278,-2.26932899980545,-3.29750405502319,3.92714935712814
6.134908237431859,1.24176963300705,2.70920492935181,-4.89131255693436
6.135513930950939,2.79853232831955,-2.2652506370544403,2.51408783369064
6.136119624470018,0.314897074413299,-1.79103676986694,0.277139591503144
6.136725317989098,-1.87175575761795,5.18326010513306,-3.6291372639656103
6.137331011508177,-0.7269364216804509,-1.2090470237731898,6.22397308759689
6.137936705027256,2.4177242228508,1.90208334732056,-5.29128081865311
6.138542398546336,-1.6011185505866998,-4.02558999252319,4.27203216962814
6.139148092065415,-2.31243935136795,2.5942439918518096,-2.30708648271561
6.139753785584494,0.678940043163299,0.5273421363830569,1.45309418134689
6.140359479103574,3.5218282267570498,-3.96331948471069,0.229239200878144
6.140965172622653,2.26204795331955,1.01353110122681,-3.88061431474686
6.141570866141732,-5.1984378865242,2.04578451919556,6.77722259931564
6.142176559660812,-0.08267616777420049,3.67439780044556,-5.14997466630936
6.142782253179891,3.7541451212882997,-5.0267081565856895,5.65156341962814
6.14338794669897,-2.19268837480545,3.73666830825806,-2.62322906084061
6.14399364021805,-1.9004959919929498,-1.4605240745544399,-1.55744536943436
6.144599333737129,0.408302836132049,0.0579183082580566,-0.139593806934356
6.145205027256208,0.719655375194549,-0.160028469085693,0.6004672282218939
6.1458107207752875,2.6284859416008,-2.96459634017944,0.830389103221894
6.146416414294367,-3.95542274980545,2.6205892066955596,-1.8640078694343598
6.147022107813446,-1.6442289021492,0.192039402008057,2.79909515790939
6.147627801332526,4.04394248456955,2.4984432106018097,-2.66154937334061
6.148233494851605,-1.8981009724617,-3.08434731674194,3.9055941813468897
6.148839188370684,-0.6862210896492009,1.49253500747681,-5.47569732255936
6.149444881889764,-2.5232010701179504,-1.97066323471069,4.07085052900314
6.150050575408843,0.901676859569549,2.70201987075806,-1.23172271318436
6.150656268927922,3.5194332072258,-3.55137612533569,-1.31794341630936
6.151261962447002,-1.6562039998054499,-1.5850650901794399,0.633997501659394
6.151867655966081,-1.5340580037117,6.31131430435181,-1.03054107255936
6.15247334948516,1.83573447675705,-2.4616422386169403,3.61100677900314
6.15307904300424,0.42267295331954896,0.0938436012268066,-3.20042876787186
6.153684736523319,-1.87654579668045,-0.217508937835693,1.51775970869064
6.154290430042399,-0.940093159961701,0.584822605133057,-0.44855132646560597
6.154896123561478,1.22739951581955,0.49141684341430697,-3.07109771318436
6.155501817080557,4.13016318769455,-4.44950844955444,2.55001312665939
6.156107510599637,-0.48503944902420104,0.48183676528930697,-0.5826724202156061
6.156713204118716,-4.4703519490242,5.02997885513306,-0.496451717090606
6.157318897637795,1.8165743205070501,-1.7814566917419399,3.2469638102531397
6.157924591156875,2.1470870158195496,0.584822605133057,-2.62322906084061
6.158530284675954,-2.68127235918045,-0.924039699554443,2.76556488447189
6.159135978195033,-0.1066263630867,0.429146335601807,-5.10686431474686
6.159741671714113,0.0346797892570495,-0.897694484710693,3.5822665446281396
6.160347365233192,2.4105391642570497,-0.188768703460693,-0.156358943653106
6.160953058752271,0.647804789257049,-2.01856362533569,-3.4830410725593604
6.161558752271351,-3.4404935505867003,1.38475912857056,3.23498871259689
6.16216444579043,0.580744242382049,5.28385092544556,-0.134803767871856
6.162770139309509,1.8596846720695501,-3.76692788314819,3.72357269697189
6.163375832828589,-0.2646976521492,2.1823006324768097,-7.33902251787186
6.163981526347668,-3.33271767168045,-2.37063149642944,4.60254486494064
6.164587219866747,-0.18566200761795,1.75359213638306,-1.51433501787186
6.165192913385827,2.5518453166008,-1.67368081283569,-0.165939021778106
6.1657986069049056,1.75909385175705,-4.03996010971069,0.710638126659394
6.166404300423985,-2.35075966386795,5.3317513160705605,-2.3118765217781103
6.167009993943065,-3.3614579060554504,0.920125339508057,5.17016449384689
6.167615687462144,4.5013912150383,0.400406101226807,-4.33806304521561
6.168221380981224,-0.432349019336701,-4.4279532737731895,5.22524994306564
6.168827074500303,-2.3196244099617003,4.47672934341431,-3.10223296709061
6.169432768019382,-2.4154251912117,-1.89402260971069,-0.127618709278106
6.170038461538462,1.5698873087883,-1.61620034408569,-0.570697322559356
6.170644155057541,3.43081748456955,0.8075594215393069,0.9142147868156439
6.17124984857662,-3.4404935505867003,-2.50235757064819,0.571726993846894
6.1718555420957,-0.729331441211701,4.182141941070561,-4.00036529130936
6.1724612356147786,0.8346163126945491,-1.35514321517944,7.00474945478439
6.173066929133858,0.944787211132049,1.9906990699768101,-3.9285147053718603
6.173672622652938,-2.1376029255867,-2.53588784408569,-0.5587222249031061
6.174278316172017,-1.5580081990241998,-2.38021157455444,1.32615814619064
6.1748840096910955,2.7530269572257997,4.8790926246643105,-1.87358794755936
6.175489703210176,0.9280220744132991,-5.2135196800231896,4.32951263837814
6.176095396729255,0.825036234569549,1.00155600357056,-5.53796783037186
6.176701090248334,-2.6357669880867003,2.3451619606018097,3.26851898603439
6.177306783767414,-0.468274312305451,0.809954441070557,0.284324650096894
6.177912477286493,2.4440694376945498,1.01592612075806,-2.57293365068436
6.178518170805572,-1.6202787068367,-3.6854972190856903,4.02774017744064
6.1791238643246515,-1.0095487263679501,3.8324690895080598,-3.33694488115311
6.179729557843731,-0.353313374805451,-1.82935708236694,3.4960458415031397
6.18033525136281,3.1074898478508,-1.67128579330444,-5.76309966630936
6.18094094488189,1.4166060587883,-1.37190835189819,2.7511947672843897
6.1815466384009685,-4.235640034961699,3.4732161598205598,2.66257904462814
6.182152331920048,0.13048057050705,2.92954672622681,-3.9883901936531103
6.182758025439128,2.92786338300705,-4.9740177268981896,5.77849945478439
6.183363718958207,-0.889797749805451,5.22876547622681,-5.09009917802811
6.1839694124772855,-3.1722513630867,-2.5646280784606903,0.526221622753144
6.184575105996366,0.35082236738204897,-0.36600014877319303,-0.381490779590606
6.185180799515445,1.7519087931633002,0.041153171539306595,1.70217621259689
6.1857864930345245,2.1446919962882998,-1.83175210189819,-1.49756988115311
6.186392186553604,-3.2848172810554503,0.594402683258057,-0.723978572559356
6.186997880072683,-1.24905067949295,1.67216147232056,1.92251800947189
6.187603573591763,3.0092940470695497,2.34276694107056,0.12385834150314401
6.1882092671108415,-1.5915384724616999,-3.09153237533569,-0.0509780842781064
6.188814960629921,-0.894587788867951,0.783609226226807,-4.36440826005936
6.189420654149001,-1.8142752888679499,-1.04858071517944,5.31147064619064
6.19002634766808,1.06932822675705,0.999160984039307,-1.5933706624031099
6.190632041187159,3.2799312541008,-3.3669596214294404,-0.747928767871856
6.191237734706239,-1.3903568318367,-0.0929679222106934,0.6411825602531439
6.191843428225318,-2.6932474568367,4.12945151138306,0.5573568766593939
6.192449121744397,2.9087032267570496,-0.32528481674194304,-0.908395076465606
6.193054815263477,-0.22637733964919998,-1.55153481674194,0.0304525797843936
6.193660508782556,-0.532939839649201,0.539317234039307,1.51296966962814
6.194266202301635,-1.79511513261795,-0.7683634300231931,-0.419811092090606
6.1948718958207145,0.575954203319549,2.2924715309143098,-3.57405181474686
6.195477589339794,2.7482369181633,-4.34652260971069,3.30923431806564
6.196083282858873,0.805876078319549,0.278260105133057,-3.62674224443436
6.196688976377953,-3.0572904255867,2.96307699966431,1.00522552900314
6.1972946698970315,0.6501998087882991,0.335740573883057,3.92954437665939
6.197900363416111,3.1218599650382997,1.54283041763306,-1.37302886552811
6.198506056935191,-2.8752689412117003,-2.31075600814819,0.605257267284394
6.19911175045427,-0.772441792774201,0.680623386383057,-3.35850005693436
6.1997174439733485,-0.2215873005867,-1.56590493392944,3.84811371259689
6.200323137492429,2.8464327189445497,2.21343588638306,-3.6890127522468603
6.200928831011508,0.580744242382049,-3.45797036361694,1.97520843915939
6.201534524530587,-1.34485146074295,1.88052817153931,-0.271319881153106
6.202140218049667,-1.4933426716804499,4.48870444107056,1.61595550947189
6.202745911568746,1.0238228556633,-2.26285561752319,0.909424747753144
6.203351605087826,1.4309761759758,-0.471381008148193,-3.13576324052811
6.203957298606905,-3.23212685136795,-0.773153469085693,4.28400726728439
6.204562992125984,-0.0611209919929505,2.12721518325806,-3.0471475178718603
6.205168685645064,1.7135884806633002,-3.43162514877319,1.1225814860343901
6.205774379164143,1.8620796916008,-0.6486124534606931,-3.21240386552811
6.206380072683222,-2.6597171833992004,2.2924715309143098,2.39673187665939
6.206985766202302,-2.4561405232429503,2.6110091285705597,0.648367618846894
6.207591459721381,3.4427925822258,-0.593527004241943,-0.7143984944343561
6.20819715324046,1.37110068769455,-3.76692788314819,4.03732025556564
6.20880284675954,-2.5064359333992003,3.3127498512268096,-4.6613906819343605
6.209408540278619,-2.8800589802742,-1.48926430892944,2.10693451337814
6.210014233797698,1.47648154706955,0.0555232887268066,-2.04363433427811
6.2106199273167775,2.2404927775382997,-1.35514321517944,2.3919418375968897
6.211225620835857,-0.731726460742951,-0.667772609710693,-3.20521880693436
6.211831314354936,-1.76158485918045,1.87334311294556,0.169363712596894
6.212437007874016,1.4573213908195501,0.350110691070557,5.61563812665939
6.2130427013930944,1.0669332072258,1.5667806129455601,-4.85538726396561
6.213648394912174,-2.3244144490242,-3.39090981674194,1.77402679853439
6.214254088431254,-2.00108681230545,0.409986179351807,-1.46643462724686
6.214859781950333,2.0967916056633,1.65060629653931,2.69850433759689
6.215465475469413,2.79853232831955,-3.4028849143981903,-1.00180083818436
6.216071168988492,1.0573531291008,0.699783542633057,-5.16434478349686
6.216676862507571,-3.8332767537117003,1.67934653091431,7.28975677900314
6.21728255602665,-0.7484915974617009,3.95701010513306,-2.8675210530281103
6.21788824954573,2.99971396894455,-2.94304116439819,1.04594086103439
6.218493943064809,-0.995178609180451,-0.179188625335693,-1.39937408037186
6.219099636583889,-1.5148978474616999,1.28177328872681,0.451976017284394
6.219705330102968,0.18317100019455002,-1.28329262924194,0.322644962596894
6.220311023622047,1.73035361738205,0.639908054351807,-3.9883901936531103
6.220916717141127,1.2010543009758001,-3.65436196517944,5.25878021650314
6.221522410660206,-2.66690224199295,4.07197104263306,-2.64957427568436
6.222128104179285,-1.0742142537116999,1.8661580543518101,1.56326507978439
6.222733797698365,3.0739595744133,-2.3586563987731903,1.48662445478439
6.223339491217444,-0.22398232011795,2.18709067153931,-1.18142730302811
6.223945184736523,-3.0980057576179503,-0.6893277854919431,-0.824569392871856
6.224550878255603,-1.11013954668045,-1.83414712142944,-0.671288142871856
6.225156571774682,1.73035361738205,1.00395102310181,0.162178654003144
6.225762265293761,2.6692012736320496,-1.33358803939819,-1.97178374834061
6.22636795881284,-2.02503700761795,-1.39825356674194,2.77274994306564
6.22697365233192,-1.9220511677742,4.5198396949768105,-0.970665584278106
6.227579345850999,2.2261226603508,-0.859374172210693,3.77147308759689
6.228185039370079,0.0346797892570495,-1.49165932846069,-2.4412075764656103
6.228790732889157,-1.6562039998054499,-0.203138820648193,-1.8376626545906098
6.229396426408237,-2.00108681230545,0.651883152008057,3.51520599775314
6.230002119927317,0.8537764689445491,-0.13128823471069298,-1.48798980302811
6.230607813446396,4.0175972697258,-3.92020913314819,-0.489266658496856
6.231213506965475,-0.8442923787117009,0.996765964508057,-1.4400894124031098
6.231819200484555,-4.6356082966804495,3.99054037857056,2.21950043134689
6.232424894003634,2.81769248456955,-0.421085597991943,-0.5036367756843559
6.233030587522714,1.5890474650383,-1.63296548080444,-0.321615291309356
6.233636281041793,-1.90528603105545,1.00155600357056,2.15004486494064
6.234241974560872,-1.7160794880866999,-1.43178384017944,-1.98136382646561
6.234847668079951,0.9926876017570491,1.76077719497681,-1.75862701005936
6.235453361599031,2.2045674845695498,-3.7262125511169404,3.59663666181564
6.23605905511811,1.8812398478508001,0.884200046539307,-6.3379043538093605
6.23666474863719,-4.1901346638679495,1.1692073707580601,4.65523529462814
6.237270442156269,0.781925883007049,2.54873862075806,0.5573568766593939
6.237876135675348,4.0128072306633,-1.8628873558044399,2.5643832438468896
6.238481829194428,-3.5746146443367,0.254309909820557,-2.51066314287186
6.239087522713507,-1.0047586873054501,-0.030697414398193398,-2.02926421709061
6.2396932162325855,0.17838096113205001,-2.09999428939819,3.91756927900314
6.240298909751666,1.9962007853508001,3.4923763160705596,-5.49246245927811
6.240904603270745,1.6273677775383,-5.58235268783569,4.578594669628139
6.241510296789824,-1.92923622636795,3.6288924293518097,-3.24832915849686
6.242115990308904,-2.59026161699295,3.34149008560181,2.8278353922843897
6.242721683827983,3.43081748456955,-0.488146144866943,-2.9273965413093603
6.243327377347062,-0.319783101367951,-3.10111245346069,2.3847567790031396
6.243933070866142,-2.68127235918045,2.60861410903931,1.0746810954093902
6.244538764385221,0.26939170331955,-0.229484035491943,-1.6915664631843599
6.2451444579043,1.2489546916008,-3.69747231674194,0.5837020915031439
6.24575015142338,2.7147066447258,1.41828940200806,-5.97146636552811
6.2463558449424585,-3.61532997636795,-0.981520168304443,6.93529388837814
6.246961538461538,-1.9699515583992,5.26708578872681,-1.93825347490311
6.247567231980618,3.7709102580070497,-3.33821938705444,2.3416464274406397
6.248172925499697,1.4309761759758,-0.701302883148193,-0.589857478809356
6.2487786190187755,-3.53868935136795,0.8674349098205569,-2.15141021318436
6.249384312537856,-1.90528603105545,-0.753993312835693,0.0951181071281436
6.249990006056935,0.662174906444549,1.61707602310181,-0.177914119434356
6.250595699576015,1.7662789103508,-3.4795255393981903,3.0769174235343897
6.251201393095094,0.6741500041007991,0.7860042457580569,-7.17855620927811
6.251807086614173,-3.4021732380867,0.215989597320557,4.07803558759689
6.252412780133253,2.0920015666008,2.17751059341431,2.22429047040939
6.2530184736523315,1.55791221113205,-0.0139322776794434,-1.44727447099686
6.253624167171411,-3.4548636677742,-2.5310978050231903,0.5980722086906439
6.254229860690491,-1.8023001912117,1.74880209732056,-2.48192290849686
6.25483555420957,1.4261861369133,-0.684537746429443,4.38220306806564
6.255441247728649,2.98055381269455,-1.3838834495544399,-5.53078277177811
6.256046941247729,1.3758907267570502,-0.6486124534606931,-0.5180068928718561
6.256652634766808,-4.767334370899199,2.0984749488830596,5.4839120524406395
6.257258328285887,-0.829922261524201,4.30428793716431,-5.04938384599686
6.257864021804967,3.3422017619132998,-4.540519191741939,5.02167328290939
6.258469715324046,-0.9065628865242009,1.09975180435181,-2.45557769365311
6.259075408843125,-1.96276649980545,0.457886569976807,0.27953461103439403
6.2596811023622045,-0.09465126543045049,-1.07492593002319,-0.9586904866218561
6.260286795881284,2.79374228925705,0.939285495758057,-2.02447417802811
6.260892489400363,1.87884482831955,-3.90344399642944,5.20848480634689
6.261498182919443,-3.1147708943367003,4.49109946060181,-5.23619536943436
6.2621038764385215,-1.3041361287117,0.017202976226806603,4.60733490400314
6.262709569957601,3.07156455488205,0.285445163726807,-0.9203701741218561
6.263315263476681,-1.1221146443366998,0.556082370758057,0.849549259471894
6.26392095699576,-2.31722939043045,-1.0845060081481899,-1.79694732255936
6.2645266505148385,-0.820342183399201,-0.251039211273193,-2.2088906819343603
6.265132344033919,1.1363887736320502,0.414776218414307,2.5045077555656396
6.265738037552998,2.4704146525382997,-1.7814566917419399,-3.15731841630936
6.2663437310720775,-1.84301552324295,-1.15875161361694,2.4613974040031397
6.266949424591157,-3.09321571855545,4.8790926246643105,0.0304525797843936
6.267555118110236,2.2788130900383,-1.55632485580444,1.92012298994064
6.268160811629316,1.3734957072258,-0.19116372299194298,-4.13688140459061
6.268766505148395,-2.85371376543045,-2.0592789573669403,2.36080658369064
6.269372198667474,-1.2322855427741999,2.50323324966431,0.358570255565644
6.269977892186554,0.17359092206955,-1.37909341049194,-0.5826724202156061
6.270583585705633,4.333739847850801,-3.21128335189819,-0.867679744434356
6.271189279224712,-0.8083670857429509,0.297420261383057,-0.764693904590606
6.271794972743792,-4.64997841386795,2.9606819801330597,2.69371429853439
6.272400666262871,2.9422335001945497,0.754868991851807,-0.264134822559356
6.27300635978195,1.4836666056633,-1.77427163314819,0.06637787275314361
6.27361205330103,-2.19747841386795,1.6530013160705601,-0.6209927327156061
6.274217746820109,-0.9832035115242009,-2.60055337142944,-1.4736196858406099
6.274823440339188,1.6896382853508,0.460281589508057,1.5752401774406402
6.2754291338582675,1.9363252970695501,0.134558933258057,1.18485199384689
6.276034827377347,1.04058799238205,-0.845004055023193,-4.15843658037186
6.276640520896426,-3.40935829668045,-0.212718898773193,4.25526703290939
6.277246214415506,0.19754111738205,4.55097494888306,-2.87231109209061
6.2778519079345845,2.4967598673820497,-2.36344643783569,3.62058685712814
6.278457601453664,-1.48376259355545,0.378850925445557,-2.77890533037186
6.279063294972744,-1.1724100544929499,-0.694117824554443,-0.244974666309356
6.279668988491823,-0.18566200761795,-0.516886379241943,1.20401215009689
6.280274682010901,2.5853755900383,1.32009360122681,-2.77172027177811
6.280880375529982,2.23809775800705,-2.9166959495544402,1.72373138837814
6.281486069049061,-2.0034818318367,2.02183432388306,-1.06167632646561
6.28209176256814,-2.8249735310554502,2.47688803482056,4.23850189619064
6.28269745608722,2.14229697675705,1.29614340591431,-4.28058257646561
6.283303149606299,0.544818949413299,-4.2818570823669395,3.92475433759689
6.283908843125379,-2.27890907793045,3.5953621559143096,-1.4736196858406099
6.284514536644458,-0.370078511524201,-2.03053872299194,-0.9970107991218561
6.285120230163537,1.54833213300705,-1.00068032455444,-0.769483943653106
6.285725923682617,0.8944918009757991,1.28656332778931,-0.213839412403106
6.286331617201696,-1.7831400349617,-2.05688393783569,1.73570648603439
6.286937310720775,-1.56998329668045,3.74624838638306,-3.05193755693436
6.287543004239855,1.2010543009758001,-1.83893716049194,4.94982269697189
6.288148697758934,1.5603072306633001,1.48055990982056,-3.49022613115311
6.288754391278013,-2.91119423418045,-1.57788003158569,0.317854923534394
6.289360084797093,-0.7029862263679509,-0.121708156585693,-0.589857478809356
6.289965778316172,0.587929300975799,0.47225668716430697,0.727403263378144
6.290571471835251,0.417882914257049,-0.938409816741943,0.7010580485343939
6.2911771653543305,1.6153926798820502,-0.20553384017944298,-2.81243560380936
6.29178285887341,-1.84301552324295,-1.31442788314819,3.90798920087814
6.292388552392489,0.0514449259757995,3.4899812965393098,-1.27962310380936
6.292994245911569,1.5459371134758,-1.2808976097106899,1.18485199384689
6.293599939430647,-2.5351761677742,-0.662982570648193,-1.20298247880936
6.294205632949727,-0.753281636524201,2.0960799293518098,-1.32752349443436
6.294811326468807,0.963947367382049,-3.10590249252319,4.17383636884689
6.295417019987886,2.6692012736320496,0.929705417633057,-7.6551650959968605
6.296022713506965,1.12201865644455,-3.00291665267944,4.57140961103439
6.296628407026045,-2.74833290605545,3.3462801246643097,1.05552093915939
6.297234100545124,-1.32569130449295,2.3810872535705596,-1.5981607014656098
6.297839794064203,2.67399131269455,-3.79806313705444,3.4002450602531398
6.298445487583283,-0.420373921680451,2.9367317848205596,-2.71663482255936
6.299051181102362,-1.8023001912117,-1.91318276596069,3.07452240400314
6.299656874621442,0.8705416056632991,0.977605808258057,-6.61572661943436
6.300262568140521,1.1387837931633,-0.919249660491943,2.45421234540939
6.3008682616596,1.9363252970695501,-1.87246743392944,1.49141449384689
6.30147395517868,-1.8645706990242,2.48886313247681,-3.49741118974686
6.302079648697759,-1.55082314043045,0.565662448883057,4.52829925947189
6.302685342216838,2.0057808634758,2.22301596450806,-2.18733550615311
6.303291035735918,-1.07181923418045,-1.3024527854919399,1.6902011149406402
6.303896729254997,-1.3041361287117,-0.104943019866943,-3.15731841630936
6.304502422774076,-0.712566304492951,-0.603107082366943,1.49141449384689
6.305108116293156,0.480153422069549,0.369270847320557,0.181338810253144
6.305713809812235,2.65483115644455,-3.10829751205444,-1.48798980302811
6.306319503331314,-1.4095169880867,0.829114597320557,0.7417733805656439
6.306925196850393,-3.2728421833992,5.01081869888306,0.713033146190644
6.307530890369473,1.6848482462883,-2.86640053939819,2.0853793375968896
6.308136583888552,2.6332759806632997,0.496206882476807,-4.02431548662186
6.308742277407632,-3.0022049763679504,-1.85809731674194,4.60733490400314
6.309347970926711,-0.755676656055451,2.57987387466431,-1.5430752522468598
6.30995366444579,-0.9257230427742009,-2.40655678939819,-0.7934341389656061
6.31055935796487,3.6343941447257997,-2.43290200424194,-1.10957671709061
6.311165051483949,0.489733500194549,1.01592612075806,1.82432220869064
6.311770745003028,-4.6427933552742,2.8241658668518097,-0.450946345996856
6.312376438522108,2.6859664103507996,0.326160495758057,-0.00786773271560643
6.312982132041187,1.9339302775383,-2.18381997299194,2.04705902509689
6.313587825560267,-2.7171976521492,2.54394858169556,-3.8183438069343603
6.314193519079346,-1.2322855427741999,-1.55392983627319,0.111883243846894
6.314799212598425,0.367587504100799,-2.2892008323669404,2.71047943525314
6.315404906117504,3.4380025431632997,1.95716879653931,-2.9705068928718603
6.316010599636584,0.6334346720695491,-1.78864175033569,-0.0581631428718564
6.316616293155663,-2.5758914998054503,0.733313816070557,2.21471039228439
6.317221986674743,0.619064554882049,4.43840903091431,-1.39458404130936
6.317827680193822,0.7483956095695491,-2.76341469955444,3.45054047040939
6.318433373712901,-0.1832669880867,0.15371908950805702,-4.35482818193436
6.319039067231981,-1.7831400349617,-1.31921792221069,1.5488949625968902
6.31964476075106,-0.010825581836700399,2.1128450660705598,0.107093204784394
6.3202504542701385,2.12313682050705,-1.19467690658569,0.128648380565644
6.320856147789219,2.7458418986320496,-2.7705997581481903,-0.5036367756843559
6.321461841308298,-1.58435341386795,2.52239340591431,-0.345565486621856
6.322067534827377,-3.1195609333992,1.91166342544556,3.15595306806564
6.322673228346457,2.6620162150383,1.89489828872681,-4.21112701005936
6.323278921865536,-0.43713905839920103,-4.37286782455444,5.09591888837814
6.323884615384615,-1.31611122636795,3.7127181129455598,-3.36089507646561
6.324490308903695,-0.671850972461701,-1.89641762924194,-0.750323787403106
6.325096002422774,1.0669332072258,-1.5802750511169399,0.00171234540939357
6.325701695941853,1.92674521894455,0.503391941070557,1.0698910563468902
6.326307389460933,-2.9423294880867004,-0.313309719085693,0.432815861034394
6.3269130829800115,-1.59393349199295,2.35713705825806,-1.52631011552811
6.327518776499091,2.3003682658195497,-2.0496988792419404,3.72117767744064
6.328124470018171,0.676545023632049,2.81219076919556,-3.1166030842781103
6.32873016353725,-3.4165433552742,-2.47361733627319,0.7633285563468939
6.3293358570563285,-0.916142964649201,0.486626804351807,-1.2987832600593598
6.329941550575409,0.803481058788299,0.659068210601807,2.23387054853439
6.330547244094488,1.4453462931633,-2.67240395736694,-0.6162026936531061
6.331152937613568,1.00705771894455,0.192039402008057,-2.47952788896561
6.331758631132647,-2.5351761677742,0.15850912857055702,3.8984091227531397
6.332364324651726,0.1232955119133,3.80133383560181,-0.482081599903106
6.332970018170806,1.75909385175705,-2.21735024642944,0.0328475993156436
6.3335757116898845,-1.36880165605545,-1.46291909408569,-1.5119399983406099
6.334181405208964,-1.5675882771492,2.59663901138306,1.6135604899406402
6.334787098728044,-0.23595741777419998,-3.4100699729919404,0.5597518961906439
6.335392792247123,4.213988871288301,1.37278403091431,-6.258868709278111
6.335998485766202,0.23107139081955,-3.87949380111694,7.13168548994064
6.336604179285282,-2.3723148396492,5.020398777008061,-3.3129946858406103
6.337209872804361,-1.5005277302742,1.43744955825806,0.8615243571281439
6.33781556632344,2.9446285197258,-3.72142251205444,1.18485199384689
6.33842125984252,0.0801851603507995,2.27331137466431,-1.07844146318436
6.339026953361599,-3.11237587480545,-0.624662258148193,0.887869571971894
6.339632646880678,0.561584086132049,0.936890476226807,-3.96683501787186
6.3402383403997575,1.50522178144455,-2.96220132064819,5.18692963056564
6.340844033918837,2.8129024455070497,0.345320652008057,-4.37398833818436
6.341449727437916,-3.0093900349617,0.754868991851807,0.804043888378144
6.342055420956996,-1.2514456990242,1.56199057388306,2.77993500165939
6.3426611144760745,2.7626070353507997,2.1128450660705598,-0.7622988850593561
6.343266807995154,-1.67536415605545,-1.21623208236694,0.370545353221894
6.343872501514234,-1.3616165974616998,-0.617477199554443,-1.9789688069343598
6.344478195033313,-0.35570839433670104,0.24233481216430702,1.64948578290939
6.3450838885523915,0.956762308788299,0.982395847320557,-1.59576568193436
6.345689582071472,2.18540732831955,-4.50938393783569,0.12385834150314401
6.346295275590551,-0.770046773242951,2.5152083473205598,-1.14789702959061
6.3469009691096305,-4.5038822224617,3.86120932388306,3.42898529462814
6.34750666262871,3.19610557050705,-1.97545327377319,-2.58011870927811
6.348112356147789,2.3602437541007997,-1.1443814964294399,0.32983002119064403
6.348718049666869,-4.13744423418045,-0.14565835189819298,4.03732025556564
6.349323743185948,0.16401084394455,1.4302644996643101,-3.72733306474686
6.349929436705027,-1.0957694294929499,-2.0760440940856904,1.3357382243156402
6.350535130224107,3.0643794962883,-0.6893277854919431,-1.76820708818436
6.351140823743186,0.2143062541008,-1.5850650901794399,2.18118011884689
6.351746517262265,-3.65844032793045,4.3402132301330605,-2.4747378499031103
6.352352210781345,2.19977744550705,-1.29287270736694,2.26979584150314
6.352957904300424,2.4105391642570497,-0.892904445648193,0.284324650096894
6.353563597819503,-4.058408589649201,1.91166342544556,-1.34668365068436
6.354169291338583,-0.731726460742951,-2.59576333236694,-0.0461880452156064
6.354774984857662,0.027494730663299598,-0.8905094261169431,-0.410231013965606
6.355380678376741,3.3278316447257996,2.00267416763306,-0.884444881153106
6.3559863718958205,1.3447554728508,-3.44839028549194,1.02917572431564
6.3565920654149,-3.1866214802742,1.90687338638306,0.111883243846894
6.357197758933979,0.37237754316329896,3.34867514419556,1.7285214274406402
6.357803452453059,0.346032328319549,-2.41613686752319,1.46506927900314
6.3584091459721375,-0.329363179492951,1.27698324966431,-5.10446929521561
6.359014839491217,-1.8885208943367,-2.46643227767944,3.3762948649406397
6.359620533010297,1.00705771894455,3.0636678199768097,-1.0544912678718599
6.360226226529376,1.3423604533195501,-2.12154946517944,0.332225040721894
6.360831920048454,3.45955771894455,-1.83414712142944,-3.05912261552811
6.361437613567535,-2.4920658162117,1.52367026138306,2.51887787275314
6.362043307086614,-2.4681156208992,3.14509848403931,1.45788422040939
6.362649000605693,3.0524043986320497,0.244729831695557,-1.57900054521561
6.363254694124773,-0.5640750935554509,-3.4196500511169403,3.30444427900314
6.363860387643852,-0.908957906055451,3.0301375465393097,-3.17408355302811
6.364466081162932,-1.1987552693366998,-1.60422524642944,-0.0797183186531064
6.365071774682011,1.2992501017570501,0.436331394195557,-1.49277984209061
6.36567746820109,1.8572896525383,-1.72876626205444,3.2828891032218896
6.36628316172017,-2.4058451130867002,0.683018405914307,-2.93218658037186
6.366888855239249,-1.3759867146492,1.36080893325806,1.42674896650314
6.367494548758328,2.0943965861320497,-0.557601711273193,2.9906967204093897
6.368100242277408,0.36279746503829896,2.18469565200806,-2.43881255693436
6.368705935796487,-2.8129984333992,-2.44248208236694,-0.0246328694343564
6.369311629315566,-1.64662392168045,-0.157633449554443,-1.9143032795906099
6.369917322834646,0.978317484569549,1.4134993629455601,3.50083588056564
6.370523016353725,2.0872115275382996,-1.99700844955444,-2.87470611162186
6.371128709872804,0.5352388712882991,-1.59225014877319,-0.326405330371856
6.3717344033918835,-1.8502005818367,2.12961020278931,2.61228363447189
6.372340096910963,0.0682100626945495,2.27091635513306,-1.3921890217781099
6.372945790430042,1.4645064494133,-1.17551675033569,-0.331195369434356
6.373551483949122,-1.3280863240242,-0.847399074554443,0.322644962596894
6.3741571774682,-1.40233192949295,0.287840183258057,2.71047943525314
6.37476287098728,0.0730001017570495,-0.519281398773193,-2.9034463459968602
6.37536856450636,3.4451876017570497,-0.401925441741943,-1.67001128740311
6.375974258025439,0.8106661173820491,-3.10590249252319,3.84332367353439
6.376579951544518,-2.6501371052742,4.807242038726811,-4.642230525684361
6.377185645063598,-0.9257230427742009,1.52367026138306,3.39066498212814
6.377791338582677,2.6428560587882997,-2.5119376487731904,1.06749603681564
6.378397032101756,0.935207133007049,1.39433920669556,-0.647337947559356
6.379002725620836,-3.23691689043045,-1.07971596908569,-0.213839412403106
6.379608419139915,-0.36768349199295103,0.445911472320557,-1.8161074788093599
6.380214112658994,1.7614888712883001,-1.67847085189819,5.08154877119064
6.380819806178074,3.0404293009758,0.613562839508057,-5.78944488115311
6.381425499697153,-2.1950833943367,-0.6486124534606931,2.95237640790939
6.382031193216233,-2.4896707966804503,2.06494467544556,0.9812753336906439
6.382636886735312,2.2788130900383,2.25654623794556,-0.8940249592781061
6.383242580254391,-0.758071675586701,-2.2748307151794402,2.1189096110343897
6.383848273773471,-1.87175575761795,0.0938436012268066,-3.5620767170906102
6.38445396729255,-0.5449149373054509,-0.39713540267944303,3.5032309000968898
6.385059660811629,1.2441646525383,0.479441745758057,-1.67240630693436
6.385665354330709,2.8775679728508,-2.89993081283569,-1.91190826005936
6.386271047849788,-0.5688651326179509,0.369270847320557,1.78360687665939
6.386876741368867,-5.09545204668045,5.10422446060181,0.5238266032218939
6.387482434887946,2.5374751994133,-1.11085122299194,-0.491661678028106
6.388088128407026,2.3267134806632996,-2.8137101097106902,0.7753036540031439
6.388693821926105,-2.1208377888679504,2.34755698013306,-1.1023916584968598
6.389299515445185,-1.6609940388679498,-1.89641762924194,-0.5395620686531061
6.389905208964264,-0.10423134355545,0.00522787857055663,-2.41007232255936
6.390510902483343,2.2788130900383,-0.370790187835693,2.86855072431564
6.391116596002423,-0.1401566365242,-1.1228263206481899,0.5214315836906439
6.391722289521502,-2.63337196855545,1.69611166763306,-1.94783355302811
6.392327983040581,0.681335062694549,0.560872409820557,2.04466400556564
6.392933676559661,2.67878135175705,0.359690769195557,0.12146332197189401
6.39353937007874,-2.45135048418045,-0.646217433929443,2.00394867353439
6.39414506359782,-1.39275185136795,-0.392345363616943,-2.71663482255936
6.394750757116899,-1.0885843708992,-1.67368081283569,-0.671288142871856
6.395356450635978,3.5840987345695496,2.60382406997681,-0.278504939746856
6.395962144155058,1.4573213908195501,-4.88540200424194,1.58721527509689
6.396567837674137,-2.2717240193367,4.61803549575806,-5.35594634599686
6.397173531193216,-1.8909159138679499,1.53085531997681,7.32807709150314
6.397779224712296,1.42858115644455,-1.19228188705444,-1.72030669755936
6.398384918231375,0.815456156444549,0.215989597320557,-3.49022613115311
6.398990611750454,-2.9950199177742003,-2.08801919174194,4.95461273603439
6.399596305269534,1.0621431681633,3.90431967544556,-3.09744292802811
6.400201998788613,0.9711324259757991,-4.71775063705444,2.04705902509689
6.4008076923076915,3.1649703166007996,1.32248862075806,-5.41103179521561
6.401413385826772,-2.48488075761795,0.532132175445557,5.58210785322189
6.402019079345851,-2.9854398396492003,2.90320151138306,-1.8328726155281099
6.40262477286493,3.7469600626945496,-0.224693996429443,0.849549259471894
6.40323046638401,-0.12339149980545,-2.12633950424194,2.9643515055656398
6.403836159903089,-1.6394388630866998,2.1990657691955597,-3.58363189287186
6.404441853422168,-1.6130936482429499,-2.12394448471069,-0.747928767871856
6.405047546941248,1.1052535197258,-1.2689225120544398,-0.8820498616218561
6.405653240460327,2.0608663126945497,1.67216147232056,2.7416146891593898
6.406258933979406,-1.3807767537117,3.1235433082580597,-4.50571441240311
6.406864627498486,-1.0119437458992,-5.71647378158569,5.63240326337814
6.4074703210175645,1.50522178144455,3.63128744888306,-2.99445708818436
6.408076014536644,-0.774836812305451,-0.0762027854919434,2.50690277509689
6.408681708055724,-0.693406148242951,-0.916854640960693,-0.261739803028106
6.409287401574803,-3.79256142168045,1.31769858169556,-2.42923247880936
6.4098930950938815,1.36631064863205,-2.6676139183044403,2.9811166422843898
6.410498788612962,3.47871787519455,-0.0498575706481934,-3.6291372639656103
6.411104482132041,-1.24905067949295,-0.00674721908569337,1.64230072431564
6.411710175651121,1.6225777384758,1.77514731216431,-1.4448794514656098
6.4123158691702,-2.15436806230545,0.10102865982055699,2.55959320478439
6.412921562689279,-0.2934378865242,0.639908054351807,-1.0065908772468601
6.413527256208359,0.34363730878829896,-2.64605874252319,0.298694767284394
6.4141329497274375,-3.1674613240242,2.2349910621643096,0.8758944743156439
6.414738643246517,1.5794673869133,-0.540836574554443,-3.7584683186531103
6.415344336765597,4.427145609569551,-2.1383146018981902,0.926189884471894
6.415950030284676,-1.32569130449295,1.6865315895080601,4.13072601728439
6.416555723803755,-0.640715718555451,1.51888022232056,-3.96923003740311
6.417161417322835,-1.27779091386795,-1.6617057151794399,1.5800302165031401
6.417767110841914,-1.15324989824295,1.4518196754455601,0.832784122753144
6.418372804360993,2.2045674845695498,0.0938436012268066,0.5166415446281439
6.418978497880073,-1.33048134355545,0.134558933258057,-1.65085113115311
6.419584191399152,0.0346797892570495,-0.21032387924194298,0.250794376659394
6.420189884918231,2.6165108439445497,-3.3262442893981903,2.1955502360343897
6.4207955784373105,0.757975687694549,2.1990657691955597,-4.39314849443436
6.42140127195639,-1.2035453083992,-0.706092922210693,4.30556244306564
6.422006965475469,-0.770046773242951,3.03253256607056,-2.83638579912186
6.422612658994549,-1.14366982011795,-0.322889797210693,3.4625155680656396
6.4232183525136275,0.580744242382049,-0.904879543304443,-2.17296538896561
6.423824046032707,-0.29583290605545,0.395616062164307,-1.49038482255936
6.424429739551787,-0.851477437305451,0.22317465591430702,4.20497162275314
6.425035433070866,2.2404927775382997,-0.349235012054443,-4.7547964436531105
6.4256411265899445,0.2286763712883,-4.41837319564819,1.22317230634689
6.426246820109025,-0.341338277149201,3.14509848403931,0.308274845409394
6.426852513628104,-2.6070267537117,2.0098592262268102,2.63383881025314
6.4274582071471835,1.4836666056633,0.326160495758057,-3.23395904130936
6.428063900666263,1.7087984416008,-3.62083169174194,2.4350521891593897
6.428669594185342,-0.995178609180451,2.94152182388306,-1.81371245927811
6.429275287704422,-2.0968875935554503,-0.7492032737731931,-0.922765193653106
6.429880981223501,0.5903243205070491,-1.81498696517944,-0.197074275684356
6.43048667474258,2.0345210978508,0.165694187164307,0.7417733805656439
6.43109236826166,-1.39754189043045,-1.23778725814819,1.61595550947189
6.431698061780739,-0.671850972461701,2.36432211685181,-3.75128326005936
6.432303755299818,1.2393746134758001,-0.298939601898193,4.30795746259689
6.432909448818898,1.1244136759758,0.764449069976807,0.11667328290939401
6.433515142337977,-0.6886161091804509,-0.797103664398193,-0.925160213184356
6.434120835857056,-2.0537772419929503,-0.845004055023193,0.504666446971894
6.434726529376136,-0.6455057576179509,0.659068210601807,-2.34061675615311
6.435332222895215,2.6692012736320496,-0.691722805023193,0.8806845133781439
6.435937916414294,0.643014750194549,-2.68198403549194,0.768118595409394
6.4365436099333735,-0.1688968708992,4.361768405914311,-3.3297598225593603
6.437149303452453,-1.5316629841804499,0.42196127700805697,4.36304291181564
6.437754996971532,1.11722861738205,0.929705417633057,-2.61604400224686
6.438360690490612,0.662174906444549,-2.53588784408569,1.84348236494064
6.4389663840096905,-2.7219876912117003,0.857854831695557,0.267559513378144
6.43957207752877,-0.1593167927742,2.04578451919556,-0.453341365528106
6.44017777104785,2.2692330119133,-4.60997475814819,-1.02335601396561
6.440783464566929,2.4296993205070496,0.354900730133057,-2.91542144365311
6.441389158086007,-3.4213333943367004,1.22429281997681,6.05392670087814
6.441994851605088,-0.492224507617951,4.93417807388306,-4.43146880693436
6.442600545124167,2.68836142988205,-3.74297768783569,4.21694672040939
6.443206238643246,0.14964072675705,1.2506380348205601,-2.49629302568436
6.443811932162326,-1.9747415974617,-0.706092922210693,0.497481388378144
6.444417625681405,-1.4286771443367,-0.114523097991943,-1.35626372880936
6.445023319200485,0.8082710978507991,0.254309909820557,-0.446156306934356
6.445629012719564,1.96506553144455,-2.9837564964294403,2.8613656657218898
6.446234706238643,-1.2035453083992,3.07564291763306,-6.77619292802811
6.446840399757723,-1.8981009724617,-1.24497231674194,6.42036468915939
6.447446093276802,2.0512862345695497,3.44447592544556,-2.4244424397468602
6.448051786795881,-0.13297157793045,-1.97305825424194,1.09384125165939
6.448657480314961,-0.870637593555451,-0.339654933929443,-0.450946345996856
6.44926317383404,-3.2393119099617,0.247124851226807,-0.506031795215606
6.449868867353119,1.2178194376945501,-0.557601711273193,2.1356747477531397
6.450474560872199,2.8823580119132997,-0.48575112533569303,-5.43498199052811
6.451080254391278,-1.0167337849617,-2.3347062034606902,3.43377533369064
6.451685947910357,-1.24905067949295,4.81682211685181,-0.453341365528106
6.4522916414294365,0.319687113475799,0.680623386383057,-0.585067439746856
6.452897334948516,1.27050986738205,-3.53461098861694,2.36080658369064
6.453503028467595,-0.43474403886795104,1.67216147232056,-2.0556094319343603
6.454108721986675,-3.06926552324295,-0.804288722991943,2.80628021650314
6.454714415505753,1.6153926798820502,1.37517905044556,-6.30916411943436
6.455320109024833,2.84164267988205,-3.96331948471069,5.0312533610343895
6.455925802543913,0.607089457225799,-0.27498940658569304,-1.3802139241218598
6.456531496062992,-2.1711331990242,3.35107016372681,-1.4233242756843598
6.457137189582071,-0.38684364824295103,-0.100152980804443,6.15451752119064
6.457742883101151,2.4464644572257996,1.45421469497681,-4.4218887288093605
6.45834857662023,-1.45023232011795,-3.1202726097106903,4.89952728681564
6.45895427013931,-1.95797646074295,3.2361092262268096,-6.84085845537186
6.459559963658389,0.0753951212882995,-2.92867104721069,3.78823822431564
6.460165657177468,2.9422335001945497,1.55480551528931,-0.985035701465606
6.460771350696547,1.3351753947258,-1.35753823471069,-2.97529693193436
6.461377044215627,-1.3999369099616998,-1.3240079612731899,3.79063324384689
6.461982737734706,-2.04898720293045,6.58674155044556,-0.8197793538093561
6.462588431253786,1.2058443400383,-3.40767495346069,5.10310394697189
6.463194124772865,1.35194053144455,0.941680515289307,-8.09345367021561
6.463799818291944,-3.7829813435554502,-1.25694741439819,3.71638763837814
6.464405511811024,0.46099326581954897,0.903360202789307,1.38603363447189
6.465011205330103,2.1806172892570497,0.206409519195557,-4.32848296709061
6.465616898849182,1.2250044962883,-4.140550930023189,1.80276703290939
6.466222592368262,-0.26709267168045,2.29726156997681,-0.37909576005935597
6.466828285887341,-4.6763236287117,3.1834187965393097,2.59072845869064
6.46743397940642,3.2990914103508,-0.540836574554443,-1.6149258381843599
6.468039672925499,2.5614253947258,-3.5657462425231903,2.11411957197189
6.468645366444579,-3.20338661699295,4.261177585601811,-2.3286416584968603
6.469251059963658,-2.2573539021492,-1.87246743392944,-0.26892486162185597
6.469856753482738,0.7340254923820491,-1.79822182846069,0.926189884471894
6.470462447001817,2.7673970744133,1.08059164810181,0.305879825878144
6.471068140520896,-0.655085835742951,-2.9933365745544402,-0.704818416309356
6.471673834039976,-2.4992508748054503,2.58226889419556,-2.13943511552811
6.472279527559055,1.40942100019455,1.88292319107056,3.60861175947189
6.472885221078134,1.20344932050705,-0.866559230804443,0.502271427440644
6.473490914597214,-1.2322855427741999,0.187249362945557,-3.94048980302811
6.474096608116293,-1.23947060136795,-3.3693546409606903,2.9044760172843898
6.474702301635373,1.2154244181633,3.24568930435181,-1.1622671467781098
6.475307995154452,0.707680277538299,-1.28329262924194,1.3405282633781401
6.475913688673531,1.6561080119133,-3.2735538597106904,-3.35131499834061
6.476519382192611,-1.1987552693366998,3.8252840309143097,-1.19819243974686
6.47712507571169,-3.0285501912117003,1.5452254371643102,5.31626068525314
6.477730769230769,4.173273539257051,1.15004721450806,-4.3356680256843605
6.478336462749849,-0.6431107380867009,-4.0567252464294405,4.31035248212814
6.4789421562689276,-2.07293739824295,3.1139632301330598,-2.12985503740311
6.479547849788007,-0.0275907185554504,-0.967150051116943,1.01720062665939
6.480153543307087,0.9735274455070491,-1.35274819564819,-4.3620132405281105
6.480759236826166,2.8560127970695497,-1.21623208236694,0.705848087596894
6.4813649303452445,-2.63816200761795,0.774029148101807,4.07564056806564
6.481970623864325,-1.7879300740242,4.4000887184143105,-3.64111236162186
6.482576317383404,2.9781587931633,-3.6759171409606903,4.80851654462814
6.483182010902483,0.319687113475799,3.6025472145080597,-4.39793853349686
6.483787704421563,-2.91119423418045,-1.71679116439819,1.70217621259689
6.484393397940642,-0.1114164021492,-0.524071437835693,-1.15987212724686
6.484999091459721,0.825036234569549,0.045943210601806596,1.4171688883781401
6.4856047849788006,2.08002646894455,-0.785128566741943,-0.221024470996856
6.48621047849788,-1.5867484333992,-0.8090787620544431,-1.91669829912186
6.486816172016959,-1.91965614824295,0.702178562164307,2.69850433759689
6.487421865536039,1.2441646525383,4.3473982887268106,-1.86161284990311
6.4880275590551175,0.0610250041007995,-4.12618081283569,2.37996673994064
6.488633252574197,-0.08028114824295049,0.999160984039307,-3.62674224443436
6.489238946093277,-2.7627030232429504,-1.7263712425231899,3.64693207197189
6.489844639612356,0.757975687694549,0.637513034820557,-0.846124568653106
6.4904503331314345,2.4440694376945498,-0.7084879417419431,-3.0040371663093604
6.491056026650515,-0.0228006794929504,-3.20170327377319,3.0673373454093897
6.491661720169594,-1.9124710896491999,5.81315024185181,-2.33343169755936
6.4922674136886735,-0.6622708943367009,-0.31570473861694304,1.97999847822189
6.492873107207753,1.7471187541008,-1.63775551986694,-0.9395303303718561
6.493478800726832,-0.358103413867951,0.778819187164307,0.38970550947189403
6.494084494245912,-2.8129984333992,-1.35035317611694,2.17160004072189
6.494690187764991,1.00705771894455,2.0433894996643103,-4.38835845537186
6.49529588128407,1.9435103556633,-4.35849770736694,5.1581893961906395
6.49590157480315,2.3458736369133,1.39433920669556,-4.93921294755936
6.496507268322229,-2.71480263261795,1.21710776138306,1.1776669352531401
6.497112961841308,-0.631135640430451,0.44351645278930696,3.65651215009689
6.497718655360388,2.4560445353508,2.13679526138306,-1.44727447099686
6.498324348879467,-1.84301552324295,-2.60055337142944,2.73203461103439
6.498930042398546,-0.391633687305451,1.13807211685181,-5.75112456865311
6.499535735917626,-0.7628617146492009,-1.99221841049194,4.76301117353439
6.500141429436705,2.5302901408195497,1.95956381607056,-1.37781890459061
6.500747122955784,2.2644429728507998,-3.1801480979919403,-0.6209927327156061
6.5013528164748635,-1.4957376912117,1.08298666763306,0.0615878336906436
6.501958509993943,-2.76749306230545,5.3245662574768104,0.588492130565644
6.502564203513022,1.18428916425705,-2.6747989768981904,2.89250091962814
6.503169897032102,1.52917197675705,1.12130698013306,-5.22901031084061
6.5037755905511805,-2.5687064412117,-2.22693032455444,5.14381927900314
6.50438128407026,-0.26230263261795,2.26612631607056,-2.67352447099686
6.50498697758934,0.379562601757049,-2.1790299339294403,0.08793304853439361
6.505592671108419,2.3937740275382997,-1.37669839096069,-1.7993423420906098
6.5061983646274975,-1.62746376543045,0.486626804351807,2.1692050211906397
6.506804058146578,-2.74833290605545,3.55464682388306,-0.381490779590606
6.507409751665657,2.47759971113205,-0.430665676116943,-0.362330623340606
6.508015445184736,0.623854593944549,-4.114205715179439,4.38459808759689
6.508621138703816,-1.40712196855545,4.92938803482056,-5.49725249834061
6.509226832222895,-2.40824013261795,-3.49150063705444,2.36080658369064
6.509832525741975,0.528053812694549,0.817139499664307,-2.72142486162186
6.510438219261054,1.8596846720695501,-0.845004055023193,3.25893890790939
6.511043912780133,0.44183310956954897,-1.86528237533569,-3.13097320146561
6.511649606299213,-1.6011185505866998,1.9859090309143101,-0.704818416309356
6.512255299818292,0.5711641642570491,0.7261287574768069,5.43122162275314
6.512860993337371,1.3064351603508,0.869829929351807,-3.3656851155281102
6.513466686856451,-1.34485146074295,-1.63775551986694,-1.34668365068436
6.51407238037553,-1.76637489824295,-1.42938882064819,0.9597201579093939
6.514678073894609,0.7316304728507991,2.6708846168518097,0.8806845133781439
6.515283767413689,1.5507271525383,-3.30468911361694,0.6411825602531439
6.515889460932768,2.3841939494132998,0.000437839508056634,-5.45653716630936
6.516495154451847,-2.60463173418045,0.661463230133057,4.758221134471889
6.5171008479709265,-1.5747733357429499,3.5163265113830597,0.0496127360343936
6.517706541490006,2.1351119181633,0.22796469497680702,-1.2436978108406098
6.518312235009085,-0.463484273242951,-3.50108071517944,2.78233002119064
6.518917928528165,-0.2120072224617,3.30077475357056,-2.9202114827156103
6.5195236220472434,-0.930513081836701,-2.72509438705444,2.70568939619064
6.520129315566323,1.28967002363205,2.1415853004455596,-5.86848052568436
6.520735009085403,1.43337119550705,-3.97289956283569,5.85993011884689
6.521340702604482,-0.817947163867951,2.48886313247681,-1.64845611162186
6.521946396123562,-1.7496097615242,2.8505110816955597,-1.19340240068436
6.522552089642641,1.71119346113205,-2.8041300315856903,3.6325619547843897
6.52315778316172,0.7939009806632991,3.84444418716431,-2.72860992021561
6.523763476680799,-3.1650663044929503,-2.44966714096069,2.01113373212814
6.524369170199879,-0.611975484180451,0.6063777809143069,-3.45669585771561
6.524974863718958,0.1711959025383,-1.27850259017944,3.71399261884689
6.525580557238038,2.3075533244132997,0.635118015289307,-3.85426909990311
6.526186250757117,-1.0358939412116999,-2.78017983627319,2.15722992353439
6.526791944276196,-2.2525638630867,2.6876497535705597,-0.417416072559356
6.527397637795276,1.1028585001945501,2.3978523902893096,1.5584750407218901
6.528003331314355,-0.27667274980545,-2.9478312034606904,-0.5970425374031061
6.528609024833434,-0.36528847246170104,0.697388523101807,-3.31778472490311
6.529214718352514,-2.15915810136795,-1.3838834495544399,5.28752045087814
6.529820411871593,0.724445414257049,1.06143149185181,-2.36696197099686
6.530426105390672,2.8991231486320497,-2.98854653549194,1.4722543375968902
6.531031798909752,0.1664058634758,-0.0666227073669434,-1.8041323811531098
6.531637492428831,-2.7842581990242,2.32600180435181,1.3022079508781401
6.53224318594791,0.00833457441329955,1.1739974098205601,-0.9419253499031061
6.5328488794669894,1.3591255900383001,-0.8497940940856931,0.392100529003144
6.533454572986069,0.0777901408195495,-1.05816079330444,2.89250091962814
6.534060266505148,-1.9603714802741998,0.702178562164307,-3.49022613115311
6.534665960024228,-0.07549110918045049,-1.1491715354919398,0.8830795329093939
6.535271653543306,2.2907881876945497,-2.13352456283569,0.0999081461906436
6.535877347062386,2.0728414103508,0.5273421363830569,-2.56335357255936
6.536483040581466,-2.9279593708992,0.620747898101807,2.09974945478439
6.537088734100545,-0.07549110918045049,2.3116316871643097,-0.357540584278106
6.537694427619624,3.0452193400382996,-0.411505519866943,3.65172211103439
6.538300121138704,-1.8693607380867,0.194434421539307,-3.4064004475593603
6.538905814657783,-1.07181923418045,-0.363605129241943,-1.32991851396561
6.539511508176863,-1.0071537068367,-1.92036782455444,3.7690780680656397
6.540117201695942,2.6859664103507996,3.2337142066955598,-4.5488247639656105
6.540722895215021,1.3495455119133,-4.78241616439819,2.7176644938468897
6.5413285887341,-0.2024271443367,1.6051009254455602,-2.78609038896561
6.54193428225318,-2.7028275349617004,4.92220297622681,3.68525238447189
6.542539975772259,0.5927193400382991,-1.90360268783569,0.337015079784394
6.543145669291339,2.7626070353507997,-0.998285305023193,-2.57532867021561
6.543751362810418,-3.0093900349617,-0.401925441741943,4.61451996259689
6.544357056329497,-0.729331441211701,1.69371664810181,-4.49134429521561
6.544962749848577,1.0597481486320501,-2.97896645736694,1.77881683759689
6.545568443367656,2.2836031291007997,0.254309909820557,-2.91302642412186
6.5461741368867346,-0.473064351367951,-0.392345363616943,1.9344931071281402
6.546779830405815,-3.8620169880867,2.69243979263306,0.7824887125968939
6.547385523924894,1.7566988322258001,-0.126498195648193,0.0208725016593936
6.547991217443973,3.14341514081955,-2.67958901596069,1.5105746500968902
6.548596910963052,-3.0285501912117003,2.85530112075806,-2.3813320881843603
6.549202604482132,-2.0465921833992,-1.41501870346069,0.353780216503144
6.549808298001211,0.24783652753830002,-0.298939601898193,-1.6748013264656099
6.550413991520291,1.1052535197258,0.175274265289307,1.8362973063468901
6.55101968503937,2.2668379923820496,-1.3024527854919399,-4.30692779130936
6.551625378558449,-2.0465921833992,-0.672562648773193,2.40631195478439
6.552231072077529,-0.0371707966804505,3.4157356910705596,3.1703231852531397
6.5528367655966075,1.62976279706955,-0.483356105804443,-0.7551138264656061
6.553442459115687,-1.6130936482429499,-2.59576333236694,0.0400326579093936
6.554048152634767,-1.84780556230545,0.922520359039307,-2.60167388505936
6.554653846153846,0.647804789257049,1.29135336685181,2.00155365400314
6.5552595396729245,1.6082076212883,-2.7179093284606903,-0.470106502246856
6.555865233192005,3.48350791425705,-0.907274562835693,-4.37398833818436
6.556470926711084,-3.7853763630867,0.771634128570557,4.95940277509689
6.557076620230164,-2.4441654255867,5.671844089508061,-1.79215728349686
6.557682313749243,3.79965049238205,-3.11548257064819,1.61116547040939
6.558288007268322,0.42267295331954896,-0.866559230804443,-2.12266997880936
6.558893700787402,-1.7017093708992,1.87334311294556,1.63272064619064
6.5594993943064805,-0.2599076130867,-2.78496987533569,0.930979923534394
6.56010508782556,1.7327486369133,2.2589412574768097,-4.37877837724686
6.56071078134464,0.880121683788299,-3.67831216049194,6.56406586103439
6.561316474863719,-0.5449149373054509,2.1224251441955597,-4.73324126787186
6.561922168382798,-2.74354286699295,0.553687351226807,2.83262543134689
6.562527861901878,2.5231050822257997,0.941680515289307,-0.886839900684356
6.563133555420957,0.367587504100799,0.620747898101807,1.02917572431564
6.563739248940036,-2.93035439043045,0.136953952789307,-1.8640078694343598
6.564344942459116,-0.791601949024201,-1.01505044174194,-1.40895415849686
6.564950635978195,0.489733500194549,-0.480961086273193,2.99788177900314
6.565556329497274,3.1721553751945497,0.0722884254455566,-3.47106597490311
6.5661620230163535,-1.0550540974617,-3.1106925315856904,2.18836517744064
6.566767716535433,-2.9662796833992,5.6838191871643104,-2.42683745927811
6.567373410054512,0.587929300975799,-0.962360012054443,5.38332123212814
6.567979103573592,1.7950191447258002,-1.0845060081481899,-4.49373931474686
6.5685847970926705,-1.7711649373054499,-0.684537746429443,-0.11803863115310599
6.56919049061175,-1.8310404255866999,0.730918796539307,3.19187836103439
6.56979618413083,0.08976523847579951,-0.5695768089294431,-2.31906158037186
6.570401877649909,2.8631978556632998,-3.43162514877319,0.593282169628144
6.5710075711689875,0.5687691447257991,0.560872409820557,-1.82568755693436
6.571613264688068,-3.7614261677742,1.72724692153931,2.09735443525314
6.572218958207147,0.24065146894455,2.02183432388306,-1.25806792802811
6.5728246517262265,1.8477095744133,-1.0413956565856899,0.8974496500968939
6.573430345245306,-0.429953999805451,-0.13607827377319298,1.63272064619064
6.574036038764385,-1.9699515583992,-0.660587551116943,-2.76932525224686
6.574641732283465,0.0466548869132995,-0.157633449554443,-0.0246328694343564
6.575247425802544,2.1542720744132997,-1.85809731674194,1.1896420329093902
6.575853119321623,2.1446919962882998,1.4254744606018102,-4.13688140459061
6.576458812840703,-3.7757962849617,-0.37558022689819304,4.08522064619064
6.577064506359782,0.966342386913299,2.93194174575806,-2.8004605061531103
6.577670199878861,2.19977744550705,-1.53476968002319,3.8552987711906397
6.578275893397941,-2.5591263630867003,0.414776218414307,-2.5082681233406103
6.57888158691702,-0.2024271443367,-0.389950344085693,-1.54786529130936
6.579487280436099,-1.24426064043045,-1.07492593002319,3.4194052165031397
6.580092973955179,2.2788130900383,2.53676352310181,-4.47936919755936
6.580698667474258,2.1638521525382997,-6.45892983627319,3.6756723063468897
6.581304360993337,-0.5856302693367009,4.83837729263306,-4.68773589677811
6.5819100545124165,-2.60463173418045,2.92954672622681,5.26117523603439
6.582515748031496,1.0932784220695502,-0.502516262054443,-3.3393399006843603
6.583121441550575,1.8620796916008,-1.47489419174194,1.05073090009689
6.583727135069655,-2.82976357011795,-0.0546476097106934,3.77626312665939
6.5843328285887335,-0.561680074024201,1.48055990982056,-4.881732478809361
6.584938522107813,0.310107035350799,-2.9238810081481903,2.20992035322189
6.585544215626893,2.23330771894455,0.7476839332580569,-3.33215484209061
6.586149909145972,-1.63704384355545,-1.3287980003356898,3.54873627119064
6.5867556026650504,-2.4585355427742,3.64805258560181,-2.69507964677811
6.587361296184131,1.6800582072258001,-2.02095864486694,3.07212738447189
6.58796698970321,1.32799033613205,0.338135593414307,-1.32273345537186
6.588572683222289,-2.6621122029304503,0.613562839508057,-2.03644927568436
6.589178376741369,-1.0646341755867,-1.5419547386169399,1.2926278727531402
6.589784070260448,-0.3030179646492,1.09975180435181,-1.26285796709061
6.590389763779528,1.4453462931633,-1.73595132064819,2.05184906415939
6.590995457298607,2.26204795331955,-0.20553384017944298,-4.09377105302811
6.591601150817686,-2.7363578083992,0.21359457778930702,2.7344296305656397
6.592206844336766,0.820246195507049,2.2014607887268096,2.12130463056564
6.592812537855845,1.0813033244133001,-0.7683634300231931,-1.3538687092781099
6.593418231374924,-1.36401161699295,-1.9275528831481898,0.411260685253144
6.594023924894004,-1.62746376543045,1.43984457778931,-0.9778506428718561
6.594629618413083,0.21670127363205,0.45309653091430696,1.30699798994064
6.595235311932162,2.9158882853507997,-2.4520621604919404,-3.03517242021561
6.595841005451242,2.40095908613205,-1.04379067611694,-2.03405425615311
6.596446698970321,-3.6081449177742,0.26388998794555696,6.075481876659389
6.5970523924894,-1.8597806599617,5.08985434341431,-3.95006988115311
6.5976580860084795,2.7530269572257997,-2.4113468284606903,2.9643515055656398
6.598263779527559,-0.018010640430450402,-0.313309719085693,-0.369515681934356
6.598869473046638,-0.949673238086701,0.623142917633057,-1.30836333818436
6.599475166565718,-0.875427632617951,-1.52758462142944,-0.771878963184356
6.600080860084796,1.8548946330070502,1.5883357887268101,-1.0113809163093601
6.600686553603876,1.8572896525383,-3.0771622581481903,4.12833099775314
6.601292247122956,-1.5723783162117,2.67327963638306,-5.52599273271561
6.601897940642035,-1.3951468708991999,-0.227089015960693,5.00730316572189
6.602503634161115,1.27529990644455,2.08410483169556,-1.1023916584968598
6.603109327680194,-0.358103413867951,0.5465022926330569,0.047217716503143596
6.603715021199273,-1.2993460896492,-1.73595132064819,-1.02814605302811
6.604320714718352,-1.08139931230545,0.00762289810180663,-1.28920318193436
6.604926408237432,0.504103617382049,0.711758640289307,2.03747894697189
6.605532101756511,2.70752158613205,-2.31315102767944,-2.12027495927811
6.606137795275591,-0.978413472461701,-1.36472329330444,0.7968588297843939
6.60674348879467,-2.97346474199295,5.04195395278931,-0.5419570881843561
6.607349182313749,0.5927193400382991,-0.615082180023193,2.71287445478439
6.607954875832829,2.4081441447258,-0.7108829612731931,-3.2435391194343604
6.608560569351908,-1.4478373005867,-2.15986977767944,2.8038851969718896
6.609166262870987,-1.5723783162117,2.3451619606018097,0.0352426188468936
6.609771956390067,-0.9855985310554509,-1.44136391830444,-1.10957671709061
6.610377649909146,3.0021089884757997,-3.4268351097106904,0.0184774821281436
6.610983343428225,1.16991904706955,1.55480551528931,-1.64845611162186
6.611589036947305,-4.4320316365242,-0.112128078460693,3.62537689619064
6.612194730466384,1.5746773478508,2.3212117652893096,-1.9574136311531098
6.612800423985463,1.2968550822258,-0.801893703460693,1.86024750165939
6.613406117504542,-1.03349892168045,0.268680027008057,-1.04970122880936
6.614011811023622,-0.350918355274201,-0.5288614768981931,-3.7321231038093603
6.614617504542701,-1.3951468708991999,-2.67958901596069,3.7858432047843897
6.615223198061781,2.9494185587882997,2.87925131607056,-3.6123721272468603
6.61582889158086,1.4884566447258,-4.090255519866941,2.3320663493156397
6.616434585099939,-2.11125771074295,2.00506918716431,-0.0725332600593564
6.617040278619019,-0.518569722461701,3.66721274185181,0.07116791181564361
6.617645972138098,0.985502543163299,-2.20298012924194,2.59072845869064
6.618251665657177,0.8322212931632991,1.00395102310181,-3.40879546709061
6.618857359176257,-1.6945243123054499,-2.04730385971069,2.32727631025314
6.619463052695336,-1.03828896074295,2.9702620582580597,-2.17057036943436
6.620068746214416,1.16033896894455,-1.37909341049194,3.24456879072189
6.620674439733495,3.4140523478508,-2.23651040267944,-3.20042876787186
6.621280133252574,-1.01433876543045,-0.24145913314819298,-0.00547271318435643
6.621885826771653,-3.6776004841804504,4.71623129653931,1.9991586344718901
6.622491520290733,2.2476778361320497,0.577637546539307,-1.4831997639656098
6.623097213809812,1.7734639689445502,-4.959647609710689,3.95109955244064
6.623702907328892,-1.8597806599617,4.72341635513306,-4.00515533037186
6.624308600847971,-1.4190970662117,-3.1370377464294403,1.31178802900314
6.62491429436705,0.41309287519454896,-0.104943019866943,-2.96811187334061
6.62551998788613,1.90279502363205,0.48183676528930697,1.48662445478439
6.626125681405209,-0.7053812458992009,-2.09999428939819,2.71047943525314
6.6267313749242875,-2.62379189043045,4.04562582778931,-3.2531191975593603
6.627337068443368,1.2920650431633,-2.74664956283569,4.02774017744064
6.627942761962447,2.0608663126945497,2.5176033668518096,-3.74409820146561
6.628548455481526,-4.295515523242949,-1.62578042221069,2.4518173258781397
6.629154149000606,-0.717356343555451,0.18245932388305702,-2.4915029866218603
6.629759842519685,-0.2120072224617,0.42435629653930695,2.5380380290031397
6.630365536038764,1.3016451212883,-2.02574868392944,-0.417416072559356
6.630971229557844,3.1697603556633,-1.0629508323669399,-3.85666411943436
6.631576923076923,-3.9338675740242,0.00283285903930663,4.12114593915939
6.632182616596002,-0.6670609333992009,4.6659358863830604,-2.01249908037186
6.632788310115082,2.3315035197258,-3.24481362533569,2.60749359540939
6.6333940036341605,-1.3017411091804498,-0.0738077659606934,-2.11069488115311
6.63399969715324,-1.4430472615242,0.465071628570557,1.60398041181564
6.63460539067232,-0.8251322224617009,-1.4054386253356899,0.827994083690644
6.635211084191399,2.3099483439445496,1.8326277809143101,-6.11277251787186
6.6358167777104775,2.6763863322257997,-4.89498208236694,4.84444183759689
6.636422471229558,-2.42740028886795,3.1067781715393097,-1.2389077717781098
6.637028164748637,-2.4681156208992,3.54027670669556,-0.391070857715606
6.637633858267717,2.9494185587882997,-3.32863930892944,2.06861420087814
6.638239551786796,0.942392191600799,2.46012289810181,-1.37302886552811
6.638845245305875,-3.1962015583992,-1.53237466049194,1.2495175211906402
6.639450938824954,0.0155196330070496,0.41238119888305697,-5.06854400224686
6.6400566323440335,0.841801371288299,-1.0892960472106898,4.279217228221889
6.640662325863113,3.19610557050705,-0.734833156585693,-2.6280190999031103
6.641268019382193,-1.4598123982429498,0.37166586685180697,-0.371910701465606
6.641873712901272,-2.61421181230545,1.84699789810181,2.8110702555656397
6.642479406420351,2.55903037519455,2.6876497535705597,-0.886839900684356
6.643085099939431,-0.353313374805451,-2.10478432846069,2.7679599040031397
6.64369079345851,-1.34964149980545,0.0555232887268066,-4.0698208577156105
6.644296486977589,-1.1843851521492,-1.32161294174194,2.42786713056564
6.644902180496669,0.427462992382049,1.7080867652893101,-0.7814590413093561
6.645507874015748,2.4416744181633,-3.6328067893981904,-0.407835994434356
6.646113567534827,0.8897017619132991,-0.773153469085693,-0.831754451465606
6.6467192610539065,-4.64039833574295,4.8192171363830605,0.15738861494064402
6.647324954572986,0.815456156444549,-0.41629555892944303,0.804043888378144
6.647930648092065,3.2607710978508,-0.548021633148193,-0.932345271778106
6.648536341611145,-2.4465604451179503,-1.53476968002319,3.39545502119064
6.6491420351302235,-0.530544820117951,1.97632895278931,-2.54658843584061
6.649747728649303,-2.3339945271492,-2.2317203636169403,0.296299747753144
6.650353422168383,3.0404293009758,-0.514491359710693,-0.381490779590606
6.650959115687462,1.2345845744133002,-0.571971828460693,2.5045077555656396
6.6515648092065405,-3.5554544880867,0.6878084449768069,-0.371910701465606
6.652170502725621,1.2489546916008,1.73203696060181,-0.910790095996856
6.6527761962447,1.56270225019455,-1.8628873558044399,2.71526947431564
6.6533818897637795,-1.19157021074295,2.07452475357056,-2.82920074052811
6.653987583282859,-1.2562357380867,-2.01616860580444,0.475926212596894
6.654593276801938,-0.801182027149201,-1.4868692893981899,0.09032806806564361
6.655198970321018,3.02366416425705,3.29119467544556,-2.06039947099686
6.655804663840097,1.98422568769455,-5.19435952377319,3.24935882978439
6.656410357359176,-0.918537984180451,2.58705893325806,-3.8782192952156103
6.657016050878256,-1.7591898396491998,3.3726253395080596,3.2900741618156397
6.657621744397335,-0.08267616777420049,-1.59704018783569,1.59919037275314
6.658227437916414,1.8764498087883001,1.02550619888306,-4.98950835771561
6.658833131435494,-2.2142435505867,-3.0101017112731903,4.30556244306564
6.659438824954573,-0.24314247636795,3.5785970191955596,-2.5441934163093602
6.660044518473652,1.1627339884758001,-2.23411538314819,1.96562836103439
6.660650211992732,2.8057173869132996,-1.74553139877319,-2.9369766194343603
6.661255905511811,-0.520964741992951,0.500996921539307,0.765723575878144
6.66186159903089,-3.8428568318367002,2.9798421363830596,2.99788177900314
6.6624672925499695,1.94590537519455,1.8493929176330601,-1.85682281084061
6.663072986069049,1.63455283613205,-4.9404874534606895,3.5631063883781398
6.663678679588128,-1.3664066365242,4.43840903091431,-4.20633697099686
6.664284373107208,-1.8549906208992,-2.07364907455444,0.454371036815644
6.6648900666262865,0.607089457225799,-0.5097013206481931,-1.3035732991218598
6.665495760145366,1.9746456095695502,-0.0115372581481934,2.06861420087814
6.666101453664446,-0.319783101367951,-2.19340005111694,-0.6185977131843561
6.666707147183525,-2.1998734333992003,2.29965658950806,-1.11676177568436
6.667312840702603,-0.19524208574295,0.9871858863830569,3.83613861494064
6.667918534221684,2.0872115275382996,1.0877767066955601,-1.45924956865311
6.668524227740763,-1.32090126543045,-2.71311928939819,0.5837020915031439
6.669129921259842,-2.13520790605545,0.776424167633057,-2.12266997880936
6.669735614778922,-0.1688968708992,0.860249851226807,2.36799164228439
6.670341308298001,1.7854390666008,-1.70960610580444,-0.889234920215606
6.670947001817081,2.2572579142570497,-1.56111489486694,-1.23651275224686
6.67155269533616,-2.55194130449295,0.929705417633057,2.0925643961906397
6.672158388855239,-2.0178519490242,4.31865805435181,-1.37781890459061
6.672764082374319,2.86080283613205,-1.85570229721069,1.44351410322189
6.673369775893398,-0.36528847246170104,-0.995890285491943,-1.11676177568436
6.673975469412477,-2.1831082966804503,0.819534519195557,2.05663910322189
6.674581162931557,-0.7868119099617009,-1.2210221214294399,-1.7011465413093598
6.675186856450636,2.5135250041007997,1.47816489028931,-3.55010161943436
6.675792549969715,1.6848482462883,-4.2147965354919394,4.89234222822189
6.676398243488795,-0.738911519336701,2.8002156715393096,-3.8782192952156103
6.677003937007874,-3.2872123005867,2.67327963638306,2.2650058024406396
6.677609630526953,1.79741416425705,-1.93473794174194,0.751353458690644
6.6782153240460325,2.4560445353508,1.3320686988830601,-0.455736385059356
6.678821017565112,-3.5985648396492,-0.706092922210693,0.7944638102531439
6.679426711084191,-0.07549110918045049,0.577637546539307,-2.61604400224686
6.680032404603271,0.504103617382049,-1.85809731674194,5.43361664228439
6.680638098122349,3.6200240275383,1.03029623794556,-5.27212066240311
6.681243791641429,-1.15324989824295,-1.79343178939819,1.94646820478439
6.681849485160509,-2.82018349199295,2.35713705825806,1.4506991618156402
6.682455178679588,1.39026084394455,3.6791878395080597,-0.276109920215606
6.683060872198667,0.11132041425705,-2.77538979721069,1.67583099775314
6.683666565717747,-0.8442923787117009,0.287840183258057,-3.70098784990311
6.684272259236826,-1.6298587849617,-0.212718898773193,4.11635590009689
6.684877952755905,0.784320902538299,0.951260593414307,-1.2772280842781099
6.685483646274985,2.48238975019455,-3.13224770736694,-1.48080474443436
6.686089339794064,0.700495218944549,0.776424167633057,-1.6245059163093598
6.686695033313144,-5.33495399980545,2.22780600357056,3.96786468915939
6.687300726832223,1.0813033244133001,1.08298666763306,-1.9190933186531098
6.687906420351302,2.8033223673820498,-1.51081948471069,0.0400326579093936
6.688512113870382,-1.3185062458991998,-1.30005776596069,2.5116928141593897
6.689117807389461,-0.8275272419929509,0.9871858863830569,-3.14055327959061
6.68972350090854,-2.11604774980545,-1.2210221214294399,-0.0773232991218564
6.69032919442762,1.92674521894455,-0.21511391830444299,-0.386280818653106
6.690934887946699,1.3639156291008,-1.09169106674194,1.2207772868156401
6.691540581465778,-1.8645706990242,0.7476839332580569,-2.29750640459061
6.692146274984858,0.15922080488205,1.12849203872681,0.988460392284394
6.692751968503937,1.4142110392570502,-0.0809928245544434,2.6577890055656397
6.693357662023016,-1.43107216386795,0.625537937164307,-1.28920318193436
6.693963355542095,-1.7639798787117,-1.50602944564819,-0.671288142871856
6.694569049061175,-1.2083353474617,-0.904879543304443,-0.506031795215606
6.695174742580254,3.5290132853508,2.54394858169556,-0.223419490528106
6.695780436099334,1.1627339884758001,-5.0267081565856895,0.5789120524406439
6.696386129618413,-0.508989644336701,2.2685213356018097,-4.25184234209061
6.696991823137492,-2.2429837849617003,2.63974936294556,5.9365707438468895
6.697597516656572,-0.815552144336701,1.15483725357056,-1.85682281084061
6.698203210175651,2.3506636759757997,-2.02335366439819,-0.803014217090606
6.69880890369473,-1.7831400349617,-1.19946694564819,0.9621151774406439
6.69941459721381,-0.12339149980545,3.0397176246643096,-1.21974761552811
6.700020290732889,0.5927193400382991,-3.67831216049194,1.58242523603439
6.700625984251969,2.7578169962883,0.819534519195557,-4.68773589677811
6.701231677771048,-0.489829488086701,-1.45812905502319,5.07915375165939
6.701837371290127,-2.9519095662117003,4.560555027008061,-1.85203277177811
6.702443064809206,0.599904398632049,-0.016327297210693398,2.14764984540939
6.703048758328286,2.3674288126945497,-2.3251261253356903,-0.355145564746856
6.703654451847365,-1.7496097615242,2.36911215591431,-1.1359219319343599
6.704260145366445,-2.3028592732429503,-1.19707192611694,-0.403045955371856
6.704865838885524,1.2297945353508,-0.5504166526794431,-1.31794341630936
6.705471532404603,1.61060264081955,-1.3287980003356898,3.77147308759689
6.706077225923683,0.46338828535079896,-0.562391750335693,-4.52726958818436
