Time (s),Accel X (m/s^2),Accel Y (m/s^2),Accel Z (m/s^2),CI Value
7.5475,1.83055983123779,2.50605637893677,-0.158764815616608,0.6732696669776131
7.54810569351908,1.99821119842529,0.0559513984680176,-0.242590499210358,0.6732696669776131
7.548711387038159,1.96468092498779,2.5012663398742703,0.222043289852142,0.6732696669776131
7.5493170805572385,-1.55599778594971,2.36954026565552,2.52365705938339,0.6732696669776131
7.549922774076317,-1.09136399688721,-1.07210280075073,-0.982651534366608,0.6732696669776131
7.550528467595397,-2.9451091140747097,-1.07689283981323,0.351374344539642,0.6732696669776131
7.551134161114477,-3.8264763015747096,-2.5210896171569797,-0.8006300499916079,0.6732696669776131
7.5517398546335555,2.1969978195190403,-2.0588508476257297,-2.33104753046036,0.6732696669776131
7.552345548152635,1.62458815155029,1.54086350784302,2.18116926641464,0.6732696669776131
7.552951241671715,1.5000471359252898,1.61750413284302,-1.16706803827286,0.6732696669776131
7.553556935190794,3.1454255538940403,-0.425447527313232,0.217253250789642,0.6732696669776131
7.554162628709873,-1.06022874298096,3.4856193672180202,1.3405174109458902,0.6732696669776131
7.554768322228952,-2.34874925079346,-0.463767839813232,0.590876297664642,0.6732696669776131
7.555374015748032,-1.5631828445434601,-2.8803425468444797,0.909413895320892,0.6732696669776131
7.5559797092671115,-2.22181321563721,-0.413472429656982,-2.08196549921036,0.6732696669776131
7.55658540278619,0.27619215545654296,-3.76649977340698,-0.525202803897858,0.6732696669776131
7.55719109630527,1.9143855148315398,0.5397453437805181,0.401669754695892,0.6732696669776131
7.55779678982435,1.79223951873779,2.23062913284302,-0.352761397647858,0.6732696669776131
7.5584024833434285,2.01258131561279,-0.195525652313232,1.4698484656333901,0.6732696669776131
7.559008176862508,-0.7369011062622071,3.10481126174927,1.83389143438339,0.6732696669776131
7.559613870381587,-0.633915266418457,0.0008659492492675899,-0.276120772647858,0.6732696669776131
7.560219563900667,-0.463868879699707,-2.5282746757507297,-0.850925460147858,0.6732696669776131
7.560825257419746,-3.18940110626221,-0.5380134452819819,0.724997391414642,0.6732696669776131
7.561430950938825,-0.49260911407470703,-2.52587965621948,-1.80174821405411,0.6732696669776131
7.562036644457905,1.9479157882690399,-0.6194441093444819,-0.0725441124916077,0.6732696669776131
7.562642337976984,1.50962721405029,2.0893229804992703,1.1992112586021402,0.6732696669776131
7.563248031496063,2.1275422531127903,0.283478253936768,-0.33120622186660803,0.6732696669776131
7.563853725015143,0.565989518737793,3.1742668281555204,1.4099729773521401,0.6732696669776131
7.564459418534222,-0.698580793762207,1.90011643753052,1.5249339148521401,0.6732696669776131
7.5650651120533015,-0.566854719543457,-3.1869050468444797,-0.6976442101478579,0.6732696669776131
7.565670805572381,-3.4241130203247097,-0.375152117156982,-1.2844239953041099,0.6732696669776131
7.56627649909146,-2.3032438796997097,-2.56659498825073,0.152587723445892,0.6732696669776131
7.56688219261054,1.3323957687377899,-1.67804274215698,-1.0281569054603599,0.6732696669776131
7.567487886129618,1.76589430389404,3.3299430976867703,0.0232566687583923,0.6732696669776131
7.568093579648698,2.1203571945190403,-0.367967058563232,0.909413895320892,0.6732696669776131
7.568699273167778,2.58499098358154,2.56353684768677,-0.573103194522858,0.6732696669776131
7.569304966686857,-1.46738206329346,2.87009934768677,2.04944319219589,0.6732696669776131
7.569910660205936,-1.3787663406372102,-2.12351637496948,-0.49885758905410804,0.6732696669776131
7.570516353725015,-2.55472093048096,-0.7799104179382319,-0.256960616397858,0.6732696669776131
7.571122047244095,-4.42044114532471,-1.80737379684448,-0.750334639835358,0.6732696669776131
7.5717277407631745,2.05569166717529,-2.6144953788757297,-1.65565202264786,0.6732696669776131
7.572333434282253,2.9490339523315403,1.67977464065552,1.04832502813339,0.6732696669776131
7.572939127801333,1.38508619842529,1.7731804023742699,-1.28681901483536,0.6732696669776131
7.573544821320413,2.59696608123779,-0.236240984344482,1.38123274297714,0.6732696669776131
7.574150514839491,-0.940477766418457,3.4592741523742703,0.8207981726646421,0.6732696669776131
7.574756208358571,-2.62417649688721,-0.7391950859069819,1.02197981328964,0.6732696669776131
7.57536190187765,-0.818331770324707,-2.0588508476257297,0.38969465703964196,0.6732696669776131
7.57596759539673,-3.11994553985596,-0.07577467575073239,-2.6328199913978603,0.6732696669776131
7.576573288915809,0.41510328826904297,-4.264663835906981,0.26754866094589197,0.6732696669776131
7.577178982434888,2.34548903045654,1.11934007034302,-0.506042647647858,0.6732696669776131
7.577784675953968,1.2725202804565399,2.4725261054992704,-0.206665206241608,0.6732696669776131
7.578390369473047,2.5466706710815403,-0.8134406913757319,1.52732893438339,0.6732696669776131
7.578996062992126,-0.621940168762207,2.77908860549927,1.06030012578964,0.6732696669776131
7.579601756511206,-1.17997971954346,0.336168683624268,-0.44856217889785804,0.6732696669776131
7.580207450030285,-0.356093000793457,-2.7246662773132297,0.00170149297714229,0.6732696669776131
7.580813143549364,-2.9187638992309597,-0.0877497734069824,0.22443830938339202,0.6732696669776131
7.581418837068444,-0.629125227355957,-2.46600416793823,-1.09042741327286,0.6732696669776131
7.582024530587523,1.8808552413940398,-0.6362092460632319,-0.39826676874160805,0.6732696669776131
7.582630224106603,1.08570875701904,1.98633714065552,0.011281571102142299,0.6732696669776131
7.583235917625681,2.2401081710815403,-0.327251726531982,0.250783524227142,0.6732696669776131
7.583841611144761,0.726455827331543,3.7155412422180203,0.7561326453208921,0.6732696669776131
7.584447304663841,-0.693790754699707,2.59706712112427,1.0674851843833901,0.6732696669776131
7.58505299818292,-0.19562669219970702,-3.5126277030944797,-0.11565446405410801,0.6732696669776131
7.585658691701999,-3.3043620437622097,-1.09365797653198,-1.1047975304603599,0.6732696669776131
7.586264385221078,-2.19307298126221,-1.81216383590698,-0.985046553897858,0.6732696669776131
7.586870078740158,1.51920729217529,-2.54264479293823,0.9956345984458921,0.6732696669776131
7.587475772259237,1.38748121795654,4.52984788284302,-1.82569840936661,0.6732696669776131
7.588081465778316,1.8545100265502898,-0.890081316375732,0.7010471961021421,0.6732696669776131
7.588687159297396,2.75743238983154,0.9157634101867681,1.0459300086021401,0.6732696669776131
7.589292852816476,-0.820726789855957,5.00885178909302,-0.055778975772857696,0.6732696669776131
7.589898546335554,-2.19307298126221,-3.1605598320007298,1.3357273718833902,0.6732696669776131
7.590504239854634,-2.30803391876221,0.163727277374268,-1.7993531945228598,0.6732696669776131
7.591109933373713,-4.14501389923096,-2.3678083671569796,0.851933426570892,0.6732696669776131
7.591715626892793,2.44607985076904,-2.54982985153198,-3.15972428827286,0.6732696669776131
7.592321320411872,1.9311506515502899,2.28092454299927,0.772897782039642,0.6732696669776131
7.592927013930951,0.925242448425293,1.05946458206177,0.107082352352142,0.6732696669776131
7.593532707450031,4.0579279953002905,0.0128410469055176,0.38969465703964196,0.6732696669776131
7.5941384009691095,-1.72843919219971,3.94785813674927,1.45068830938339,0.6732696669776131
7.594744094488189,-2.96666428985596,-0.7176399101257319,-0.704829268741608,0.6732696669776131
7.595349788007269,-0.918922590637207,-3.1030793632507296,1.0291648718833901,0.6732696669776131
7.595955481526348,-2.7654826492309597,1.24388108596802,-2.40289811639786,0.6732696669776131
7.596561175045427,0.24745192108154299,-4.537696062469481,0.26994368047714196,0.6732696669776131
7.597166868564507,2.20897291717529,1.15766038284302,-1.60296159296036,0.6732696669776131
7.597772562083586,0.807886491394043,1.67498460159302,0.933364090633392,0.6732696669776131
7.5983782556026656,2.70713697967529,0.022421125030517602,0.662726883602142,0.6732696669776131
7.598983949121744,-0.672235578918457,3.37544846878052,1.03874495000839,0.6732696669776131
7.599589642640824,-1.2590153640747102,0.17809739456176799,-0.017458663272857698,0.6732696669776131
7.600195336159904,0.542039323425293,-3.1366096366882297,-0.5180177453041079,0.6732696669776131
7.6008010296789825,-3.25646165313721,-0.305696550750732,0.633986649227142,0.6732696669776131
7.601406723198062,-1.15363450469971,-1.74270826950073,-2.1442360070228603,0.6732696669776131
7.602012416717141,1.74673414764404,-1.59421705856323,0.466335282039642,0.6732696669776131
7.602618110236221,1.0761286788940398,2.7742985664367703,0.25796858282089197,0.6732696669776131
7.6032238037553,2.24968824920654,-0.612259050750732,-0.08451921014785771,0.6732696669776131
7.603829497274379,0.836626725769043,3.47843430862427,0.724997391414642,0.6732696669776131
7.604435190793459,-1.05064866485596,2.6880778633117703,1.08664534063339,0.6732696669776131
7.6050408843125386,0.16362623748779298,-3.50783766403198,-0.568313155460358,0.6732696669776131
7.605646577831617,-3.14629075469971,0.264318097686768,-1.4401002648353598,0.6732696669776131
7.606252271350697,-3.4145329421997097,-2.41331373825073,0.25796858282089197,0.6732696669776131
7.606857964869776,2.4532649093627903,-2.2456623710632297,-1.2556837609291098,0.6732696669776131
7.6074636583888555,1.31323561248779,3.1742668281555204,-0.431797042179108,0.6732696669776131
7.608069351907935,2.1203571945190403,0.158937238311768,0.16935286016464202,0.6732696669776131
7.608675045427014,2.7789875656127903,1.60792405471802,0.629196610164642,0.6732696669776131
7.609280738946094,-1.96315110626221,3.50717454299927,1.7380906531333902,0.6732696669776131
7.6098864324651725,-0.7776164382934571,-1.45051588668823,-0.683274092960358,0.6732696669776131
7.610492125984252,-2.77985276641846,-1.73552321090698,0.7585276648521421,0.6732696669776131
7.611097819503332,-4.233629621887211,-0.7942805351257319,-1.67720719842911,0.6732696669776131
7.611703513022411,2.13233229217529,-3.3353962577819796,-1.01378678827286,0.6732696669776131
7.61230920654149,1.81379469451904,2.1252482734680203,-0.405451827335358,0.6732696669776131
7.61291490006057,1.23180494842529,1.32291673049927,-0.728779464054108,0.6732696669776131
7.613520593579649,3.0855500656127903,-0.8589460624694819,2.1308738562583898,0.6732696669776131
7.6141262870987285,-0.997958235168457,4.357406476593019,-0.206665206241608,0.6732696669776131
7.614731980617807,-2.12840745391846,-0.420657488250732,0.5357908484458921,0.6732696669776131
7.615337674136887,-1.19195481719971,-1.97263014450073,0.212463211727142,0.6732696669776131
7.615943367655967,-2.67207688751221,-0.849365984344482,-1.3969899132728598,0.6732696669776131
7.6165490611750455,0.489348893737793,-3.63716871871948,-0.6760890343666079,0.6732696669776131
7.617154754694125,1.4186164718627898,0.453524640655518,-0.228220382022858,0.6732696669776131
7.617760448213204,1.5599226242065398,2.5946721015930203,-0.769494796085358,0.6732696669776131
7.618366141732284,2.1011970382690404,-0.456582781219482,1.39320784063339,0.6732696669776131
7.618971835251363,-0.396808332824707,3.25809251174927,-0.256960616397858,0.6732696669776131
7.619577528770442,-0.478238996887207,0.302638410186768,0.210068192195892,0.6732696669776131
7.620183222289522,-0.708160871887207,-3.1869050468444797,0.9189939734458921,0.6732696669776131
7.6207889158086015,-2.85170335235596,0.453524640655518,-0.9395411828041079,0.6732696669776131
7.62139460932768,-0.950057844543457,-2.6767658866882296,-0.5802882531166079,0.6732696669776131
7.62200030284676,1.6197981124877898,-0.765540300750732,-0.834160323429108,0.6732696669776131
7.622605996365839,0.886922135925293,1.44266770706177,0.6148264929771421,0.6732696669776131
7.6232116898849185,2.29519362030029,-0.023084246063232398,-0.304861007022858,0.6732696669776131
7.623817383403998,0.824651628112793,4.07239915237427,1.2207664343833902,0.6732696669776131
7.624423076923077,-0.715345930480957,2.28331956253052,1.52732893438339,0.6732696669776131
7.625028770442157,-0.511769270324707,-3.35695143356323,-0.992231612491608,0.6732696669776131
7.625634463961236,-3.2253263992309598,-1.15113844528198,-1.26526383905411,0.6732696669776131
7.626240157480315,-2.5427458328247097,-1.86964430465698,0.0472068640708923,0.6732696669776131
7.626845850999395,1.24378004608154,-1.64211744918823,-0.055778975772857696,0.6732696669776131
7.627451544518474,1.8377448898315398,3.0138005195617703,-0.482092452335358,0.6732696669776131
7.628057238037553,2.9394538742065404,-0.547593523406982,0.205278153133392,0.6732696669776131
7.628662931556633,2.53230055389404,1.63187425003052,0.0424168250083923,0.6732696669776131
7.629268625075712,-1.6015031570434601,4.18975510940552,2.02549299688339,0.6732696669776131
7.6298743185947915,-1.2422502273559601,-1.75707838668823,-0.0677540734291077,0.6732696669776131
7.630480012113871,-2.51161057891846,-1.61816725387573,-0.949121260929108,0.6732696669776131
7.63108570563295,-4.0516081375122095,-1.12479323043823,-0.6976442101478579,0.6732696669776131
7.63169139915203,1.82576979217529,-2.9665632499694796,-1.5335060265541098,0.6732696669776131
7.6322970926711085,2.33111891326904,1.69414475784302,0.861513504695892,0.6732696669776131
7.632902786190188,1.08810377655029,1.40195237503052,-0.29049088983535803,0.6732696669776131
7.633508479709268,2.9226887374877903,-0.5404084648132319,1.1010154578208902,0.6732696669776131
7.634114173228347,-1.39074143829346,4.10592942581177,0.583691239070892,0.6732696669776131
7.634719866747426,-2.26252854766846,-0.260191179656982,-0.508437667179108,0.6732696669776131
7.635325560266505,-1.20153489532471,-2.4851643241882297,0.662726883602142,0.6732696669776131
7.635931253785585,-2.98342942657471,-0.284141374969482,-1.4089650109291099,0.6732696669776131
7.6365369473046645,0.463003678894043,-3.4886775077819796,0.032836746883392304,0.6732696669776131
7.637142640823743,1.6533283859252899,0.6355461250305181,-1.31795426874161,0.6732696669776131
7.637748334342823,1.52639235076904,2.29050462112427,-0.8964308312416079,0.6732696669776131
7.638354027861903,2.04611158905029,-1.10802809371948,2.47096662969589,0.6732696669776131
7.6389597213809814,-0.31298264923095703,3.73470139846802,-0.0222487023353577,0.6732696669776131
7.639565414900061,-1.0793888992309602,0.499030011749268,0.18372297735214202,0.6732696669776131
7.64017110841914,-0.344117903137207,-3.08152418746948,-0.45095719842910803,0.6732696669776131
7.64077680193822,-2.64333665313721,-0.353596941375732,-0.19948014764785799,0.6732696669776131
7.641382495457299,-1.38834641876221,-2.6168903984069796,-1.03534196405411,0.6732696669776131
7.641988188976378,1.6317732101440399,-0.7152448905944819,0.00649153203964229,0.6732696669776131
7.642593882495458,1.16474440155029,2.0318425117492698,0.550160965633392,0.6732696669776131
7.643199576014537,2.17783766326904,0.108641828155518,-1.1191676476478598,0.6732696669776131
7.643805269533616,1.06654860076904,3.07846604690552,1.9440623328208901,0.6732696669776131
7.644410963052696,-0.514164289855957,2.70005296096802,1.01479475469589,0.6732696669776131
7.645016656571775,-0.454288801574707,-3.06236403121948,-1.06168717889786,0.6732696669776131
7.6456223500908544,-3.41213792266846,-1.06970778121948,-0.5994484093666079,0.6732696669776131
7.646228043609934,-3.0648600906372097,-2.34625319137573,0.5765061804771421,0.6732696669776131
7.646833737129013,1.74673414764404,-1.66846266403198,-1.20299333124161,0.6732696669776131
7.647439430648093,1.88325026092529,2.9635051094055203,-0.376711592960358,0.6732696669776131
7.648045124167171,2.3933894210815403,-0.480532976531982,0.832773270320892,0.6732696669776131
7.648650817686251,2.98016920623779,1.42829758987427,0.765712723445892,0.6732696669776131
7.64925651120533,-2.16912278594971,4.26160569534302,1.99675276250839,0.6732696669776131
7.64986220472441,-1.77873460235596,-1.35232008590698,-0.611423507022858,0.6732696669776131
7.650467898243489,-1.84819016876221,-2.6073103202819796,0.7752928015708921,0.6732696669776131
7.651073591762568,-3.72588548126221,-0.791885515594482,-1.2173634484291098,0.6732696669776131
7.651679285281647,1.13839918670654,-2.35343824996948,-2.50109391717911,0.6732696669776131
7.652284978800727,2.01258131561279,1.33249680862427,1.15849592657089,0.6732696669776131
7.652890672319806,1.3707160812377899,1.64624436721802,-1.4401002648353598,0.6732696669776131
7.653496365838886,2.95621901092529,-0.942771746063232,1.6446848914146401,0.6732696669776131
7.654102059357966,-1.20871995391846,3.74667649612427,1.3740476843833902,0.6732696669776131
7.654707752877044,-2.1475676101684598,0.649916242218018,-0.427007003116608,0.6732696669776131
7.655313446396124,-1.1344743484497102,-2.7438264335632296,1.05551008672714,0.6732696669776131
7.655919139915203,-2.89481370391846,-0.346411882781982,-2.21848161249161,0.6732696669776131
7.656524833434283,0.388758073425293,-3.95570631637573,-0.25217057733535797,0.6732696669776131
7.657130526953362,2.3406989913940404,0.499030011749268,-1.1024025109291098,0.6732696669776131
7.657736220472441,1.36592604217529,2.85572923049927,0.028046707820892303,0.6732696669776131
7.658341913991521,2.01497633514404,-0.770330339813232,1.42434309453964,0.6732696669776131
7.6589476075106,0.252241960144043,3.15510667190552,0.23880842657089202,0.6732696669776131
7.659553301029679,-1.4649870437622101,0.769667218780518,0.842353348445892,0.6732696669776131
7.660158994548758,-0.42315354766845703,-3.3330012382507297,-0.209060225772858,0.6732696669776131
7.660764688067839,-2.7391374343872097,-0.193130632781982,-0.635373702335358,0.6732696669776131
7.661370381586917,-1.41469163360596,-1.71875807418823,-0.9778614953041079,0.6732696669776131
7.661976075105996,1.5718977218627899,-1.48644117965698,0.531000809383392,0.6732696669776131
7.662581768625076,1.0928938156127899,2.21386399612427,-0.630583663272858,0.6732696669776131
7.663187462144156,2.4197346359252903,-0.0973298515319824,0.495075516414642,0.6732696669776131
7.663793155663234,0.834231706237793,2.67370774612427,2.3368455359458897,0.6732696669776131
7.664398849182314,-1.05064866485596,4.08437425003052,-0.764704757022858,0.6732696669776131
7.665004542701394,-0.032765364074707,-3.7090193046569797,0.746552567195892,0.6732696669776131
7.6656102362204726,-2.5690910476684596,-1.12718824996948,-0.913195967960358,0.6732696669776131
7.666215929739552,-3.5678141921997097,-1.80737379684448,-0.733569503116608,0.6732696669776131
7.666821623258631,1.65572340545654,-2.8276521171569797,-0.108469405460358,0.6732696669776131
7.667427316777711,1.84253492889404,3.47843430862427,-0.613818526554108,0.6732696669776131
7.66803301029679,1.71559889373779,-0.195525652313232,1.1489158484458901,0.6732696669776131
7.668638703815869,3.4543830734252903,0.8415178047180181,0.23401838750839202,0.6732696669776131
7.669244397334949,-1.6015031570434601,4.26639573440552,0.586086258602142,0.6732696669776131
7.669850090854029,-1.20632493438721,-1.23017408981323,-0.26175065546035803,0.6732696669776131
7.670455784373107,-1.96315110626221,-1.31878981246948,0.370534500789642,0.6732696669776131
7.671061477892187,-4.3318254226684605,-1.47446608200073,-0.611423507022858,0.6732696669776131
7.671667171411267,1.6964387374877898,-3.03122877731323,-2.0101149132728597,0.6732696669776131
7.6722728649303455,2.04371656951904,1.26304124221802,1.5584641882896402,0.6732696669776131
7.672878558449425,1.29647047576904,2.7240031562805203,-1.98137467889786,0.6732696669776131
7.673484251968504,2.79335768280029,-0.691294695281982,1.3141721961021402,0.6732696669776131
7.674089945487584,-0.732111067199707,3.28204270706177,1.7117454382896402,0.6732696669776131
7.674695639006663,-1.69730393829346,0.7960124336242681,-1.0281569054603599,0.6732696669776131
7.675301332525742,-1.61108323516846,-3.28510084762573,1.2303465125083901,0.6732696669776131
7.675907026044821,-2.64812669219971,1.35644700393677,-2.9226173546791103,0.6732696669776131
7.676512719563902,-0.17646653594970702,-5.31847242965698,1.64707991094589,0.6732696669776131
7.67711841308298,2.81491285858154,1.22232591018677,-1.45926042108536,0.6732696669776131
7.677724106602059,0.9396125656127929,2.43420579299927,-0.49885758905410804,0.6732696669776131
7.67832980012114,2.06527174530029,-1.06970778121948,0.31784407110214197,0.6732696669776131
7.6789354936402185,0.721665788269043,3.60776536331177,0.868698563289642,0.6732696669776131
7.679541187159297,-2.07811204376221,0.00565598831176759,2.18595930547714,0.6732696669776131
7.680146880678377,0.12051588592529301,-2.1953669609069797,-1.5071608117103599,0.6732696669776131
7.680752574197457,-2.57148606719971,-0.9020564140319819,0.008886551570892291,0.6732696669776131
7.6813582677165355,-1.1177092117309602,-2.2217121757507297,-1.42812516717911,0.6732696669776131
7.681963961235615,1.71080885467529,-1.47207106246948,-0.055778975772857696,0.6732696669776131
7.682569654754694,1.0066731124877901,2.0797429023742704,-0.19948014764785799,0.6732696669776131
7.683175348273774,2.12275221405029,0.209232648468018,0.0543919226646423,0.6732696669776131
7.683781041792853,0.886922135925293,2.7383732734680204,0.629196610164642,0.6732696669776131
7.684386735311932,-0.732111067199707,3.0569108711242703,0.26036360235214195,0.6732696669776131
7.684992428831013,-0.133356184387207,-2.77256666793823,-0.07733415155410771,0.6732696669776131
7.6855981223500915,-2.93313401641846,-1.19903883590698,-0.7814698937416079,0.6732696669776131
7.68620381586917,-3.2181413406372097,-1.91754469528198,0.645961746883392,0.6732696669776131
7.68680950938825,1.60063795623779,-2.58336012496948,-0.472512374210358,0.6732696669776131
7.68741520290733,1.56231764373779,3.05212083206177,-1.0545021203041098,0.6732696669776131
7.6880208964264085,1.77068434295654,0.0367912422180176,0.650751785945892,0.6732696669776131
7.688626589945488,3.20051100311279,0.400834210968018,0.966894364070892,0.6732696669776131
7.689232283464567,-1.1440544265747101,4.9633464179992695,0.29868391485214196,0.6732696669776131
7.689837976983647,-2.0637419265747097,-1.41938063278198,0.744157547664642,0.6732696669776131
7.690443670502726,-1.9176457351684602,-2.5019294609069798,0.588481278133392,0.6732696669776131
7.691049364021805,-4.159384016418461,-0.454187761688232,-1.6412819054603598,0.6732696669776131
7.691655057540884,1.07852369842529,-3.29468092575073,-1.3203492882728598,0.6732696669776131
7.6922607510599645,2.82688795623779,1.7133049140930199,-0.11804948358535801,0.6732696669776131
7.692866444579043,1.58387281951904,1.72767503128052,-0.156369796085358,0.6732696669776131
7.693472138098122,2.81730787811279,-0.159600359344482,0.107082352352142,0.6732696669776131
7.694077831617203,-1.1560295242309602,3.48801438674927,1.5752293250083902,0.6732696669776131
7.6946835251362815,-1.81705491485596,-0.688899675750732,0.849538407039642,0.6732696669776131
7.69528921865536,-1.3572111648559602,-1.05294264450073,-1.26526383905411,0.6732696669776131
7.69589491217444,-3.68517014923096,-0.6601594413757319,0.40885481328964196,0.6732696669776131
7.69650060569352,0.563594499206543,-3.8790656913757298,-1.3490895226478599,0.6732696669776131
7.6971062992125985,2.2568733078002903,0.302638410186768,-1.1694630578041099,0.6732696669776131
7.697711992731678,1.3802961593627898,2.25697434768677,0.411249832820892,0.6732696669776131
7.698317686250757,2.33830397186279,-0.011109148406982398,1.1177805945396402,0.6732696669776131
7.698923379769837,0.10375074920654301,2.50366135940552,1.4171580359458902,0.6732696669776131
7.699529073288916,-1.2590153640747102,0.750507062530518,-0.386291671085358,0.6732696669776131
7.700134766807995,-0.768036360168457,-3.03841383590698,0.6148264929771421,0.6732696669776131
7.700740460327076,-2.6864470046997098,0.587645734405518,-0.709619307804108,0.6732696669776131
7.7013461538461545,-0.926107649230957,-2.4851643241882297,-1.08563737421036,0.6732696669776131
7.701951847365233,1.57908278045654,-1.83371901168823,0.0496018836021423,0.6732696669776131
7.702557540884313,1.0066731124877901,2.18033372268677,-0.743149581241608,0.6732696669776131
7.703163234403393,2.5131403976440403,-0.0733796562194824,0.109477371883392,0.6732696669776131
7.7037689279224715,1.06654860076904,3.54070481643677,1.54888411016464,0.6732696669776131
7.704374621441551,-0.868627180480957,2.47731614456177,0.346584305477142,0.6732696669776131
7.70498031496063,0.321697526550293,-2.17381178512573,-1.4185450890541098,0.6732696669776131
7.70558600847971,-3.02653977813721,-1.30920973434448,0.480705399227142,0.6732696669776131
7.706191701998789,-3.15587083282471,-2.6336555351257296,-0.28091081171035803,0.6732696669776131
7.706797395517868,1.5934528976440399,-1.54392164840698,-1.91670915155411,0.6732696669776131
7.707403089036947,1.2821003585815398,2.8868644844055202,0.662726883602142,0.6732696669776131
7.7080087825560275,2.3933894210815403,0.283478253936768,0.454360184383392,0.6732696669776131
7.708614476075106,2.83407301483154,-0.312881609344482,0.787267899227142,0.6732696669776131
7.709220169594185,-0.803961653137207,5.14057786331177,-0.0270387413978577,0.6732696669776131
7.709825863113266,-2.63854661407471,-1.81216383590698,2.29852522344589,0.6732696669776131
7.7104315566323445,-2.0182365554809603,-1.18466871871948,-0.6018434288978579,0.6732696669776131
7.711037250151423,-3.4408781570434597,-0.6936897148132319,-2.1969264367103603,0.6732696669776131
7.711642943670503,0.944402604675293,-4.5233259452819805,-0.343181319522858,0.6732696669776131
7.712248637189583,2.37183424530029,1.93843675003052,-1.24131364374161,0.6732696669776131
7.712854330708661,1.1623493820190398,1.90251145706177,-0.453352217960358,0.6732696669776131
7.713460024227741,3.13584547576904,0.0703215156555176,1.42434309453964,0.6732696669776131
7.71406571774682,-0.552484602355957,3.0138005195617703,1.12017561407089,0.6732696669776131
7.7146714112659,-1.95357102813721,-0.583518816375732,-0.297675948429108,0.6732696669776131
7.715277104784979,-1.6398234695434601,-2.61928541793823,0.09989729375839229,0.6732696669776131
7.715882798304058,-2.91397386016846,0.824752667999268,-0.8796656945228579,0.6732696669776131
7.716488491823137,0.10614576873779301,-4.28861403121948,0.588481278133392,0.6732696669776131
7.7170941853422175,2.15628248748779,0.408019269561768,-2.24961686639786,0.6732696669776131
7.717699878861296,0.8198615890502929,2.4653410469055204,-0.106074385929108,0.6732696669776131
7.718305572380376,2.4436848312377903,-0.403892351531982,1.64228987188339,0.6732696669776131
7.718911265899456,0.15404615936279298,3.0736760078430203,0.181327957820892,0.6732696669776131
7.719516959418534,-1.30931077423096,0.7576921211242681,0.42801496953964197,0.6732696669776131
7.720122652937614,-0.301007551574707,-2.9066877616882296,0.804033035945892,0.6732696669776131
7.720728346456693,-2.75111253204346,0.261923078155518,-0.826975264835358,0.6732696669776131
7.721334039975773,-0.904552473449707,-2.86597242965698,-0.644953780460358,0.6732696669776131
7.721939733494852,1.7132038742065399,-1.84808912887573,0.09989729375839229,0.6732696669776131
7.722545427013931,0.676160417175293,2.42941575393677,0.0448118445396423,0.6732696669776131
7.72315112053301,2.15628248748779,0.281083234405518,-0.45814225702285805,0.6732696669776131
7.7237568140520905,1.15995436248779,3.3371281562805204,1.03395491094589,0.6732696669776131
7.724362507571169,-0.782406477355957,1.74444016799927,2.09494856328964,0.6732696669776131
7.724968201090248,0.0821955734252929,-2.20973707809448,-2.12268083124161,0.6732696669776131
7.725573894609329,-3.58218430938721,-0.664949480438232,0.09989729375839229,0.6732696669776131
7.726179588128407,-2.88044358673096,-1.90796461715698,1.1393357703208902,0.6732696669776131
7.726785281647486,1.4617268234252898,-2.3749934257507297,-1.9358693078041098,0.6732696669776131
7.727390975166566,1.2222248703002898,3.0114055000305204,0.028046707820892303,0.6732696669776131
7.727996668685646,1.86409010467529,-0.389522234344482,1.92011213750839,0.6732696669776131
7.728602362204724,3.2388313156127904,0.8367277656555181,-0.525202803897858,0.6732696669776131
7.729208055723804,-0.578829817199707,5.195663312530519,-0.00308854608535771,0.6732696669776131
7.729813749242883,-2.15475266876221,-1.54631666793823,0.871093582820892,0.6732696669776131
7.730419442761963,-1.82184495391846,-1.85048414840698,0.356164383602142,0.6732696669776131
7.731025136281042,-3.6540348953247097,-1.02180739059448,-1.0760572960853598,0.6732696669776131
7.731630829800121,0.645025163269043,-3.3066560234069797,-1.1526979210853598,0.6732696669776131
7.732236523319201,2.4269196945190403,0.769667218780518,1.01958479375839,0.6732696669776131
7.73284221683828,1.68206862030029,2.39109544143677,-1.8209083703041098,0.6732696669776131
7.733447910357359,2.26884840545654,-0.442212664031982,1.8362864539146402,0.6732696669776131
7.734053603876439,-0.296217512512207,3.92630296096802,0.186117996883392,0.6732696669776131
7.734659297395519,-1.80028977813721,-0.523643328094482,1.7596458289146402,0.6732696669776131
7.735264990914597,-1.50570237579346,-2.1714167655944796,0.485495438289642,0.6732696669776131
7.735870684433677,-2.5259806961059597,0.690631574249268,-2.76694108514786,0.6732696669776131
7.736476377952756,-0.396808332824707,-4.85383864059448,0.784872879695892,0.6732696669776131
7.737082071471836,2.68079176483154,1.16724046096802,-1.7298976281166099,0.6732696669776131
7.737687764990915,1.12402906951904,1.47619798049927,1.9440623328208901,0.6732696669776131
7.738293458509994,2.23771315155029,0.156542218780518,-1.17185807733536,0.6732696669776131
7.738899152029074,0.45581862030029296,2.97548020706177,1.6446848914146401,0.6732696669776131
7.739504845548153,-1.4985173171997102,0.506215070343018,1.71414045782089,0.6732696669776131
7.740110539067232,-0.102220930480957,-2.57857008590698,-1.6149366906166098,0.6732696669776131
7.740716232586311,-2.69363206329346,-1.11760817184448,0.5357908484458921,0.6732696669776131
7.741321926105392,-1.40990159454346,-1.68043776168823,-1.12874772577286,0.6732696669776131
7.74192761962447,1.50244215545654,-1.52236647262573,-0.201875167179108,0.6732696669776131
7.742533313143549,1.11684401092529,1.84503098831177,0.0591819617271423,0.6732696669776131
7.743139006662629,2.3670442062377903,0.350538800811768,-0.197085128116608,0.6732696669776131
7.743744700181709,0.7192707687377929,2.31445481643677,1.01479475469589,0.6732696669776131
7.744350393700787,-0.813541731262207,3.4233488594055204,0.157377762508392,0.6732696669776131
7.744956087219867,0.0007649093627929539,-2.6480256523132297,0.08552717657089229,0.6732696669776131
7.745561780738947,-2.36551438751221,-1.05773268356323,-0.666508956241608,0.6732696669776131
7.7461674742580255,-3.7642057937622098,-1.96784010543823,0.372929520320892,0.6732696669776131
7.746773167777105,1.10486891326904,-2.59294020309448,-1.15509294061661,0.6732696669776131
7.747378861296184,1.63416822967529,2.5946721015930203,0.200488114070892,0.6732696669776131
7.747984554815264,1.5599226242065398,0.9564787422180181,0.24838850469589202,0.6732696669776131
7.748590248334343,3.42324781951904,0.554115460968018,0.351374344539642,0.6732696669776131
7.749195941853422,-1.12489427032471,3.8951677070617703,0.993239578914642,0.6732696669776131
7.749801635372503,-1.5536027664184602,-0.569148699188232,-0.24498551874160798,0.6732696669776131
7.750407328891582,-1.64940354766846,-2.1857868827819797,0.708232254695892,0.6732696669776131
7.75101302241066,-4.34380052032471,0.293058332061768,-2.46756364374161,0.6732696669776131
7.75161871592974,0.496533952331543,-3.7353645195007297,-0.09409928827285771,0.6732696669776131
7.75222440944882,2.89155348358154,0.812777570343018,0.5166306921958921,0.6732696669776131
7.7528301029678985,1.17192946014404,2.02226243362427,-0.870085616397858,0.6732696669776131
7.753435796486978,2.5131403976440403,-0.011109148406982398,-0.266540694522858,0.6732696669776131
7.754041490006057,-0.427943586730957,3.3970036445617704,1.9177171179771402,0.6732696669776131
7.754647183525137,-2.12122239532471,0.47986985549926797,0.8160081336021421,0.6732696669776131
7.755252877044216,-1.23027512969971,-2.5713850273132297,-0.431797042179108,0.6732696669776131
7.755858570563295,-2.89481370391846,-0.971511980438232,-0.7790748742103579,0.6732696669776131
7.756464264082374,0.412708268737793,-2.67197584762573,-0.553943038272858,0.6732696669776131
7.757069957601455,1.8113996749877899,0.101456769561768,-0.355156417179108,0.6732696669776131
7.757675651120533,1.30605055389404,2.4485759101867703,-0.546757979679108,0.6732696669776131
7.758281344639612,1.8329548507690399,-0.629024187469482,1.0842503211021401,0.6732696669776131
7.758887038158693,0.0726154953002929,3.09283616409302,-0.33839128046035805,0.6732696669776131
7.7594927316777715,-0.988378157043457,1.04988450393677,1.55127912969589,0.6732696669776131
7.76009842519685,-0.700975813293457,-2.7677766288757297,0.0735520789146423,0.6732696669776131
7.76070411871593,-1.76196946563721,-0.126070085906982,-1.1910182335853599,0.6732696669776131
7.76130981223501,-1.6565886062622102,-2.39654860153198,-0.0246437218666077,0.6732696669776131
7.7619155057540885,1.3491609054565399,-0.9355866874694819,-0.8605055382728579,0.6732696669776131
7.762521199273168,1.07373365936279,1.37560716018677,0.416039871883392,0.6732696669776131
7.763126892792247,2.25208326873779,0.5972258125305181,-0.812605147647858,0.6732696669776131
7.763732586311327,1.64374830780029,3.26527757034302,0.744157547664642,0.6732696669776131
7.764338279830406,-0.530929426574707,2.7407682929992703,1.16328596563339,0.6732696669776131
7.764943973349485,-0.375253157043457,-2.3678083671569796,-0.35036637811660803,0.6732696669776131
7.765549666868566,-2.79422288360596,-1.69001783981323,-0.12283952264785801,0.6732696669776131
7.7661553603876445,-3.1678459304809596,-1.36908522262573,-0.446167159366608,0.6732696669776131
7.766761053906723,1.15516432342529,-1.92712477340698,-1.09521745233536,0.6732696669776131
7.767366747425803,1.85211500701904,1.93604173049927,1.12975569219589,0.6732696669776131
7.767972440944883,1.6748835617065398,0.125406964874268,1.17526106328964,0.6732696669776131
7.7685781344639615,2.84365309295654,1.10736497268677,-1.1263527062416099,0.6732696669776131
7.769183827983041,-0.8566520828247071,4.71905442581177,2.03986311407089,0.6732696669776131
7.76978952150212,-2.07811204376221,-1.02659742965698,0.770502762508392,0.6732696669776131
7.7703952150212,-1.81705491485596,-2.09956617965698,-0.929961104679108,0.6732696669776131
7.771000908540279,-4.18333421173096,-0.9188215507507319,-0.755124678897858,0.6732696669776131
7.771606602059358,1.10486891326904,-2.72945631637573,-1.17664811639786,0.6732696669776131
7.772212295578437,2.81012281951904,0.6618913398742681,0.9597093054771421,0.6732696669776131
7.7728179890975175,0.910872331237793,2.31684983596802,-1.4951857140541098,0.6732696669776131
7.773423682616596,2.2233430343627902,-0.7990705741882319,0.669911942195892,0.6732696669776131
7.774029376135675,-0.23155198516845701,3.58142014846802,1.30459211797714,0.6732696669776131
7.774635069654756,-2.35593430938721,0.8630729804992681,1.3237522742271401,0.6732696669776131
7.7752407631738345,-0.763246321105957,-2.8444172538757297,-0.357551436710358,0.6732696669776131
7.775846456692913,-2.5858561843872097,-0.0278742851257324,-1.0664772179603599,0.6732696669776131
7.776452150211993,-1.00514329376221,-3.9676814140319796,0.971684403133392,0.6732696669776131
7.777057843731073,2.67121168670654,0.463104718780518,-2.4100831749916103,0.6732696669776131
7.7776635372501515,0.970747819519043,1.90730149612427,0.9956345984458921,0.6732696669776131
7.778269230769231,1.95510084686279,0.020026105499267602,0.463940262508392,0.6732696669776131
7.77887492428831,0.728850846862793,2.6282023750305203,1.12975569219589,0.6732696669776131
7.77948061780739,-1.6613786453247101,1.13850022659302,1.34291243047714,0.6732696669776131
7.780086311326469,0.156441178894043,-2.8731574882507296,-1.0928224328041098,0.6732696669776131
7.780692004845548,-2.50442552032471,-0.791885515594482,-0.125234542179108,0.6732696669776131
7.781297698364627,-1.60868821563721,-1.76665846481323,-0.726384444522858,0.6732696669776131
7.7819033918837075,1.90720045623779,-1.91993971481323,0.507050614070892,0.6732696669776131
7.782509085402786,1.2389900070190398,2.4054655586242704,-0.589868331241608,0.6732696669776131
7.783114778921866,2.35506910858154,-0.159600359344482,-0.285700850772858,0.6732696669776131
7.783720472440946,1.33479078826904,2.5012663398742703,1.26627180547714,0.6732696669776131
7.7843261659600245,-0.514164289855957,3.7490715156555203,0.5046555945396419,0.6732696669776131
7.784931859479104,0.331277604675293,-2.37020338668823,0.24359846563339202,0.6732696669776131
7.785537552998183,-2.4996354812622097,-1.77623854293823,-0.5371779015541079,0.6732696669776131
7.786143246517263,-3.85521653594971,-2.18099684371948,0.0160716101646423,0.6732696669776131
7.786748940036342,0.872552018737793,-2.1546516288757296,-1.13832780389786,0.6732696669776131
7.787354633555421,1.38508619842529,2.7814836250305204,0.413644852352142,0.6732696669776131
7.7879603270745,1.98144606170654,0.5804606758117681,-0.211455245304108,0.6732696669776131
7.7885660205935805,3.04483473358154,0.166122296905518,-0.7359645226478579,0.6732696669776131
7.789171714112659,-1.07220384063721,4.59930344924927,1.21118635625839,0.6732696669776131
7.789777407631738,-1.4769621414184602,-0.564358660125732,0.375324539852142,0.6732696669776131
7.790383101150819,-1.81705491485596,-2.9929084648132296,1.2590867468833902,0.6732696669776131
7.7909887946698975,-4.207284407043461,0.0607414375305176,-2.77412614374161,0.6732696669776131
7.791594488188976,0.791121354675293,-3.78086989059448,0.485495438289642,0.6732696669776131
7.792200181708056,2.7622224288940402,0.8798381172180181,0.729787430477142,0.6732696669776131
7.792805875227136,1.77547438201904,3.57184007034302,-2.83160661249161,0.6732696669776131
7.793411568746214,2.00060621795654,-2.0588508476257297,3.07451155157089,0.6732696669776131
7.794017262265294,0.11572584686279301,4.869940656280519,-0.8820607140541079,0.6732696669776131
7.794622955784373,-2.61459641876221,-0.0685896171569824,2.2697849890708897,0.6732696669776131
7.795228649303453,-1.06501878204346,-2.17620680465698,-0.764704757022858,0.6732696669776131
7.795834342822532,-2.9019987625122097,-0.391917253875732,-1.0377369835853598,0.6732696669776131
7.796440036341611,-0.528534407043457,-3.93654616012573,-0.412636885929108,0.6732696669776131
7.79704572986069,3.1214753585815402,0.690631574249268,-2.03167008905411,0.6732696669776131
7.7976514233797705,0.527669206237793,1.67498460159302,2.93799543828964,0.6732696669776131
7.798257116898849,2.17783766326904,0.113431867218018,-0.867690596866608,0.6732696669776131
7.798862810417929,0.257031999206543,1.83066087112427,1.7093504187583901,0.6732696669776131
7.799468503937009,-1.64940354766846,1.94083176956177,0.40885481328964196,0.6732696669776131
7.800074197456087,-0.056715559387207,-2.55940992965698,-0.242590499210358,0.6732696669776131
7.800679890975167,-2.42778489532471,-0.825415789031982,-0.00308854608535771,0.6732696669776131
7.801285584494246,-1.6613786453247101,-1.96784010543823,-1.2604737999916098,0.6732696669776131
7.801891278013326,1.7730793624877899,-1.63253737106323,-0.00069352655410771,0.6732696669776131
7.802496971532405,0.750406022644043,2.5874870429992702,-1.1047975304603599,0.6732696669776131
7.803102665051484,1.94552076873779,0.295453351593018,0.7968479773521421,0.6732696669776131
7.803708358570564,1.27012526092529,1.89772141799927,1.2542967078208902,0.6732696669776131
7.8043140520896435,-0.49260911407470703,3.59100022659302,0.11905745000839199,0.6732696669776131
7.804919745608722,0.125305924987793,-2.6073103202819796,0.25796858282089197,0.6732696669776131
7.805525439127801,-2.50442552032471,-0.7799104179382319,-1.2221534874916098,0.6732696669776131
7.806131132646882,-3.89593186798096,-2.2480573905944796,1.1824461218833902,0.6732696669776131
7.80673682616596,1.39945631561279,-2.1450715507507296,-1.7179225304603598,0.6732696669776131
7.807342519685039,1.5934528976440399,2.3455900703430204,0.37771955938339197,0.6732696669776131
7.807948213204119,1.56471266326904,0.7768522773742681,-0.211455245304108,0.6732696669776131
7.808553906723199,3.3178669601440403,0.396044171905518,-0.453352217960358,0.6732696669776131
7.809159600242277,-0.744086164855957,4.6040934883117695,1.64228987188339,0.6732696669776131
7.809765293761357,-1.9942863601684602,-0.5547785820007319,0.0136765906333923,0.6732696669776131
7.810370987280436,-1.74759934844971,-2.8635774101257296,0.5549510046958921,0.6732696669776131
7.810976680799516,-3.8863517898559596,-0.456582781219482,-1.06408219842911,0.6732696669776131
7.811582374318595,0.221106706237793,-3.4623322929382296,-0.357551436710358,0.6732696669776131
7.812188067837674,2.7023469406127902,1.55523362503052,-0.7024342492103579,0.6732696669776131
7.812793761356753,1.33479078826904,1.6534294258117699,-0.9419362023353579,0.6732696669776131
7.813399454875833,2.9155036788940403,-0.811045671844482,0.866303543758392,0.6732696669776131
7.814005148394912,-0.14054124298095702,3.9622282539367704,0.933364090633392,0.6732696669776131
7.814610841913992,-3.07683518829346,-0.221870867156982,2.11650373907089,0.6732696669776131
7.815216535433072,-0.669840559387207,-1.75707838668823,-1.32513932733536,0.6732696669776131
7.81582222895215,-2.3966496414184597,-0.985882097625732,-0.632978682804108,0.6732696669776131
7.81642792247123,-0.439918684387207,-3.64674879684448,-1.04731706171036,0.6732696669776131
7.81703361599031,2.44607985076904,0.369698957061768,-1.80414323358536,0.6732696669776131
7.817639309509389,1.18150953826904,1.98394212112427,2.44462141485214,0.6732696669776131
7.818245003028468,2.02934645233154,0.0152360664367676,-0.395871749210358,0.6732696669776131
7.818850696547547,0.482163835144043,2.24978928909302,0.281918778133392,0.6732696669776131
7.819456390066627,-1.10812913360596,1.31812669143677,1.26627180547714,0.6732696669776131
7.820062083585706,-0.219576887512207,-2.88273756637573,-0.417426924991608,0.6732696669776131
7.820667777104785,-2.43257493438721,-0.308091570281982,-0.786259932804108,0.6732696669776131
7.821273470623864,-1.72604417266846,-2.3510432304382296,-0.649743819522858,0.6732696669776131
7.821879164142945,1.65572340545654,-1.60858717575073,-0.5180177453041079,0.6732696669776131
7.822484857662023,1.06654860076904,2.05100266799927,-0.223430342960358,0.6732696669776131
7.823090551181102,2.68558180389404,0.5157951484680181,0.332214188289642,0.6732696669776131
7.823696244700182,1.01625319061279,2.1252482734680203,1.7716209265708902,0.6732696669776131
7.824301938219262,-0.775221418762207,3.83768723831177,-0.22103532342910798,0.6732696669776131
7.82490763173834,0.022320085144043,-2.8707624687194797,0.186117996883392,0.6732696669776131
7.82551332525742,-2.36551438751221,-1.48165114059448,-0.216245284366608,0.6732696669776131
7.826119018776499,-3.58218430938721,-1.40740553512573,-0.45095719842910803,0.6732696669776131
7.8267247122955785,1.21024977264404,-2.38696852340698,-1.0928224328041098,0.6732696669776131
7.827330405814658,1.55273756561279,2.66891770706177,0.969289383602142,0.6732696669776131
7.827936099333737,2.10598707733154,0.285873273468018,0.626801590633392,0.6732696669776131
7.828541792852817,3.1885359054565403,0.887023175811768,-0.7766798546791079,0.6732696669776131
7.829147486371896,-1.77394456329346,4.11071946487427,2.7296287390708898,0.6732696669776131
7.829753179890975,-1.29494065704346,0.379279035186768,-0.127629561710358,0.6732696669776131
7.830358873410056,-1.85058518829346,-3.36413649215698,1.61115461797714,0.6732696669776131
7.830964566929135,-3.80971116485596,0.0176310859680176,-2.95614762811661,0.6732696669776131
7.831570260448213,0.0750105148315429,-3.6491438163757297,-0.484487471866608,0.6732696669776131
7.832175953967293,2.8819734054565402,0.338563703155518,0.9956345984458921,0.6732696669776131
7.832781647486373,2.05808668670654,3.4999894844055204,-2.14184098749161,0.6732696669776131
7.8333873410054515,2.1275422531127903,-2.03250563278198,3.53196028203964,0.6732696669776131
7.833993034524531,0.338462663269043,4.24963059768677,-1.31795426874161,0.6732696669776131
7.83459872804361,-3.02653977813721,-0.303301531219482,1.84347151250839,0.6732696669776131
7.83520442156269,-0.832701887512207,-2.06364088668823,-0.22582536249160798,0.6732696669776131
7.835810115081769,-2.40383470001221,0.355328839874268,-1.8544386437416098,0.6732696669776131
7.836415808600848,-1.03867356719971,-4.444290300750731,0.887858719539642,0.6732696669776131
7.837021502119927,3.0352546554565403,0.436759503936768,-2.14902604608536,0.6732696669776131
7.837627195639008,0.563594499206543,1.43069260940552,1.38123274297714,0.6732696669776131
7.838232889158086,2.07245680389404,0.348143781280518,-0.726384444522858,0.6732696669776131
7.838838582677165,0.544434342956543,2.3288249336242703,1.29501203985214,0.6732696669776131
7.839444276196246,-1.66377366485596,0.7552971015930181,1.28782698125839,0.6732696669776131
7.8400499697153245,0.144466081237793,-2.4875593437194796,-0.9203810265541079,0.6732696669776131
7.840655663234403,-2.4732902664184597,-0.6793195976257319,-0.38868669061660804,0.6732696669776131
7.841261356753483,-1.78831468048096,-2.1786018241882297,-0.783864913272858,0.6732696669776131
7.841867050272563,1.97186598358154,-1.55589674606323,0.09510725469589229,0.6732696669776131
7.8424727437916415,0.817466569519043,2.5683268867492703,-0.8173951867103579,0.6732696669776131
7.843078437310721,2.35506910858154,-0.403892351531982,0.9189939734458921,0.6732696669776131
7.8436841308298,1.83534987030029,2.98506028518677,0.212463211727142,0.6732696669776131
7.84428982434888,-0.705765852355957,2.81980393753052,1.10820051641464,0.6732696669776131
7.844895517867959,0.019925065612793,-2.26003248825073,-0.436587081241608,0.6732696669776131
7.845501211387038,-3.61810960235596,-1.27328444137573,-0.6593238976478579,0.6732696669776131
7.846106904906119,-3.25406663360596,-2.02532057418823,0.7776878211021421,0.6732696669776131
7.8467125984251975,1.46651686248779,-2.4085236991882297,-1.4185450890541098,0.6732696669776131
7.847318291944276,1.50483717498779,2.58269700393677,-0.08451921014785771,1.0912938386984474
7.847923985463356,2.00300123748779,0.6594963203430181,0.250783524227142,1.0912938386984474
7.848529678982436,3.27236158905029,0.156542218780518,0.22443830938339202,1.0912938386984474
7.8491353725015145,-1.06501878204346,5.1166276679992695,0.930969071102142,1.0912938386984474
7.849741066020594,-2.23139329376221,-0.5619636405944819,-0.146789717960358,1.0912938386984474
7.850346759539673,-1.59910813751221,-3.30186598434448,0.7202073523521421,1.0912938386984474
7.850952453058753,-3.87437669219971,0.348143781280518,-2.39571305780411,1.0912938386984474
7.851558146577832,0.348042741394043,-3.2395954765319797,-0.209060225772858,1.0912938386984474
7.852163840096911,2.75503737030029,0.489449933624268,0.942944168758392,1.0912938386984474
7.85276953361599,1.1527693038940399,2.93236985549927,-1.31795426874161,1.0912938386984474
7.8533752271350705,2.1035920578002902,-1.46728102340698,1.78838606328964,1.0912938386984474
7.853980920654149,0.046270280456543,4.3645915351867695,-0.683274092960358,1.0912938386984474
7.854586614173228,-2.33916917266846,-0.267376238250732,2.35121565313339,1.0912938386984474
7.855192307692309,-0.832701887512207,-2.1881819023132296,-1.4401002648353598,1.0912938386984474
7.8557980012113875,-3.07444016876221,-0.159600359344482,-0.623398604679108,1.0912938386984474
7.856403694730466,-0.296217512512207,-4.35567457809448,0.5812962195396421,1.0912938386984474
7.857009388249546,2.74785231170654,0.9636638008117681,-2.97770280389786,1.0912938386984474
7.857615081768626,0.518089128112793,1.67019456253052,2.11650373907089,1.0912938386984474
7.8582207752877045,2.35267408905029,-0.0542194999694824,-0.41024186639785803,1.0912938386984474
7.858826468806784,0.264217057800293,2.1132731758117704,1.9272971961021401,1.0912938386984474
7.859432162325863,-1.29015061798096,1.50972825393677,1.06988020391464,1.0912938386984474
7.860037855844943,0.051060319519042996,-2.9569831718444797,-0.9994166710853579,1.0912938386984474
7.860643549364022,-2.7391374343872097,-0.8924763359069819,0.26036360235214195,1.0912938386984474
7.861249242883101,-1.5847380203247101,-1.08407789840698,-1.44249528436661,1.0912938386984474
7.86185493640218,1.51441725311279,-2.4707942070007296,0.38011457891464195,1.0912938386984474
7.8624606299212605,1.09528883514404,2.58030198440552,-1.37782975702286,1.0912938386984474
7.863066323440339,1.98384108123779,0.175702375030518,0.09031721563339229,1.0912938386984474
7.863672016959419,1.04020338592529,2.00070725784302,1.56564924688339,1.0912938386984474
7.864277710478499,-0.528534407043457,3.93109300003052,0.222043289852142,1.0912938386984474
7.8648834039975775,0.0702204757690429,-2.7007160820007297,0.265153641414642,1.0912938386984474
7.865489097516657,-2.77506272735596,-1.72354811325073,0.147797684383392,1.0912938386984474
7.866094791035736,-3.8600065750122097,-1.72833815231323,-0.302465987491608,1.0912938386984474
7.866700484554816,1.4689118820190399,-2.2121320976257297,-1.68918229608536,1.0912938386984474
7.867306178073895,1.60542799530029,2.3815153633117703,1.26148176641464,1.0912938386984474
7.867911871592974,2.12993727264404,1.34207688674927,-1.5335060265541098,1.0912938386984474
7.868517565112053,2.93466383514404,-0.6338142265319819,1.0674851843833901,1.0912938386984474
7.8691232586311335,-1.2374601882934602,5.0304069648742695,0.732182450008392,1.0912938386984474
7.869728952150212,-1.72604417266846,-0.686504656219482,0.147797684383392,1.0912938386984474
7.870334645669291,-2.02063157501221,-2.9210578788757298,0.7609226843833921,1.0912938386984474
7.870940339188372,-4.05639817657471,0.8031974922180181,-3.37048600702286,1.0912938386984474
7.8715460327074505,0.41510328826904297,-5.27057203903198,1.08185530157089,1.0912938386984474
7.872151726226529,3.31307692108154,2.34319505081177,-1.79695817499161,1.0912938386984474
7.872757419745609,0.8988972335815429,2.0797429023742704,0.104687332820892,1.0912938386984474
7.873363113264689,2.9059236007690403,-0.669739519500732,0.942944168758392,1.0912938386984474
7.873968806783767,-0.339327864074707,3.2006120429992704,1.12017561407089,1.0912938386984474
7.874574500302847,-2.6026213211059597,-0.360781999969482,1.14652082891464,1.0912938386984474
7.875180193821926,-0.25310716094970703,-1.65169752731323,-1.01618180780411,1.0912938386984474
7.875785887341006,-3.59176438751221,-0.669739519500732,0.7585276648521421,1.0912938386984474
7.876391580860085,-0.444708723449707,-3.26115065231323,-1.89036393671036,1.0912938386984474
7.876997274379164,2.53230055389404,-0.9355866874694819,0.214858231258392,1.0912938386984474
7.877602967898245,0.906082292175293,3.16468675003052,-0.46053727655410803,1.0912938386984474
7.8782086614173235,2.1706526046752903,-0.447002703094482,0.291498856258392,1.0912938386984474
7.878814354936402,0.22829176483154298,2.3479850898742702,1.2590867468833902,1.0912938386984474
7.879420048455482,-1.28775559844971,1.14808030471802,1.0411399695396402,1.0912938386984474
7.880025741974562,-0.188441633605957,-2.7869367851257296,0.18372297735214202,1.0912938386984474
7.88063143549364,-2.45173509063721,0.182887433624268,-1.60296159296036,1.0912938386984474
7.88123712901272,-1.4386418289184602,-2.59533522262573,0.5357908484458921,1.0912938386984474
7.881842822531799,1.8497199874877899,-1.88401442184448,0.0184666296958923,1.0912938386984474
7.882448516050879,0.834231706237793,2.6210173164367703,-0.848530440616608,1.0912938386984474
7.883054209569958,2.00300123748779,-0.41826246871948203,0.24838850469589202,1.0912938386984474
7.883659903089037,1.91678053436279,2.8245939765930204,0.0232566687583923,1.0912938386984474
7.884265596608117,-1.1823747390747101,2.6210173164367703,1.8913719031333902,1.0912938386984474
7.8848712901271965,0.419893327331543,-2.31032789840698,-0.27133073358535803,1.0912938386984474
7.885476983646275,-2.70800218048096,-0.868526140594482,-0.312046065616608,1.0912938386984474
7.886082677165354,-4.11148362579346,-2.51629957809448,-0.0461988976478577,1.0912938386984474
7.886688370684435,2.2904035812377903,-1.83850905075073,-2.72143571405411,1.0912938386984474
7.887294064203513,1.35634596405029,2.27373948440552,1.7165354773521402,1.0912938386984474
7.887899757722592,1.9574958663940398,1.08580979690552,0.0543919226646423,1.0912938386984474
7.888505451241672,3.0520197921752903,-0.585913835906982,1.1489158484458901,1.0912938386984474
7.889111144760752,-0.861442121887207,5.42798020706177,0.6986521765708921,1.0912938386984474
7.88971683827983,-2.0637419265747097,-1.44333082809448,1.5464890906333901,1.0912938386984474
7.89032253179891,-1.9176457351684602,-2.00137037887573,-0.383896651554108,1.0912938386984474
7.890928225317989,-3.14389573516846,0.0320012031555176,-1.18143815546036,1.0912938386984474
7.891533918837069,0.00315992889404295,-4.09940748825073,-0.28091081171035803,1.0912938386984474
7.892139612356148,3.02327955780029,1.76120530471802,-1.0281569054603599,1.0912938386984474
7.892745305875227,0.992302995300293,1.30854661331177,0.485495438289642,1.0912938386984474
7.893350999394307,2.39817946014404,0.216417707061768,-0.644953780460358,1.0912938386984474
7.893956692913386,0.15404615936279298,2.9946403633117704,2.05183821172714,1.0912938386984474
7.894562386432465,-2.5499308914184597,0.5157951484680181,0.861513504695892,1.0912938386984474
7.895168079951545,-1.1440544265747101,-2.41570875778198,-0.07972917108535771,1.0912938386984474
7.895773773470625,-2.49724046173096,-0.5140632499694819,-0.49885758905410804,1.0912938386984474
7.896379466989703,-0.506979231262207,-3.4599372734069798,-1.13832780389786,1.0912938386984474
7.896985160508783,2.21855299530029,-0.0542194999694824,-0.8173951867103579,1.0912938386984474
7.897590854027863,1.06175856170654,2.41983567581177,0.624406571102142,1.0912938386984474
7.898196547546942,1.91678053436279,-0.5188532890319819,0.648356766414642,1.0912938386984474
7.898802241066021,0.767171159362793,2.77908860549927,0.416039871883392,1.0912938386984474
7.8994079345851,-1.77873460235596,0.946898664093018,1.13694075078964,1.0912938386984474
7.90001362810418,-0.128566145324707,-2.45642408981323,-0.7623097374916079,1.0912938386984474
7.900619321623259,-2.42538987579346,-0.789490496063232,-0.137209639835358,1.0912938386984474
7.901225015142338,-1.44582688751221,-1.77623854293823,-0.6976442101478579,1.0912938386984474
7.901830708661417,1.4784919601440398,-1.63732741012573,-0.0318287804603577,1.0912938386984474
7.902436402180498,0.812676530456543,1.96717698440552,-0.302465987491608,1.0912938386984474
7.903042095699576,2.50595533905029,0.750507062530518,-0.503647628116608,1.0912938386984474
7.903647789218655,1.4353816085815398,1.45224778518677,1.89855696172714,1.0912938386984474
7.904253482737735,-0.526139387512207,3.97420335159302,-0.5228077843666079,1.0912938386984474
7.904859176256815,-0.059110578918457,-2.80849196090698,1.34770246953964,1.0912938386984474
7.905464869775893,-2.2673185867309598,-1.57026686325073,-0.9155909874916079,1.0912938386984474
7.906070563294973,-3.6372697586059597,-1.13197828903198,-1.3969899132728598,1.0912938386984474
7.906676256814053,1.3970612960815398,-3.21804030075073,0.384904617977142,1.0912938386984474
7.9072819503331315,1.8377448898315398,3.2341423164367704,-1.1646730187416099,1.0912938386984474
7.907887643852211,1.5934528976440399,0.726556867218018,0.770502762508392,1.0912938386984474
7.90849333737129,3.36576735076904,-0.0805647148132324,-0.09409928827285771,1.0912938386984474
7.90909903089037,-0.7776164382934571,4.75497971878052,0.131032547664642,1.0912938386984474
7.909704724409449,-1.75717942657471,-0.8733161796569819,1.5584641882896402,1.0912938386984474
7.910310417928528,-1.8194499343872101,-2.46600416793823,-0.357551436710358,1.0912938386984474
7.910916111447607,-4.06597825469971,0.0631364570617676,-1.21017838983536,1.0912938386984474
7.9115218049666876,0.264217057800293,-4.03234694137573,0.12384748907089199,1.0912938386984474
7.912127498485766,3.1885359054565403,0.8223576484680181,-0.951516280460358,1.0912938386984474
7.912733192004846,1.3371858078002898,2.82938401565552,-0.436587081241608,1.0912938386984474
7.913338885523926,2.15149244842529,-1.38345533981323,1.3453074500083901,1.0912938386984474
7.9139445790430045,0.309722428894043,4.16101487503052,-0.925171065616608,1.0912938386984474
7.914550272562084,-3.24688157501221,-0.7751203788757319,2.29852522344589,1.0912938386984474
7.915155966081163,-0.748876203918457,-2.01334547653198,-1.00899674921036,1.0912938386984474
7.915761659600243,-2.52837571563721,0.276293195343018,-0.283305831241608,1.0912938386984474
7.916367353119322,-0.748876203918457,-4.31256422653198,0.272338700008392,1.0912938386984474
7.916973046638401,2.8628132492065403,0.573275617218018,-2.86753190546036,1.0912938386984474
7.91757874015748,0.23787184295654298,1.25825120315552,1.81712629766464,1.0912938386984474
7.9181844336765606,2.47721510467529,1.22232591018677,-1.5718263390541098,1.0912938386984474
7.918790127195639,0.189971452331543,1.44985276565552,2.5595823523521397,1.0912938386984474
7.919395820714718,-1.20632493438721,1.7133049140930199,0.382509598445892,1.0912938386984474
7.920001514233799,-0.027975325012207,-3.35455641403198,0.41843489141464196,1.0912938386984474
7.9206072077528775,-2.5259806961059597,-1.34753004684448,0.372929520320892,1.0912938386984474
7.921212901271956,-1.46738206329346,0.0391862617492676,-2.8124464562416103,1.0912938386984474
7.921818594791036,0.977932878112793,-3.5629231132507297,2.12608381719589,1.0912938386984474
7.922424288310116,1.90241041717529,2.64257249221802,-2.18974137811661,1.0912938386984474
7.9230299818291945,1.7994245773315398,0.144567121124268,0.768107742977142,1.0912938386984474
7.923635675348274,0.992302995300293,2.35038010940552,1.01479475469589,1.0912938386984474
7.924241368867353,-0.37285813751220703,3.42095383987427,0.406459793758392,1.0912938386984474
7.924847062386433,0.192366471862793,-3.0767341484069797,1.5967845007896402,1.0912938386984474
7.925452755905512,-2.39185960235596,-0.200315691375732,-2.33823258905411,1.0912938386984474
7.926058449424591,-4.39649095001221,-2.5641999687194796,0.911808914852142,1.0912938386984474
7.926664142943672,2.08203688201904,-1.82892897262573,-2.2208766320228603,1.0912938386984474
7.9272698364627505,1.5168122726440398,1.45224778518677,1.21837141485214,1.0912938386984474
7.927875529981829,1.48088697967529,1.16963548049927,-0.264145674991608,1.0912938386984474
7.928481223500909,2.86041822967529,0.5589055000305181,0.416039871883392,1.0912938386984474
7.929086917019989,-0.983588117980957,3.67722092971802,2.2003294226646397,1.0912938386984474
7.9296926105390675,-1.5248625320434601,0.357723859405518,-1.3490895226478599,1.0912938386984474
7.930298304058147,-2.23857835235596,-4.049112078094479,1.9656175086021401,1.0912938386984474
7.930903997577226,-3.48638352813721,1.57199876174927,-3.07350358514786,1.0912938386984474
7.931509691096306,-0.392018293762207,-4.28621901168823,1.4003928992271402,1.0912938386984474
7.932115384615385,2.82688795623779,1.02832932815552,-1.2461036828041099,1.0912938386984474
7.932721078134464,1.0713386398315399,2.38391038284302,-1.5454811242103599,1.0912938386984474
7.933326771653543,2.3670442062377903,-1.86245924606323,2.57155745000839,1.0912938386984474
7.9339324651726235,0.906082292175293,5.40403001174927,-0.7000392296791079,1.0912938386984474
7.934538158691702,-3.30915208282471,-1.21101393356323,3.55591047735214,1.0912938386984474
7.935143852210781,-0.17167649688720701,-1.55829176559448,-2.51785905389786,1.0912938386984474
7.935749545729862,-2.69123704376221,-0.823020769500732,-0.31923112421035804,1.0912938386984474
7.9363552392489405,-0.672235578918457,-3.06475905075073,-0.7191993859291079,1.0912938386984474
7.936960932768019,2.96819410858154,0.381674054718018,-1.53111100702286,1.0912938386984474
7.937566626287099,0.427078385925293,1.97436204299927,1.09862043828964,1.0912938386984474
7.938172319806179,2.4963752609252903,-0.365572039031982,0.281918778133392,1.0912938386984474
7.9387780133252575,0.544434342956543,2.1659636054992704,1.0507200476646401,1.0912938386984474
7.939383706844337,-1.9224357742309601,2.60904221878052,-0.273725753116608,1.0912938386984474
7.939989400363416,0.17320631561279298,-3.89343580856323,1.23513655157089,1.0912938386984474
7.940595093882496,-2.19786302032471,-0.447002703094482,-1.33471940546036,1.0912938386984474
7.941200787401575,-1.8625602859497101,-1.62535231246948,-1.00899674921036,1.0912938386984474
7.941806480920654,1.59105787811279,-1.43614576950073,-0.386291671085358,1.0912938386984474
7.942412174439733,0.827046647644043,1.73965012893677,-0.874875655460358,1.0912938386984474
7.9430178679588135,2.71432203826904,0.180492414093018,-0.25935563592910804,1.0912938386984474
7.943623561477892,0.9994880538940429,2.73358323440552,1.5321189734458902,1.0912938386984474
7.944229254996972,-0.490214094543457,3.90714280471802,0.6411717078208921,1.0912938386984474
7.944834948516052,0.11093580780029301,-3.4527522148132297,0.511840653133392,1.0912938386984474
7.9454406420351305,-3.0648600906372097,-1.33315992965698,-1.64607194452286,1.0912938386984474
7.94604633555421,-3.6636149734497097,-1.54152662887573,0.16935286016464202,1.0912938386984474
7.946652029073289,1.72038893280029,-2.08040602340698,-1.01857682733536,1.0912938386984474
7.947257722592369,2.10598707733154,2.40307053909302,-0.254565596866608,1.3735638485818045
7.947863416111448,1.8209797531127898,-0.0661945976257324,0.207673172664642,1.3735638485818045
7.948469109630527,3.06399488983154,0.6403361640930181,0.265153641414642,1.3735638485818045
7.949074803149606,-0.904552473449707,4.956161359405519,1.92969221563339,1.3735638485818045
7.9496804966686865,-1.77394456329346,0.0870866523742676,-0.553943038272858,1.3735638485818045
7.950286190187765,-1.99189134063721,-3.97965651168823,1.45068830938339,1.3735638485818045
7.950891883706844,-3.09599534454346,0.17809739456176799,-2.80047135858536,1.3735638485818045
7.951497577225925,0.015135026550293,-3.5198127616882298,-0.0150636437416077,1.3735638485818045
7.9521032707450034,2.77659254608154,1.30136155471802,0.26994368047714196,1.3735638485818045
7.952708964264082,1.33000074920654,1.70372483596802,-0.803025069522858,1.3735638485818045
7.953314657783162,2.10838209686279,-1.28525953903198,1.39320784063339,1.3735638485818045
7.953920351302242,0.338462663269043,4.61367356643677,-0.38150163202285803,1.3735638485818045
7.95452604482132,-3.15108079376221,-1.06970778121948,1.60396955938339,1.3735638485818045
7.9551317383404,-0.0974308914184571,-1.70917799606323,-1.13353776483536,1.3735638485818045
7.955737431859479,-2.71997727813721,-0.427842546844482,0.48789045782089197,1.3735638485818045
7.956343125378559,-0.787196516418457,-3.23480543746948,-1.48321061639786,1.3735638485818045
7.956948818897638,2.31914381561279,-0.0470344413757324,-1.9693995812416099,1.3735638485818045
7.957554512416717,0.903687272644043,1.21514085159302,1.31656721563339,1.3735638485818045
7.958160205935796,2.66402662811279,0.6762614570617681,-0.455747237491608,1.3735638485818045
7.9587658994548764,-0.004025129699707051,2.6018571601867704,1.4818235632896402,1.3735638485818045
7.959371592973955,-1.18955979766846,1.77557542190552,0.480705399227142,1.3735638485818045
7.959977286493035,0.015135026550293,-3.7353645195007297,-0.33839128046035805,1.3735638485818045
7.960582980012115,-2.47808030548096,-0.8948713554382319,-0.0294337609291077,1.3735638485818045
7.961188673531193,-1.6949089187622102,-0.9379817070007319,-0.407846846866608,1.3735638485818045
7.961794367050273,1.3419758468627898,-1.74510328903198,-0.197085128116608,1.3735638485818045
7.962400060569353,1.42101149139404,2.1755436836242703,-0.994626632022858,1.3735638485818045
7.963005754088432,2.3335139328002903,-0.432632585906982,0.281918778133392,1.3735638485818045
7.963611447607511,1.29168043670654,2.59706712112427,0.26036360235214195,1.3735638485818045
7.96421714112659,-1.2039299148559601,3.61495042190552,1.4818235632896402,1.3735638485818045
7.96482283464567,0.21871168670654298,-2.0684309257507296,-0.103679366397858,1.3735638485818045
7.9654285281647494,-2.29605882110596,-1.63253737106323,-1.0329469445228598,1.3735638485818045
7.966034221683828,-3.8001310867309597,-1.88161940231323,0.0591819617271423,1.3735638485818045
7.966639915202907,1.7898444992065399,-2.27679762496948,-1.4041749718666099,1.3735638485818045
7.967245608721988,1.69404371795654,2.3479850898742702,0.43759504766464197,1.3735638485818045
7.967851302241066,1.85211500701904,1.17203050003052,-0.149184737491608,1.3735638485818045
7.968456995760145,2.91789869842529,-0.0446394218444824,0.0448118445396423,1.3735638485818045
7.969062689279225,-0.461473860168457,4.48194749221802,0.904623856258392,1.3735638485818045
7.969668382798305,-1.7643644851684601,-0.348806902313232,1.48421858282089,1.3735638485818045
7.970274076317383,-1.8026847976684601,-2.3941535820007296,-0.11565446405410801,1.3735638485818045
7.970879769836463,-3.5773942703247097,-0.9355866874694819,-1.39938493280411,1.3735638485818045
7.971485463355542,0.297747331237793,-3.1701399101257297,-0.6186085656166079,1.3735638485818045
7.9720911568746216,2.56104078826904,1.19837571487427,-0.867690596866608,1.3735638485818045
7.972696850393701,1.15995436248779,1.62229417190552,-0.16594987421035798,1.3735638485818045
7.97330254391278,2.74066725311279,-0.8373908866882319,0.8806736609458921,1.3735638485818045
7.97390823743186,-0.044740461730957,4.08437425003052,0.281918778133392,1.3735638485818045
7.974513930950939,-2.7559025711059597,0.228392804718018,2.2697849890708897,1.3735638485818045
7.975119624470018,-0.638705305480957,-2.71987623825073,-1.3371144249916098,1.3735638485818045
7.975725317989099,-2.42059983673096,-0.229055925750732,-1.2005983117103598,1.3735638485818045
7.976331011508178,-1.10812913360596,-3.8455354179382297,0.6579368445396421,1.3735638485818045
7.976936705027256,2.81012281951904,0.458314679718018,-2.15142106561661,1.3735638485818045
7.977542398546336,1.04738844451904,1.42590257034302,1.62073469610214,1.3735638485818045
7.978148092065416,1.90241041717529,-0.0685896171569824,-0.8964308312416079,1.3735638485818045
7.9787537855844946,0.934822526550293,2.49647630081177,1.63749983282089,1.3735638485818045
7.979359479103574,-1.4051115554809601,1.37560716018677,1.4602683875083902,1.3735638485818045
7.979965172622653,-0.12138108673095699,-1.95826002731323,-1.17185807733536,1.3735638485818045
7.980570866141733,-1.99668137969971,-1.21101393356323,0.0304417273521423,1.3735638485818045
7.981176559660812,-1.74759934844971,-1.85287916793823,-1.37303971796036,1.3735638485818045
7.981782253179891,1.38748121795654,-2.0588508476257297,0.0759470984458923,1.3735638485818045
7.98238794669897,1.19348463592529,2.3216398750305203,-0.862900557804108,1.3735638485818045
7.982993640218051,1.96228590545654,0.271503156280518,1.0842503211021401,1.3735638485818045
7.983599333737129,1.1312141281127899,2.0965080390930204,0.526210770320892,1.3735638485818045
7.984205027256208,-0.559669660949707,3.33473313674927,0.150192703914642,1.3735638485818045
7.984810720775288,0.486953874206543,-2.50911451950073,0.6555418250083921,1.3735638485818045
7.9854164142943675,-2.46850022735596,-0.7775153984069819,-1.2556837609291098,1.3735638485818045
7.986022107813446,-3.8767717117309597,-2.0780110038757296,0.562136063289642,1.3735638485818045
7.986627801332526,1.4090363937377899,-1.98700026168823,-1.2389186242103598,1.3735638485818045
7.987233494851606,1.3371858078002898,1.73965012893677,0.08552717657089229,1.3735638485818045
7.9878391883706845,2.27603346405029,0.951688703155518,-0.216245284366608,1.3735638485818045
7.988444881889764,2.56104078826904,0.367303937530518,0.6196165320396421,1.3735638485818045
7.989050575408843,-0.550089582824707,4.802880109405519,0.392089676570892,1.3735638485818045
7.989656268927923,-1.14884446563721,-0.348806902313232,0.626801590633392,1.3735638485818045
7.990261962447002,-2.17630784454346,-2.9929084648132296,0.454360184383392,1.3735638485818045
7.990867655966081,-3.50314866485596,0.285873273468018,-2.08915055780411,1.3735638485818045
7.99147334948516,-0.813541731262207,-4.71492750778198,0.643566727352142,1.3735638485818045
7.9920790430042405,3.20051100311279,2.4078605781555202,-2.15142106561661,1.3735638485818045
7.992684736523319,1.4401716476440398,1.51691331253052,1.09143537969589,1.3735638485818045
7.993290430042399,2.31914381561279,-0.188340593719482,0.681887039852142,1.3735638485818045
7.993896123561479,-0.566854719543457,2.8150138984680204,0.813613114070892,1.3735638485818045
7.9945018170805575,-2.34156419219971,-0.0063191093444824094,0.689072098445892,1.3735638485818045
7.995107510599637,-0.724926008605957,-1.31399977340698,0.152587723445892,1.3735638485818045
7.995713204118716,-3.17982102813721,-0.152415300750732,0.25796858282089197,1.3735638485818045
7.996318897637796,-0.485424055480957,-3.4551472343444796,-2.5561793663978603,1.3735638485818045
7.996924591156875,2.2041828781127903,-1.32357985153198,-0.146789717960358,1.3735638485818045
7.997530284675954,1.60542799530029,2.6377824531555203,0.890253739070892,1.3735638485818045
7.998135978195033,2.10598707733154,-0.200315691375732,0.827983231258392,1.3735638485818045
7.9987416717141135,0.125305924987793,3.72033128128052,1.01718977422714,1.3735638485818045
7.999347365233192,-1.4122966140747102,0.192467511749268,1.00281965703964,1.3735638485818045
7.999953058752271,0.429473405456543,-2.8971076835632297,-1.6053566124916099,1.3735638485818045
8.00055875227135,-2.8061979812622098,-0.29851149215698203,0.0424168250083923,1.3735638485818045
8.00116444579043,-1.29015061798096,-1.81455885543823,-0.829370284366608,1.3735638485818045
8.00177013930951,1.62219313201904,-1.69001783981323,-0.24977555780410798,1.3735638485818045
8.002375832828589,0.441448503112793,1.90251145706177,-0.22582536249160798,1.3735638485818045
8.002981526347668,2.57780592498779,0.410414289093018,-0.747939620304108,1.3735638485818045
8.003587219866747,1.6150080734252898,1.84263596878052,2.3703758093833898,1.3735638485818045
8.004192913385827,-0.396808332824707,3.9023527656555204,0.531000809383392,1.3735638485818045
8.004798606904906,-0.0998259109497071,-2.6576057304382297,-0.0581739953041077,1.3735638485818045
8.005404300423985,-3.00258958282471,-1.50320631637573,0.27712873907089197,1.3735638485818045
8.006009993943065,-3.39058274688721,-1.27088942184448,-1.38261979608536,1.3735638485818045
8.006615687462144,1.38508619842529,-2.63844557418823,-0.831765303897858,1.3735638485818045
8.007221380981225,1.99342115936279,2.3647502265930203,1.2758518836021402,1.3735638485818045
8.007827074500304,1.92157057342529,1.06664964065552,-0.494067549991608,1.3735638485818045
8.008432768019382,2.74545729217529,0.331378644561768,-0.0246437218666077,1.3735638485818045
8.009038461538463,-0.25310716094970703,4.18017503128052,1.7644358679771401,1.3735638485818045
8.009644155057542,-2.03021165313721,-0.494903093719482,0.571716141414642,1.3735638485818045
8.01024984857662,-2.44215501251221,-2.82525709762573,0.842353348445892,1.3735638485818045
8.010855542095701,-3.35944749298096,0.930133527374268,-2.85076676874161,1.3735638485818045
8.01146123561478,0.649815202331543,-4.07785231246948,0.6962571570396421,1.3735638485818045
8.012066929133859,3.16458571014404,0.628361066436768,-0.9587013390541079,1.3735638485818045
8.01267262265294,1.1910896163940399,2.13722337112427,-1.1862281945228599,1.3735638485818045
8.013278316172018,2.24968824920654,-1.10802809371948,2.6793333289146397,1.3735638485818045
8.013884009691097,-0.154911360168457,5.408820050811769,-1.12156266717911,1.3735638485818045
8.014489703210176,-2.93073899688721,-1.71157301559448,2.44222639532089,1.3735638485818045
8.015095396729254,0.209131608581543,-1.71396803512573,-1.5239259484291099,1.3735638485818045
8.015701090248335,-3.5438639968872097,-0.264981218719482,0.157377762508392,1.3735638485818045
8.016306783767414,-0.775221418762207,-3.1294245780944796,-1.6867872765541099,1.3735638485818045
8.016912477286493,2.92747877655029,0.0727165351867676,-1.32513932733536,1.3735638485818045
8.017518170805573,0.546829362487793,1.32531175003052,2.3105003211021398,1.3735638485818045
8.018123864324652,2.00539625701904,0.8031974922180181,-1.7945631554603598,1.3735638485818045
8.01872955784373,0.08938063201904291,1.73486008987427,1.8530515906333902,1.3735638485818045
8.01933525136281,-0.887787336730957,1.88095628128052,0.7944529578208921,1.3735638485818045
8.01994094488189,0.051060319519042996,-2.8108869804382297,-0.07733415155410771,1.3735638485818045
8.020546638400969,-2.93313401641846,-0.990672136688232,0.25557356328964204,1.3735638485818045
8.021152331920048,-1.57755296173096,-1.12000319137573,-1.77540299921036,1.3735638485818045
8.021758025439128,1.1575593429565398,-3.23720045700073,0.947734207820892,1.3735638485818045
8.022363718958207,1.37311110076904,3.53112473831177,-1.9191041710853598,1.3735638485818045
8.022969412477286,1.6581184249877898,-0.121280046844482,1.86981672735214,1.3735638485818045
8.023575105996366,1.30365553436279,1.85221604690552,0.806428055477142,1.3735638485818045
8.024180799515445,-0.059110578918457,3.8951677070617703,0.186117996883392,1.3735638485818045
8.024786493034526,-0.533324446105957,-3.33060621871948,0.8207981726646421,1.3735638485818045
8.025392186553605,-2.1140373367309597,-0.0158991874694824,-1.96700456171036,1.3735638485818045
8.025997880072683,-4.51624192657471,-2.40612867965698,1.83389143438339,1.3735638485818045
8.026603573591764,1.77547438201904,-1.57266188278198,-3.34653581171036,1.3735638485818045
8.027209267110843,1.22461988983154,1.05227952346802,2.00393782110214,1.3735638485818045
8.027814960629922,1.7132038742065399,1.67737962112427,-0.8772706749916079,1.3735638485818045
8.028420654149002,3.2053010421752903,-0.0733796562194824,0.13342756719589202,1.3735638485818045
8.029026347668081,-0.348907942199707,4.51308274612427,1.80515120000839,1.3735638485818045
8.02963204118716,-1.8314250320434602,0.118221906280518,0.217253250789642,1.3735638485818045
8.030237734706239,-2.2697136062622096,-3.74015455856323,0.981264481258392,1.3735638485818045
8.03084342822532,-3.6109245437622097,0.8750480781555181,-2.65198014764786,1.3735638485818045
8.031449121744398,-0.466263899230957,-4.63828688278198,1.7476707312583901,1.3735638485818045
8.032054815263477,3.09273512420654,1.80192063674927,-2.2472218468666103,1.3735638485818045
8.032660508782556,0.889317155456543,1.81389573440552,0.444780106258392,1.3735638485818045
8.033266202301636,3.34421217498779,-0.672134539031982,0.8375633093833921,1.3735638485818045
8.033871895820715,0.194761491394043,3.54070481643677,0.5597410437583921,1.3735638485818045
8.034477589339794,-2.94031907501221,0.6642863594055181,1.42434309453964,1.3735638485818045
8.035083282858873,-0.571644758605957,-2.02053053512573,-0.563523116397858,1.3735638485818045
8.035688976377953,-2.88762864532471,-0.6601594413757319,0.202883133602142,1.3735638485818045
8.036294669897032,-0.696185774230957,-2.53306471481323,-2.03167008905411,1.3735638485818045
8.03690036341611,2.67839674530029,-0.851761003875732,-0.5826832726478579,1.3735638485818045
8.037506056935191,1.12402906951904,2.28331956253052,0.983659500789642,1.3735638485818045
8.03811175045427,1.7946345382690398,0.118221906280518,0.0448118445396423,1.3735638485818045
8.038717443973349,0.757591081237793,2.46055100784302,1.2902220007896401,1.3735638485818045
8.03932313749243,-1.5583928054809602,1.14089524612427,1.2207664343833902,1.3735638485818045
8.039928831011508,-0.154911360168457,-2.85160231246948,-1.0329469445228598,1.3735638485818045
8.040534524530587,-2.09966721954346,-0.104514910125732,-0.38150163202285803,1.3735638485818045
8.041140218049668,-1.89369553985596,-1.54152662887573,-0.395871749210358,1.3735638485818045
8.041745911568746,1.98863112030029,-2.57857008590698,-0.316836104679108,1.3735638485818045
8.042351605087827,0.613889909362793,2.01986741409302,-0.5826832726478579,1.3735638485818045
8.042957298606906,1.4569367843627898,0.625966046905518,-0.108469405460358,1.3735638485818045
8.043562992125985,2.12514723358154,2.0821379219055203,1.2926170203208902,1.3735638485818045
8.044168685645065,-0.595594953918457,4.07718919143677,0.7561326453208921,1.3735638485818045
8.044774379164144,0.055850358581543,-2.8563923515319796,0.0496018836021423,1.3735638485818045
8.045380072683223,-2.57388108673096,-1.8193488945007301,-0.496462569522858,1.3735638485818045
8.045985766202302,-3.63487473907471,-1.05533766403198,-0.553943038272858,1.3735638485818045
8.046591459721382,1.62219313201904,-2.5139045585632296,-0.695249190616608,1.3735638485818045
8.047197153240461,0.989907975769043,1.89532639846802,0.0759470984458923,1.0556314886380944
8.04780284675954,1.69404371795654,1.34207688674927,-1.01139176874161,1.0556314886380944
8.048408540278619,2.8795783859252904,-0.0566145195007324,0.507050614070892,1.0556314886380944
8.049014233797699,-0.447103742980957,4.56098313674927,1.09862043828964,1.0556314886380944
8.049619927316778,-1.42427171173096,0.0846916328430176,0.583691239070892,1.0556314886380944
8.050225620835857,-2.22899827423096,-3.32102614059448,0.200488114070892,1.0556314886380944
8.050831314354937,-3.48159348907471,0.951688703155518,-1.46644547967911,1.0556314886380944
8.051437007874016,-0.226761946105957,-4.56643629684448,1.25669172735214,1.0556314886380944
8.052042701393095,3.03046461639404,1.45943284378052,-2.66874528436661,1.0556314886380944
8.052648394912174,1.52399733123779,1.62947923049927,0.947734207820892,1.0556314886380944
8.053254088431254,2.15867750701904,-0.6577644218444819,1.2423216101646402,1.0556314886380944
8.053859781950333,0.15404615936279298,4.61846360549927,-0.302465987491608,1.0556314886380944
8.054465475469414,-2.91397386016846,-1.21101393356323,2.63143293828964,1.0556314886380944
8.055071168988492,0.0845905929565429,-1.31160475387573,-2.71425065546036,1.0556314886380944
8.055676862507571,-2.95468919219971,-1.32118483200073,1.55127912969589,1.0556314886380944
8.05628255602665,-1.18716477813721,-2.14986158981323,-2.1705812218666103,1.0556314886380944
8.05688824954573,2.5993611007690403,-1.23735914840698,-0.307256026554108,1.0556314886380944
8.05749394306481,1.31323561248779,2.09171800003052,0.942944168758392,1.0556314886380944
8.05809963658389,1.60782301483154,0.5972258125305181,-0.685669112491608,1.0556314886380944
8.058705330102969,0.771961198425293,1.75881028518677,2.01112287969589,1.0556314886380944
8.059311023622048,-0.938082746887207,2.24978928909302,0.18851301641464202,1.0556314886380944
8.059916717141128,-0.31298264923095703,-3.0839192070007297,-0.0150636437416077,1.0556314886380944
8.060522410660207,-1.9823112625122101,-0.691294695281982,-0.8006300499916079,1.0556314886380944
8.061128104179286,-1.82903001251221,-1.6397224296569801,-0.019853682804107698,1.0556314886380944
8.061733797698365,1.63416822967529,-1.69720289840698,-0.707224288272858,1.0556314886380944
8.062339491217445,0.774356217956543,1.67977464065552,-0.0366188195228577,1.0556314886380944
8.062945184736524,2.30477369842529,0.8439128242492681,-0.36952653436660804,1.0556314886380944
8.063550878255603,1.95989088592529,1.15287034378052,2.22427961797714,1.0556314886380944
8.064156571774681,-0.698580793762207,4.63283372268677,-0.712014327335358,1.0556314886380944
8.064762265293762,-0.624335188293457,-2.4851643241882297,0.631591629695892,1.0556314886380944
8.06536795881284,-2.1571476882934597,-2.3678083671569796,0.202883133602142,1.0556314886380944
8.06597365233192,-3.7570207351684597,-0.5595686210632319,-1.86401872186661,1.0556314886380944
8.066579345851,0.8390217453002929,-2.25284742965698,-0.32162614374160803,1.0556314886380944
8.067185039370079,2.15867750701904,1.94322678909302,0.942944168758392,1.0556314886380944
8.067790732889158,2.1610725265502904,0.970848859405518,-0.7766798546791079,1.0556314886380944
8.068396426408237,2.81012281951904,0.0487663398742676,-0.24019547967910798,1.0556314886380944
8.069002119927317,-0.753666242980957,5.09746751174927,2.17158918828964,1.0556314886380944
8.069607813446396,-2.05655686798096,-0.6529743827819819,2.01112287969589,1.0556314886380944
8.070213506965475,-1.55599778594971,-3.1605598320007298,-0.44137712030410803,1.0556314886380944
8.070819200484555,-3.85761155548096,0.793617414093018,-2.1370509484291103,1.0556314886380944
8.071424894003634,0.08698561248779291,-4.08743239059448,0.301078934383392,1.0556314886380944
8.072030587522715,3.1717707687377903,1.16724046096802,-0.32881120233535804,1.0556314886380944
8.072636281041794,0.470188737487793,1.90730149612427,0.552555985164642,1.0556314886380944
8.073241974560872,2.7622224288940402,-0.8373908866882319,-0.158764815616608,1.0556314886380944
8.073847668079951,0.189971452331543,3.7993669258117704,0.38969465703964196,1.0556314886380944
8.074453361599032,-2.8684684890747096,0.0367912422180176,1.4482932898521401,1.0556314886380944
8.07505905511811,-0.150121321105957,-2.65521071090698,-0.5563380578041079,1.0556314886380944
8.075664748637191,-2.7391374343872097,-0.360781999969482,-0.163554854679108,1.0556314886380944
8.07627044215627,-0.990773176574707,-2.49953444137573,-1.08324235467911,1.0556314886380944
8.076876135675349,2.4796101242065403,-0.605073992156982,-1.5766163781166098,1.0556314886380944
8.07748182919443,0.985117936706543,2.17075364456177,0.8782786414146421,1.0556314886380944
8.078087522713508,2.08203688201904,-0.0997248710632324,0.384904617977142,1.0556314886380944
8.078693216232587,0.609099870300293,2.5874870429992702,0.33700422735214197,1.0556314886380944
8.079298909751666,-1.2159050125122102,1.74683518753052,1.63270979375839,1.0556314886380944
8.079904603270744,-0.250712141418457,-2.9234528984069796,-1.17664811639786,1.0556314886380944
8.080510296789825,-2.18109788360596,-0.442212664031982,-0.7000392296791079,1.0556314886380944
8.081115990308904,-2.28168870391846,-1.74270826950073,0.171747879695892,1.0556314886380944
8.081721683827983,1.62698317108154,-2.22650221481323,-1.51434587030411,1.0556314886380944
8.082327377347063,1.80660963592529,2.4916862617492703,-0.5826832726478579,1.0556314886380944
8.082933070866142,1.55752760467529,-0.284141374969482,1.30938215703964,1.0556314886380944
8.08353876438522,1.31802565155029,1.97675706253052,0.09271223516464229,1.0556314886380944
8.0841444579043,-0.320167707824707,3.89037766799927,1.1105955359458901,1.0556314886380944
8.08475015142338,0.156441178894043,-2.38936354293823,0.0807371375083923,1.0556314886380944
8.085355844942459,-2.3104289382934597,-1.23256910934448,-0.889245772647858,1.0556314886380944
8.085961538461538,-3.93904221954346,-1.88401442184448,0.930969071102142,1.0556314886380944
8.086567231980618,1.46412184295654,-2.03011061325073,-1.8975489953041098,1.0556314886380944
8.087172925499697,1.44735670623779,1.68935471878052,0.8591184851646421,1.0556314886380944
8.087778619018776,1.73236403045654,1.58397385940552,-1.15988297967911,1.0556314886380944
8.088384312537857,3.0089094406127903,-0.6625544609069819,0.11187239141464199,1.0556314886380944
8.088990006056935,-0.24113206329345702,5.31062425003052,0.9956345984458921,1.0556314886380944
8.089595699576016,-2.1667277664184597,0.0727165351867676,1.18484114141464,1.0556314886380944
8.090201393095095,-1.74520432891846,-3.68746412887573,0.12145246953964199,1.0556314886380944
8.090807086614173,-3.33070725860596,1.54086350784302,-2.63042497186661,1.0556314886380944
8.091412780133254,-0.454288801574707,-5.05502028121948,2.00393782110214,1.0556314886380944
8.092018473652333,3.2987068038940404,1.27022630081177,-1.9574244835853598,1.0556314886380944
8.092624167171412,1.03541334686279,1.91448655471802,0.43999006719589195,1.0556314886380944
8.093229860690492,2.65444654998779,-1.38585035934448,0.942944168758392,1.0556314886380944
8.093835554209571,0.11572584686279301,4.50110764846802,-0.786259932804108,1.0556314886380944
8.09444124772865,-3.30915208282471,-0.5739387382507319,3.0385862586021397,1.0556314886380944
8.095046941247729,0.031900163269043,-1.73073317184448,-1.7730079796791098,1.0556314886380944
8.095652634766807,-2.9451091140747097,-0.8421809257507319,0.5405808875083921,1.0556314886380944
8.096258328285888,-0.475843977355957,-2.36301832809448,-1.5598512413978598,1.0556314886380944
8.096864021804967,2.79096266326904,-0.672134539031982,-1.4999757531166098,1.0556314886380944
8.097469715324046,0.707295671081543,1.98154710159302,1.6063645789146401,1.0556314886380944
8.098075408843126,2.04371656951904,0.0176310859680176,-0.19948014764785799,1.0556314886380944
8.098681102362205,0.16841627655029298,2.11087815628052,1.4219480750083902,1.0556314886380944
8.099286795881284,-1.2805705398559601,2.17075364456177,1.0411399695396402,1.0556314886380944
8.099892489400363,0.0678254562377929,-3.17732496871948,-0.865295577335358,1.0556314886380944
8.100498182919443,-2.19307298126221,-0.6984797538757319,-0.405451827335358,1.0556314886380944
8.101103876438522,-2.02542161407471,-1.74989332809448,-0.12044450311660801,1.0556314886380944
8.1017095699576,1.98623610076904,-2.12112135543823,-0.5180177453041079,1.0556314886380944
8.102315263476681,0.867761979675293,2.06776780471802,-0.5395729210853579,1.0556314886380944
8.10292095699576,1.9574958663940398,0.465499738311768,0.483100418758392,1.0556314886380944
8.103526650514839,1.44256666717529,1.45464280471802,1.7261155554771401,1.0556314886380944
8.10413234403392,-0.621940168762207,4.211310285186769,0.0783421179771423,1.0556314886380944
8.104738037552998,-0.07348069610595709,-2.41570875778198,0.207673172664642,1.0556314886380944
8.105343731072079,-2.55472093048096,-1.66606764450073,-0.7383595421791079,1.0556314886380944
8.105949424591158,-3.2253263992309598,-1.64451246871948,0.286708817195892,1.0556314886380944
8.106555118110236,1.2174348312377898,-2.08998610153198,-1.4688404992103599,1.0556314886380944
8.107160811629317,1.5814777999877898,1.53846848831177,0.593271317195892,1.0556314886380944
8.107766505148396,1.96228590545654,0.930133527374268,-0.7982350304603579,1.0556314886380944
8.108372198667475,2.9226887374877903,0.554115460968018,-0.29049088983535803,1.0556314886380944
8.108977892186555,-0.5572746414184571,4.54182298049927,2.1500340125083897,1.0556314886380944
8.109583585705634,-1.6565886062622102,-0.490113054656982,0.207673172664642,1.0556314886380944
8.110189279224713,-1.51288743438721,-3.0096736015319796,0.207673172664642,1.0556314886380944
8.110794972743792,-4.04921311798096,0.288268292999268,-1.12395768671036,1.0556314886380944
8.111400666262872,-0.09024583282470709,-3.69704420700073,-0.374316573429108,1.0556314886380944
8.112006359781951,3.0424397140502903,1.55762864456177,-1.5382960656166098,1.0556314886380944
8.11261205330103,1.19827467498779,0.7816423164367681,0.966894364070892,1.0556314886380944
8.113217746820109,2.57780592498779,-0.5595686210632319,0.665121903133392,1.0556314886380944
8.11382344033919,-0.07108567657470709,3.84726731643677,0.032836746883392304,1.0556314886380944
8.114429133858268,-2.48766038360596,0.388859113311768,1.39799787969589,1.0556314886380944
8.115034827377347,-0.559669660949707,-2.3845735038757296,0.382509598445892,1.0556314886380944
8.115640520896426,-2.41580979766846,-0.906846453094482,-0.743149581241608,1.0556314886380944
8.116246214415506,-0.914132551574707,-2.7605915702819797,-1.5598512413978598,1.0556314886380944
8.116851907934585,2.00779127655029,-0.526038347625732,-0.654533858585358,1.0556314886380944
8.117457601453664,1.63895826873779,2.25457932815552,0.5812962195396421,1.0556314886380944
8.118063294972744,2.18502272186279,-0.327251726531982,0.34897932500839196,1.0556314886380944
8.118668988491823,0.491743913269043,2.8748893867492704,0.5980613562583921,1.0556314886380944
8.119274682010902,-1.22788011016846,1.63905930862427,1.80515120000839,1.0556314886380944
8.119880375529982,-0.332142805480957,-2.6216804374694798,-1.40656999139786,1.0556314886380944
8.120486069049061,-2.12601243438721,-1.33315992965698,-0.192295089054108,1.0556314886380944
8.12109176256814,-1.63742845001221,-1.02180739059448,-0.8365553429603579,1.0556314886380944
8.12169745608722,1.0593635421752898,-1.86724928512573,-0.6018434288978579,1.0556314886380944
8.1223031496063,1.44975172576904,2.07734788284302,-0.6162135460853579,1.0556314886380944
8.12290884312538,1.7994245773315398,0.120616925811768,0.262758621883392,1.0556314886380944
8.123514536644459,1.43777662811279,1.48577805862427,1.31177717657089,1.0556314886380944
8.124120230163538,-0.605175032043457,4.77892991409302,0.16935286016464202,1.0556314886380944
8.124725923682618,-0.495004133605957,-2.74622145309448,1.52253889532089,1.0556314886380944
8.125331617201697,-2.17630784454346,-1.82892897262573,-1.4401002648353598,1.0556314886380944
8.125937310720776,-4.473131575012211,-1.01462233200073,-1.08563737421036,1.0556314886380944
8.126543004239855,1.10007887420654,-2.8468122734069796,-0.345576339054108,1.0556314886380944
8.127148697758935,2.6328913742065403,2.18991380081177,-0.09170426874160771,1.0556314886380944
8.127754391278014,1.5551325851440398,1.00677415237427,0.18851301641464202,1.0556314886380944
8.128360084797093,2.86760328826904,-0.0781696952819824,-0.19469010858535798,1.0556314886380944
8.128965778316172,-0.212391828918457,4.64001878128052,1.88179182500839,1.0556314886380944
8.129571471835252,-2.12840745391846,-0.276956316375732,1.46266340703964,1.0556314886380944
8.13017716535433,-1.5320475906372102,-2.5570149101257296,-0.553943038272858,1.0556314886380944
8.13078285887341,-3.5678141921997097,-0.236240984344482,0.09510725469589229,1.0556314886380944
8.13138855239249,0.015135026550293,-3.2395954765319797,-1.1024025109291098,1.0556314886380944
8.131994245911569,2.93466383514404,1.18879563674927,-0.8413453820228579,1.0556314886380944
8.132599939430648,1.0761286788940398,1.66540452346802,0.547765946102142,1.0556314886380944
8.133205632949727,2.95621901092529,-1.20622389450073,0.33700422735214197,1.0556314886380944
8.133811326468807,-0.0662956375122071,3.6652458320617702,0.43759504766464197,1.0556314886380944
8.134417019987886,-2.53795579376221,0.7984074531555181,1.8362864539146402,1.0556314886380944
8.135022713506965,-0.389623274230957,-2.20973707809448,-0.592263350772858,1.0556314886380944
8.135628407026045,-3.21574632110596,-1.07210280075073,-0.9610963585853579,1.0556314886380944
8.136234100545124,-0.679420637512207,-2.66000074996948,-2.23285172967911,1.0556314886380944
8.136839794064203,2.5634358078002903,-0.7990705741882319,0.0184666296958923,1.0556314886380944
8.137445487583284,0.702505632019043,2.4054655586242704,1.1944212195396402,1.0556314886380944
8.138051181102362,2.07006178436279,0.202047589874268,-0.867690596866608,1.0556314886380944
8.138656874621443,0.8198615890502929,1.8929313789367699,1.91053205938339,1.0556314886380944
8.139262568140522,-1.3835563796997101,2.01268235549927,0.507050614070892,1.0556314886380944
8.1398682616596,0.058245378112793,-2.68634596481323,-1.5718263390541098,1.0556314886380944
8.140473955178681,-2.14277757110596,-0.7607502616882319,0.190908035945892,1.0556314886380944
8.14107964869776,-2.1739128250122097,-1.46967604293823,-0.0509889367103577,1.0556314886380944
8.141685342216839,1.71080885467529,-2.0396906913757302,-0.803025069522858,1.0556314886380944
8.142291035735918,0.836626725769043,1.99112717971802,0.104687332820892,1.0556314886380944
8.142896729254998,1.6916486984252899,0.566090558624268,-0.364736495304108,1.0556314886380944
8.143502422774077,1.97665602264404,1.34207688674927,1.5680442664146401,1.0556314886380944
8.144108116293156,-0.655470442199707,4.17298997268677,1.02197981328964,1.0556314886380944
8.144713809812234,0.23308180389404298,-1.65409254684448,-0.333601241397858,1.0556314886380944
8.145319503331315,-2.67207688751221,-2.81807203903198,0.363349442195892,1.0556314886380944
8.145925196850394,-3.73786057891846,-0.569148699188232,-1.7466627648353599,1.0556314886380944
8.146530890369473,1.46412184295654,-2.66239576950073,-1.12395768671036,1.0556314886380944
8.147136583888553,1.74433912811279,1.60073899612427,1.3620725867271402,1.701820736176523
8.147742277407632,1.72517897186279,2.0629777656555204,-1.3323243859291098,1.701820736176523
8.14834797092671,2.5466706710815403,-1.06731276168823,0.806428055477142,1.701820736176523
8.14895366444579,-0.301007551574707,5.09986253128052,1.32614729375839,1.701820736176523
8.14955935796487,-2.03260667266846,-0.111699968719482,1.4339231726646402,1.701820736176523
8.150165051483949,-1.84819016876221,-3.55094801559448,-0.623398604679108,1.701820736176523
8.150770745003028,-3.8432414382934597,0.8582829414367681,-2.05562028436661,1.701820736176523
8.151376438522108,-0.24113206329345702,-4.22155348434448,1.9057420203208901,1.701820736176523
8.151982132041187,2.73348219451904,0.9397136054992681,-2.4005030968666103,1.701820736176523
8.152587825560268,0.894107194519043,2.29768967971802,-0.0150636437416077,1.701820736176523
8.153193519079347,2.7023469406127902,-1.60140211715698,2.3464256140708897,1.701820736176523
8.153799212598425,0.24266188201904298,4.00294358596802,-0.7599147179603579,1.701820736176523
8.154404906117504,-3.35944749298096,0.5565104804992681,1.28303694219589,1.701820736176523
8.155010599636585,-0.250712141418457,-2.1019611991882297,-0.49885758905410804,1.701820736176523
8.155616293155663,-2.04697678985596,-1.42896071090698,0.272338700008392,1.701820736176523
8.156221986674744,-1.2254850906372101,-2.72227125778198,-2.09154557733536,1.701820736176523
8.156827680193823,2.60415113983154,-0.360781999969482,-0.745544600772858,1.701820736176523
8.157433373712902,0.776751237487793,1.20077073440552,2.63861799688339,1.701820736176523
8.158039067231982,2.27124342498779,0.6163859687805181,-1.5335060265541098,1.701820736176523
8.158644760751061,0.309722428894043,1.70372483596802,2.4063011023521397,1.701820736176523
8.15925045427014,-1.68532884063721,1.85940110549927,1.39799787969589,1.701820736176523
8.159856147789219,0.561199479675293,-2.38936354293823,-1.6053566124916099,1.701820736176523
8.160461841308297,-1.7978947586059602,-0.8158357109069819,0.032836746883392304,1.701820736176523
8.161067534827378,-2.49724046173096,-1.43135573043823,-1.01139176874161,1.701820736176523
8.161673228346457,1.30365553436279,-2.90189772262573,-0.12283952264785801,1.701820736176523
8.162278921865536,1.44256666717529,2.5443766914367703,-0.683274092960358,1.701820736176523
8.162884615384616,1.70362379608154,0.202047589874268,1.01718977422714,1.701820736176523
8.163490308903695,1.8808552413940398,1.13610520706177,1.09143537969589,1.701820736176523
8.164096002422774,-0.815936750793457,4.15622483596802,0.274733719539642,1.701820736176523
8.164701695941853,0.594729753112793,-1.83371901168823,-0.242590499210358,1.701820736176523
8.165307389460933,-1.9942863601684602,-1.50799635543823,-0.151579757022858,1.701820736176523
8.165913082980012,-4.140223860168461,-0.983487078094482,-0.46053727655410803,1.701820736176523
8.16651877649909,1.14797926483154,-2.90189772262573,-2.12268083124161,1.701820736176523
8.167124470018171,1.86888014373779,1.23190598831177,1.07227522344589,1.701820736176523
8.16773016353725,2.4604499679565404,1.89532639846802,-0.501252608585358,1.701820736176523
8.168335857056329,2.58499098358154,-0.0254792655944824,0.035231766414642304,1.701820736176523
8.16894155057541,-0.588409895324707,4.44841721878052,2.00393782110214,1.701820736176523
8.169547244094488,-1.6565886062622102,-0.8014655937194819,1.3668626257896401,1.701820736176523
8.170152937613569,-1.79549973907471,-2.48276930465698,-1.27963395624161,1.701820736176523
8.170758631132648,-3.7402555984497097,0.0391862617492676,-0.33839128046035805,1.701820736176523
8.171364324651726,-0.277057356262207,-3.45035719528198,-1.0449220421791099,1.701820736176523
8.171970018170807,2.57541090545654,0.7552971015930181,-0.508437667179108,1.701820736176523
8.172575711689886,1.24138502655029,1.89053635940552,0.492680496883392,1.701820736176523
8.173181405208965,3.0352546554565403,-0.566753679656982,-0.256960616397858,1.701820736176523
8.173787098728045,-0.133356184387207,3.15271165237427,1.25669172735214,1.701820736176523
8.174392792247124,-2.78703782501221,0.9181584297180181,1.00760969610214,1.701820736176523
8.174998485766203,-0.789591535949707,-2.84920729293823,0.11666243047714199,1.701820736176523
8.175604179285282,-2.59064622344971,-0.629024187469482,-1.3419044640541098,1.701820736176523
8.17620987280436,-0.511769270324707,-2.39654860153198,-0.6784840538978579,1.701820736176523
8.176815566323441,2.0844319015502903,-0.435027605438232,-0.8820607140541079,1.701820736176523
8.17742125984252,1.0593635421752898,1.20795579299927,0.667516922664642,1.701820736176523
8.178026953361599,1.88325026092529,0.317008527374268,0.34897932500839196,1.701820736176523
8.17863264688068,0.137281022644043,2.29050462112427,1.45787336797714,1.701820736176523
8.179238340399758,-1.10333909454346,1.91209153518677,0.986054520320892,1.701820736176523
8.179844033918837,0.00555494842529295,-1.74510328903198,-1.23173356561661,1.701820736176523
8.180449727437916,-2.0014714187622102,-1.76186842575073,0.195698075008392,1.701820736176523
8.181055420956996,-1.76675950469971,-1.01701735153198,-0.752729659366608,1.701820736176523
8.181661114476075,0.29535231170654297,-2.2121320976257297,-0.30007096796035804,1.701820736176523
8.182266807995154,1.24138502655029,1.88095628128052,-1.4640504601478599,1.701820736176523
8.182872501514234,2.1035920578002902,-0.0973298515319824,0.9405491492271421,1.701820736176523
8.183478195033313,1.76589430389404,1.73486008987427,1.5153538367271402,1.701820736176523
8.184083888552392,-0.13575120391845702,4.43883714065552,0.8543284461021421,1.701820736176523
8.184689582071472,-0.698580793762207,-2.5474348320007296,0.547765946102142,1.701820736176523
8.185295275590551,-1.85537522735596,-1.92951979293823,-1.71552751092911,1.701820736176523
8.185900969109632,-4.08992845001221,-1.15113844528198,-0.312046065616608,1.701820736176523
8.18650666262871,0.621074967956543,-1.47686110153198,-1.35627458124161,1.701820736176523
8.18711235614779,2.29519362030029,1.00916917190552,0.593271317195892,1.701820736176523
8.18771804966687,1.97665602264404,1.15287034378052,-1.79216813592911,1.701820736176523
8.188323743185949,2.72869215545654,-0.221870867156982,0.6770970007896421,1.701820736176523
8.188929436705028,-0.301007551574707,4.70707932815552,2.73441877813339,1.701820736176523
8.189535130224108,-2.15954270782471,0.585250714874268,0.511840653133392,1.701820736176523
8.190140823743187,-1.7164640945434602,-3.45754225387573,0.0376267859458923,1.701820736176523
8.190746517262266,-3.35226243438721,0.422389386749268,-1.8065382531166099,1.701820736176523
8.191352210781345,-0.530929426574707,-3.9916316093444797,0.8998338171958921,1.701820736176523
8.191957904300425,3.1023152023315403,0.910973371124268,-1.01857682733536,1.701820736176523
8.192563597819504,1.22461988983154,2.10369309768677,0.104687332820892,1.701820736176523
8.193169291338583,2.77419752655029,-1.39064039840698,1.4171580359458902,1.701820736176523
8.193774984857662,0.273797135925293,3.59818528518677,-0.455747237491608,1.701820736176523
8.194380678376742,-2.94031907501221,1.16963548049927,0.8184031531333921,1.701820736176523
8.194986371895821,-0.49260911407470703,-2.2720075859069797,-0.688064132022858,1.701820736176523
8.1955920654149,-2.4301799148559597,-1.59421705856323,0.0400218054771423,1.701820736176523
8.196197758933979,-0.930897688293457,-1.45530592575073,-1.91191911249161,1.701820736176523
8.196803452453059,1.81379469451904,-1.56308180465698,-0.019853682804107698,1.701820736176523
8.197409145972138,1.35155592498779,1.80431565628052,0.217253250789642,1.701820736176523
8.198014839491217,1.7778694015502898,0.705001691436768,-0.45095719842910803,1.701820736176523
8.198620533010297,0.18757643280029299,1.2941764961242699,2.20272444219589,1.701820736176523
8.199226226529376,-0.703370832824707,2.8605192695617703,0.432805008602142,1.701820736176523
8.199831920048455,-0.20041673126220702,-2.68634596481323,-0.23540544061660798,1.701820736176523
8.200437613567535,-2.05655686798096,-1.03138746871948,-0.7191993859291079,1.701820736176523
8.201043307086614,-2.11643235626221,-1.61337721481323,-0.47011735467910803,1.701820736176523
8.201649000605693,1.3323957687377899,-2.13309645309448,-0.625793624210358,1.701820736176523
8.202254694124774,1.48328199920654,2.73597825393677,-0.745544600772858,1.701820736176523
8.202860387643852,1.5168122726440398,-0.281746355438232,0.8567234656333921,1.701820736176523
8.203466081162933,2.08682692108154,0.887023175811768,0.7154173132896421,1.701820736176523
8.204071774682012,-0.296217512512207,4.596908429718019,0.6196165320396421,1.701820736176523
8.20467746820109,-0.751271223449707,-1.76186842575073,0.6172215125083921,1.701820736176523
8.205283161720171,-1.9344108718872102,-1.80737379684448,-1.21975846796036,1.701820736176523
8.20588885523925,-4.00131272735596,-1.49123121871948,-0.9395411828041079,1.701820736176523
8.206494548758329,0.858181901550293,-2.71269117965698,-0.553943038272858,1.701820736176523
8.207100242277408,1.88564528045654,1.69174973831177,0.748947586727142,1.701820736176523
8.207705935796488,1.84732496795654,2.1923088203430203,-1.50237077264786,1.701820736176523
8.208311629315567,2.60175612030029,-1.14634840621948,1.45068830938339,1.701820736176523
8.208917322834646,0.039085221862793,4.67594407424927,1.04353498907089,1.701820736176523
8.209523016353725,-2.21941819610596,0.130197003936768,1.16328596563339,1.701820736176523
8.210128709872805,-1.5751579421997102,-3.1605598320007298,-0.529992842960358,1.701820736176523
8.210734403391884,-3.6636149734497097,0.400834210968018,-1.02576188592911,1.701820736176523
8.211340096910963,-0.911737532043457,-4.44189528121948,0.5765061804771421,1.701820736176523
8.211945790430043,3.71304518280029,1.74444016799927,-2.5801295617103603,1.701820736176523
8.212551483949122,0.28577223358154297,1.54565354690552,2.01351789922714,1.701820736176523
8.2131571774682,3.11668531951904,-0.444607683563232,-0.5419679406166079,1.701820736176523
8.21376287098728,0.726455827331543,2.54916673049927,1.4985887000083902,1.701820736176523
8.21436856450636,-3.2085612625122097,1.24867112503052,0.35855940313339196,1.701820736176523
8.214974258025439,-0.08066575469970709,-1.69241285934448,-1.30358415155411,1.701820736176523
8.215579951544518,-2.95947923126221,-1.24214918746948,0.8758836218833921,1.701820736176523
8.216185645063598,-0.626730207824707,-2.2624275077819798,-2.09633561639786,1.701820736176523
8.216791338582677,2.65205153045654,-1.52476149215698,-0.43898210077285804,1.701820736176523
8.217397032101756,0.479768815612793,2.30966477737427,0.9189939734458921,1.701820736176523
8.218002725620837,1.9574958663940398,0.36011887893676797,-0.103679366397858,1.701820736176523
8.218608419139915,0.815071549987793,1.82108079299927,1.1656809851646401,1.701820736176523
8.219214112658994,-1.32607591094971,1.66540452346802,2.2099095007896397,1.701820736176523
8.219819806178075,0.12051588592529301,-2.00616041793823,-1.62212174921036,1.701820736176523
8.220425499697154,-1.98949632110596,-1.37866530075073,0.008886551570892291,1.701820736176523
8.221031193216234,-2.26492356719971,-1.36669020309448,-0.16594987421035798,1.701820736176523
8.221636886735313,1.32760572967529,-1.99658033981323,-0.970676436710358,1.701820736176523
8.222242580254392,0.673765397644043,2.01986741409302,-0.6617189171791079,1.701820736176523
8.22284827377347,2.23531813201904,0.511005109405518,0.145402664852142,1.701820736176523
8.223453967292551,1.5503425460815399,0.949293683624268,1.71893049688339,1.701820736176523
8.22405966081163,-1.3452360671997101,4.510687726593019,0.176537918758392,1.701820736176523
8.224665354330709,0.554014421081543,-1.97263014450073,0.356164383602142,1.701820736176523
8.225271047849787,-1.88651048126221,-2.2384773124694797,-0.647348799991608,1.701820736176523
8.225876741368868,-4.06597825469971,-0.588308855438232,-1.18383317499161,1.701820736176523
8.226482434887947,0.652210221862793,-2.55940992965698,-0.153974776554108,1.701820736176523
8.227088128407026,2.00060621795654,1.30615159378052,0.5214207312583921,1.701820736176523
8.227693821926106,1.8928303390502899,1.67737962112427,-1.34669450311661,1.701820736176523
8.228299515445185,2.3430940109252902,0.123011945343018,-0.144394698429108,1.701820736176523
8.228905208964264,-0.128566145324707,4.30232102737427,2.1404539343833897,1.701820736176523
8.229510902483343,-1.3787663406372102,0.319403546905518,1.06030012578964,1.701820736176523
8.230116596002423,-1.92962083282471,-2.65521071090698,-0.494067549991608,1.701820736176523
8.230722289521502,-3.55823411407471,0.020026105499267602,-1.3754347374916098,1.701820736176523
8.23132798304058,-0.502189192199707,-4.59278151168823,0.5980613562583921,1.701820736176523
8.231933676559661,2.47721510467529,1.41871751174927,-2.33583756952286,1.701820736176523
8.23253937007874,1.07852369842529,2.12045823440552,0.753737625789642,1.701820736176523
8.23314506359782,2.7262971359252903,-1.24454420700073,1.3620725867271402,1.701820736176523
8.2337507571169,0.762381120300293,3.70117112503052,-0.247380538272858,1.701820736176523
8.234356450635978,-2.97384934844971,0.647521222686768,1.6015745398521402,1.701820736176523
8.234962144155059,-0.638705305480957,-1.66606764450073,-0.376711592960358,1.701820736176523
8.235567837674138,-2.39904466094971,-1.62056227340698,0.528605789852142,1.701820736176523
8.236173531193216,-0.894972395324707,-1.56068678512573,-3.1788844445228603,1.701820736176523
8.236779224712297,1.7084138351440399,-1.62535231246948,0.942944168758392,1.701820736176523
8.237384918231376,1.42101149139404,1.97196702346802,-0.412636885929108,1.701820736176523
8.237990611750455,1.9694709640502899,0.6355461250305181,-0.6760890343666079,1.701820736176523
8.238596305269535,-0.284242414855957,1.16963548049927,2.53802717657089,1.701820736176523
8.239201998788614,-0.791986555480957,2.71921311721802,-0.403056807804108,1.701820736176523
8.239807692307693,-0.24113206329345702,-3.14139967575073,0.274733719539642,1.701820736176523
8.240413385826772,-1.5152824539184602,-0.743985124969482,-0.963491378116608,1.701820736176523
8.24101907934585,-2.22420823516846,-1.94628492965698,-0.18990006952285798,1.701820736176523
8.241624772864931,1.1407942062377898,-2.43965895309448,-0.750334639835358,1.701820736176523
8.24223046638401,1.73715406951904,2.5587468086242704,-0.18990006952285798,1.701820736176523
8.242836159903089,1.42340651092529,0.156542218780518,1.51774885625839,1.701820736176523
8.24344185342217,2.01258131561279,1.66540452346802,-0.19469010858535798,1.701820736176523
8.244047546941248,-0.667445539855957,3.97659837112427,0.562136063289642,1.701820736176523
8.244653240460327,-0.327352766418457,-1.58942701950073,0.645961746883392,1.701820736176523
8.245258933979406,-1.78831468048096,-1.89119948043823,-0.922776046085358,1.701820736176523
8.245864627498486,-3.83605637969971,-1.16550856246948,-0.6593238976478579,1.701820736176523
8.246470321017565,0.245056901550293,-2.54024977340698,-0.623398604679108,1.701820736176523
8.247076014536644,1.8808552413940398,0.805592511749268,0.480705399227142,1.5108001475609811
8.247681708055724,1.99821119842529,2.1396183906555204,-1.50955583124161,1.5108001475609811
8.248287401574803,2.42931471405029,-0.317671648406982,1.1177805945396402,1.5108001475609811
8.248893095093882,-0.233947004699707,4.41967698440552,2.1404539343833897,1.5108001475609811
8.249498788612962,-2.17151780548096,0.113431867218018,1.2542967078208902,1.5108001475609811
8.250104482132041,-1.35481614532471,-2.9234528984069796,-1.1790431359291098,1.5108001475609811
8.250710175651122,-3.6636149734497097,0.0918766914367676,-0.992231612491608,1.5108001475609811
8.2513158691702,-0.681815657043457,-4.14251783981323,0.969289383602142,1.5108001475609811
8.25192156268928,3.02327955780029,1.33968186721802,-1.91191911249161,1.5108001475609811
8.25252725620836,0.436658464050293,1.8929313789367699,0.7345774695396421,1.5108001475609811
8.253132949727439,2.81012281951904,-0.6002839530944819,0.6411717078208921,1.5108001475609811
8.253738643246518,0.510904069519043,2.83656907424927,0.6363816687583921,1.5108001475609811
8.254344336765598,-2.6792619461059597,1.15526536331177,0.8543284461021421,1.5108001475609811
8.254950030284677,-0.806356672668457,-2.03729567184448,-0.8389503624916079,1.5108001475609811
8.255555723803756,-2.37509446563721,-2.09717116012573,0.45915022344589196,1.5108001475609811
8.256161417322835,-0.669840559387207,-1.71636305465698,-1.54069108514786,1.5108001475609811
8.256767110841913,1.62458815155029,-1.26130934371948,-0.24977555780410798,1.5108001475609811
8.257372804360994,1.29647047576904,1.70132981643677,0.586086258602142,1.5108001475609811
8.257978497880073,1.72278395233154,0.7744572578430181,-0.477302413272858,1.5108001475609811
8.258584191399152,0.17799635467529298,1.49535813674927,1.04832502813339,1.5108001475609811
8.259189884918232,-0.399203352355957,2.5755119453430204,0.722602371883392,1.5108001475609811
8.259795578437311,-0.212391828918457,-2.4348689140319797,-0.434192061710358,1.5108001475609811
8.26040127195639,-1.86735032501221,-1.66367262496948,-0.585078292179108,1.5108001475609811
8.261006965475469,-1.9128556961059602,-1.47686110153198,-0.266540694522858,1.5108001475609811
8.261612658994549,0.592334733581543,-1.54871168746948,-0.573103194522858,1.5108001475609811
8.262218352513628,1.40424635467529,1.60073899612427,-0.0390138390541077,1.5108001475609811
8.262824046032707,1.80900465545654,0.0367912422180176,-0.08691422967910771,1.5108001475609811
8.263429739551787,1.9095954757690399,1.31573167190552,0.983659500789642,1.5108001475609811
8.264035433070866,-0.267477278137207,4.32866624221802,0.583691239070892,1.5108001475609811
8.264641126589945,-0.576434797668457,-1.69241285934448,0.765712723445892,1.5108001475609811
8.265246820109025,-2.07571702423096,-2.6576057304382297,-0.870085616397858,1.5108001475609811
8.265852513628104,-3.71151536407471,-0.743985124969482,-1.4951857140541098,1.5108001475609811
8.266458207147185,-0.19562669219970702,-2.8372321952819797,0.926179032039642,1.5108001475609811
8.267063900666264,2.1874177413940403,1.49535813674927,-0.187505049991608,1.5108001475609811
8.267669594185342,2.12993727264404,1.40195237503052,-0.8173951867103579,1.5108001475609811
8.268275287704423,2.39817946014404,-0.130860124969482,0.22922834844589202,1.5108001475609811
8.268880981223502,0.518089128112793,4.96095139846802,1.43631819219589,1.5108001475609811
8.26948667474258,-2.7056071609497097,-0.526038347625732,2.11650373907089,1.5108001475609811
8.270092368261661,-1.5416276687622101,-2.53306471481323,-2.23764176874161,1.5108001475609811
8.27069806178074,-3.08402024688721,0.142172101593018,-0.611423507022858,1.5108001475609811
8.271303755299819,-1.2254850906372101,-3.97247145309448,0.109477371883392,1.5108001475609811
8.271909448818898,3.62921949920654,1.69893479690552,-2.82681657342911,1.5108001475609811
8.272515142337978,0.637840104675293,1.02353928909302,2.19314436407089,1.5108001475609811
8.273120835857057,2.6496565109252903,-0.564358660125732,0.11187239141464199,1.5108001475609811
8.273726529376136,0.666580339050293,4.000548566436771,0.7800828406333921,1.5108001475609811
8.274332222895215,-3.2852018875122098,-1.00264723434448,1.73569563360214,1.5108001475609811
8.274937916414295,0.0726154953002929,-0.274561296844482,-3.9668458703041103,1.5108001475609811
8.275543609933374,-2.5259806961059597,-2.1283064140319796,3.2613230750083897,1.5108001475609811
8.276149303452453,-0.360883039855957,-2.03250563278198,-2.07957047967911,1.5108001475609811
8.276754996971531,1.98384108123779,-0.355991960906982,-1.2820289757728598,1.5108001475609811
8.277360690490612,0.582754655456543,0.812777570343018,2.7895042273521398,1.5108001475609811
8.27796638400969,2.6400764328002904,1.41153245315552,-1.66044206171036,1.5108001475609811
8.27857207752877,-0.226761946105957,0.6978166328430181,2.5500022742271398,1.5108001475609811
8.27917777104785,-0.672235578918457,3.12876145706177,-0.09649430780410771,1.5108001475609811
8.279783464566929,-0.279452375793457,-2.93542799606323,1.3405174109458902,1.5108001475609811
8.280389158086008,-1.78591966094971,-0.7823054374694819,-0.36952653436660804,1.5108001475609811
8.280994851605088,-1.1608195632934601,-1.43135573043823,-1.6436769249916099,1.5108001475609811
8.281600545124167,0.019925065612793,-1.87203932418823,-0.12283952264785801,1.5108001475609811
8.282206238643246,0.915662370300293,2.1851237617492703,-0.434192061710358,1.5108001475609811
8.282811932162327,2.6328913742065403,-0.607469011688232,0.466335282039642,1.5108001475609811
8.283417625681405,2.02216139373779,1.99112717971802,1.28782698125839,1.5108001475609811
8.284023319200486,-0.880602278137207,4.060424054718021,0.6603318640708921,1.5108001475609811
8.284629012719565,0.15883619842529298,-1.43135573043823,-0.403056807804108,1.5108001475609811
8.285234706238644,-2.10924729766846,-2.05645582809448,-0.0653590538978577,1.5108001475609811
8.285840399757724,-3.67798509063721,-0.9403767265319819,-1.01618180780411,1.5108001475609811
8.286446093276803,0.546829362487793,-2.5905451835632296,-0.6162135460853579,1.5108001475609811
8.287051786795882,2.10838209686279,1.33728684768677,0.983659500789642,1.5108001475609811
8.28765748031496,2.10598707733154,1.98154710159302,-1.7179225304603598,1.5108001475609811
8.288263173834041,2.41494459686279,-0.729615007781982,0.684282059383392,1.5108001475609811
8.28886886735312,-0.11898606719970699,4.44123216018677,2.2003294226646397,1.5108001475609811
8.289474560872199,-2.21462815704346,0.870258039093018,0.0735520789146423,1.5108001475609811
8.290080254391277,-1.97512620391846,-3.4695173515319797,0.662726883602142,1.5108001475609811
8.290685947910358,-2.61699143829346,0.7361369453430181,-1.7346876671791098,1.5108001475609811
8.291291641429437,-0.985983137512207,-3.8311653007507296,-0.0725441124916077,1.5108001475609811
8.291897334948516,2.78377760467529,0.9373185859680181,-1.8328834679603598,1.5108001475609811
8.292503028467596,1.5766877609252898,1.68935471878052,0.727392410945892,1.5108001475609811
8.293108721986675,2.3167487960815403,-1.17508864059448,1.63749983282089,1.5108001475609811
8.293714415505754,0.585149674987793,4.25681565628052,-0.0629640343666077,1.5108001475609811
8.294320109024833,-3.3881877273559597,0.0320012031555176,1.5895994421958901,1.5108001475609811
8.294925802543913,0.156441178894043,-1.60140211715698,-1.69876237421036,1.5108001475609811
8.295531496062992,-2.6289665359497096,-1.3403449882507301,0.8399583289146421,1.5108001475609811
8.29613718958207,-1.38595139923096,-1.86724928512573,-2.03885514764786,1.5108001475609811
8.296742883101151,2.39578444061279,-1.11281813278198,-0.08212419061660771,1.5108001475609811
8.29734857662023,0.724060807800293,1.14808030471802,1.03874495000839,1.5108001475609811
8.29795427013931,2.26884840545654,1.12652512893677,-1.8759938195228598,1.5108001475609811
8.29855996365839,0.10375074920654301,0.870258039093018,3.19665754766464,1.5108001475609811
8.299165657177468,-1.28296555938721,2.87967942581177,-0.635373702335358,1.5108001475609811
8.299771350696547,0.376782975769043,-2.45881910934448,-0.491672530460358,1.5108001475609811
8.300377044215628,-2.11882737579346,-1.66127760543823,0.404064774227142,1.5108001475609811
8.300982737734707,-1.8362150711059602,-0.473347917938232,-2.02209001092911,1.5108001475609811
8.301588431253787,1.00427809295654,-2.6144953788757297,0.574111160945892,1.5108001475609811
8.302194124772866,1.1360041671752898,2.84614915237427,-0.9419362023353579,1.5108001475609811
8.302799818291945,1.5814777999877898,-0.355991960906982,1.1129905554771402,1.5108001475609811
8.303405511811023,1.6317732101440399,1.12173508987427,0.6411717078208921,1.5108001475609811
8.304011205330104,-0.523744367980957,5.20763841018677,0.18372297735214202,1.5108001475609811
8.304616898849183,-0.289032453918457,-2.2456623710632297,1.1824461218833902,1.5108001475609811
8.305222592368262,-1.8146598953247102,-2.05645582809448,-1.52632096796036,1.5108001475609811
8.30582828588734,-4.252789778137211,-0.8924763359069819,-0.146789717960358,1.5108001475609811
8.306433979406421,0.561199479675293,-2.8276521171569797,-0.6760890343666079,1.5108001475609811
8.3070396729255,2.42931471405029,1.38518723831177,-0.44137712030410803,1.5108001475609811
8.307645366444579,2.0365315109252897,1.5336784492492699,-0.48927751092910804,1.5108001475609811
8.30825105996366,2.4628449874877902,-0.6745295585632319,0.921388992977142,1.5108001475609811
8.308856753482738,-0.107010969543457,4.99927171096802,1.96801252813339,1.5108001475609811
8.309462447001817,-2.07571702423096,0.137382062530518,1.24471662969589,1.5108001475609811
8.310068140520896,-1.2039299148559601,-2.6312605155944797,-1.46644547967911,1.5108001475609811
8.310673834039976,-3.73307053985596,-0.751170183563232,0.00409651250839229,1.5108001475609811
8.311279527559055,-0.681815657043457,-3.29707594528198,-1.06408219842911,1.5108001475609811
8.311885221078134,2.89634352264404,1.27501633987427,-1.2987941124916098,1.5108001475609811
8.312490914597214,0.702505632019043,0.8822331367492681,2.1236887976646397,1.5108001475609811
8.313096608116293,2.9226887374877903,0.0846916328430176,-1.9262892296791099,1.5108001475609811
8.313702301635374,0.09177565155029291,2.2018888984680203,2.13326887578964,1.5108001475609811
8.314307995154453,-2.3703044265747097,1.65582444534302,0.6148264929771421,1.5108001475609811
8.314913688673531,-0.526139387512207,-1.57266188278198,-1.1047975304603599,1.5108001475609811
8.315519382192612,-3.00977464141846,-1.64211744918823,1.1129905554771402,1.5108001475609811
8.31612507571169,-0.739296125793457,-1.29004957809448,-2.8196315148353603,1.5108001475609811
8.31673076923077,2.41254957733154,-2.0588508476257297,1.04832502813339,1.5108001475609811
8.31733646274985,1.21503981170654,2.35756516799927,-0.295280928897858,1.5108001475609811
8.317942156268929,1.82337477264404,0.204442609405518,0.190908035945892,1.5108001475609811
8.318547849788008,0.453423600769043,1.55283860549927,1.77880598516464,1.5108001475609811
8.319153543307088,-0.9165275711059571,2.6617326484680204,-0.125234542179108,1.5108001475609811
8.319759236826167,-0.19083665313720702,-3.1030793632507296,-0.13960465936660799,1.5108001475609811
8.320364930345246,-1.44822190704346,-0.7224299491882319,-1.56224626092911,1.5108001475609811
8.320970623864325,-2.2002580398559597,-1.82174391403198,1.06030012578964,1.5108001475609811
8.321576317383403,1.3419758468627898,-1.58463698043823,-1.15988297967911,1.5108001475609811
8.322182010902484,1.38508619842529,2.10369309768677,-0.8581105187416079,1.5108001475609811
8.322787704421563,1.9143855148315398,-0.166785417938232,1.18005110235214,1.5108001475609811
8.323393397940642,2.05569166717529,1.62468919143677,0.011281571102142299,1.5108001475609811
8.323999091459722,-0.775221418762207,4.2184953437805195,1.23513655157089,1.5108001475609811
8.324604784978801,-0.104615950012207,-0.5547785820007319,-0.7383595421791079,1.5108001475609811
8.32521047849788,-1.75717942657471,-2.7965168632507296,0.523815750789642,1.5108001475609811
8.325816172016959,-3.3810026687622097,-1.20382887496948,-0.8413453820228579,1.5108001475609811
8.32642186553604,0.21871168670654298,-2.10675123825073,-1.8759938195228598,1.5108001475609811
8.327027559055118,1.49765211639404,1.11934007034302,1.2542967078208902,1.5108001475609811
8.327633252574197,2.30237867889404,1.99591721878052,-1.00899674921036,1.5108001475609811
8.328238946093277,2.3598591476440403,-0.748775164031982,1.1944212195396402,1.5108001475609811
8.328844639612356,0.451028581237793,4.39572678909302,1.5369090125083902,1.5108001475609811
8.329450333131435,-2.39904466094971,0.0511613594055176,0.806428055477142,1.5108001475609811
8.330056026650515,-2.13559251251221,-2.5977302421569797,-1.37303971796036,1.5108001475609811
8.330661720169594,-3.23730149688721,0.242762921905518,-1.29160905389786,1.5108001475609811
8.331267413688675,-1.05064866485596,-3.68985914840698,-0.149184737491608,1.5108001475609811
8.331873107207754,3.68190992889404,0.851097882843018,-1.2844239953041099,1.5108001475609811
8.332478800726832,0.975537858581543,1.06664964065552,1.1225706336021402,1.5108001475609811
8.333084494245913,2.6927668624877903,-0.224265886688232,-0.7623097374916079,1.5108001475609811
8.333690187764992,0.271402116394043,4.01491868362427,1.71414045782089,1.5108001475609811
