Time (s),Accel X (m/s^2),Accel Y (m/s^2),Accel Z (m/s^2)
8.795375,0.518008483314514,0.536531714057922,0.329653762722015
8.79598106060606,-3.67327569637299,2.91718112812042,-0.6475142060279849
8.796587121212122,2.7310065301895103,-2.50274807109833,-0.254731002902985
8.797193181818182,0.632969420814514,-0.785519067192078,0.34641889944076504
8.797799242424242,1.4448810419082598,1.49932956562042,-0.106239791965485
8.798405303030304,-0.200497376060486,-0.23466457500457802,0.33683882131576504
8.799011363636364,-5.98686456356049,1.09936130390167,-0.269101120090485
8.799617424242424,2.9034479364395103,-1.99260891094208,1.05534468069076
8.800223484848484,3.59321356143951,-0.13886379375457802,-0.386457077121735
8.800829545454546,-3.7594963994979897,3.25248386249542,-0.264311081027985
8.801435606060606,1.11436834659576,-1.38427395000458,0.17158247365951498
8.802041666666666,1.3466852411270098,-1.44654445781708,-1.14088822946549
8.802647727272728,0.527588561439514,0.407200659370422,0.564365676784515
8.803253787878788,1.33231512393951,0.8215390382766721,-0.616378952121735
8.803859848484848,-5.63000665340424,1.35562839374542,0.27696333303451504
8.80446590909091,0.27850653018951405,-1.64533107891083,0.300913528347015
8.80507196969697,5.822976745033261,-2.00697902812958,-0.968446823215485
8.80567803030303,-3.9415178838729896,3.03693210468292,1.46249800100326
8.806284090909092,-1.0531243291854901,0.673047827339172,-0.245150924777985
8.806890151515152,2.4651593622207604,-2.77578029766083,-0.867856002902985
8.807496212121212,-0.133436829185486,0.416780737495422,0.583525833034515
8.808102272727274,1.61253240909576,0.46228610858917196,-1.09059281930924
8.808708333333334,-3.41221856746674,0.795193823432922,0.892483352565765
8.809314393939394,-1.86743096981049,0.694603003120422,-0.173300338840485
8.809920454545454,4.84341375675201,-3.75294826641083,-0.374481979465485
8.810526515151516,-1.98478692684174,1.85139743671417,-0.13737504587173502
8.811132575757576,-3.44095880184174,2.82856540546417,0.617056106472015
8.811738636363636,3.40400701847076,-3.08713283672333,0.183557571315765
8.812344696969697,0.8844464715957641,0.31139987812042197,-0.774450241184235
8.812950757575758,1.04970281925201,-0.0885683835983276,-0.15653520212173502
8.813556818181818,-0.566935364341736,0.534136694526672,-0.34095170602798497
8.81416287878788,-4.93784600887299,1.32209812030792,1.26131636037826
8.81476893939394,3.99078680362701,-1.76987209453583,0.08296675100326491
8.815375,0.9850372919082641,0.186858862495422,0.140447219753265
8.815981060606061,-3.59184503231049,3.00819187030792,-0.8463008271217349
8.816587121212121,2.41246893253326,-2.05727443828583,-0.120609909152985
8.817193181818181,0.6449445184707641,-0.6394228757858279,-0.228385788059235
8.817799242424242,1.60774237003326,1.01314060077667,0.229062942409515
8.818405303030303,-0.210077454185486,-0.210714379692078,0.09494184865951491
8.819011363636363,-6.04913507137299,1.00595554218292,-0.108634811496735
8.819617424242423,2.90105291690826,-1.28128811016083,0.832607864284515
8.820223484848485,3.4830426630020104,-0.0119277585983276,-0.458307663059235
8.820829545454545,-3.8984075323104896,2.98424167499542,-0.111029831027985
8.821435606060605,1.26764959659576,-1.11124172344208,-0.542133346652985
8.822041666666667,1.25327947940826,-2.05008937969208,-0.599613815402985
8.822647727272727,0.795830748939514,0.852674292182922,0.27696333303451504
8.823253787878787,1.57421209659576,0.689812964057922,-0.499022995090485
8.82385984848485,-5.88148370418549,0.809563940620422,0.38713423147201503
8.82446590909091,0.0964850458145142,-1.17351223125458,-0.35053178415298497
8.82507196969697,5.61461004581451,-2.25606105937958,-0.254731002902985
8.825678030303031,-3.5367595830917398,3.30996433124542,0.27696333303451504
8.826284090909091,-1.13215997371674,0.9173398195266721,-0.0727095185279851
8.826890151515151,2.12027654972076,-3.19011867656708,-0.185275436496735
8.827496212121211,0.024634459877014202,0.632332495307922,-0.0295991669654851
8.828102272727273,1.7442584833145098,-0.112518578910828,-0.235570846652985
8.828708333333333,-3.10565606746674,1.19755710468292,0.0518314970970149
8.829314393939393,-2.16680841121674,1.06583103046417,0.648191360378265
8.829920454545455,4.63504705753326,-4.06190578594208,-0.09665971384048509
8.830526515151515,-1.34292169246674,2.19628024921417,-1.13849320993424
8.831132575757575,-3.8984075323104896,2.40225192890167,1.53434858694076
8.831738636363637,2.93218817081451,-2.56980861797333,-0.788820358371735
8.832344696969697,1.32992010440826,0.5580868898391721,-0.5876387177467349
8.832950757575757,1.1071832880020098,-0.821444360160828,1.17030561819076
8.833556818181819,-1.75965509090424,0.354510229682922,-1.37799516305924
8.834162878787879,-4.52829766902924,1.87534763202667,0.6697465361595151
8.834768939393939,4.42907537784576,-1.89680812969208,1.07210981740951
8.835374999999999,1.12155340518951,0.328165014839172,0.291333450222015
8.835981060606061,-3.30923272762299,2.58427341327667,-0.295446334934235
8.836587121212121,2.23284246768951,-2.44526760234833,-0.30263139352798496
8.837193181818181,0.836546080970764,-0.419081078910828,0.14284223928451498
8.837799242424243,0.6449445184707641,0.828724096870422,0.0542265166282649
8.838405303030303,0.558723815345764,0.275474585151672,-0.168510299777985
8.839011363636363,-5.88866876277924,0.6395175539016721,1.41699262990951
8.839617424242425,2.4244440301895103,-1.20225246562958,-0.393642135715485
8.840223484848485,3.46388250675201,-0.335255395317078,-0.225990768527985
8.840829545454545,-4.06845391902924,2.51481784687042,-0.249940963840485
8.841435606060607,1.2556744989395099,-0.826234399223328,-0.479862838840485
8.842041666666667,0.908396666908264,-1.97344875469208,-0.08707963571548509
8.842647727272727,1.58858221378326,0.946080053901672,-0.285866256809235
8.843253787878789,1.0808380731582599,0.0479477296829224,0.626636184597015
8.843859848484849,-6.28863702449799,1.91606296405792,-0.8055854950904849
8.844465909090909,0.7024249872207641,-1.63814602031708,0.767942336940765
8.845071969696969,5.69364569034576,-2.77578029766083,-0.415197311496735
8.84567803030303,-3.8984075323104896,3.83447360858917,-0.695414596652985
8.84628409090909,-1.4938079229354901,0.313794897651672,0.6122660674095151
8.84689015151515,2.21607733097076,-2.98414699687958,-0.839115768527985
8.847496212121213,0.482083190345764,0.9412900148391721,-0.134980026340485
8.848102272727273,1.4448810419082598,-0.24424465312957802,-0.5469233857154849
8.848708333333333,-3.3571331182479898,1.03948581562042,0.399109329128265
8.849314393939395,-1.75726007137299,0.8574643312454221,0.15242231740951498
8.849920454545455,5.34876287784576,-3.77210842266083,-0.539738327121735
8.850526515151515,-1.92012139949799,2.05497409687042,0.14284223928451498
8.851132575757577,-3.80500177059174,1.98791354999542,0.504490188503265
8.851738636363637,3.31060125675201,-2.46921779766083,-0.913361373996735
8.852344696969697,0.534773620033264,0.12937839374542198,0.173977493190765
8.852950757575757,0.7024249872207641,0.0814780031204224,-0.8463008271217349
8.853556818181818,-0.492689758872986,0.0910580812454224,-0.264311081027985
8.854162878787879,-4.42052179012299,1.08020114765167,0.715251907253265
8.854768939393939,3.69619940128326,-0.723248559379578,-0.13258500680923502
8.855375,0.515613463783264,0.208414038276672,0.399109329128265
8.85598106060606,-3.74991632137299,2.64175388202667,-1.0546675263404899
8.85658712121212,2.66873602237701,-2.50753811016083,0.461379836940765
8.857193181818182,1.48559637393951,-0.0262978757858276,-0.920546432590485
8.857799242424242,1.4353009637832599,-0.162813989067078,1.5199784697532601
8.858405303030302,0.12522528018951398,0.258709448432922,-0.9852119599342349
8.859011363636364,-5.78568292293549,1.00116550312042,0.413479446315765
8.859617424242424,1.51194158878326,-1.92554836406708,1.14396040334701
8.860223484848484,4.51529608097076,0.335350073432922,-1.12412309274674
8.860829545454546,-3.82655694637299,1.83223728046417,1.34274702444076
8.861435606060606,0.965877135658264,-0.270589867973328,-1.33727983102799
8.862041666666666,1.01377752628326,-2.38299709453583,0.21229780569076498
8.862647727272726,0.115645202064514,1.00835056171417,-0.8271406708717349
8.863253787878788,2.26397772159576,0.6371225343704221,0.578735793972015
8.863859848484848,-5.73778253231049,1.25264255390167,0.344023879909515
8.864465909090908,-0.7321917119979859,-1.30523830547333,-0.520578170871735
8.86507196969697,6.61093817081451,-2.02134914531708,0.224272903347015
8.86567803030303,-3.61100518856049,2.52918796405792,0.878113235378265
8.86628409090909,-1.24472589168549,1.22390231952667,0.173977493190765
8.866890151515152,2.1514118036270102,-2.96977687969208,-0.654699264621735
8.867496212121212,-0.054401184654235796,0.390435522651672,0.32725874319076503
8.868102272727272,2.1514118036270102,0.629937475776672,-0.20683061227798502
8.868708333333334,-3.43856378231049,0.488631323432922,0.787102493190765
8.869314393939394,-2.1356731573104897,0.946080053901672,0.15721235647201498
8.869920454545454,4.85299383487701,-3.44878078594208,-0.6666743622779849
8.870526515151514,-0.899843079185486,1.73404147968292,0.288938430690765
8.871132575757576,-4.49955743465424,2.38548679218292,0.844582961940765
8.871738636363636,2.57533026065826,-2.11954494609833,-1.02353227243424
8.872344696969696,1.1622687372207599,-0.380760766410828,0.700881790065765
8.872950757575758,1.41374578800201,0.36169528827667197,-1.14567826852799
8.873556818181818,-0.475924622154236,0.0144174562454224,-0.309816452121735
8.874162878787878,-5.40247979793549,1.04188083515167,1.51279341115951
8.87476893939394,3.3129962762832603,-1.37708889141083,0.09254682912826491
8.875375,1.0592828973770099,-0.253824731254578,0.5499955595970151
8.87598106060606,-3.55112970027924,2.84293552265167,-1.29656449899674
8.876587121212122,2.30708807315826,-1.78424221172333,0.0733866728782649
8.877193181818182,1.31075994815826,-1.12800686016083,0.10212690725326501
8.877799242424242,2.14662176456451,0.392830542182922,-0.496627975559235
8.878405303030302,0.529983580970764,0.287449682807922,-0.24754594430923502
8.879011363636364,-6.91613214168549,1.23108737812042,-0.257126022434235
8.879617424242424,1.80173895206451,-1.74113186016083,1.46489302053451
8.880223484848484,4.36440985050201,0.0742929445266724,-0.29305131540298496
8.880829545454546,-3.57507989559174,2.42859714374542,0.5499955595970151
8.881435606060606,-0.0807463994979858,-0.720853539848328,-0.664279342746735
8.882041666666666,0.836546080970764,-2.32551662578583,-0.379272018527985
8.882647727272728,0.965877135658264,0.766453589057922,0.0685966338157649
8.883253787878788,2.12027654972076,1.17600192890167,-0.934916549777985
8.883859848484848,-5.05759698543549,0.570061987495422,0.842187942409515
8.88446590909091,-1.64948419246674,-1.21422756328583,-0.15174516305923502
8.88507196969697,5.28649237003326,-1.56150539531708,0.7511772002220151
8.88567803030303,-2.14046319637299,2.37590671405792,0.645796340847015
8.886284090909092,-1.58242364559174,0.955660132026672,-1.58636186227799
8.886890151515152,1.74186346378326,-2.77578029766083,0.0206962431907649
8.887496212121212,0.292876647377014,0.0311825929641724,-0.259521041965485
8.888102272727272,2.01729070987701,0.500606421089172,-0.37208695993423496
8.888708333333334,-3.74512628231049,0.847884253120422,0.708066848659515
8.889314393939394,-2.7440081182479896,0.510186499214172,-0.592428756809235
8.889920454545454,5.58586981143951,-3.42483059062958,0.641006301784515
8.890526515151516,-0.463949524497986,2.16754001483917,-0.669069381809235
8.891132575757576,-4.29358575496674,1.96635837421417,1.03378950490951
8.891738636363636,2.10351141300201,-2.06924953594208,-1.30853959665299
8.892344696969698,1.2772296747207599,-0.5723623289108279,0.478144973659515
8.892950757575758,1.60055731143951,0.955660132026672,-0.848695846652985
8.893556818181818,-0.5118499151229859,0.23475925312042198,-0.975631881809235
8.89416287878788,-4.73905938777924,0.464681128120422,1.57027387990951
8.89476893939394,2.8866827997207603,-1.23099270000458,-0.16132524118423502
8.895375,1.1670587762832598,4.73390579223755e-05,0.597895950222015
8.895981060606061,-3.3595281377792396,2.85012058124542,-0.7073896943092349
8.896587121212121,1.7442584833145098,-2.01895412578583,0.439824661159515
8.897193181818182,1.12155340518951,-1.13998195781708,-0.0008589325904851421
8.897799242424242,1.3634503778457598,0.776033667182922,-0.309816452121735
8.898405303030303,0.367122252845764,0.48144626483917197,-0.0655244599342351
8.899011363636363,-6.18086114559174,0.9987704835891721,-0.41280229196548496
8.899617424242424,1.06167791690826,-1.70760158672333,0.961938918972015
8.900223484848485,4.49134588565826,0.469471167182922,0.00393110647201486
8.900829545454545,-3.43377374324799,2.39746188983917,0.734412063503265
8.901435606060605,0.242581237220764,-0.6202627195358279,-0.956471725559235
8.902041666666667,1.1622687372207599,-2.11235988750458,-0.721759811496735
8.902647727272727,0.230606139564514,-0.0909634031295776,1.1607255400657601
8.903253787878787,2.1514118036270102,1.36281345233917,-0.139770065402985
8.903859848484847,-5.2276433721542395,0.531741674995422,1.02660444631576
8.90446590909091,-1.15850518856049,-1.07531643047333,-0.307421432590485
8.90507196969697,5.85171697940826,-1.90638820781708,-0.29305131540298496
8.90567803030303,-2.45660577449799,1.76038669452667,0.655376418972015
8.906284090909091,-1.87940606746674,2.08610935077667,-1.19597367868424
8.906890151515151,1.42093084659576,-3.18293361797333,0.09494184865951491
8.907496212121211,0.364727233314514,0.103033178901672,-0.34095170602798497
8.908102272727273,1.74186346378326,0.788008764839172,-0.573268600559235
8.908708333333333,-2.76316827449799,0.390435522651672,1.02660444631576
8.909314393939393,-2.3655950323104897,0.9796103273391721,0.320073684597015
8.909920454545455,4.74761297550201,-2.99372707500458,-0.575663620090485
8.910526515151515,-0.33940850887298596,0.7592685304641721,0.858953079128265
8.911132575757575,-4.46842218074799,2.94831638202667,0.300913528347015
8.911738636363635,2.29271795597076,-1.70760158672333,-1.33009477243424
8.912344696969697,1.54786688175201,-1.64533107891083,0.727227004909515
8.912950757575757,1.10957830753326,1.44663913593292,-1.69653276071549
8.913556818181817,-0.176547180747986,-0.371180688285828,0.626636184597015
8.914162878787879,-4.43010186824799,1.2143222414016699,0.243433059597015
8.914768939393939,2.35738348331451,-1.09687160625458,0.324863723659515
8.915375,1.8208991083145099,-0.452611352348328,-0.046364303684235095
8.915981060606061,-3.70441095027924,2.73994968280792,-0.843905807590485
8.916587121212121,1.80652899112701,-1.86327785625458,0.554785598659515
8.917193181818181,2.02687078800201,-0.8956899656295779,-0.992397018527985
8.917799242424241,1.3418952020645099,0.15572360858917197,0.47574995412826504
8.918405303030303,1.32752508487701,0.8790195070266721,-1.07382768259049
8.919011363636365,-6.32935235652924,0.297029760932922,0.621846145534515
8.919617424242423,0.175520690345764,-0.8358144773483279,0.518860305690765
8.920223484848485,5.09489080753326,-0.471771508598328,-0.616378952121735
8.920829545454545,-3.22780206356049,1.83942233905792,0.039856399440764904
8.921435606060607,0.539563659095764,0.6850229249954221,-0.9253364716529849
8.922041666666667,1.25806951847076,-2.87637111797333,0.183557571315765
8.922647727272727,0.24497625675201398,1.41310886249542,-0.448727584934235
8.923253787878789,1.95981024112701,1.04427585468292,0.284148391628265
8.923859848484849,-4.93784600887299,-0.24424465312957802,0.48533003225326504
8.924465909090909,-1.45788262996674,-0.6130776609420779,0.372764114284515
8.92507196969697,5.74873113956451,-2.06206447734833,0.190742629909515
8.92567803030303,-2.1021428838729896,2.16035495624542,1.51039839162826
8.92628409090909,-2.3488298955917397,1.94959323749542,-0.29065629587173497
8.926890151515153,1.96699529972076,-3.38411525859833,-0.26191606149673496
8.927496212121213,0.115645202064514,0.354510229682922,0.384739211940765
8.928102272727273,1.84005926456451,0.6993930421829221,-0.269101120090485
8.928708333333333,-1.90575128231049,0.634727514839172,0.209902786159515
8.929314393939395,-3.38108331356049,0.9844003664016721,-0.09426469430923509
8.929920454545455,4.71887274112701,-3.30507961406708,-0.384062057590485
8.930526515151515,0.374307311439514,0.629937475776672,0.648191360378265
8.931132575757577,-4.79414483699799,3.56862644062042,0.274568313503265
8.931738636363637,2.55856512393951,-1.96147365703583,-0.733734909152985
8.932344696969697,1.6748029169082599,-1.37229885234833,0.45658979787826504
8.932950757575759,1.30836492862701,1.00116550312042,-1.93124467477799
8.933556818181819,-0.413654114341736,-0.7136684812545779,0.559575637722015
8.934162878787879,-5.08873223934174,1.7532016359329199,0.839792922878265
8.934768939393939,2.5082697137832604,-1.28128811016083,-0.419987350559235
8.935375,2.29990301456451,-0.543622094535828,0.775127395534515
8.93598106060606,-3.82416192684174,3.09680759296417,-0.7265498505592349
8.93658712121212,1.93346502628326,-1.77705715312958,-0.326581588840485
8.937193181818182,1.44967108097076,-1.45133449687958,0.767942336940765
8.937799242424243,0.776670592689514,1.43945407733917,-0.642724166965485
8.938405303030303,1.7011481317520099,-0.107728539848328,0.044646438503264906
8.939011363636364,-6.1856511846542395,0.9221298585891721,-0.398432174777985
8.939617424242424,0.029424498939514203,-0.941195336723328,0.873323196315765
8.940223484848485,5.26254217472076,-0.783124047660828,0.379949172878265
8.940829545454545,-3.43137872371674,2.28729099140167,0.027881301784514898
8.941435606060606,0.18510076847076398,0.572457007026672,-1.46900590524674
8.942041666666666,1.74904852237701,-3.11587307109833,0.607476028347015
8.942647727272726,-0.109486633872986,0.670652807807922,-0.127794967746735
8.943253787878788,2.05321600284576,1.41310886249542,-0.326581588840485
8.943859848484848,-5.04562188777924,-0.22508449687957802,2.47080122365952
8.944465909090908,-1.70217462215424,0.390435522651672,-1.82107377634049
8.94507196969697,5.77747137393951,-3.11587307109833,0.238643020534515
8.94567803030303,-2.20033868465424,2.05257907733917,0.281753372097015
8.94628409090909,-2.23626397762299,2.52200290546417,-0.999582077121735
8.946890151515152,1.98136541690826,-3.58050686016083,0.684116653347015
8.947496212121212,-0.0975115362167358,0.42157077655792197,-0.5277632294654849
8.948102272727272,1.61013738956451,-0.0454580320358276,-0.190065475559235
8.948708333333332,-1.81713555965424,0.328165014839172,0.799077590847015
8.949314393939394,-3.3499480596542397,2.15556491718292,-0.278681198215485
8.949920454545454,4.6518121942520105,-3.68109768047333,-0.278681198215485
8.950526515151514,0.182705748939514,-0.304120141410828,0.794287551784515
8.951132575757576,-4.95940118465424,3.82728854999542,-0.465492721652985
8.951738636363636,2.4076788934707603,-2.09319973125458,-0.309816452121735
8.952344696969696,1.41135076847076,-1.28128811016083,0.463774856472015
8.952950757575758,0.7455353387832641,1.42747897968292,-1.09059281930924
8.953556818181818,0.07013983097076419,-1.31960842266083,0.6314262236595151
8.954162878787878,-4.5761980596542395,1.49932956562042,-0.561293502902985
8.954768939393938,2.1585968622207603,-1.45851955547333,0.835002883815765
8.955375,2.60646551456451,-0.469376489067078,-0.0798945771217351
8.95598106060606,-4.66960382137299,3.49677585468292,0.0135111845970149
8.95658712121212,1.50715154972076,-1.88962307109833,0.6721415556907651
8.957193181818182,2.1154865106582603,-1.42977932109833,-1.07382768259049
8.957799242424242,0.333591979408264,0.7017880617141721,0.111706985378265
8.958405303030302,2.0915363153457602,4.73390579223755e-05,-0.106239791965485
8.959011363636364,-6.20002130184174,1.24545749530792,0.300913528347015
8.959617424242424,-0.701056458091736,-0.371180688285828,0.667351516628265
8.960223484848484,5.54036444034576,-1.80819240703583,0.250618118190765
8.960829545454544,-3.15595147762299,2.29208103046417,-0.719364791965485
8.961435606060606,-0.162177063560486,1.05625095233917,-0.9061763154029849
8.962041666666668,1.84724432315826,-3.04641750469208,0.755967239284515
8.962647727272726,-0.0639812627792358,0.5796420656204221,-0.27149613962173497
8.963253787878788,2.1681769403457603,0.953265112495422,0.042251418972014905
8.963859848484848,-4.59056817684174,0.766453589057922,1.33795698537826
8.96446590909091,-2.4781609502792397,0.182068823432922,-1.09777787790299
8.96507196969697,6.57980291690826,-3.03204738750458,-0.0391792450904851
8.96567803030303,-1.90335626277924,1.92324802265167,0.753572219753265
8.966284090909092,-3.0433855596542396,2.52918796405792,-1.20794877634049
8.966890151515152,2.35977850284576,-3.62840725078583,0.463774856472015
8.967496212121212,0.201865905189514,0.376065405464172,-0.24275590524673502
8.968102272727274,1.90711981143951,0.548506811714172,-0.609193893527985
8.968708333333334,-2.1452532354354896,-0.0670132078170776,0.734412063503265
8.969314393939394,-3.6397454229354897,2.20825534687042,-0.043969284152985094
8.969920454545456,5.26014715518951,-3.50386623516083,-0.28107621774673497
8.970526515151516,0.386282409095764,-0.45740139141082803,0.253013137722015
8.971132575757576,-5.29230889949799,4.30629245624542,-0.348136764621735
8.971738636363636,2.46276434268951,-2.15786525859833,-0.130189987277985
8.972344696969698,1.8759845575332599,-0.986700707817078,0.28654341115951504
8.972950757575758,1.02096258487701,0.7616635499954221,-0.597218795871735
8.973556818181818,0.120435241127014,-0.802284203910828,-0.0319941864967351
8.97416287878788,-5.0552019659042395,1.91606296405792,-0.15653520212173502
8.97476893939394,1.9837604364395098,-1.10884670391083,0.34641889944076504
8.975375,2.75974676456451,-0.627447778129578,0.344023879909515
8.975981060606061,-4.49955743465424,3.14231296405792,-0.273891159152985
8.976587121212122,1.44727606143951,-1.11842678203583,-0.0343892060279851
8.977193181818182,1.95023016300201,-1.79621730937958,0.118892043972015
8.977799242424242,0.628179381752014,1.01793063983917,-0.369691940402985
8.978405303030303,1.93825506534576,0.110218237495422,-0.309816452121735
8.979011363636364,-6.00362970027924,0.6251474367141721,0.0781767119407649
8.979617424242424,-0.504664856529236,-0.368785668754578,0.638611282253265
8.980223484848485,5.17871649112701,-1.29805324687958,0.394319290065765
8.980829545454545,-3.00267022762299,2.09329440937042,-0.0367842255592351
8.981435606060606,-0.119066711997986,1.11133640155792,-0.939706588840485
8.982041666666667,1.37303045597076,-2.83805080547333,0.0230912627220149
8.982647727272727,0.213841002845764,0.6850229249954221,0.0326713408470149
8.983253787878787,2.37893865909576,0.610777319526672,0.444614700222015
8.983859848484848,-5.16537286434174,0.49102634296417197,0.705671829128265
8.98446590909091,-2.50929620418549,0.19883396015167198,0.0997318877220149
8.98507196969697,7.20250799503326,-2.64644924297333,-0.051154342746735096
8.98567803030303,-1.88180108699799,1.74362155780792,0.130867141628265
8.986284090909091,-3.04578057918549,2.97945163593292,-1.43787065134049
8.986890151515151,1.9957355340957599,-3.49668117656708,0.135657180690765
8.987496212121211,0.0629547723770142,-0.0119277585983276,-0.13258500680923502
8.988102272727273,1.70833319034576,0.608382299995422,-0.479862838840485
8.988708333333333,-1.52973321590424,0.265894507026672,-0.166115280246735
8.989314393939393,-3.1703215948104897,1.23348239765167,-0.051154342746735096
8.989920454545455,4.41710028018951,-2.93145656719208,-0.0727095185279851
8.990526515151515,0.534773620033264,-0.404710961723328,0.741597122097015
8.991132575757575,-4.88036554012299,3.42253024921417,-0.319396530246735
8.991738636363635,1.9574152215957599,-1.65730617656708,-0.388852096652985
8.992344696969697,1.75383856143951,-1.70041652812958,0.674536575222015
8.992950757575757,1.78976385440826,1.40592380390167,-0.915756393527985
8.993556818181817,-0.550170227622986,-0.761568871879578,1.11282514944076
8.99416287878788,-5.03364679012299,1.61668552265167,-0.8870161591529849
8.99476893939394,2.06998113956451,-1.46091457500458,1.17270063772201
8.995375,2.67831610050201,-0.443031274223328,0.25780317678451503
8.995981060606061,-3.8289519659042397,3.13273288593292,-1.16483842477799
8.996587121212121,1.38979559268951,-1.65251613750458,0.219482864284515
8.997193181818181,2.17057195987701,-1.42259426250458,-0.618773971652985
8.997799242424241,0.455737975502014,0.706578100776672,0.130867141628265
8.998405303030303,1.44967108097076,0.651492651557922,-0.424777389621735
8.999011363636363,-5.63000665340424,0.486236303901672,1.01462934865951
8.999617424242423,-0.43999932918548595,-0.5555971921920779,0.454194778347015
9.000223484848485,4.92005438175201,-0.809469262504578,0.044646438503264906
9.000829545454545,-2.50690118465424,1.80828708515167,0.00872114553451486
9.001435606060605,0.115645202064514,1.07062106952667,-1.3540449677467399
9.002041666666667,1.3754254755020099,-3.07994777812958,0.621846145534515
9.002647727272727,-0.0065007940292358506,0.771243628120422,-0.508603073215485
9.003253787878787,1.70833319034576,1.24306247577667,0.49491011037826504
9.003859848484847,-4.04689874324799,0.594012182807922,0.636216262722015
9.004465909090909,-2.02789727840424,-0.107728539848328,-0.870251022434235
9.00507196969697,5.3032575067520105,-3.09431789531708,0.933198684597015
9.00567803030303,-1.23993585262299,2.31842624530792,-0.47267778024673496
9.00628409090909,-2.7416130987167397,2.39506687030792,-0.240360885715485
9.006890151515153,1.7442584833145098,-3.48231105937958,0.561970657253265
9.007496212121213,0.256951354408264,0.354510229682922,-1.34925492868424
9.008102272727273,1.0856281122207598,-0.23945461406707802,0.20750776662826498
9.008708333333333,-0.847152649497986,0.752083471870422,-0.28347123727798496
9.009314393939395,-3.5223894659042396,1.69572116718292,0.45658979787826504
9.009920454545455,3.88061590518951,-2.85002590312958,-0.127794967746735
9.010526515151515,1.24130438175201,-0.869344750785828,0.7894975127220151
9.011132575757577,-4.51871759090424,3.78178317890167,-0.419987350559235
9.011738636363637,1.80173895206451,-1.07771145000458,-0.669069381809235
9.012344696969697,1.66522283878326,-1.92794338359833,0.705671829128265
9.012950757575759,1.2820197137832599,1.33167819843292,-0.8271406708717349
9.013556818181819,0.355147155189514,-1.28847316875458,0.858953079128265
9.014162878787879,-4.43010186824799,2.29208103046417,-1.75161820993424
9.014768939393939,0.999407409095764,-1.04657619609833,1.86246626272201
9.015375,2.8699176630020102,-0.668163110160828,0.274568313503265
9.01598106060606,-3.6996209112167397,3.11357272968292,-1.08580278024674
9.01658712121212,0.640154479408264,-1.69562648906708,0.966728958034515
9.017193181818183,2.7046613153457604,-1.1208218015670801,-1.60073197946549
9.017799242424243,0.173125670814514,0.34253513202667196,0.324863723659515
9.018405303030303,1.9957355340957599,0.6035922609329221,-0.386457077121735
9.019011363636364,-5.22285333309174,0.505396460151672,1.12480024709701
9.019617424242425,-1.7069646612167402,0.153328589057922,0.0973368681907649
9.020223484848485,5.164346373939511,-1.42738430156708,0.490120071315765
9.020829545454545,-2.51408624324799,1.82026218280792,-0.13737504587173502
9.021435606060606,-0.0855364385604858,1.45621921405792,-1.10017289743424
9.022041666666667,1.7179132684707599,-3.44399074687958,0.739202102565765
9.022647727272727,-0.5334050909042359,1.25503757343292,-1.01634721384049
9.023253787878788,1.98855047550201,0.268289526557922,1.36190718069076
9.023859848484848,-3.56549981746674,0.464681128120422,-0.604403854465485
9.024465909090909,-3.44814386043549,0.0934531007766724,-0.508603073215485
9.02507196969697,5.8493219598770105,-3.35298000469208,0.743992141628265
9.02567803030303,-0.6531560674667359,2.12442966327667,-0.446332565402985
9.02628409090909,-3.17271661434174,2.40464694843292,0.332048782253265
9.026890151515152,1.8544293817520099,-3.25238918437958,-0.0391792450904851
9.027496212121212,0.24976629581451398,0.503001440620422,-0.556503463840485
9.028102272727272,1.29638983097076,0.416780737495422,0.348813918972015
9.028708333333332,-0.6914763799667359,-0.0670132078170776,0.0159062041282649
9.029314393939394,-3.85290216121674,2.50284274921417,-0.49183793649673496
9.029920454545454,3.3656867059707603,-3.19251369609833,0.564365676784515
9.030526515151514,1.8544293817520099,-1.36990383281708,0.569155715847015
9.031132575757576,-4.8755755010604895,4.50747409687042,-0.731339889621735
9.031738636363636,1.32752508487701,-1.43456936016083,0.478144973659515
9.032344696969696,2.10111639347076,-1.80819240703583,-0.139770065402985
9.032950757575758,1.04012274112701,0.890994604682922,-0.8463008271217349
9.033556818181818,0.484478209877014,-0.842999535942078,1.05534468069076
9.034162878787878,-4.78935479793549,2.43817722187042,-0.855880905246735
9.034768939393938,1.31315496768951,-1.01544094219208,0.801472610378265
9.035375,3.9452814325332604,-1.22380764141083,0.23624800100326498
9.03598106060606,-3.86966729793549,3.03932712421417,-0.7457100068092349
9.03658712121212,0.860496276283264,-0.8980849851608279,-0.0774995575904851
9.037193181818182,2.0651911005020103,-1.74352687969208,-0.630749069309235
9.037799242424242,0.07253485050201419,0.608382299995422,-0.051154342746735096
9.038405303030302,2.54179998722076,0.335350073432922,-0.0295991669654851
9.039011363636364,-5.22045831356049,0.7448984132766721,0.621846145534515
9.039617424242424,-1.69738458309174,-0.0526430906295776,0.0111161650657649
9.040223484848484,5.37510809268951,-1.62617092266083,1.02420942678451
9.040829545454544,-2.1787835088729897,2.14598483905792,-0.872646041965485
9.041435606060606,-0.519034973716736,1.02990573749542,-0.937311569309235
9.042041666666666,1.3850055536270098,-2.81649562969208,0.382344192409515
9.042647727272726,0.149175475502014,0.646702612495422,-0.367296920871735
9.043253787878788,2.1059064325332604,0.5652719484329221,0.7511772002220151
9.043859848484848,-3.85050714168549,1.01793063983917,-0.484652877902985
9.044465909090908,-3.4265886846542397,-0.227479516410828,0.243433059597015
9.04507196969697,5.67209051456451,-2.96738186016083,-0.16132524118423502
9.04567803030303,-0.214867493247986,1.88253269062042,-0.24754594430923502
9.046284090909092,-3.82416192684174,2.82856540546417,0.657771438503265
9.046890151515152,1.79694891300201,-3.11108303203583,0.449404739284515
9.047496212121212,0.767090514564514,-0.40710598125457803,-0.154140182590485
9.048102272727274,1.21495916690826,0.5820370851516721,-0.578058639621735
9.048708333333334,-0.660341126060486,0.13416843280792198,0.047041458034514906
9.049314393939394,-3.9654680791854897,1.73164646015167,0.35599897756576504
9.049920454545456,3.27228094425201,-2.52190822734833,-0.360111862277985
9.050526515151516,1.96460028018951,-1.5998257078170801,0.554785598659515
9.051132575757576,-4.50674249324799,4.07397556171417,-0.800795456027985
9.051738636363636,0.997012389564514,-0.8334194578170779,0.22187788381576498
9.052344696969698,2.28074285831451,-1.71718166484833,-0.257126022434235
9.052950757575758,1.37303045597076,0.6586777101516721,-0.46070268259048497
9.053556818181818,0.5419586786270141,-0.36639064922332804,0.21708784475326498
9.05416287878788,-4.67918389949799,0.929314917182922,0.0159062041282649
9.05476893939394,0.759905455970764,-0.6537929929733279,0.334443801784515
9.055375,3.77284002628326,-0.7759389890670779,0.399109329128265
9.055981060606062,-3.4792791143417396,2.58906345233917,-0.254731002902985
9.056587121212122,0.403047545814514,-0.447821313285828,-0.9852119599342349
9.057193181818182,2.1849420770645103,-2.71829982891083,0.19792768850326498
9.057799242424242,0.482083190345764,1.44184909687042,-0.661884323215485
9.058405303030304,1.57181707706451,0.493421362495422,0.521255325222015
9.059011363636364,-4.52350762996674,0.00483737812042238,0.360789016628265
9.059617424242424,-2.24105401668549,0.12219333515167201,-0.8055854950904849
9.060223484848485,4.38836004581451,-2.05008937969208,1.3403520049095101
9.060829545454546,-1.3357366338729901,2.12921970233917,-0.930126510715485
9.061435606060606,-0.806437317466736,1.26940769062042,-0.0176240693092351
9.062041666666667,1.57900213565826,-2.85242092266083,0.444614700222015
9.062647727272727,-0.26995294246673596,0.6371225343704221,-1.12172807321549
9.063253787878788,1.88795965518951,0.0407626710891724,1.15114546194076
9.063859848484848,-2.81585870418549,1.44424411640167,-0.733734909152985
9.06446590909091,-3.90319757137299,0.48144626483917197,0.173977493190765
9.06507196969697,5.41582342472076,-3.48231105937958,1.10324507131576
9.06567803030303,0.6425494989395141,1.56399509296417,-1.00676713571549
9.066284090909091,-4.05408380184174,2.83096042499542,-0.0248091279029851
9.066890151515151,1.56702703800201,-2.90750637187958,0.0997318877220149
9.067496212121211,0.9251618036270141,-0.16041896953582802,-0.954076706027985
9.068102272727273,0.939531920814514,0.347325171089172,0.652981399440765
9.068708333333333,-0.255582825279236,0.191648901557922,-0.630749069309235
9.069314393939393,-3.9918132940292397,1.6334506593704199,0.28654341115951504
9.069920454545455,3.2890460809707602,-2.49077297344208,0.473354934597015
9.070526515151515,2.44360418643951,-1.47528469219208,-0.0008589325904851421
9.071132575757575,-5.00490655574799,4.03565524921417,-0.467887741184235
9.071738636363635,0.934741881752014,-1.49683986797333,0.887693313503265
9.072344696969697,2.33343328800201,-1.74352687969208,-0.733734909152985
9.072950757575757,0.609019225502014,1.04906589374542,-0.5469233857154849
9.073556818181817,1.16466375675201,-0.531646996879578,0.238643020534515
9.07416287878788,-4.55703790340424,1.53764987812042,-0.676254440402985
9.07476893939394,-0.119066711997986,-0.8525796140670779,1.02899946584701
9.075375,3.9045661005020103,-1.57108547344208,0.657771438503265
9.075981060606061,-3.38826837215424,2.50523776874542,0.5499955595970151
9.076587121212121,0.304851745033264,0.38085544452667197,-0.154140182590485
9.077193181818181,2.2280524286270103,-2.60094387187958,0.291333450222015
9.077799242424241,0.33838201847076405,0.670652807807922,-0.35053178415298497
9.078405303030303,1.9406500848770099,0.246734350776672,0.320073684597015
9.079011363636363,-4.57140802059174,0.388040503120422,0.248223098659515
9.079617424242423,-2.6649724737167397,0.258709448432922,-0.0272041474342351
9.080223484848485,5.12123602237701,-1.64533107891083,0.9691239775657651
9.080829545454545,-1.7883953252792402,1.94480319843292,-1.14088822946549
9.081435606060605,-0.863917786216736,1.21192722187042,-0.530158248996735
9.082041666666667,2.12027654972076,-2.68955959453583,0.229062942409515
9.082647727272727,-0.875892883872986,0.5628769289016721,-0.20683061227798502
9.083253787878787,2.3454083856582604,0.965240210151672,0.799077590847015
9.083859848484849,-2.88531427059174,0.9173398195266721,-0.448727584934235
9.084465909090909,-3.97983819637299,0.158118628120422,-0.333766647434235
9.085071969696969,5.13800115909576,-3.66912258281708,0.37755415334701503
9.08567803030303,0.307246764564514,2.13640476093292,-0.544528366184235
9.086284090909091,-4.06605889949799,3.06567233905792,0.600290969753265
9.086890151515153,1.61732244815826,-3.12305812969208,-0.30263139352798496
9.087496212121213,1.08323309268951,-0.272984887504578,-0.714574752902985
9.088102272727273,1.0257526239395098,0.11979831562042201,0.693696731472015
9.088708333333333,0.027029479408264202,0.7784286867141721,-0.839115768527985
9.089314393939395,-4.51153253231049,2.06215915546417,0.418269485378265
9.089920454545455,3.2459357294082603,-2.40934230937958,0.262593215847015
9.090526515151515,2.36935858097076,-1.88243801250458,-0.556503463840485
9.091132575757577,-4.77019464168549,4.30150241718292,-0.47267778024673496
9.091738636363637,0.515613463783264,-1.30284328594208,1.21820600881576
9.092344696969697,2.67592108097076,-1.55671535625458,-0.970841842746735
9.092950757575759,1.25327947940826,0.934104956245422,-0.554108444309235
9.093556818181819,0.977852233314514,-1.19985744609833,0.200322708034515
9.094162878787879,-4.97616632137299,1.82265720233917,-0.810375534152985
9.094768939393939,-0.210077454185486,-0.900480004692078,1.91755171194076
9.095375,4.39075506534576,-1.34595363750458,0.0638065947532649
9.09598106060606,-3.6493255010604897,2.72557956562042,-0.479862838840485
9.09658712121212,0.230606139564514,-0.0286928953170776,-0.740919967746735
9.097193181818183,2.25439764347076,-2.49077297344208,-0.305026413059235
9.097799242424243,0.218631041908264,0.9245248781204221,0.22187788381576498
9.098405303030303,1.8424542840957598,0.6850229249954221,0.111706985378265
9.099011363636365,-4.44686700496674,0.44073093280792197,0.300913528347015
9.099617424242425,-2.3152996221542397,-0.469376489067078,-0.130189987277985
9.100223484848485,5.51162420597076,-1.77466213359833,0.736807083034515
9.100829545454545,-1.90335626277924,2.17951511249542,-0.630749069309235
9.101435606060607,-1.4674627080917402,1.14486667499542,-0.0391792450904851
9.102041666666667,2.43881414737701,-2.30635646953583,-0.307421432590485
9.102647727272727,-0.660341126060486,0.232364233589172,-0.101449752902985
9.103253787878788,1.9358600458145099,0.476656225776672,0.34641889944076504
9.103859848484849,-2.4949260869979897,0.852674292182922,-0.388852096652985
9.104465909090909,-4.24568536434174,0.14374851093292199,0.617056106472015
9.10507196969697,5.53557440128326,-2.89313625469208,-0.405617233371735
9.10567803030303,0.8245709833145141,1.32209812030792,0.16679243459701498
9.10628409090909,-3.97265313777924,2.63217380390167,1.35951216115951
9.106890151515152,1.56702703800201,-2.50035305156708,-0.8846211396217349
9.107496212121212,0.798225768470764,-0.708878442192078,-0.33137162790298497
9.108102272727272,1.48080633487701,0.5604819093704221,0.533230422878265
9.108708333333333,-0.303483215904236,0.17488376483917198,-0.551713424777985
9.109314393939394,-4.26484552059174,1.48016940937042,1.01941938772201
9.109920454545454,2.95134832706451,-2.19139553203583,-0.0798945771217351
9.110526515151514,2.30948309268951,-2.19858059062958,-0.233175827121735
9.111132575757576,-4.74145440731049,4.18654147968292,0.04943647756576491
9.111738636363636,0.46052801456451403,-0.8190493406295779,0.636216262722015
9.112344696969696,2.52024481143951,-1.87525295391083,-1.05945756540299
9.112950757575758,0.242581237220764,0.8215390382766721,-0.30263139352798496
9.113556818181818,1.28920477237701,-0.601102563285828,-0.0727095185279851
9.114162878787878,-3.6828557744979897,1.54243991718292,0.470959915065765
9.114768939393938,-0.748956848716736,-0.14365383281707803,0.643401321315765
9.115375,4.42428533878326,-1.31721340312958,0.0973368681907649
9.11598106060606,-3.38826837215424,2.12921970233917,0.08536177053451491
9.11658712121212,-0.26755792293548597,0.713763159370422,-1.81388871774674
9.117193181818182,2.6711310419082603,-2.88355617656708,1.11282514944076
9.117799242424242,-0.054401184654235796,1.04427585468292,-0.819955612277985
9.118405303030302,2.24242254581451,0.263499487495422,0.526045364284515
9.119011363636364,-3.93433282527924,0.567666967964172,-0.0391792450904851
9.119617424242424,-3.45053887996674,0.100638159370422,-0.328976608371735
9.120223484848484,5.76789129581451,-1.92315334453583,0.858953079128265
9.120829545454544,-0.998038879966736,2.39506687030792,-0.851090866184235
9.121435606060606,-1.97041680965424,0.874229467964172,0.945173782253265
9.122041666666666,2.90584295597076,-2.11954494609833,-1.58636186227799
9.122647727272726,-0.705846497154236,-0.24424465312957802,0.619451126003265
9.123253787878788,2.04603094425201,1.16163181171417,0.214692825222015
9.123859848484848,-2.2721892705917397,0.7041830812454221,-0.774450241184235
9.124465909090908,-4.7486394659042395,-0.0143227781295776,0.947568801784515
9.12507196969697,5.48048895206451,-2.50035305156708,-0.628354049777985
9.12567803030303,1.1239484247207598,0.773638647651672,-0.17809037790298501
9.12628409090909,-4.25526544246674,2.89323093280792,1.11761518850326
9.126890151515152,1.5215216669082599,-2.42850246562958,-0.843905807590485
9.127496212121212,0.692844909095764,-1.27889309062958,0.09494184865951491
9.128102272727272,1.2221442255020099,0.8574643312454221,0.300913528347015
9.128708333333332,-0.0951165166854858,0.299424780464172,-0.336161666965485
9.129314393939394,-4.18101983699799,1.73164646015167,0.480539993190765
9.129920454545456,2.5944904169082603,-2.12912502422333,0.253013137722015
9.130526515151516,2.44599920597076,-1.99260891094208,-0.5852436982154849
9.131132575757576,-4.93784600887299,3.90153415546417,-0.0607344208717351
9.131738636363636,0.034214538002014204,-0.761568871879578,1.18467573537826
9.132344696969698,3.2195905145645103,-1.76747707500458,-1.63426225290299
9.132950757575758,0.712005065345764,0.172488745307922,0.269778274440765
9.133556818181818,1.5047565301895098,-0.172394067192078,-0.609193893527985
9.13416287878788,-5.00490655574799,1.25982761249542,0.0685966338157649
9.13476893939394,-0.5932805791854859,-0.222689477348328,1.10803511037826
9.135375,4.625466979408261,-1.36511379375458,0.43503462209701504
9.135981060606062,-3.5367595830917398,2.62259372577667,0.554785598659515
9.136587121212122,-0.42802423152923597,0.488631323432922,-0.621168991184235
9.137193181818182,2.74537664737701,-3.12784816875458,-0.295446334934235
9.137799242424242,-0.140621887779236,0.9604501710891721,-0.0319941864967351
9.138405303030304,2.03884588565826,0.649097632026672,0.37515913381576504
9.139011363636364,-3.78344659481049,0.227574194526672,0.121287063503265
9.139617424242424,-3.55112970027924,0.332955053901672,0.588315872097015
9.140223484848486,5.77028631534576,-1.23099270000458,0.348813918972015
9.140829545454546,-1.4554876104354901,1.3939487062454199,-0.348136764621735
9.141435606060606,-2.37757012996674,1.29575290546417,0.0135111845970149
9.142041666666668,2.2615827020645103,-2.38539211406708,-0.963656784152985
9.142647727272728,-0.253187805747986,-0.0191128171920776,-0.041574264621735094
9.143253787878788,2.79806707706451,0.953265112495422,0.775127395534515
9.14385984848485,-2.95476983699799,0.201228979682922,0.0733866728782649
9.14446590909091,-5.22045831356049,0.790403784370422,-0.0583394013404851
9.14507196969697,5.9690729364395105,-2.96019680156708,-0.115819870090485
9.14567803030303,1.0760480340957599,0.9604501710891721,-0.257126022434235
9.146284090909091,-4.25526544246674,3.84165866718292,0.617056106472015
9.146890151515152,1.62211248722076,-3.03923244609833,-0.609193893527985
9.147496212121212,0.850916198158264,-0.8956899656295779,-0.101449752902985
9.148102272727273,0.968272155189514,0.814353979682922,0.288938430690765
9.148708333333333,0.180310729408264,-0.313700219535828,-0.38166703805923496
9.149314393939393,-4.41094171199799,2.12682468280792,0.614661086940765
9.149920454545455,3.09744451847076,-1.99021389141083,-0.18767045602798502
9.150526515151515,2.75495672550201,-1.66928127422333,-0.118214889621735
9.151132575757575,-5.14621270809174,3.42013522968292,0.320073684597015
9.151738636363635,0.6233893426895141,-0.730433617973328,0.42784956350326503
9.152344696969697,2.52263983097076,-1.14716701641083,-0.738524948215485
9.152950757575757,0.616204284095764,0.529346655464172,0.0542265166282649
9.153556818181817,1.6628278192520098,-0.428661157035828,-0.259521041965485
9.15416287878788,-4.39417657527924,1.00356052265167,0.190742629909515
9.15476893939394,-0.665131165122986,-0.16041896953582802,0.391924270534515
9.155375,3.76325994815826,-1.61180080547333,0.717646926784515
9.155981060606061,-2.92602960262299,2.37351169452667,-0.755290084934235
9.156587121212121,0.00307928409576415,0.627542456245422,-0.6451191864967349
9.157193181818181,2.42204901065826,-2.48598293437958,0.576340774440765
9.157799242424241,0.18510076847076398,0.955660132026672,-1.14328324899674
9.158405303030303,1.83047918643951,0.289844702339172,0.861348098659515
9.159011363636363,-3.66369561824799,0.596407202339172,0.28654341115951504
9.159617424242423,-3.4625139776229896,-0.25621975078582804,0.743992141628265
9.160223484848485,4.99190496768951,-1.43217434062958,0.432639602565765
9.160829545454545,-0.902238098716736,1.98072849140167,-0.867856002902985
9.161435606060605,-1.9560466924667401,0.950870092964172,0.581130813503265
9.162041666666667,2.5082697137832604,-1.99260891094208,-1.15765336618424
9.162647727272727,-0.37772882137298597,-0.284959985160828,0.13805220022201498
9.163253787878787,2.0987213739395103,0.706578100776672,0.408689407253265
9.163859848484847,-1.91054132137299,0.9029697023391721,-0.487047897434235
9.164465909090909,-5.06478204402924,0.13416843280792198,0.243433059597015
9.16507196969697,4.30453436222076,-3.03204738750458,-0.00564897165298514
9.16567803030303,2.40049383487701,1.40592380390167,0.279358352565765
9.166284090909091,-3.5295745244979897,3.01777194843292,0.401504348659515
9.166890151515151,0.877261413002014,-2.26324611797333,-0.28107621774673497
9.167496212121211,1.1071832880020098,-0.881319848442078,-0.190065475559235
9.168102272727273,1.35147528018951,0.17967380390167198,0.358393997097015
9.168708333333333,0.149175475502014,0.400015600776672,0.042251418972014905
9.169314393939395,-4.6288884893417395,1.90169284687042,-0.28347123727798496
9.169920454545455,2.4675543817520103,-2.31354152812958,0.559575637722015
9.170526515151515,3.66027410831451,-1.05376125469208,-0.602008834934235
9.171132575757577,-4.715109192466739,3.20697849140167,0.288938430690765
9.171738636363635,-0.502269836997986,-0.787914086723328,0.372764114284515
9.172344696969697,2.2280524286270103,-1.82974758281708,-1.10735795602799
9.172950757575759,1.00898748722076,0.5652719484329221,0.0685966338157649
9.173556818181819,1.87358953800201,-0.328070336723328,-0.367296920871735
9.174162878787879,-4.95700616512299,0.8215390382766721,0.00632612600326486
9.174768939393939,-0.837572571372986,-0.18436916484832802,0.981099075222015
9.175375,3.98360174503326,-1.92315334453583,0.760757278347015
9.17598106060606,-2.74879815731049,2.86688571796417,-0.669069381809235
9.17658712121212,-0.188522278404236,0.359300268745422,-0.489442916965485
9.177193181818183,2.2448175653457603,-2.51711818828583,-0.16132524118423502
9.177799242424243,0.223421080970764,0.831119116401672,-0.913361373996735
9.178405303030303,2.35977850284576,0.18446384296417198,0.545205520534515
9.179011363636365,-4.14748956356049,1.18797702655792,-0.252335983371735
9.179617424242425,-3.90798761043549,-0.8190493406295779,0.391924270534515
9.180223484848485,5.87327215518951,-1.43456936016083,1.00025923147201
9.180829545454545,-1.2758611455917401,2.15316989765167,-0.259521041965485
9.181435606060607,-1.9177263799667401,0.325769995307922,0.0111161650657649
9.182041666666667,2.64239080753326,-1.93991848125458,-1.09777787790299
9.182647727272727,-0.729796692466736,-0.387945825004578,0.8517680205345151
9.183253787878789,2.32624822940826,1.25024753437042,-0.5062080536842349
9.183859848484849,-2.12130304012299,0.555691870307922,0.528440383815765
9.184465909090909,-4.91868585262299,0.5197665773391721,0.109311965847015
9.18507196969697,4.95597967472076,-2.85242092266083,-0.5876387177467349
9.18567803030303,1.26285955753326,0.570061987495422,0.8110526885032651
9.18628409090909,-3.6996209112167397,3.63089694843292,-0.09426469430923509
9.186890151515152,1.07365301456451,-2.49077297344208,-0.257126022434235
9.187496212121212,0.814990905189514,-1.10166164531708,-0.27149613962173497
9.188102272727273,1.6628278192520098,0.16051364765167198,0.288938430690765
9.188708333333333,-0.0879314580917358,0.41199069843292196,-0.46309770212173496
9.189314393939394,-4.50195245418549,2.17712009296417,0.30809858694076503
9.189920454545454,1.9190949090957599,-2.97217189922333,0.820632766628265
9.190526515151515,3.4327472528457603,-1.24775783672333,-1.49056108102799
9.191132575757576,-4.98095636043549,3.67879733905792,0.801472610378265
9.191738636363636,-0.0376360479354858,-0.20352932109832803,0.31528364553451504
9.192344696969696,2.96092840518951,-2.01176906719208,-0.728944870090485
9.192950757575758,0.261741393470764,0.337745092964172,0.341628860378265
9.193556818181818,2.00531561222076,0.210809057807922,-0.714574752902985
9.194162878787878,-4.58098809871674,-0.0430630125045776,1.09845503225326
9.194768939393938,-0.799252258872986,0.912549780464172,-1.08101274118424
9.195375,3.55728826847076,-2.21534572734833,1.65409956350326
9.19598106060606,-2.7440081182479896,2.77347995624542,-0.779240280246735
9.19658712121212,-0.363358704185486,0.7185531984329221,0.195532668972015
9.197193181818182,2.15620184268951,-3.04402248516083,0.423059524440765
9.197799242424242,0.47729315128326405,1.62866062030792,-1.67258256540299
9.198405303030302,1.84724432315826,-0.13407375469207802,1.71637007131576
9.199011363636364,-3.26612237606049,0.974820288276672,-1.19597367868424
9.199617424242424,-4.3031658330917395,-0.605892602348328,0.952358840847015
9.200223484848484,5.5499445184707605,-1.52318508281708,0.269778274440765
9.200829545454544,-0.291508118247986,1.80589206562042,-0.269101120090485
9.201435606060606,-2.23147393856049,1.77236179218292,-0.0583394013404851
9.202041666666666,2.48192449893951,-2.42610744609833,-0.879831100559235
9.202647727272726,-0.550170227622986,-0.7591738523483279,0.43503462209701504
9.203253787878788,2.1250665887832603,1.16163181171417,-0.17809037790298501
9.203859848484848,-2.0302922979354903,0.464681128120422,0.238643020534515
9.204465909090908,-5.15339776668549,0.8047739015579221,0.576340774440765
9.20507196969697,4.75000799503326,-2.84044582500458,0.22187788381576498
9.20567803030303,1.41614080753326,0.486236303901672,-0.642724166965485
9.20628409090909,-4.31514093074799,2.79503513202667,0.688906692409515
9.206890151515152,1.2868097528457598,-1.71718166484833,-1.11933305368424
9.207496212121212,0.589859069252014,-0.8358144773483279,-0.20683061227798502
9.208102272727272,1.3371051630020099,0.613172339057922,0.44700971975326503
9.208708333333332,0.237791198158264,0.150933569526672,-1.01155717477799
9.209314393939394,-4.77977471981049,1.58555026874542,0.758362258815765
9.209920454545454,2.12746160831451,-1.91357326641083,0.17637251272201498
9.210526515151514,3.2100104364395103,-1.81058742656708,-0.635539108371735
9.211132575757576,-4.90910577449799,3.55186130390167,0.502095168972015
9.211738636363636,-0.0280559698104858,-0.522066918754578,0.114102004909515
9.212344696969698,3.08067938175201,-2.18900051250458,-0.659489303684235
9.212950757575758,0.8054108270645141,0.629937475776672,0.12607710256576501
9.213556818181818,1.58858221378326,-0.280169946098328,-0.690624557590485
9.21416287878788,-4.65044366512299,1.36760349140167,0.506885208034515
9.214768939393938,-1.2758611455917401,-0.0239028562545776,0.765547317409515
9.215375,4.34764471378326,-2.05487941875458,-0.549318405246735
9.215981060606062,-2.85657403621674,2.35914157733917,0.00632612600326486
9.216587121212122,-0.808832336997986,0.9221298585891721,-0.563688522434235
9.217193181818182,2.46994940128326,-2.63926418437958,-0.0631294404029851
9.217799242424242,-0.272347961997986,0.7185531984329221,-0.17809037790298501
9.218405303030304,2.40049383487701,0.337745092964172,0.00153608694076486
9.219011363636364,-3.45772393856049,0.550901831245422,0.00393110647201486
9.219617424242424,-4.07803399715424,0.486236303901672,0.0135111845970149
9.220223484848486,6.00499822940826,-1.94710353984833,1.59901411428451
9.220829545454546,-0.394493958091736,2.15077487812042,-0.843905807590485
9.221435606060606,-2.74640313777924,1.09696628437042,0.21708784475326498
9.222041666666668,2.5681452020645104,-2.32791164531708,-0.716969772434235
9.222647727272728,-0.519034973716736,0.12458835468292201,-0.0272041474342351
9.223253787878788,2.11309149112701,0.7425033937454221,0.643401321315765
9.223859848484848,-1.38603204402924,0.615567358589172,-0.556503463840485
9.22446590909091,-5.75215264949799,0.610777319526672,0.8900883330345151
9.22507196969697,4.61109686222076,-2.73506496562958,-0.681044479465485
9.22567803030303,2.03405584659576,0.105428198432922,0.150027297878265
9.226284090909092,-3.97265313777924,3.50396091327667,1.35711714162826
9.226890151515152,1.42093084659576,-1.93991848125458,-0.6451191864967349
9.227496212121212,0.829361022377014,-1.93033840312958,0.523650344753265
9.228102272727273,1.5263117059707598,1.04906589374542,-0.374481979465485
9.228708333333334,0.027029479408264202,-0.0454580320358276,-0.103844772434235
9.229314393939394,-4.73187432918549,2.06934421405792,0.693696731472015
9.229920454545455,2.06998113956451,-2.25606105937958,0.130867141628265
9.230526515151515,3.8854059442520104,-2.29198635234833,-0.637934127902985
9.231132575757576,-5.28991387996674,3.87758396015167,0.43742964162826503
9.231738636363636,-0.444789368247986,-0.146048852348328,0.430244583034515
9.232344696969697,3.6219537958145103,-2.05248439922333,-0.693019577121735
9.232950757575757,-0.198102356529236,0.103033178901672,0.272173293972015
9.233556818181818,1.71551824893951,-0.263404809379578,-1.10496293649674
9.23416287878788,-3.55352471981049,0.22517917499542198,1.10564009084701
9.23476893939394,-1.5105730596542402,0.946080053901672,-0.180485397434235
9.235375,3.91654119815826,-1.97823879375458,0.997864211940765
9.235981060606061,-3.03141046199799,2.47410251483917,-0.673859420871735
9.236587121212121,-0.509454895591736,0.49102634296417197,-0.554108444309235
9.237193181818181,2.60886053409576,-3.09192287578583,0.188347610378265
9.237799242424241,-0.147806946372986,1.65021579608917,-1.45463578805924
9.238405303030303,2.31666815128326,-0.591522485160828,1.72834516897201
9.239011363636363,-2.93560968074799,1.11373142108917,-1.33727983102799
9.239617424242423,-4.36783136043549,0.294634741401672,0.8110526885032651
9.240223484848485,4.97992987003326,-1.92075832500458,0.557180618190765
9.240829545454545,-0.052006165122985795,1.20234714374542,-0.28347123727798496
9.241435606060605,-2.7943035284042397,2.16993503437042,0.0518314970970149
9.242041666666667,2.39570379581451,-2.12912502422333,-1.01395219430924
9.242647727272727,-0.665131165122986,-1.10884670391083,0.906853469753265
9.243253787878787,1.92867498722076,1.67177097187042,-0.6666743622779849
9.243859848484847,-1.28304620418549,-0.423871117973328,0.7511772002220151
9.24446590909091,-4.8755755010604895,1.38436862812042,-0.259521041965485
9.24507196969697,4.60870184268951,-2.42371242656708,-0.384062057590485
9.24567803030303,2.0819562372207603,-0.5603872312545779,0.43503462209701504
9.246284090909091,-3.92475274715424,3.97817478046417,-0.144560104465485
9.246890151515151,0.932346862220764,-2.01176906719208,-0.338556686496735
9.247496212121211,0.946716979408264,-1.75310695781708,0.15242231740951498
9.248102272727273,1.15268865909576,1.20474216327667,-0.111029831027985
9.248708333333333,0.441367858314514,-0.0933584226608276,0.0230912627220149
9.249314393939393,-4.30556085262299,2.06694919452667,0.41587446584701504
9.249920454545455,0.994617370033264,-2.05008937969208,-0.08707963571548509
9.250526515151515,4.38836004581451,-2.51232814922333,-0.556503463840485
9.251132575757575,-5.12944757137299,3.71951267108917,0.755967239284515
9.251738636363635,-1.14413507137299,0.493421362495422,-0.5876387177467349
9.252344696969697,3.6650641473770103,-2.75662014141083,0.360789016628265
9.252950757575759,0.180310729408264,0.493421362495422,-0.396037155246735
9.253556818181817,1.91190985050201,0.0503427492141724,-0.831930709934235
9.254162878787879,-3.54873468074799,0.306609839057922,1.03139448537826
9.254768939393939,-1.63750909481049,0.7999838624954221,-0.494232956027985
9.255375,3.96683660831451,-2.39736721172333,0.937988723659515
9.25598106060606,-2.26979425106049,2.64893894062042,-0.37208695993423496
9.256587121212121,-1.29023126277924,1.07301608905792,1.41938764944076
9.257193181818183,2.89865789737701,-2.83565578594208,-0.712179733371735
9.257799242424243,-0.265162903404236,0.6251474367141721,-0.7073896943092349
9.258405303030303,2.28313787784576,0.651492651557922,0.835002883815765
9.259011363636365,-2.1955486455917397,0.191648901557922,-0.225990768527985
9.259617424242425,-5.1677678838729895,0.150933569526672,0.981099075222015
9.260223484848485,5.37510809268951,-1.74352687969208,0.566760696315765
9.260829545454545,0.589859069252014,0.914944799995422,0.250618118190765
9.261435606060607,-2.4350505987167397,2.83096042499542,-1.01155717477799
9.262041666666667,2.4579743036270103,-2.50035305156708,-0.503813034152985
9.262647727272727,-0.296298157310486,-0.823839379692078,0.36797407522201503
9.263253787878789,1.71312322940826,1.10415134296417,-0.0319941864967351
9.263859848484849,-1.04354425106049,0.0431576906204224,0.432639602565765
9.264465909090909,-4.91150079402924,1.35083835468292,0.38713423147201503
9.26507196969697,3.85906072940826,-2.18660549297333,-0.563688522434235
9.26567803030303,2.85315252628326,-1.39864406719208,1.00744429006576
9.26628409090909,-4.34867120418549,4.48112888202667,-0.860670944309235
9.26689015151515,0.752720397377014,-1.40343410625458,-0.594823776340485
9.267496212121213,1.14789862003326,-2.74464504375458,0.6913017119407651
9.268102272727273,0.879656432533264,1.31012302265167,-0.994792038059235
9.268708333333333,0.6617096551895141,-0.608287621879578,0.794287551784515
9.269314393939394,-4.47800225887299,2.19149021015167,-0.386457077121735
9.269920454545455,0.599439147377014,-1.52318508281708,0.245828079128265
9.270526515151515,4.6446271356582605,-2.77817531719208,-0.276286178684235
9.271132575757576,-4.64565362606049,2.67049411640167,0.09015180959701491
9.271738636363636,-1.57763360652924,1.10415134296417,-1.02832231149674
9.272344696969697,3.34413153018951,-2.63926418437958,0.09254682912826491
9.272950757575758,0.352752135658264,0.18925388202667198,-0.0367842255592351
9.273556818181818,1.85203436222076,0.608382299995422,-1.42589555368424
9.274162878787878,-3.3499480596542397,-0.162813989067078,1.26850141897201
9.274768939393939,-1.96562677059174,0.9604501710891721,-0.38166703805923496
9.275375,4.65899725284576,-1.70520656719208,0.861348098659515
9.27598106060606,-2.2721892705917397,1.67895603046417,-0.00564897165298514
9.27658712121212,-2.18836358699799,1.34844333515167,-0.499022995090485
9.277193181818182,3.4064020380020104,-2.87397609844208,-0.254731002902985
9.277799242424242,-0.337013489341736,0.665862768745422,-0.554108444309235
9.278405303030302,1.75144354190826,0.340140112495422,0.868533157253265
9.279011363636364,-1.50338800106049,0.6179623781204221,-0.503813034152985
9.279617424242424,-5.87669366512299,0.158118628120422,1.06971479787826
9.280223484848484,4.94639959659576,-1.71478664531708,0.0326713408470149
9.280829545454544,1.01856756534576,0.790403784370422,-0.051154342746735096
9.281435606060606,-3.3762932744979897,2.83335544452667,-0.6259590302467349
9.282041666666666,2.61844061222076,-1.9590786375045801,-1.02592729196549
9.282647727272726,-0.363358704185486,-1.55432033672333,0.983494094753265
9.283253787878788,1.83526922550201,1.72446140155792,-1.23908403024674
9.283859848484848,-0.648366028404236,-0.208319360160828,0.260198196315765
9.284465909090908,-5.86471856746674,1.53525485858917,1.19186079397201
9.28507196969697,4.46021063175201,-0.941195336723328,-0.501418014621735
9.28567803030303,3.19564031925201,-2.10996486797333,1.20144087209701
9.28628409090909,-4.13790948543549,3.81291843280792,0.0662016142845149
9.286890151515152,0.5060333856582641,-1.41061916484833,-0.367296920871735
9.287496212121212,0.9036066278457641,-2.44526760234833,0.559575637722015
9.288102272727272,1.45446112003326,1.81068210468292,-0.173300338840485
9.288708333333332,0.8413361200332641,-1.0010708250045801,0.334443801784515
9.289314393939394,-4.43968194637299,2.02862888202667,-1.16004838571549
9.289920454545454,0.666499694252014,-1.4800747312545801,0.128472122097015
9.290526515151514,4.31650945987701,-2.36623195781708,0.5499955595970151
9.291132575757576,-5.14860772762299,3.19260837421417,0.09494184865951491
9.291738636363636,-1.15371514949799,0.7616635499954221,-0.657094284152985
9.292344696969696,2.9872736200332604,-2.84763088359833,0.688906692409515
9.292950757575758,0.494058288002014,0.771243628120422,-1.28458940134049
9.293556818181818,2.1657819208145104,-0.0143227781295776,-0.678649459934235
9.29416287878788,-3.31162774715424,0.438335913276672,0.9715189970970151
9.294768939393938,-2.10693292293549,0.9796103273391721,-0.307421432590485
9.295375,4.17041326847076,-1.99021389141083,1.62296430959701
9.295981060606062,-1.87222100887299,2.13400974140167,-0.702599655246735
9.29658712121212,-2.12848809871674,0.553296850776672,-0.307421432590485
9.297193181818182,3.03756903018951,-2.08361965312958,-0.769660202121735
9.297799242424242,-0.030450989341735797,1.02272067890167,-0.487047897434235
9.298405303030304,1.84963934268951,-0.342440453910828,0.7320170439720151
9.299011363636364,-1.52494317684174,0.5604819093704221,-0.932521530246735
9.299617424242424,-5.52223077449799,-0.0430630125045776,1.25892134084701
9.300223484848486,4.82904363956451,-0.888504907035828,-0.0176240693092351
9.300829545454546,0.7239801630020141,0.6251474367141721,0.918828567409515
9.301435606060606,-2.28416436824799,2.15316989765167,-1.13849320993424
9.302041666666668,2.2088922723770104,-1.84890773906708,-0.867856002902985
9.302647727272728,-1.00522393856049,-1.06334133281708,0.629031204128265
9.303253787878788,2.6040704950332603,1.52567478046417,-0.479862838840485
9.30385984848485,-0.394493958091736,-0.131678735160828,1.05294966115951
9.30446590909091,-5.80963311824799,1.70769626483917,-0.834325729465485
9.30507196969697,2.80285711612701,-2.04290432109833,0.133262161159515
9.30567803030303,3.9117511590957603,-0.7927041257858279,0.559575637722015
9.306284090909092,-4.15467462215424,3.21176853046417,-0.657094284152985
9.306890151515152,-0.016080872154235797,-1.31242336406708,-0.36250688180923496
9.307496212121212,1.45446112003326,-2.40215725078583,0.49730512990951503
9.308102272727274,0.647339538002014,0.931709936714172,-0.537343307590485
9.308708333333334,1.58379217472076,0.488631323432922,-0.611588913059235
9.309314393939394,-4.5091375127792395,0.6634677492141721,1.01702436819076
9.309920454545455,-0.0376360479354858,-0.610682641410828,-1.02592729196549
9.310526515151516,4.61109686222076,-2.15307521953583,0.545205520534515
9.311132575757576,-3.6996209112167397,2.44775729999542,0.775127395534515
9.311738636363636,-1.4890178838729902,1.34604831562042,-1.54804154977799
9.312344696969697,2.31906317081451,-3.22364895000458,1.20383589162826
9.312950757575758,0.9826422723770141,0.9820053468704221,-1.44505570993424
9.313556818181818,2.15380682315826,0.285054663276672,-0.309816452121735
9.31416287878788,-3.9654680791854897,0.383250464057922,0.700881790065765
9.31476893939394,-2.67694757137299,0.452706030464172,0.0135111845970149
9.315375,4.73084783878326,-1.69802150859833,0.7511772002220151
9.315981060606061,-1.59439874324799,1.83463229999542,-0.0655244599342351
9.316587121212121,-1.69259454402924,1.05146091327667,-0.494232956027985
9.317193181818181,3.0495441278457602,-2.02613918437958,-0.518183151340485
9.317799242424242,-0.492689758872986,-0.0143227781295776,0.391924270534515
9.318405303030303,2.29990301456451,1.32449313983917,-1.38997026071549
9.319011363636363,-1.80755548152924,-0.864554711723328,1.60380415334701
9.319617424242423,-5.08873223934174,0.893389624214172,-0.937311569309235
9.320223484848485,4.16083319034576,-1.18309230937958,1.03618452444076
9.320829545454545,0.870076354408264,0.591617163276672,1.01223432912826
9.321435606060605,-2.26021417293549,2.47410251483917,-2.10608110055923
9.322041666666667,1.38261053409576,-2.32551662578583,0.7703373564720151
9.322647727272727,-0.126251770591736,-0.387945825004578,-0.6666743622779849
9.323253787878787,2.66634100284576,0.6610727296829221,0.423059524440765
9.323859848484847,-0.26755792293548597,0.388040503120422,0.42784956350326503
9.32446590909091,-5.37134454402924,0.970030249214172,-0.544528366184235
9.32507196969697,2.73579656925201,-2.25366603984833,0.0590165556907649
9.32567803030303,2.18015203800201,-1.14956203594208,0.528440383815765
9.326284090909091,-3.0936809698104897,3.99733493671417,-0.106239791965485
9.326890151515151,0.776670592689514,-1.16393215312958,-0.18288041696548502
9.327496212121211,0.527588561439514,-2.26324611797333,-0.728944870090485
9.328102272727273,1.16466375675201,0.768848608589172,-0.300236373996735
9.328708333333333,0.855706237220764,-0.5555971921920779,0.188347610378265
9.329314393939393,-3.8792473760604897,2.18909519062042,0.363184036159515
9.329920454545455,-0.37772882137298597,-0.8980849851608279,-0.252335983371735
9.330526515151515,3.94288641300201,-2.76141018047333,0.08536177053451491
9.331132575757575,-2.62665216121674,3.04172214374542,0.17158247365951498
9.331738636363635,-1.30699639949799,0.9197348390579221,-0.618773971652985
9.332344696969697,2.20649725284576,-2.62728908672333,0.0638065947532649
9.332950757575759,0.0581647333145142,0.553296850776672,-1.02113725290299
9.333556818181817,1.7562335809707599,-0.172394067192078,0.348813918972015
9.334162878787879,-2.25781915340424,0.7401083742141721,0.15242231740951498
9.334768939393939,-2.61707208309174,-0.0478530515670776,1.02899946584701
9.335374999999999,3.81355535831451,-1.25733791484833,-0.0631294404029851
9.335981060606061,-1.3093914190292402,1.4538241945266699,0.329653762722015
9.336587121212121,-1.98478692684174,1.23108737812042,-0.19725053415298502
9.337193181818183,2.5849103387832604,-1.94470852031708,-1.46182084665299
9.337799242424243,-0.396888977622986,-0.7160635007858279,0.559575637722015
9.338405303030303,1.66522283878326,1.48256442890167,-1.28937944040299
9.339011363636365,-0.454369446372986,-0.146048852348328,1.01462934865951
9.339617424242423,-5.28033380184174,0.328165014839172,-0.223595748996735
9.340223484848485,2.88907781925201,-0.900480004692078,0.178767532253265
9.340829545454545,2.01968572940826,-0.15562893047332801,1.39304243459701
9.341435606060607,-2.16441339168549,2.29208103046417,-1.38278520212174
9.342041666666667,1.3418952020645099,-1.19506740703583,-0.106239791965485
9.342647727272727,-0.30108819637298595,-1.43935939922333,-0.0152290497779851
9.343253787878789,1.97657537784576,0.706578100776672,-0.245150924777985
9.343859848484849,0.371912291908264,0.6969980226516721,0.439824661159515
9.344465909090909,-5.80484307918549,1.38436862812042,-0.328976608371735
9.34507196969697,1.46883123722076,-1.88962307109833,-0.00804399118423514
9.34567803030303,4.23747381534576,-1.98542385234833,1.18467573537826
9.34628409090909,-3.3068377080917397,3.84884372577667,-0.360111862277985
9.346890151515153,-0.550170227622986,-0.387945825004578,0.698486770534515
9.347496212121213,1.48559637393951,-2.48598293437958,-0.08947465524673509
9.348102272727273,0.719190123939514,0.670652807807922,-0.635539108371735
9.348708333333333,1.4664362176895098,-0.320885278129578,0.109311965847015
9.349314393939395,-3.81697686824799,1.73404147968292,-0.046364303684235095
9.349920454545455,-1.26149102840424,-0.102938500785828,-0.166115280246735
9.350526515151515,4.93202947940826,-3.40327541484833,0.15242231740951498
9.351132575757577,-2.67215753231049,2.10766452655792,0.229062942409515
9.351738636363637,-2.2554241338729897,2.14119479999542,-0.24275590524673502
9.352344696969697,2.35019842472076,-3.14221828594208,0.698486770534515
9.352950757575758,0.529983580970764,1.03948581562042,-1.45224076852799
9.353556818181818,2.29990301456451,-0.5579922117233279,0.561970657253265
9.354162878787879,-2.20752374324799,0.627542456245422,-0.920546432590485
9.354768939393939,-4.07803399715424,0.807168921089172,0.43742964162826503
9.355375,4.45302557315826,-2.03092922344208,1.02660444631576
9.35598106060606,-0.296298157310486,1.58315524921417,-0.252335983371735
9.35658712121212,-3.31402276668549,2.16993503437042,-0.273891159152985
9.357193181818182,3.10223455753326,-2.22253078594208,-1.20794877634049
9.357799242424242,0.45094793643951403,-0.922035180473328,0.779917434597015
9.358405303030302,1.72749334659576,1.80589206562042,-1.51930131540299
9.359011363636364,-0.7130315557479859,-0.670558129692078,0.8110526885032651
9.359617424242424,-5.68509210262299,0.7616635499954221,1.05534468069076
9.360223484848484,4.02910711612701,-0.301725121879578,-0.872646041965485
9.360829545454544,2.06279608097076,-0.6777431882858279,1.19425581350326
9.361435606060606,-3.1272112432479897,3.07285739765167,-1.49535112009049
9.362041666666666,1.68917303409576,-1.78424221172333,0.389529251003265
9.362647727272726,-0.116671692466736,-1.01544094219208,-0.168510299777985
9.363253787878788,1.45206610050201,0.8838095460891721,0.106916946315765
9.363859848484848,0.6257843622207641,-0.24903469219207802,0.866138137722015
9.364465909090908,-5.7401775518417395,2.24178562030792,-1.57917680368424
9.36507196969697,1.46883123722076,-2.18900051250458,1.34753706350326
9.36567803030303,4.80748846378326,-1.41780422344208,-0.223595748996735
9.36628409090909,-3.78344659481049,3.80573337421417,-0.554108444309235
9.366890151515152,-0.998038879966736,-0.5388320554733279,0.506885208034515
9.367496212121212,1.68917303409576,-2.51951320781708,-1.09538285837174
9.368102272727272,0.443762877845764,0.356905249214172,-0.245150924777985
9.368708333333332,1.42572088565826,0.404805639839172,-0.597218795871735
9.369314393939394,-3.30923272762299,1.57118015155792,0.657771438503265
9.369920454545454,-1.06030938777924,0.15572360858917197,-0.21641069040298502
9.370526515151514,4.24705389347076,-4.04274562969208,-0.218805709934235
9.371132575757576,-2.84699395809174,2.00228366718292,0.042251418972014905
9.371738636363636,-2.21710382137299,2.48847263202667,0.25780317678451503
9.372344696969696,2.85794256534576,-2.97935695781708,0.382344192409515
9.372950757575758,0.285691588783264,0.668257788276672,-1.42829057321549
9.373556818181818,2.17057195987701,-1.27889309062958,0.748782180690765
9.374162878787878,-1.90096124324799,0.869439428901672,-1.12651811227799
9.374768939393938,-4.6360735479354895,1.86337253437042,0.736807083034515
9.375375,4.18238836612701,-2.67039943828583,1.63733442678451
9.375981060606062,0.364727233314514,0.9436850343704221,-0.173300338840485
9.37658712121212,-3.03141046199799,2.40464694843292,0.492515090847015
9.377193181818182,2.8435724481582603,-2.50514309062958,-0.40082719430923497
9.377799242424242,0.592254088783264,-0.323280297660828,0.353603958034515
9.378405303030302,1.14310858097076,1.52088474140167,-0.630749069309235
9.379011363636364,-0.337013489341736,-0.6945083250045779,0.0733866728782649
9.379617424242424,-5.81442315731049,0.483841284370422,0.31767866506576503
9.380223484848486,3.2291705926895102,-1.73155178203583,0.264988235378265
9.380829545454546,2.88189276065826,0.395225561714172,-0.24275590524673502
9.381435606060606,-3.87685235652924,3.30517429218292,-0.225990768527985
9.382041666666668,1.8208991083145099,-1.82974758281708,-0.259521041965485
9.382647727272726,0.7623004755020141,-1.20225246562958,-1.12891313180924
9.383253787878788,0.592254088783264,0.41199069843292196,0.8493730010032651
9.383859848484848,1.7442584833145098,0.9005746828079221,-0.0200190888404851
9.38446590909091,-6.22636651668549,1.36999851093292,0.245828079128265
9.38507196969697,0.628179381752014,-1.72436672344208,-0.33137162790298497
9.38567803030303,5.32241766300201,-2.23450588359833,-0.695414596652985
9.386284090909092,-3.8720623174667397,3.34109958515167,0.250618118190765
9.386890151515152,-1.16569024715424,0.8622543703079221,-0.0104390107154851
9.387496212121212,2.08674627628326,-3.07515773906708,-0.800795456027985
9.388102272727274,0.47968817081451404,0.529346655464172,0.0302763213157649
9.388708333333334,1.1838239130020098,-0.13407375469207802,-0.19725053415298502
9.389314393939394,-3.1439763799667397,1.23348239765167,0.10452192678451501
9.389920454545456,-1.87701104793549,0.8814145265579221,0.461379836940765
9.390526515151516,5.01825018253326,-3.56374172344208,-0.367296920871735
9.391132575757576,-2.2889544073104897,1.49453952655792,0.243433059597015
9.391738636363636,-3.50801934871674,2.83096042499542,0.526045364284515
9.392344696969698,3.43753729190826,-2.88595119609833,0.039856399440764904
9.392950757575758,0.836546080970764,0.13895847187042198,-0.484652877902985
9.393556818181818,0.8628912958145141,0.0192074953079224,-0.714574752902985
9.39416287878788,-0.602860657310486,-0.21550441875457801,-0.446332565402985
9.39476893939394,-4.70073907527924,1.48256442890167,0.952358840847015
9.395375,3.60039862003326,-1.80100734844208,0.655376418972015
9.395981060606061,0.714400084877014,0.285054663276672,-0.28347123727798496
9.396587121212121,-3.60382012996674,3.05609226093292,-0.41280229196548496
9.397193181818182,2.68310613956451,-2.33509670391083,0.116497024440765
9.397799242424242,0.599439147377014,-1.02502102031708,-0.41040727243423497
9.398405303030303,1.4353009637832599,0.9245248781204221,0.39671430959701504
9.399011363636363,-0.123856751060486,-0.12928371562957802,0.23145796194076498
9.399617424242424,-6.0395549932479895,1.5136996828079199,-0.7049946747779849
9.400223484848485,1.93346502628326,-2.00218898906708,1.00265425100326
9.400829545454545,3.94288641300201,-0.23466457500457802,-1.05945756540299
9.401435606060605,-3.96307305965424,2.58187839374542,0.353603958034515
9.402041666666667,1.27483465518951,-0.723248559379578,-0.494232956027985
9.402647727272727,1.25806951847076,-1.95189357891083,-0.233175827121735
9.403253787878787,0.405442565345764,0.479051245307922,0.7511772002220151
9.40385984848485,1.85203436222076,0.785613745307922,-0.45112260446548497
9.40446590909091,-6.28624200496674,0.6443075929641721,0.499700149440765
9.40507196969697,0.484478209877014,-0.969935571098328,-0.427172409152985
9.40567803030303,5.93075262393951,-2.41892238750458,0.09015180959701491
9.406284090909091,-3.80739679012299,3.36504978046417,0.516465286159515
9.406890151515151,-1.39321710262299,0.5652719484329221,0.49730512990951503
9.407496212121211,2.27595281925201,-3.05360256328583,-0.932521530246735
9.408102272727273,-0.138226868247986,0.649097632026672,0.547600540065765
9.408708333333333,1.42093084659576,0.498211401557922,-0.570873581027985
9.409314393939393,-2.7943035284042397,1.06583103046417,0.413479446315765
9.409920454545455,-2.23147393856049,0.771243628120422,0.173977493190765
9.410526515151515,4.92963445987701,-3.89425441875458,-0.27149613962173497
9.411132575757575,-1.4171672979354901,1.67416599140167,0.188347610378265
9.411738636363635,-4.22413018856049,3.07285739765167,0.18116255178451499
9.412344696969697,2.93458319034576,-2.49556301250458,-0.501418014621735
9.412950757575757,1.29399481143951,-0.0813833250045776,-0.34334672555923496
9.413556818181817,0.951507018470764,-0.30651516094207804,-0.384062057590485
9.414162878787879,-1.01480401668549,0.00483737812042238,-0.772055221652985
9.414768939393939,-4.70313409481049,1.83223728046417,1.21820600881576
9.415375,3.7153595575332603,-1.53755520000458,0.40629438772201504
9.415981060606061,1.22932928409576,0.00483737812042238,-0.23796586618423501
9.416587121212121,-3.84811212215424,2.64414890155792,-0.285866256809235
9.417193181818181,2.41725897159576,-1.91117824687958,-0.8271406708717349
9.417799242424241,1.2005890497207599,-0.8525796140670779,0.353603958034515
9.418405303030303,1.38740057315826,1.08738620624542,0.518860305690765
9.419011363636365,0.486873229408264,-0.0933584226608276,-0.496627975559235
9.419617424242425,-5.75933770809174,0.890994604682922,-0.29065629587173497
9.420223484848485,1.5047565301895098,-0.9340102781295779,0.473354934597015
9.420829545454545,4.04108221378326,-0.5196718992233279,-0.14695512399673502
9.421435606060605,-3.8121868291854897,2.72078952655792,-0.30263139352798496
9.422041666666667,0.640154479408264,-0.37597072734832804,-0.851090866184235
9.422647727272727,1.51194158878326,-2.42610744609833,-0.602008834934235
9.423253787878789,0.141990416908264,0.325769995307922,0.458984817409515
9.423859848484849,1.9023297723770098,1.12810153827667,-0.317001510715485
9.424465909090909,-5.8335833135604895,1.05625095233917,0.6721415556907651
9.42507196969697,-0.928583313560486,-1.08010646953583,-0.46309770212173496
9.42567803030303,6.04810858097076,-2.98893703594208,-0.0200190888404851
9.42628409090909,-3.35473809871674,2.84772556171417,0.298518508815765
9.42689015151515,-2.2721892705917397,1.32449313983917,-0.5253682099342349
9.427496212121213,2.3046930536270103,-3.07276271953583,-0.348136764621735
9.428102272727273,-0.121461731529236,0.323374975776672,0.128472122097015
9.428708333333333,1.76341863956451,0.313794897651672,-0.453517623996735
9.429314393939395,-2.6649724737167397,0.7185531984329221,0.269778274440765
9.429920454545455,-2.49013604793549,1.18797702655792,0.509280227565765
9.430526515151515,4.64941717472076,-3.76013332500458,-0.43196244821548496
9.431132575757577,-1.13695001277924,1.36760349140167,-0.22120072946548502
9.431738636363637,-4.25526544246674,2.86209567890167,1.40741255178451
9.432344696969697,3.0471491083145104,-2.67997951641083,-0.772055221652985
9.432950757575759,1.26285955753326,-0.431056176567078,-0.0679194794654851
9.433556818181819,0.254556334877014,0.790403784370422,-1.16483842477799
9.434162878787879,0.254556334877014,0.110218237495422,-0.0248091279029851
9.434768939393939,-4.894735657310489,0.809563940620422,1.31879682912826
9.435375,3.2195905145645103,-1.58066555156708,-0.779240280246735
9.43598106060606,1.96699529972076,-0.48614162578582804,1.38106733694076
9.43658712121212,-4.13072442684174,3.43211032733917,0.284148391628265
9.437193181818182,2.32385320987701,-1.85609279766083,-0.154140182590485
9.437799242424243,1.0473077997207598,-1.37229885234833,-0.419987350559235
9.438405303030303,1.2436994012832598,0.596407202339172,0.0638065947532649
9.439011363636364,0.939531920814514,-0.107728539848328,-0.0607344208717351
9.439617424242424,-6.42036309871674,1.35323337421417,-0.494232956027985
9.440223484848485,1.36105535831451,-0.941195336723328,0.6913017119407651
9.440829545454546,4.75479803409576,-0.7400136960983279,0.145237258815765
9.441435606060606,-3.53436456356049,2.62977878437042,-0.669069381809235
9.442041666666666,1.13352850284576,-0.40710598125457803,-0.769660202121735
9.442647727272726,1.35626531925201,-2.57459865703583,0.382344192409515
9.443253787878788,0.43897283878326404,1.28617282733917,-0.503813034152985
9.443859848484848,1.7346784051895099,0.574852026557922,-0.139770065402985
9.444465909090908,-5.02406671199799,0.435940893745422,1.03378950490951
9.44507196969697,-0.806437317466736,-0.6346328367233279,-0.609193893527985
9.44567803030303,5.71520086612701,-2.54346340312958,-0.111029831027985
9.44628409090909,-2.8637590948104896,2.24897067890167,0.779917434597015
9.44689015151515,-1.55607843074799,1.69572116718292,-0.978026901340485
9.447496212121212,2.13464666690826,-3.14461330547333,-0.257126022434235
9.448102272727272,-0.521429993247986,0.258709448432922,0.133262161159515
9.448708333333332,1.6963580926895099,0.162908667182922,-0.673859420871735
9.449314393939394,-2.2386589971542397,0.828724096870422,0.43742964162826503
9.449920454545454,-2.9044744268417397,1.45142917499542,0.190742629909515
9.450526515151514,4.565591491127011,-3.78168850078583,-0.36250688180923496
9.451132575757576,-0.26037286434173595,0.646702612495422,0.329653762722015
9.451738636363636,-4.56661798152924,3.63329196796417,0.0302763213157649
9.452344696969696,2.6208356317520103,-2.04050930156708,-0.613983932590485
9.452950757575758,1.3371051630020099,-0.9986758054733279,0.569155715847015
9.453556818181818,0.886841491127014,1.05385593280792,-1.13849320993424
9.454162878787878,-0.416049133872986,-1.08968654766083,0.573945754909515
9.454768939393938,-4.5426677862167395,1.97593845233917,-0.0128340302467351
9.455375,2.6376007684707603,-1.47767971172333,1.10803511037826
9.45598106060606,2.14422674503326,-0.196344262504578,-0.408012252902985
9.45658712121212,-4.0037883916854895,2.97226657733917,-0.539738327121735
9.457193181818182,1.9190949090957599,-1.74831691875458,0.0111161650657649
9.457799242424242,1.84724432315826,-0.9723305906295779,-0.700204635715485
9.458405303030302,0.5635138544082641,0.594012182807922,0.966728958034515
9.459011363636364,1.6843829950332598,1.01074558124542,-1.05706254587174
9.459617424242424,-6.30300714168549,0.34253513202667196,0.621846145534515
9.460223484848484,0.0964850458145142,-0.6178677000045779,-0.125399948215485
9.460829545454544,4.94160955753326,-0.9388003171920779,0.25780317678451503
9.461435606060606,-3.52478448543549,2.24657565937042,0.516465286159515
9.462041666666668,0.42939276065826404,0.929314917182922,-1.44026567087174
9.462647727272728,1.3203400262832599,-3.02007228984833,0.339233840847015
9.463253787878788,0.0773248895645142,0.591617163276672,-0.520578170871735
9.463859848484848,2.32385320987701,1.13768161640167,-0.376876998996735
9.464465909090908,-4.75103448543549,0.835909155464172,0.9715189970970151
9.46507196969697,-1.8698259893417402,-0.16041896953582802,-0.779240280246735
9.46567803030303,6.01457830753326,-3.12784816875458,0.39671430959701504
9.466284090909092,-2.29374444637299,2.10287448749542,1.21341596975326
9.466890151515152,-2.4350505987167397,2.61061862812042,-0.379272018527985
9.467496212121212,2.13704168643951,-3.50386623516083,0.758362258815765
9.468102272727274,-0.217262512779236,0.651492651557922,-0.455912643527985
9.468708333333334,1.57900213565826,0.167698706245422,-0.510998092746735
9.469314393939394,-1.8530608526229901,0.35211521015167196,0.38713423147201503
9.469920454545456,-3.23498712215424,1.64063571796417,-0.13258500680923502
9.470526515151516,4.55122137393951,-3.39130031719208,0.15242231740951498
9.471132575757576,-0.147806946372986,0.809563940620422,0.463774856472015
9.471738636363636,-4.59775323543549,2.94592136249542,-0.254731002902985
9.472344696969698,2.67592108097076,-2.37581203594208,-0.621168991184235
9.472950757575758,1.26285955753326,-0.728038598442078,0.279358352565765
9.473556818181818,1.18621893253326,1.22869235858917,-1.03311235055924
9.47416287878788,-0.0927214971542358,-0.802284203910828,0.593105911159515
9.47476893939394,-4.97856134090424,1.89211276874542,-0.295446334934235
9.475375,2.8076471551895104,-1.53516018047333,0.478144973659515
9.475981060606061,2.12985662784576,-0.14365383281707803,-0.34334672555923496
9.476587121212122,-3.9822332159042397,3.00819187030792,-0.0559443818092351
9.477193181818182,1.87119451847076,-1.65730617656708,-0.0032539521217351403
9.477799242424242,1.2868097528457598,-1.28368312969208,-0.930126510715485
9.478405303030303,1.00180242862701,0.464681128120422,-0.00564897165298514
9.479011363636364,1.75144354190826,0.126983374214172,-0.249940963840485
9.479617424242424,-6.1856511846542395,0.967635229682922,-0.09426469430923509
9.480223484848485,0.165940612220764,-0.340045434379578,0.30570356740951504
9.480829545454545,5.21224676456451,-0.831024438285828,0.5523905791282651
9.481435606060606,-2.73921807918549,1.97833347187042,-0.269101120090485
9.482041666666667,0.0797199090957642,0.12458835468292201,-0.9852119599342349
9.482647727272727,1.31794500675201,-2.24408596172333,-0.273891159152985
9.483253787878787,0.383887389564514,0.419175757026672,0.641006301784515
9.483859848484848,2.0915363153457602,1.52806979999542,-0.681044479465485
9.48446590909091,-4.75342950496674,0.34253513202667196,1.14156538381576
9.48507196969697,-1.88898614559174,-0.9579604734420779,-0.602008834934235
9.48567803030303,5.90440740909576,-2.42610744609833,-0.173300338840485
9.486284090909091,-2.25302911434174,2.31842624530792,1.07929487600326
9.486890151515151,-2.20991876277924,2.02383884296417,-1.27261430368424
9.487496212121211,2.27355779972076,-3.63798732891083,0.449404739284515
9.488102272727273,-0.126251770591736,0.5173715578079221,-0.379272018527985
9.488708333333333,2.16338690128326,0.304214819526672,-0.199645553684235
9.489314393939393,-2.0135271612167402,0.232364233589172,0.681721633815765
9.489920454545455,-3.42179864559174,2.13879978046417,-0.5277632294654849
9.490526515151515,4.9511896356582605,-3.70504787578583,0.18116255178451499
9.491132575757575,0.0821149286270142,0.0311825929641724,0.36557905569076504
9.491738636363635,-4.79893487606049,3.59976169452667,0.48772505178451503
9.492344696969697,2.4244440301895103,-1.93752346172333,-0.19246049509048502
9.492950757575757,1.73228338565826,-0.8190493406295779,0.123682083034515
9.493556818181817,1.4065607294082598,0.512581518745422,-0.453517623996735
9.49416287878788,-0.21965753231048601,-0.9723305906295779,0.23145796194076498
9.49476893939394,-4.98335137996674,1.59992038593292,-0.118214889621735
9.495375,2.75495672550201,-1.34595363750458,0.5715507353782651
9.495981060606061,2.1657819208145104,-0.11491359844207799,0.9691239775657651
9.496587121212121,-4.37262139949799,3.21176853046417,-0.0559443818092351
9.497193181818181,2.04363592472076,-1.96865871562958,0.324863723659515
9.497799242424241,2.19452215518951,-1.21901760234833,-0.9852119599342349
9.498405303030303,0.304851745033264,0.8766244874954221,-0.0703144989967351
9.499011363636363,1.70354315128326,0.459891089057922,-0.0032539521217351403
9.499617424242423,-5.69706720027924,0.752083471870422,0.593105911159515
9.500223484848485,-0.212472473716736,-0.39752590312957803,0.34641889944076504
9.500829545454545,4.77635320987701,-1.19027736797333,0.7296220244407651
9.501435606060607,-2.9212395635604897,2.49565769062042,-0.309816452121735
9.502041666666667,0.304851745033264,0.828724096870422,-1.03550737009049
9.502647727272727,1.2556744989395099,-2.98414699687958,0.25780317678451503
9.503253787878787,0.07492987003326419,1.10175632343292,-0.8247456513404849
9.503859848484847,1.57421209659576,0.486236303901672,0.8709281767845151
9.504465909090909,-4.60733331356049,0.993980444526672,0.135657180690765
9.50507196969697,-2.42307550106049,-0.24424465312957802,-0.539738327121735
9.50567803030303,5.95949285831451,-3.26196926250458,0.133262161159515
9.50628409090909,-1.48183282527924,2.33040134296417,0.250618118190765
9.506890151515153,-2.97632501277924,2.17233005390167,-0.549318405246735
9.507496212121213,2.43881414737701,-3.24280910625458,0.22187788381576498
9.508102272727273,0.182705748939514,0.201228979682922,0.18116255178451499
9.508708333333333,1.16945379581451,0.450311010932922,-0.784030319309235
9.509314393939395,-1.0962346807479901,0.452706030464172,0.43503462209701504
9.509920454545455,-3.6924358526229897,1.89929782733917,0.293728469753265
9.510526515151515,4.21352362003326,-3.23801906719208,-0.398432174777985
9.511132575757577,1.02814764347076,-0.840604516410828,0.332048782253265
9.511738636363637,-5.14621270809174,4.57932468280792,-0.640329147434235
9.512344696969697,1.84005926456451,-2.05966945781708,0.573945754909515
9.512950757575759,2.17296697940826,-1.45133449687958,-0.44154252634048496
9.513556818181819,1.2987848505020099,0.953265112495422,-0.417592331027985
9.514162878787879,0.376702330970764,-1.11124172344208,0.818237747097015
9.514768939393939,-4.64804864559174,2.32800632343292,-1.52169633493424
9.515375,1.19340399112701,-1.53755520000458,1.33316694631576
9.51598106060606,3.44472235050201,-0.5148818601608279,-0.18767045602798502
9.51658712121212,-4.21455011043549,2.84293552265167,-0.633144088840485
9.517193181818183,1.33471014347076,-1.09208156719208,-0.590033737277985
9.517799242424243,2.29271795597076,-1.72436672344208,-0.214015670871735
9.518405303030303,0.307246764564514,0.7975888429641721,0.0254862822532649
9.519011363636364,2.25918768253326,0.316189917182922,-0.305026413059235
9.519617424242425,-5.8599285284042395,0.486236303901672,0.743992141628265
9.520223484848485,-0.602860657310486,-0.0358779539108276,-0.276286178684235
9.520829545454545,5.29367742862701,-2.06924953594208,0.868533157253265
9.521435606060606,-2.71287286434174,2.67288913593292,-1.01634721384049
9.522041666666667,-0.346593567466736,0.807168921089172,-0.592428756809235
9.522647727272727,1.84963934268951,-3.20927883281708,0.293728469753265
9.523253787878788,0.161150573158264,1.14007663593292,-0.9852119599342349
9.523859848484848,1.98136541690826,0.38085544452667197,1.18228071584701
9.524465909090909,-3.83374200496674,0.895784643745422,0.205112747097015
9.52507196969697,-3.10565606746674,-0.304120141410828,-0.530158248996735
9.52567803030303,5.84453192081451,-3.43680568828583,0.803867629909515
9.52628409090909,-0.844757629966736,2.29208103046417,-0.09186967477798509
9.526890151515152,-3.1008660284042397,2.83335544452667,-0.903781295871735
9.527496212121212,1.99094549503326,-3.44159572734833,0.5523905791282651
9.528102272727272,0.307246764564514,-0.0813833250045776,-0.17809037790298501
9.528708333333332,1.34908026065826,0.507791479682922,-0.618773971652985
9.529314393939394,-1.12497491512299,0.141353491401672,0.516465286159515
9.529920454545454,-3.66130059871674,2.23460056171417,0.499700149440765
9.530526515151514,3.5093878778457603,-3.11587307109833,-0.46070268259048497
9.531132575757576,1.21016912784576,-1.27649807109833,0.351208938503265
9.531738636363636,-4.79174981746674,4.35419284687042,-0.649909225559235
9.532344696969696,1.34908026065826,-1.71478664531708,0.23145796194076498
9.532950757575758,2.32624822940826,-1.46091457500458,-0.0751045380592351
9.533556818181818,1.0257526239395098,0.9245248781204221,-0.879831100559235
9.534162878787878,0.894026549720764,-0.706483422660828,0.432639602565765
9.534768939393938,-4.85162530574799,1.84900241718292,-0.807980514621735
9.535375,0.6832648309707641,-1.16632717266083,0.825422805690765
9.53598106060606,3.7920001825332603,-0.869344750785828,0.36797407522201503
9.53658712121212,-4.64565362606049,2.73036960468292,0.0566215361595149
9.537193181818182,0.738350280189514,-0.361600610160828,-0.8247456513404849
9.537799242424242,2.4579743036270103,-1.94949855937958,-0.168510299777985
9.538405303030302,0.034214538002014204,0.747293432807922,0.23145796194076498
9.539011363636364,1.97657537784576,0.19404392108917198,-0.41280229196548496
9.539617424242424,-5.04083184871674,0.9772153078079221,0.250618118190765
9.540223484848484,-2.03747735652924,-0.201134301567078,0.6122660674095151
9.540829545454544,4.98950994815826,-2.50993312969208,0.772732376003265
9.541435606060606,-2.2123137823104897,2.96268649921417,-1.1744185029029899
9.542041666666666,-0.859127747154236,1.06343601093292,0.22666792287826498
9.542647727272726,2.32385320987701,-2.78296535625458,-0.0583394013404851
9.543253787878788,-0.578910461997986,0.455101049995422,-0.551713424777985
9.54385984848485,1.87119451847076,0.258709448432922,0.808657668972015
9.54446590909091,-3.6229802862167397,1.09217624530792,-0.173300338840485
9.54507196969697,-3.45532891902924,0.594012182807922,-0.396037155246735
9.54567803030303,6.25168524112701,-3.34339992656708,0.657771438503265
9.54628409090909,-0.665131165122986,1.49214450702667,-0.475072799777985
9.54689015151515,-3.3930584112167397,2.65372897968292,-0.269101120090485
9.547496212121212,1.9023297723770098,-3.31705471172333,0.842187942409515
9.548102272727274,0.640154479408264,0.503001440620422,-0.9852119599342349
9.548708333333334,1.25806951847076,0.337745092964172,0.42545454397201504
9.549314393939394,-0.677106262779236,0.268289526557922,-0.127794967746735
9.549920454545456,-3.8984075323104896,2.01425876483917,-0.158930221652985
9.550526515151516,3.45430242862701,-2.99851711406708,0.799077590847015
9.551132575757576,1.77299871768951,-1.14237697734833,-0.17809037790298501
9.551738636363636,-4.70792413387299,3.95661960468292,0.0685966338157649
9.552344696969698,1.15508367862701,-1.30763332500458,0.262593215847015
9.552950757575758,2.16099188175201,-1.47528469219208,-0.714574752902985
9.553556818181818,1.5813971551895099,0.526951635932922,-0.0607344208717351
9.55416287878788,0.915581725502014,-0.12209865703582799,-0.0319941864967351
9.55476893939394,-5.21806329402924,1.66698093280792,0.037461379909514904
9.555375,0.7623004755020141,-0.6130776609420779,0.9499638213157651
9.555981060606062,3.7249396356582603,-0.7735439695358279,0.6913017119407651
9.556587121212122,-3.82655694637299,2.75431979999542,0.145237258815765
9.557193181818182,0.556328795814514,-0.807074242973328,-0.218805709934235
9.557799242424242,2.37654363956451,-2.23211086406708,-0.0176240693092351
9.558405303030304,0.9443219598770141,1.05625095233917,-0.199645553684235
9.559011363636364,1.42572088565826,-0.0358779539108276,0.533230422878265
9.559617424242424,-5.82879327449799,0.728133276557922,-0.7073896943092349
9.560223484848485,-0.827992493247986,-0.471771508598328,0.755967239284515
9.560829545454546,5.06854559268951,-1.2405727781295801,1.30682173147201
9.561435606060606,-2.99548516902924,2.39506687030792,-1.7731733857154899
9.562041666666667,-0.226842590904236,0.42157077655792197,0.183557571315765
9.562647727272727,0.956297057533264,-2.28959133281708,-0.324186569309235
9.563253787878788,-0.188522278404236,0.48144626483917197,-0.532553268527985
9.563859848484848,2.6974762567520103,0.0239975343704224,0.885298293972015
9.56446590909091,-3.2637273565292397,1.59273532733917,-0.0774995575904851
9.56507196969697,-3.54154962215424,-0.241849633598328,-0.0224141083717351
9.56567803030303,4.92005438175201,-3.14940334453583,0.458984817409515
9.566284090909091,-0.602860657310486,2.16274997577667,0.255408157253265
9.566890151515151,-3.21822198543549,1.88013767108917,-0.37208695993423496
9.567496212121211,1.6795929559707599,-2.29438137187958,0.0542265166282649
9.568102272727273,0.5826740106582641,-0.0789883054733276,-0.259521041965485
9.568708333333333,1.30596990909576,0.15572360858917197,-0.539738327121735
9.569314393939393,-1.14413507137299,0.459891089057922,0.32725874319076503
9.569920454545455,-3.70441095027924,1.76996677265167,-0.0032539521217351403
9.570526515151515,3.4159821161270103,-2.39018215312958,0.379949172878265
9.571132575757575,1.50236151065826,-1.04418117656708,0.332048782253265
9.571738636363635,-4.295980774497989,3.91350925312042,-0.9444966279029849
9.572344696969697,1.00180242862701,-1.55192531719208,0.722436965847015
9.572950757575757,1.78736883487701,-1.24296779766083,-0.5469233857154849
9.573556818181817,1.6628278192520098,0.608382299995422,-0.08947465524673509
9.57416287878788,0.927556823158264,-0.423871117973328,0.43742964162826503
9.57476893939394,-5.45517022762299,1.73883151874542,-0.798400436496735
9.575375,0.889236510658264,-1.19027736797333,0.806262649440765
9.575981060606061,3.4926227411270103,-0.6729531492233279,0.561970657253265
9.576587121212121,-4.20257501277924,2.87886081562042,-0.5469233857154849
9.577193181818181,0.9036066278457641,-0.8597646726608279,-0.561293502902985
9.577799242424241,2.23044744815826,-2.06445949687958,-0.810375534152985
9.578405303030303,0.26892645206451404,0.9173398195266721,-0.0200190888404851
9.579011363636363,1.5550519403457599,0.306609839057922,0.22187788381576498
9.579617424242423,-4.16185968074799,0.993980444526672,-0.384062057590485
9.580223484848485,-1.81234552059174,-0.742408715629578,0.490120071315765
9.580829545454545,4.7380328973770105,-1.12561184062958,-0.27149613962173497
9.581435606060605,-1.6183489385604901,1.94240817890167,-0.103844772434235
9.582041666666667,-0.875892883872986,1.00116550312042,-0.230780807590485
9.582647727272727,1.39937567081451,-2.25127102031708,-0.48225785837173496
9.583253787878787,-0.26037286434173595,-0.0286928953170776,0.037461379909514904
9.583859848484847,2.4507892450332602,0.6778378664016721,0.190742629909515
9.584465909090909,-3.26612237606049,0.6826279054641721,0.15721235647201498
9.585071969696969,-3.2206170049667397,0.294634741401672,-0.225990768527985
9.58567803030303,5.0637555536270105,-2.77817531719208,0.370369094753265
9.586284090909091,-0.293903137779236,1.56160007343292,-0.496627975559235
9.586890151515153,-3.39545343074799,2.41422702655792,0.16200239553451498
9.587496212121213,1.5861871942520098,-2.75901516094208,0.617056106472015
9.588102272727273,0.616204284095764,-0.19394924297332802,-0.48225785837173496
9.588708333333333,1.03533270206451,0.392830542182922,-0.467887741184235
9.589314393939393,-0.44718438777923597,0.354510229682922,0.0518314970970149
9.589920454545455,-3.7355462041854897,1.36760349140167,0.478144973659515
9.590526515151515,3.2291705926895102,-2.53388332500458,-0.0152290497779851
9.591132575757577,1.6963580926895099,-0.8334194578170779,0.0709916533470149
9.591738636363637,-4.32711602840424,3.61173679218292,-0.123004928684235
9.592344696969697,1.1023932489395099,-1.32200344219208,0.674536575222015
9.592950757575759,1.9023297723770098,-1.51120998516083,-1.1744185029029899
9.593556818181819,1.5047565301895098,0.5173715578079221,0.363184036159515
9.594162878787879,1.1023932489395099,-0.19394924297332802,0.253013137722015
9.594768939393939,-5.36894952449799,1.35323337421417,-0.743314987277985
9.595375,0.6018341669082641,-0.862159692192078,1.74990034475326
9.59598106060606,3.6291388544082603,-1.19985744609833,0.0781767119407649
9.59658712121212,-3.27091241512299,2.58187839374542,-0.623564010715485
9.597193181818183,0.829361022377014,-0.0574331296920776,-0.396037155246735
9.597799242424243,1.87119451847076,-2.24648098125458,-0.551713424777985
9.598405303030303,0.795830748939514,0.826329077339172,0.26738325490951503
9.599011363636365,1.09520819034576,-0.141258813285828,0.27696333303451504
9.599617424242425,-4.26724054012299,0.708973120307922,-0.158930221652985
9.600223484848485,-2.25302911434174,-0.581942407035828,0.135657180690765
9.600829545454545,4.80748846378326,-1.00586086406708,-0.111029831027985
9.601435606060607,-1.38124200496674,2.13161472187042,-0.134980026340485
9.602041666666667,-1.24233087215424,0.5652719484329221,-0.266706100559235
9.602647727272727,1.7059381708145098,-2.39736721172333,-0.108634811496735
9.603253787878788,-0.708241516685486,0.273079565620422,-0.28107621774673497
9.603859848484849,2.5513800653457603,0.732923315620422,0.782312454128265
9.604465909090909,-2.51408624324799,1.24545749530792,-0.13258500680923502
9.60507196969697,-3.9151726690292397,-0.167604028129578,-0.570873581027985
9.60567803030303,5.33199774112701,-3.39369533672333,0.348813918972015
9.60628409090909,0.175520690345764,1.88971774921417,-0.130189987277985
9.606890151515152,-3.49843927059174,2.67767917499542,0.645796340847015
9.607496212121212,1.91669988956451,-2.81410061016083,-0.051154342746735096
9.608102272727272,0.606624205970764,-0.507696801567078,-0.628354049777985
9.608708333333333,1.1790338739395099,0.11979831562042201,0.0135111845970149
9.609314393939394,-0.305878235435486,0.20362399921417199,-0.307421432590485
9.609920454545454,-3.87685235652924,1.82026218280792,0.564365676784515
9.610526515151514,3.0399640497207603,-2.28959133281708,-0.154140182590485
9.611132575757576,1.90472479190826,-1.72436672344208,0.43503462209701504
9.611738636363636,-3.8960125127792398,4.12666599140167,-0.676254440402985
9.612344696969696,0.6856598505020141,-1.35553371562958,0.473354934597015
9.612950757575758,1.77539373722076,-1.54474025859833,-0.724154831027985
9.613556818181818,1.27243963565826,0.507791479682922,-0.7672651825904849
9.614162878787878,0.977852233314514,-1.01065090312958,0.300913528347015
9.614768939393938,-4.3366961065292395,1.94480319843292,-0.731339889621735
9.615375,-0.588490540122986,-0.8118642820358279,0.928408645534515
9.61598106060606,4.2925592645645105,-0.771148950004578,0.332048782253265
9.61658712121212,-3.30923272762299,2.31363620624542,0.5116752470970151
9.617193181818182,0.240186217689514,-0.0909634031295776,-0.963656784152985
9.617799242424242,2.56575018253326,-2.44047756328583,0.23145796194076498
9.618405303030302,0.0390045770645142,0.946080053901672,-0.15174516305923502
9.619011363636364,2.0987213739395103,0.6251474367141721,0.583525833034515
9.619617424242424,-4.82767511043549,0.7640585695266721,-0.051154342746735096
9.620223484848484,-2.9212395635604897,-0.18915920391082802,-0.285866256809235
9.620829545454544,5.53557440128326,-1.95189357891083,1.26131636037826
9.621435606060606,-1.49141290340424,2.29926608905792,-1.02113725290299
9.622041666666666,-1.28304620418549,1.05146091327667,-0.273891159152985
9.622647727272726,2.0651911005020103,-2.84044582500458,-0.0583394013404851
9.623253787878788,-0.586095520591736,0.38085544452667197,-0.487047897434235
9.623859848484848,2.27355779972076,0.725738257026672,0.44700971975326503
9.624465909090908,-3.27091241512299,0.514976538276672,0.581130813503265
9.62507196969697,-4.18580987606049,0.953265112495422,-0.49183793649673496
9.62567803030303,5.76789129581451,-3.36256008281708,0.348813918972015
9.626284090909092,0.07492987003326419,1.41550388202667,-0.233175827121735
9.626890151515152,-3.78105157527924,2.83096042499542,0.28654341115951504
9.627496212121212,1.68917303409576,-3.13503322734833,-0.305026413059235
9.628102272727272,0.786250670814514,0.0718979249954224,-0.534948288059235
9.628708333333332,1.25088445987701,0.0551327882766724,0.5715507353782651
9.629314393939394,-0.605255676841736,0.632332495307922,-1.38757524118424
9.629920454545456,-4.32232598934174,1.71009128437042,0.8900883330345151
9.630526515151516,3.44711737003326,-2.59854885234833,-0.273891159152985
9.631132575757576,1.9143048700332599,-1.18788234844208,-0.453517623996735
9.631738636363636,-5.22524835262299,3.85123874530792,0.413479446315765
9.632344696969698,1.39219061222076,-1.03220607891083,0.130867141628265
9.632950757575758,2.06758612003326,-1.85609279766083,-0.364901901340485
9.633556818181818,1.15508367862701,0.934104956245422,-0.740919967746735
9.63416287878788,1.3754254755020099,-0.881319848442078,0.0662016142845149
9.63476893939394,-5.14381768856049,1.56399509296417,-0.08707963571548509
9.635375,0.141990416908264,-0.270589867973328,1.22539106740951
9.635981060606062,3.97881170597076,-1.75071193828583,0.7511772002220151
9.636587121212122,-3.41461358699799,2.74234470233917,-1.01395219430924
9.637193181818182,0.29766668643951405,0.0838730226516724,-0.716969772434235
9.637799242424242,1.9574152215957599,-2.46682277812958,0.288938430690765
9.638405303030304,0.41023260440826403,1.05625095233917,-0.800795456027985
9.639011363636364,2.00771063175201,0.313794897651672,0.344023879909515
9.639617424242424,-4.595358215904239,0.42157077655792197,0.322468704128265
9.640223484848486,-2.66018243465424,-0.18436916484832802,-0.0679194794654851
9.640829545454546,5.34636785831451,-1.50402492656708,1.00744429006576
9.641435606060606,-1.70217462215424,2.13161472187042,-0.760080123996735
9.642041666666668,-1.42195733699799,0.8383041749954221,-0.0990547333717351
9.642647727272728,2.45557928409576,-2.29917141094208,-0.592428756809235
9.643253787878788,-0.624415833091736,0.25152438983917197,0.047041458034514906
9.64385984848485,2.71184637393951,0.589222143745422,0.626636184597015
9.64446590909091,-2.50690118465424,0.811958960151672,-0.738524948215485
9.64507196969697,-4.89713067684174,0.445520971870422,0.109311965847015
9.64567803030303,5.6696954950332605,-3.01767727031708,0.379949172878265
9.646284090909091,0.867681334877014,1.37239353046417,-0.556503463840485
9.646890151515152,-4.04929376277924,3.15189304218292,1.25173628225326
9.647496212121212,1.4832013544082598,-2.51711818828583,-0.125399948215485
9.648102272727273,0.652129577064514,-0.440636254692078,-0.47267778024673496
9.648708333333333,1.28441473331451,0.809563940620422,0.720041946315765
9.649314393939393,-0.684291321372986,-0.208319360160828,-0.429567428684235
9.649920454545454,-4.3031658330917395,1.33167819843292,0.10452192678451501
9.650526515151515,3.1261847528457603,-2.40934230937958,0.31767866506576503
9.651132575757575,2.32624822940826,-0.965145532035828,-0.0990547333717351
9.651738636363635,-4.82288507137299,3.86800388202667,-0.08707963571548509
9.652344696969697,0.31922186222076404,-1.54234523906708,0.626636184597015
9.652950757575757,2.34061834659576,-1.49444484844208,-1.39236528024674
9.653556818181817,0.580278991127014,0.474261206245422,0.08296675100326491
9.65416287878788,1.48080633487701,0.0503427492141724,-0.513393112277985
9.65476893939394,-4.36064630184174,0.835909155464172,0.545205520534515
9.655375,-0.31066827449798595,-0.488536645317078,0.490120071315765
9.655981060606061,3.9213312372207603,-0.8118642820358279,0.154817336940765
9.656587121212121,-3.55831475887299,2.05497409687042,0.135657180690765
9.657193181818181,0.47729315128326405,0.356905249214172,-1.31811967477799
9.657799242424241,2.47234442081451,-2.85481594219208,0.391924270534515
9.658405303030303,-0.123856751060486,1.13768161640167,-1.56001664743424
9.659011363636363,2.2687677606582604,-0.17478908672332802,1.07450483694076
9.659617424242423,-3.75710137996674,0.253919409370422,0.188347610378265
9.660223484848485,-3.54873468074799,0.280264624214172,-0.45112260446548497
9.660829545454545,5.0038800653457605,-1.91117824687958,1.73074018850326
9.661435606060605,-0.7753020635604859,2.40704196796417,-0.733734909152985
9.662041666666667,-1.80516046199799,0.9796103273391721,0.08296675100326491
9.662647727272727,2.25679266300201,-2.49795803203583,-0.798400436496735
9.663253787878787,-0.617230774497986,4.73390579223755e-05,0.039856399440764904
9.663859848484849,1.9741803583145099,1.21192722187042,-0.0343892060279851
9.664465909090909,-1.92730645809174,0.9772153078079221,0.106916946315765
9.66507196969697,-4.90431573543549,0.0144174562454224,0.169187454128265
9.66567803030303,5.0709406122207605,-3.02007228984833,-0.448727584934235
9.666284090909091,1.10478826847076,1.32928317890167,0.5116752470970151
9.666890151515151,-3.8217669073104896,3.69077243671417,-0.106239791965485
9.667496212121211,1.48799139347076,-2.82607570781708,-0.46309770212173496
9.668102272727273,0.5227985223770141,-1.12321682109833,-0.254731002902985
9.668708333333333,1.4616461786270099,0.390435522651672,0.743992141628265
9.669314393939395,-0.111881653404236,0.6419125734329221,-0.36250688180923496
9.669920454545455,-4.31514093074799,2.28250095233917,0.557180618190765
9.670526515151515,2.63281072940826,-3.04402248516083,0.312888626003265
9.671132575757575,3.14055487003326,-1.63096096172333,-1.22471391305924
9.671738636363635,-5.10070733699799,4.08595065937042,0.655376418972015
9.672344696969697,0.06534979190826419,-0.433451196098328,0.303308547878265
9.672950757575759,2.9465582880020103,-1.99979396953583,-0.652304245090485
9.673556818181819,0.6257843622207641,0.287449682807922,-0.0822895966529851
9.674162878787879,1.90711981143951,-0.883714867973328,-0.31221147165298496
9.674768939393939,-4.48997735652924,1.59752536640167,0.837397903347015
9.675375,-1.4985979619979901,0.136563452339172,0.564365676784515
9.67598106060606,4.77395819034576,-1.74352687969208,0.185952590847015
9.67658712121212,-3.02183038387299,2.77108493671417,0.916433547878265
9.677193181818183,-0.401679016685486,0.7209482179641721,-0.810375534152985
9.677799242424243,3.13815985050201,-2.87637111797333,-0.166115280246735
9.678405303030303,-0.703451477622986,0.766453589057922,-0.434357467746735
9.679011363636365,2.7501666864395102,0.634727514839172,0.243433059597015
9.679617424242425,-3.9487029424667397,0.36169528827667197,0.966728958034515
9.680223484848485,-3.98462823543549,0.344930151557922,-0.9468916474342349
9.680829545454545,6.24929022159576,-2.15547023906708,1.42657270803451
9.681435606060607,-1.0483342901229902,1.97593845233917,-0.41040727243423497
9.682041666666667,-2.12848809871674,1.95198825702667,-0.788820358371735
9.682647727272727,2.27355779972076,-2.60573391094208,-0.18288041696548502
9.683253787878789,-0.559750305747986,-0.742408715629578,0.08296675100326491
9.683859848484849,2.32385320987701,0.809563940620422,0.150027297878265
9.684465909090909,-2.1428582159042397,0.785613745307922,0.183557571315765
9.68507196969697,-5.11268243465424,0.668257788276672,0.566760696315765
9.68567803030303,5.0637555536270105,-2.96498684062958,-0.573268600559235
9.68628409090909,1.48559637393951,0.103033178901672,-0.125399948215485
9.68689015151515,-4.35346124324799,3.63089694843292,0.169187454128265
9.687496212121212,1.2221442255020099,-2.15068020000458,-0.503813034152985
9.688102272727273,1.11436834659576,-1.32200344219208,-0.103844772434235
9.688708333333333,1.49278143253326,0.5389267335891721,0.0518314970970149
9.689314393939394,0.10606512393951399,-0.148443871879578,-0.245150924777985
9.689920454545454,-3.98462823543549,2.46691745624542,0.329653762722015
9.690526515151515,1.7945538934707599,-2.39018215312958,0.255408157253265
9.691132575757576,3.4590924676895103,-1.8393276609420801,-0.697809616184235
9.691738636363636,-5.02406671199799,3.78417819843292,0.784707473659515
9.692344696969696,-0.5334050909042359,-0.172394067192078,0.238643020534515
9.692950757575758,3.4231671747207604,-1.86327785625458,-0.733734909152985
9.693556818181818,0.24497625675201398,0.158118628120422,0.593105911159515
9.694162878787878,2.07477117862701,-0.275379907035828,-0.398432174777985
9.694768939393938,-4.14748956356049,1.10415134296417,0.274568313503265
9.695375,-1.32136651668549,0.0647128664016724,0.200322708034515
9.69598106060606,4.63983709659576,-1.96626369609833,0.521255325222015
9.69658712121212,-2.8637590948104896,2.61780368671417,-0.712179733371735
9.697193181818182,-0.6555510869979859,0.531741674995422,-0.24754594430923502
9.697799242424242,2.90105291690826,-2.73745998516083,-0.269101120090485
9.698405303030302,-0.25797784481048597,0.809563940620422,-1.32530473337174
9.699011363636364,2.4483942255020104,0.0168124757766724,0.667351516628265
9.699617424242424,-3.3236028448104897,0.634727514839172,-0.38166703805923496
9.700223484848484,-3.86487725887299,0.428755835151672,0.45658979787826504
9.700829545454544,5.19787664737701,-1.8992031492233301,1.18467573537826
9.701435606060606,-0.44957940731048596,1.34844333515167,-0.688229538059235
9.702041666666666,-2.17159845027924,1.68853610858917,0.121287063503265
9.702647727272726,2.4052838739395104,-1.83693264141083,-0.688229538059235
9.703253787878788,-0.341803528404236,-0.380760766410828,0.233852981472015
9.703859848484848,2.16338690128326,1.61668552265167,-0.424777389621735
9.704465909090908,-1.6135588994979901,0.0766879640579224,0.48533003225326504
9.70507196969697,-5.16537286434174,0.433545874214172,0.360789016628265
9.70567803030303,4.63504705753326,-2.09559475078583,-0.829535690402985
9.70628409090909,1.81371404972076,-0.318490258598328,1.03139448537826
9.706890151515152,-3.98462823543549,3.55425632343292,0.578735793972015
9.707496212121212,1.01617254581451,-1.67886135234833,-0.592428756809235
9.708102272727274,0.8628912958145141,-2.41173732891083,0.238643020534515
9.708708333333332,1.67240789737701,1.10654636249542,-0.654699264621735
9.709314393939394,0.122830260658264,0.177278784370422,0.41587446584701504
9.709920454545454,-4.42770684871674,2.45015231952667,0.253013137722015
9.710526515151514,1.28441473331451,-1.59503566875458,-0.652304245090485
9.711132575757576,3.7488898309707603,-2.80691555156708,0.0326713408470149
9.711738636363636,-4.49955743465424,3.59497165546417,0.389529251003265
9.712344696969698,-0.9908538213729859,0.613172339057922,-0.204435592746735
9.712950757575758,3.38005682315826,-2.28240627422333,-0.328976608371735
9.713556818181818,0.34077703800201403,0.534136694526672,-0.537343307590485
9.71416287878788,2.31427313175201,-0.747198754692078,-0.5660835419654849
9.714768939393938,-4.22173516902924,0.926919897651672,0.38713423147201503
9.715375,-2.42068048152924,0.8622543703079221,0.777522415065765
9.715981060606062,4.37398992862701,-2.30635646953583,0.5116752470970151
9.716587121212122,-2.0662175909042397,2.40704196796417,-0.774450241184235
9.717193181818182,-1.31178643856049,1.12570651874542,0.0111161650657649
9.717799242424242,2.6878961786270104,-2.90271633281708,-0.951681686496735
9.718405303030304,-0.145411926841736,0.265894507026672,-0.35292680368423496
9.719011363636364,2.38372869815826,0.306609839057922,0.763152297878265
9.719617424242424,-3.23259210262299,0.7999838624954221,-0.807980514621735
9.720223484848486,-5.2611736455917395,0.103033178901672,0.643401321315765
9.720829545454546,6.11037908878326,-2.43568752422333,1.42657270803451
9.721435606060606,0.285691588783264,1.30293796405792,-0.254731002902985
9.722041666666668,-3.10565606746674,2.63217380390167,-0.994792038059235
9.722647727272728,2.06040106143951,-2.44526760234833,-0.233175827121735
9.723253787878788,-0.356173645591736,-1.00586086406708,0.09494184865951491
9.723859848484848,2.06040106143951,1.45621921405792,-0.635539108371735
9.72446590909091,-1.04114923152924,-0.105333520317078,1.01223432912826
9.72507196969697,-5.30188897762299,1.54243991718292,-0.47028276071548497
9.72567803030303,4.08898260440826,-2.30635646953583,-0.355321823215485
9.726284090909092,2.63999578800201,-0.900480004692078,0.842187942409515
9.726890151515152,-4.0900090948104895,3.93745944843292,-0.455912643527985
9.727496212121212,0.5419586786270141,-1.63575100078583,-0.791215377902985
9.728102272727273,1.00419744815826,-2.50753811016083,0.825422805690765
9.728708333333334,1.67001287784576,1.54722995624542,-0.8271406708717349
9.729314393939394,0.649734557533264,-0.541227075004578,0.48533003225326504
9.729920454545455,-4.25047540340424,2.22502048358917,-0.123004928684235
9.730526515151515,0.561118834877014,-1.68125637187958,-0.419987350559235
9.731132575757576,4.54882635440826,-3.14700832500458,0.763152297878265
9.731738636363636,-4.0971941534042395,3.53030612812042,0.19792768850326498
9.732344696969697,-1.08186456356049,0.8838095460891721,-0.987606979465485
9.732950757575757,3.4087970575332602,-2.77338527812958,0.190742629909515
9.733556818181818,0.321616881752014,0.186858862495422,-0.249940963840485
9.73416287878788,1.7346784051895099,0.38085544452667197,-1.39476029977799
9.73476893939394,-3.5894500127792397,0.5221615968704221,1.22299604787826
9.735375,-1.88419610652924,0.9364999757766721,0.0302763213157649
9.735981060606061,4.45542059268951,-1.79142727031708,0.9092484892845151
9.736587121212121,-2.2458440557479897,2.05497409687042,1.02181440725326
9.737193181818181,-1.83869073543549,1.09217624530792,0.312888626003265
9.737799242424241,3.23875067081451,-2.42850246562958,-0.784030319309235
9.738405303030303,-0.43999932918548595,-0.237059594535828,0.480539993190765
9.739011363636363,2.5609601434707603,0.605987280464172,-0.230780807590485
9.739617424242423,-2.2721892705917397,0.450311010932922,0.332048782253265
9.740223484848485,-5.58210626277924,0.531741674995422,0.940383743190765
9.740829545454545,5.3631329950332605,-1.22141262187958,0.0973368681907649
9.741435606060605,0.168335631752014,0.433545874214172,0.298518508815765
9.742041666666667,-2.76316827449799,2.96268649921417,-1.17920854196549
9.742647727272727,1.99813055362701,-2.28480129375458,0.039856399440764904
9.743253787878787,-0.49747979793548597,-1.25254787578583,-0.101449752902985
9.743859848484847,2.24721258487701,1.67895603046417,-0.750500045871735
9.74446590909091,-1.32615655574799,-0.383155785942078,0.918828567409515
9.74507196969697,-5.26596368465424,1.19995212421417,0.09015180959701491
9.74567803030303,4.10095770206451,-2.05727443828583,-0.743314987277985
9.746284090909091,2.59688543643951,-1.66688625469208,0.882903274440765
9.746890151515151,-3.80979180965424,4.50507907733917,-0.755290084934235
9.747496212121211,0.637759459877014,-1.75071193828583,0.133262161159515
9.748102272727273,1.0760480340957599,-2.35425686016083,0.21708784475326498
9.748708333333333,0.870076354408264,1.37239353046417,-1.1145430146217399
9.749314393939393,0.8628912958145141,-0.706483422660828,0.6505863799095151
9.749920454545455,-3.8624822393417397,2.43817722187042,-0.333766647434235
9.750526515151515,0.41981268253326404,-1.40822414531708,0.08536177053451491
9.751132575757577,4.55122137393951,-3.18532863750458,0.22666792287826498
9.751738636363635,-4.35106622371674,3.09201755390167,0.35599897756576504
9.752344696969697,-1.5369182744979901,1.45142917499542,-0.712179733371735
9.752950757575757,3.26030584659576,-2.66081936016083,0.08296675100326491
9.753556818181817,0.616204284095764,0.847884253120422,-0.5469233857154849
9.754162878787879,1.43290594425201,-0.167604028129578,-0.796005416965485
9.754768939393939,-2.9739299932479897,0.294634741401672,0.624241165065765
9.755375,-2.20033868465424,0.8646493898391721,0.5499955595970151
9.75598106060606,3.71056951847076,-2.09080471172333,0.588315872097015
9.756587121212121,-1.7764202276229901,2.02144382343292,-0.487047897434235
9.757193181818183,-1.58960870418549,1.14007663593292,0.042251418972014905
9.757799242424241,3.06870428409576,-2.61770900859833,-0.520578170871735
9.758405303030303,-0.461554504966736,0.253919409370422,0.21229780569076498
9.759011363636365,2.01729070987701,1.01793063983917,-0.532553268527985
9.759617424242425,-1.85545587215424,-0.0909634031295776,0.7511772002220151
9.760223484848485,-5.42163995418549,0.946080053901672,0.0805717314720149
9.760829545454545,4.87454901065826,-1.73873684062958,-0.0607344208717351
9.761435606060607,0.951507018470764,-0.265799828910828,0.645796340847015
9.762041666666667,-2.77274835262299,3.30277927265167,-2.34079301462173
9.762647727272727,2.15380682315826,-2.55064846172333,0.499700149440765
9.763253787878789,-0.466344544029236,-0.9579604734420779,-0.0200190888404851
9.763859848484849,1.76820867862701,1.56878513202667,-0.41040727243423497
9.764465909090909,-0.5142449346542359,-0.455006371879578,1.02899946584701
9.76507196969697,-5.10310235652924,2.19867526874542,-0.8846211396217349
9.76567803030303,3.24833074893951,-2.38778713359833,0.674536575222015
9.76628409090909,3.36089666690826,-1.34116359844208,0.799077590847015
9.766890151515152,-4.06605889949799,4.44041354999542,-0.0295991669654851
9.767496212121213,0.0916950067520142,-1.43456936016083,0.408689407253265
9.768102272727273,1.59576727237701,-2.35186184062958,0.0542265166282649
9.768708333333333,0.403047545814514,1.02032565937042,-0.6067988739967349
9.769314393939394,1.1790338739395099,-0.581942407035828,0.394319290065765
9.769920454545455,-3.9750481573104897,2.13640476093292,-0.41040727243423497
9.770526515151515,-0.44957940731048596,-0.728038598442078,0.10212690725326501
9.771132575757576,5.02783026065826,-3.07994777812958,0.542810501003265
9.771738636363636,-3.9582830205917396,2.96508151874542,0.0638065947532649
9.772344696969697,-1.97520684871674,1.70769626483917,-0.7265498505592349
9.772950757575758,3.27467596378326,-3.47991603984833,0.6913017119407651
9.773556818181818,0.7215851434707641,0.5437167726516721,-0.8247456513404849
9.774162878787878,1.73707342472076,0.206019018745422,-0.5852436982154849
9.774768939393939,-3.4529338994979897,-0.28735500469207803,0.954753860378265
9.775375,-2.42068048152924,1.18079196796417,-0.5876387177467349
9.77598106060606,4.53445623722076,-2.46682277812958,1.3403520049095101
9.77658712121212,-2.00394708309174,2.00467868671417,-0.194855514621735
9.777193181818182,-2.14046319637299,1.29814792499542,-0.257126022434235
9.777799242424242,3.6027936395645104,-2.52190822734833,-0.496627975559235
9.778405303030302,-0.23402764949798602,0.210809057807922,0.353603958034515
9.779011363636364,1.82808416690826,0.6969980226516721,-0.901386276340485
9.779617424242424,-1.30460137996674,-0.0765932859420776,0.626636184597015
9.780223484848484,-5.51025567684174,0.6395175539016721,0.7511772002220151
9.780829545454544,4.59433172550201,-1.19267238750458,-0.29065629587173497
9.781435606060606,1.27004461612701,0.13416843280792198,0.914038528347015
9.782041666666666,-2.73682305965424,3.30517429218292,-1.67497758493424
9.782647727272726,2.1849420770645103,-2.34707180156708,0.681721633815765
9.783253787878788,-0.475924622154236,-0.790309106254578,-0.582848678684235
9.783859848484848,2.29032293643951,1.44424411640167,-0.570873581027985
9.784465909090908,-0.6148357549667359,0.107823217964172,0.741597122097015
9.78507196969697,-6.05871514949799,1.54722995624542,-0.103844772434235
9.78567803030303,3.89738104190826,-2.41892238750458,0.401504348659515
9.78628409090909,2.8172272333145103,-1.55671535625458,0.37515913381576504
9.78689015151515,-4.32232598934174,4.54339938983917,-0.7457100068092349
9.787496212121212,0.8030158075332641,-1.23099270000458,0.116497024440765
9.788102272727272,1.1239484247207598,-2.87397609844208,0.399109329128265
9.788708333333332,1.07844305362701,1.19516208515167,-1.72287797555924
9.789314393939394,0.973062194252014,-1.04897121562958,1.20862593069076
9.789920454545454,-3.8217669073104896,2.62738376483917,-0.534948288059235
9.790526515151514,0.587464049720764,-1.11603176250458,-0.297841354465485
9.791132575757576,4.36919988956451,-2.94103664531708,0.882903274440765
9.791738636363636,-4.2169451299667395,3.14231296405792,-0.38166703805923496
9.792344696969696,-1.1393450323104901,0.874229467964172,-0.288261276340485
