Time (s),Accel X (m/s^2),Accel Y (m/s^2),Accel Z (m/s^2)
5.767875,5.10915670394897,-2.5729777153015103,-0.261251911354064
5.76848069351908,2.13454244613647,2.00390460891724,-0.457643512916564
5.769086387038159,-1.74538919448853,3.66604816360474,1.52543265895844
5.769692080557238,0.139491176605225,-0.597086602020264,0.13392631130218602
5.770297774076317,-1.40290140151978,-1.76106609420776,0.7398662527084361
5.770903467595397,-1.48193704605103,1.03392169876099,0.38300834255218597
5.771509161114476,-1.80526468276978,-0.673727227020264,-0.491173786354064
5.772114854633555,-0.0137900733947754,-2.7166788871765104,-2.08625679416656
5.772720548152635,4.4553163719177205,-1.98380291061401,-0.450458454322814
5.773326241671715,1.50944234848022,3.1415388862609896,0.672805705833436
5.773931935190793,-1.45559183120728,3.60617267532349,1.36496635036469
5.774537628709873,1.00409322738647,-0.771923027801514,-0.369027790260314
5.775143322228952,-0.849651889801025,-2.6735685356140104,-0.0145648996353145
5.775749015748032,-0.6388901710510251,2.13802570266724,0.11716117458343599
5.776354709267111,-2.40162454605103,1.20875812454224,0.42372367458343596
5.77696040278619,-2.38725442886353,-4.01956951217651,-0.11276070041656401
5.77756609630527,4.05295309066772,-1.59580974655151,-2.09583687229156
5.778171789824349,0.8819472312927249,0.921355780792236,1.42963187770844
5.778777483343428,1.15737447738647,4.14265705032349,0.0956059988021855
5.779383176862508,1.49507223129272,1.61351642532349,0.5626348073959361
5.779988870381587,-0.159886264801025,-2.3933512504577603,0.627300334739686
5.780594563900666,-0.5167441749572751,0.339366034698486,-0.44327339572906405
5.781200257419746,-5.06967630386353,0.938120917510986,0.9626030691146861
5.781805950938825,-3.12731546401978,-1.03058513717651,0.469229045677186
5.782411644457905,2.46745016098022,-3.4711100395202603,-0.843241657447814
5.783017337976983,3.3727675437927203,-0.0917374809265137,-1.49708198947906
5.783623031496063,2.10819723129272,3.47205158157349,0.866802287864686
5.784228725015143,0.766986293792725,1.93444904251099,0.107581096458436
5.7848344185342215,-0.21257669448852498,-2.29276043014526,0.588980022239686
5.785440112053301,-2.32737894058228,-0.937179375457764,0.0117803152084355
5.786045805572381,-4.54756204605103,1.45784015579224,0.481204143333436
5.78665149909146,-1.7956846046447799,-0.0893424613952637,0.12913627223968602
5.787257192610539,1.48549215316772,-2.2975504692077604,-2.1676874582290604
5.787862886129618,5.12352682113647,-0.494100762176514,-1.01328804416656
5.788468579648698,2.5345107078552203,0.37289630813598595,1.80085990505219
5.789074273167778,-1.02688333511353,3.59898761672974,0.0237554128646855
5.789679966686856,-1.23764505386353,0.365711249542236,0.792556682395936
5.790285660205936,-1.17297952651978,-2.1897745903015102,0.675200725364686
5.790891353725015,-2.0926670265197798,1.0626619331359901,0.617720256614686
5.7914970472440945,-1.89148538589478,-0.400695000457764,-0.48398872776031404
5.792102740763174,1.26515035629272,-2.65440837936401,-2.1700824777603103
5.792708434282253,3.62184957504272,-1.90237224655151,-0.357052692604064
5.793314127801333,2.42912984848022,3.05292316360474,-0.158266071510314
5.793919821320412,-1.46756692886353,3.20380939407349,1.66913383083344
5.794525514839491,-0.0018149757385253899,0.181294745635986,0.46204398708343597
5.795131208358571,-0.7346909523010251,-3.2411881645202603,-0.0025898019790644602
5.79573690187765,-0.784986362457275,1.71171222610474,-0.5342841379165639
5.796342595396729,-1.7310190773010299,1.39796466751099,0.876382365989686
5.796948288915809,-1.48912210464478,-3.4806901176452603,-0.9510175363540639
5.797553982434888,3.01830465316772,-1.34193767623901,-1.25518501682281
5.7981596759539675,1.01606832504272,0.643533515167236,0.5434746511459361
5.798765369473046,0.884342250823975,2.8158162300109897,-0.182216266822814
5.799371062992126,1.06396871566772,1.30695392532349,0.457253948020936
5.799976756511206,-0.174256381988525,-1.86644695358276,-0.282807087135314
5.8005824500302845,-0.7586411476135251,-0.187538262176514,0.9410478933334361
5.801188143549364,-4.39428079605103,1.95360919876099,-0.29478218479156404
5.801793837068444,-2.80877786636353,-1.61496990280151,0.150691448020936
5.802399530587523,2.01479146957397,-3.43278972702026,-1.32703560276031
5.803005224106602,2.40278463363647,-0.0845524223327637,-0.9534125558853139
5.803610917625681,1.7417592430114701,3.1056135932922397,0.656040569114686
5.804216611144761,1.21006490707397,2.16197589797974,-0.687565387916564
5.8048223046638405,0.283192348480225,-2.5370524223327604,1.2524004323959401
5.805427998182919,-1.9106455421447799,-0.702467461395264,-0.481593708229064
5.806033691701999,-3.96317728042603,1.38838458938599,1.68829398708344
5.806639385221078,-2.21481302261353,0.6698787300109861,0.0309404714584355
5.8072450787401575,1.37053121566772,-2.2376749809265104,-1.37972603244781
5.807850772259237,4.24455465316772,-2.8987003715515103,-0.6564301340103139
5.808456465778316,2.02916158676147,1.86259845657349,-0.9126972238540639
5.809062159297396,-1.55857767105103,3.95584552688599,1.1326494558334401
5.809667852816475,-0.054505405426025395,0.111839179229736,0.9051226003646861
5.810273546335554,-1.16818948745728,-2.51549724655151,2.08826224880219
5.810879239854634,-1.99447122573853,1.38598956985474,-1.13064400119781
5.811484933373713,-1.7310190773010299,-0.010306816864013699,0.289602580833436
5.812090626892792,-0.155096225738525,-3.4519498832702604,-0.666010212135314
5.812696320411872,5.05167623519897,-0.793478203582764,-2.4862250558853103
5.813302013930951,0.750221157073975,1.40514972610474,2.6894121511459397
5.8139077074500305,-0.950242710113525,4.87553302688599,-0.783366169166564
5.814513400969109,1.02564840316772,-0.752762871551514,0.945837932395936
5.815119094488189,-0.624520053863525,-2.72146892623901,0.177036662864686
5.815724788007269,-0.6197300148010251,2.10210040969849,-0.29478218479156404
5.8163304815263475,-2.62915140151978,0.715384101104736,0.9410478933334361
5.816936175045427,-2.18607278823853,-3.00408123092651,-1.25278999729156
5.817541868564507,3.11889547348022,-2.7957145317077603,-0.40495308322906404
5.818147562083586,1.11905416488647,1.03392169876099,-0.22532661838531398
5.818753255602665,0.5969399070739749,3.69239337844849,0.327922893333436
5.819358949121744,1.9764711570739701,1.95360919876099,0.435698772239686
5.819964642640824,-0.282032260894775,-2.2400700004577603,0.160271526145936
5.8205703361599035,-0.763431186676025,0.28188556594848596,-0.206166462135314
5.821176029678982,-4.77748392105103,1.36443439407349,0.888357463645936
5.821781723198062,-3.12013040542603,-0.901254082489014,-0.0576752511978145
5.822387416717141,1.9980263328552201,-3.45913494186401,-1.00610298557281
5.8229931102362205,3.12368551254272,-0.49649578170776404,-0.8336615793228139
5.8235988037553,2.16567770004272,3.63491290969849,-0.206166462135314
5.824204497274379,1.01606832504272,1.84583331985474,0.495574260520936
5.824810190793459,0.5418544578552249,-1.93829753952026,0.426118694114686
5.825415884312538,-2.24834329605103,-1.20063152389526,0.0213603933334355
5.826021577831617,-3.83863626480103,1.25186847610474,1.08474906520844
5.826627271350697,-3.01953958511353,0.523782538604736,-0.32591743869781403
5.827232964869776,1.35855611801147,-2.1610343559265104,-1.49947700901031
5.827838658388855,5.24327779769897,-2.7358390434265103,-1.23123482151031
5.828444351907935,1.95252096176147,1.50334552688599,0.14350638942718602
5.829050045427014,-1.32626077651978,4.643216132354739,0.936257854270936
5.8296557389460935,-0.624520053863525,-0.209093437957764,1.39131156520844
5.830261432465172,-1.5010972023010298,-2.21851482467651,0.945837932395936
5.830867125984252,-1.96573099136353,0.7105940620422361,-0.941437458229064
5.831472819503332,-1.5010972023010298,-0.249808769989014,-0.177426227760314
5.83207851302241,0.08680074691772459,-2.30473552780151,-1.28153023166656
5.83268420654149,4.83133443832397,-2.04128337936401,-0.6564301340103139
5.83328990006057,1.27712545394897,2.1044954292297398,0.440488811302186
5.833895593579649,-1.58252786636353,4.46837970657349,-0.045700153541564495
5.834501287098728,0.723875942230225,-0.8844889457702639,1.59488822536469
5.835106980617807,-0.286822299957275,-2.51789226608276,-0.625294880104064
5.835712674136887,-0.6580503273010251,1.35485431594849,0.18422172145843602
5.8363183676559665,-2.58125101089478,1.61830646438599,0.107581096458436
5.836924061175045,-1.9801011085510298,-3.6076261528015103,-0.371422809791564
5.837529754694125,3.76315572738647,-2.53226238327026,-1.0611884347915599
5.838135448213205,1.10228902816772,1.38838458938599,0.33271293239593597
5.838741141732283,0.177811489105225,3.35230060501099,1.44879203395844
5.839346835251363,2.20639303207397,2.0613850776672398,-0.131920856666564
5.839952528770442,-0.334722690582275,-2.48436199264526,0.967393108177186
5.840558222289522,-0.533509311676025,0.243565253448486,-0.0528852121353145
5.841163915808601,-4.4326011085510295,1.36682941360474,1.32904105739594
5.84176960932768,-3.53686380386353,-1.05932537155151,-0.431298298072814
5.84237530284676,2.3716493797302203,-3.14299236373901,-1.15459419651031
5.842980996365839,2.90334371566772,-0.970709648895264,-0.134315876197814
5.843586689884918,1.81121480941772,3.6612581245422398,-0.962992634010314
5.844192383403998,1.36813619613647,2.1332356636047396,1.30269584255219
5.844798076923077,-0.0161850929260254,-1.89758220748901,0.28241752223968597
5.845403770442156,-1.98249612808228,-1.07130046920776,-0.9965229074478139
5.846009463961236,-3.49375345230103,1.20875812454224,1.8128350027084401
5.846615157480315,-2.94529397964478,0.554917792510986,-0.00737984104156446
5.847220850999395,1.38729635238647,-1.80896648483276,-1.43241646213531
5.847826544518473,4.3355653953552205,-3.1453873832702604,-0.644455036354064
5.848432238037553,2.42194478988647,1.63507160110474,-1.28392525119781
5.849037931556633,-1.41727151870728,4.13547199172974,0.787766643333436
5.849643625075712,-0.274847202301025,-0.223463555145264,1.71703422145844
5.850249318594791,-0.950242710113525,-1.66526531295776,0.929072795677186
5.85085501211387,-2.20283792495728,0.5908430854797361,-0.03851509494781449
5.85146070563295,-1.66874856948853,0.336971015167236,-1.06358345432281
5.852066399152029,-0.0137900733947754,-2.72386394577026,-0.8168964426040639
5.852672092671108,5.08281148910522,-1.90955730514526,-0.251671833229064
5.853277786190188,1.35376607894897,1.99432453079224,0.232122112083436
5.853883479709268,-1.70706888198853,4.64561115188599,-0.153476032447814
5.854489173228346,0.6616054344177249,-0.755157891082764,1.87031547145844
5.855094866747426,-0.025765171051025403,-2.31192058639526,-0.40495308322906404
5.855700560266505,-0.7778013038635251,0.8734553901672361,0.6440654714584361
5.856306253785585,-2.80638284683228,1.14169757766724,0.0980010183334355
5.856911947304664,-1.6807236671447798,-2.9226505668640104,-1.66233833713531
5.857517640823743,3.27217672348022,-2.38856121139526,-0.476803669166564
5.858123334342823,0.9801430320739749,0.5884480659484861,0.0836309011459355
5.858729027861902,0.728665981292725,3.53192706985474,-0.0600702707290645
5.859334721380981,1.5357875633239702,1.57519611282349,0.747051311302186
5.859940414900061,0.666395473480225,-1.83531169967651,-0.761810993385314
5.86054610841914,-0.6580503273010251,-0.0941325004577637,0.229727092552186
5.861151801938219,-4.47571146011353,1.08661212844849,2.4091948659896896
5.861757495457299,-3.38118753433228,0.150159491729736,-1.21446968479156
5.862363188976378,1.50465230941772,-4.39558757858276,-0.7570209543228139
5.862968882495458,3.57155416488647,-0.379139824676514,-1.28392525119781
5.863574576014536,1.16455953598022,3.65646808547974,-0.352262653541564
5.864180269533616,1.28670553207397,2.3966878120422397,-0.0145648996353145
5.864785963052696,0.292772426605225,-2.4268815238952604,0.107581096458436
5.8653916565717745,-1.69988382339478,-1.38983806686401,0.00220023708343554
5.865997350090854,-3.74044046401978,1.27821369094849,1.31467094020844
5.866603043609934,-3.36681741714478,0.844715155792236,-0.34507759494781404
5.867208737129013,1.41364156723022,-2.24486003952026,-0.6971454660415639
5.867814430648092,4.9079750633239705,-2.79092449264526,-1.16896431369781
5.868420124167171,2.38601949691772,1.25665851516724,-0.419323200416564
5.869025817686251,-1.58492288589478,3.56306232376099,1.73379935817719
5.86963151120533,-0.08324563980102541,0.727359198760986,0.06686576442718549
5.870237204724409,-1.91304056167603,-2.2233048637390103,1.42484183864594
5.870842898243489,-2.00165628433228,1.00757648391724,-0.984547809791564
5.871448591762568,-1.70227884292603,-0.14682293014526399,0.246492229270936
5.8720542852816475,-0.253292026519775,-2.3741910942077604,-1.05400337619781
5.872659978800727,5.14268697738647,-1.91195232467651,-1.47552681369781
5.873265672319806,1.40645650863647,1.58956623001099,1.12546439723969
5.873871365838886,-1.59210794448853,4.93540851516724,0.042915569114685505
5.874477059357965,0.5825697898864749,-0.553976250457764,1.57812308864594
5.875082752877044,-0.0305552101135254,-2.65201335983276,-0.828871540260314
5.875688446396124,-0.514349155426025,0.957281073760986,0.9410478933334361
5.876294139915203,-3.0339097023010297,1.29976886672974,0.526709514427186
5.876899833434282,-1.74299417495728,-2.1346891410827604,-1.65036323947906
5.877505526953362,2.97519430160522,-3.45673992233276,0.12434623317718599
5.878111220472441,1.47830709457397,1.53687580032349,-2.31138863010406
5.8787169139915205,0.48916402816772503,3.0217879096984896,0.730286174583436
5.8793226075106,1.42322164535522,1.9009187690734901,0.8428520925521861
5.879928301029679,0.743036098480225,-1.38983806686401,-0.261251911354064
5.880533994548758,-0.9023423194885251,-1.27008709030151,1.28832572536469
5.881139688067838,-3.97754739761353,2.0901253120422396,-0.5079389230728141
5.881745381586917,-3.82187112808228,-1.26769207077026,0.8811724050521861
5.882351075105996,1.6555385398864702,-3.25316326217651,-1.12345894260406
5.882956768625076,2.96800924301147,-1.17907634811401,-0.5726044504165639
5.883562462144155,1.99563131332397,3.5774324409484897,-0.47440864963531404
5.884168155663234,1.00409322738647,2.15479083938599,0.8596172292709361
5.884773849182314,0.036505336761474605,-1.36828289108276,-0.407348102760314
5.8853795427013935,-1.6759336280822799,-1.70119060592651,0.7015459402084361
5.885985236220472,-3.97275735855103,1.31892902297974,0.670410686302186
5.886590929739552,-2.51419046401978,1.39556964797974,-1.20488960666656
5.887196623258631,1.0064882469177199,-3.1382023246765103,0.25128226833343603
5.8878023167777105,4.89120992660522,-1.8329166801452599,-1.88986519260406
5.88840801029679,2.51295553207397,0.686643866729736,0.634485393333436
5.889013703815869,-0.952637729644775,4.49472492141724,-0.347472614479064
5.889619397334949,-0.262872104644775,-0.07257732467651369,1.7314043386459401
5.890225090854028,-0.844861850738525,-2.0939738090515103,0.397378459739686
5.890830784373107,-2.2722934913635298,0.9309358589172361,-0.670800251197814
5.891436477892187,-1.6208481788635298,0.0854939643859863,0.0213603933334355
5.8920421714112665,0.350252895355225,-2.61129802780151,-0.6731952707290639
5.892647864930345,4.42418111801147,-2.12510906295776,-0.946227497291564
5.893253558449425,1.25557027816772,1.93684406204224,-0.998917926979064
5.893859251968504,-1.38853128433228,3.9965608589172397,1.37454642848969
5.8944649454875835,0.376598110198975,0.195664862823486,0.991343303489686
5.895070639006663,-0.140726108551025,-2.55142253952026,-0.7929462472915639
5.895676332525742,-0.8161216163635251,0.765679511260986,0.612930217552186
5.896282026044821,-2.43036478042603,1.10337726516724,0.797346721458436
5.896887719563901,-1.66156351089478,-2.61129802780151,-1.61922798557281
5.89749341308298,2.84107320785522,-2.7454191215515102,-1.07076851291656
5.898099106602059,1.77289449691772,0.5142024604797361,1.16378470973969
5.8987048001211395,0.357437953948975,3.2421297065734898,-0.0169599191665645
5.899310493640218,2.16567770004272,2.04461994094849,1.20210502223969
5.899916187159297,0.5825697898864749,-1.78022625045776,0.5650298269271861
5.900521880678377,-0.907132358551025,-0.539606133270264,-0.479198688697814
5.9011275741974565,-3.97275735855103,1.52729572219849,0.6823857839584361
5.901733267716535,-3.95120218276978,-0.613851738739014,-0.570209430885314
5.902338961235615,1.65074850082397,-4.012384453582761,-0.46482857151031404
5.902944654754694,3.11889547348022,-0.558766289520264,-1.90184029026031
5.9035503482737735,1.8351650047302202,3.11040363235474,0.747051311302186
5.904156041792853,1.49986227035522,2.29130695266724,0.718311076927186
5.904761735311932,0.431683559417725,-1.22458171920776,-0.639664997291564
5.9053674288310125,-1.62324319839478,-1.92392742233276,0.315947795677186
5.905973122350091,-3.95359720230103,1.37880451126099,0.296787639427186
5.90657881586917,-2.95008401870728,0.595633124542236,0.7614214284896861
5.90718450938825,0.788541469573975,-1.82573162155151,-1.98806099338531
5.9077902029073295,4.60620260238647,-2.7933195121765104,-1.23602486057281
5.908395896426408,2.50098043441772,0.43277179641723595,-0.0912055246353145
5.909001589945488,-1.06999368667603,4.68872150344849,-0.282807087135314
5.909607283464567,-1.05801858901978,0.109444159698486,2.07149711208344
5.9102129769836464,-0.464053745269775,-1.67724041061401,0.0644707448959355
5.910818670502726,-2.1788877296447797,-0.32644939498901404,0.8428520925521861
5.911424364021805,-1.84358499526978,0.9285408393859861,-1.24320991916656
5.912030057540884,-0.0209751319885254,-2.56100261764526,-0.627689899635314
5.912635751059964,4.63015279769897,-2.5226823051452603,-0.402558063697814
5.913241444579043,1.83276998519897,2.3631575386047396,-0.148685993385314
5.913847138098122,-2.00884134292603,3.9438704292297397,0.9410478933334361
5.9144528316172025,1.00169820785522,0.502227362823486,0.042915569114685505
5.915058525136281,-0.10959085464477501,-3.05437664108276,1.03924369411469
5.91566421865536,-0.5622495460510251,1.41233478469849,-0.529494098854064
5.91626991217444,-2.70339700698853,1.26384357376099,0.320737834739686
5.9168756056935194,-1.8986704444885298,-2.14187419967651,-1.35098579807281
5.917481299212598,2.42912984848022,-3.41362957077026,0.258467326927186
5.918086992731678,1.95012594223022,0.425586737823486,-0.11276070041656401
5.918692686250757,0.19218160629272502,3.91513019485474,-0.560629352760314
5.919298379769836,1.49028219223022,1.31653400344849,2.0116216238021902
5.919904073288916,0.6424452781677249,-0.800663262176514,-1.08992866916656
5.920509766807995,-0.947847690582275,-1.54551433639526,1.50148246364594
5.9211154603270755,-3.78594583511353,2.05180499954224,-1.07076851291656
5.921721153846154,-3.98712747573853,0.126209296417236,-0.6971454660415639
5.922326847365233,1.28910055160522,-4.43869793014526,0.435698772239686
5.922932540884313,3.50209859848022,-0.371954766082764,-2.1964276926040602
5.923538234403392,1.4375917625427201,2.57870929641724,0.7207060964584361
5.924143927922471,1.46154195785522,2.9595174018859898,-0.888747028541564
5.924749621441551,0.5801747703552249,-2.10834392623901,1.16378470973969
5.92535531496063,-2.01123636245728,-1.69640056686401,-0.16545113010406398
5.925961008479709,-3.66619485855103,1.42909992141724,0.7039409597396861
5.926566701998789,-3.19198099136353,0.38966144485473597,0.9051226003646861
5.927172395517868,0.905897426605225,-1.75627605514526,-1.76053413791656
5.927778089036947,4.47926656723022,-2.59453289108276,-1.40367622776031
5.928383782556027,2.64228658676147,0.375291327667236,-0.258856891822814
5.928989476075106,-0.9406626319885251,4.46837970657349,0.8021367605209361
5.929595169594185,-0.590989780426025,0.6914339057922361,1.39131156520844
5.930200863113265,-0.9406626319885251,-2.04846843795776,0.23451713161468601
5.930806556632344,-1.73820413589478,0.267515448760986,0.500364299583436
5.931412250151423,-1.99447122573853,-0.185143242645264,0.557844768333436
5.932017943670503,-0.191021518707275,-1.38504802780151,-1.99764107151031
5.932623637189582,4.08648336410522,-3.22921306686401,0.246492229270936
5.933229330708661,2.71653219223022,2.1212605659484898,-0.543864216041564
5.933835024227741,-1.72862405776978,4.2648030464172395,0.816506877708436
5.93444071774682,0.290377407073975,0.0375935737609863,1.09911918239594
5.935046411265899,0.671185512542725,-2.08918376998901,-0.6731952707290639
5.935652104784979,-1.34302591323853,0.202849921417236,0.914702678489686
5.936257798304058,-2.00165628433228,2.5595491401672397,-1.04202827854156
5.936863491823137,-2.1357773780822797,-2.39095623092651,-0.42411323947906404
5.937469185342217,2.86741842269897,-3.3154337699890104,-0.32591743869781403
5.938074878861296,2.3381191062927202,0.7081990425109861,-0.946227497291564
5.938680572380376,-0.392203159332275,3.2708699409484896,0.612930217552186
5.939286265899455,2.03395162582397,2.19550617141724,1.53022269802094
5.939891959418534,0.283192348480225,-1.46647869186401,-0.36663277072906403
5.940497652937614,-0.852046909332275,-0.8677238090515139,-0.747440876197814
5.941103346456693,-3.39555765151978,0.875850409698486,1.41765678005219
5.941709039975772,-3.7955259132385297,-0.218673516082764,-0.222931598854064
5.942314733494852,0.8747621726989749,-2.63045818405151,0.315947795677186
5.942920427013931,2.86262838363647,-0.810243340301514,-1.29111030979156
5.94352612053301,2.86741842269897,2.1835310737609896,-1.28153023166656
5.94413181405209,0.9609828758239749,2.23143146438599,0.766211467552186
5.944737507571169,-0.10240579605102501,-0.7431827934265139,-0.357052692604064
5.945343201090248,-1.00053812026978,-2.2975504692077604,1.46555717067719
5.945948894609328,-4.04939798355103,1.51053058547974,0.25128226833343603
5.946554588128407,-2.62436136245728,-0.793478203582764,0.0261504323959355
5.947160281647486,1.0567836570739702,-0.189933281707764,-0.7354657785415639
5.947765975166566,2.65665670394897,-1.83531169967651,0.371033244895936
5.948371668685645,5.1474770164489705,0.32260089797973596,-2.63711128635406
5.948977362204724,-1.15142435073853,2.3535774604797397,2.55529105739594
5.949583055723804,-2.04476663589478,1.70931720657349,0.447673869895936
5.950188749242883,-0.0113950538635254,-1.51916912155151,0.050100627708435506
5.950794442761962,-3.30454690933228,-0.060602227020263695,1.63081351833344
5.951400136281042,-0.931082553863525,1.93684406204224,-1.65515327854156
5.952005829800121,-0.15270120620727498,-4.364452324676511,0.6009551198959361
5.9526115233192005,3.31768209457397,-1.26050701217651,-2.4431147043228103
5.95321721683828,3.62663961410522,1.58717121047974,0.390193401145936
5.953822910357359,-1.15142435073853,4.06362140579224,0.790161662864686
5.954428603876439,-0.9358725929260251,0.387266425323486,1.00571342067719
5.955034297395518,-0.0353452491760254,-3.1214371879577603,-0.6540351144790639
5.955639990914597,-0.830491733551025,0.202849921417236,0.732681194114686
5.956245684433677,-1.46277688980103,2.36794757766724,0.196196819114686
5.956851377952756,-1.72622903823853,-2.1466642387390102,-0.917487262916564
5.957457071471835,1.75612936019897,-2.54184246139526,-0.340287555885314
5.958062764990915,2.14651754379272,0.26033039016723597,-0.146290973854064
5.958668458509994,0.44844869613647503,2.3607625190734898,-0.42411323947906404
5.9592741520290735,1.0783388328552201,2.04222492141724,1.29790580348969
5.959879845548153,0.170626430511475,-1.09046062545776,-0.785761188697814
5.960485539067232,-0.250897006988525,-0.556371269989014,0.945837932395936
5.961091232586311,-2.83512308120728,1.85301837844849,0.773396526145936
5.961696926105391,-3.9488071632385298,-0.362374687957764,-1.03723823947906
5.96230261962447,0.474793910980225,-3.9261637504577602,-0.0672553293228145
5.962908313143549,2.87939352035522,-0.0438370903015137,-2.56526070041656
5.9635140066626295,2.36206930160522,2.7391756050109897,1.88468558864594
5.964119700181708,1.35855611801147,3.0888484565734897,-0.30436226291656404
5.964725393700787,0.285587368011475,-2.38856121139526,0.155481487083436
5.965331087219867,-1.18495462417603,-1.96943279342651,0.306367717552186
5.9659367807389465,-3.56799905776978,2.20508624954224,0.7231011159896861
5.966542474258025,-2.81356790542603,0.43037677688598597,1.14941459255219
5.967148167777105,-0.0113950538635254,-2.1203190238952603,-2.5005951730728104
5.967753861296184,4.6349428367614705,-3.33938396530151,-0.661220173072814
5.9683595548152635,2.99435445785522,1.14409259719849,-0.378607868385314
5.968965248334343,-1.24483011245728,3.7977742378234898,1.36975638942719
5.969570941853422,-0.0736655616760254,1.15606769485474,-0.009774860572814459
5.970176635372502,-1.03167337417603,-1.77543621139526,0.047705608177185506
5.970782328891581,-1.50828226089478,0.308230780792236,1.04642875270844
5.97138802241066,-1.78849954605103,0.26033039016723597,-0.0528852121353145
5.97199371592974,-0.583804721832275,-1.74430095748901,-1.90902534885406
5.9725994094488195,3.60987447738647,-2.9058854301452604,-0.768996051979064
5.973205102967898,2.91292379379272,1.17522785110474,1.42005179958344
5.973810796486978,-1.31907571792603,5.06473956985474,0.315947795677186
5.974416490006057,0.019740200042724598,0.0112483589172363,0.526709514427186
5.9750221835251365,0.355042934417725,-2.87714519577026,0.00938529567718554
5.975627877044216,-0.626915073394775,0.444746894073486,0.48359916286468596
5.976233570563295,-2.18367776870728,2.0901253120422396,-0.400163044166564
5.976839264082374,-2.49024026870728,-2.0604435356140103,-1.31027046604156
5.977444957601454,2.77880270004272,-3.97885418014526,-0.321127399635314
5.978050651120533,2.37643941879272,0.8087898628234861,-0.148685993385314
5.978656344639612,0.038900356292724605,3.56306232376099,1.16617972927094
5.9792620381586925,2.1153822898864703,2.4038728706359898,0.102791057395936
5.979867731677771,0.453238735198975,-1.66287029342651,-0.187006305885314
5.98047342519685,-1.1969297218322799,-1.15033611373901,0.29199760036468597
5.98107911871593,-3.28778177261353,1.63507160110474,0.0309404714584355
5.9816848122350095,-5.07925638198853,-0.0989225395202637,-0.522309040260314
5.982290505754088,1.24359518051147,-3.2220280082702604,-0.687565387916564
5.982896199273168,3.48533346176147,-1.78980632858276,0.145901408958436
5.983501892792247,2.00760641098022,3.6876033393859897,-1.11866890354156
5.984107586311326,1.69146383285522,2.68169513626099,0.258467326927186
5.984713279830406,0.266427211761475,-1.42097332077026,0.6201152761459361
5.985318973349485,-1.44361673355103,-1.93829753952026,0.677595744895936
5.9859246668685655,-3.77876077651978,1.06026691360474,0.5602397878646861
5.986530360387644,-3.06743997573853,1.26384357376099,0.246492229270936
5.987136053906723,0.38857320785522503,-1.84968181686401,-0.768996051979064
5.987741747425803,4.69242330551147,-3.04958660202026,-1.59048775119781
5.9883474409448825,3.11410543441772,0.447141913604736,-0.369027790260314
5.988953134463961,-1.03167337417603,4.53304523391724,-0.0145648996353145
5.989558827983041,-0.413758335113525,0.466302069854736,1.71942924098969
5.99016452150212,-0.708345737457275,-2.16821941452026,1.69068900661469
5.990770215021199,-2.46868509292603,-0.036652031707763696,-0.251671833229064
5.991375908540279,-1.75975931167603,0.744124335479736,-0.982152790260314
5.991981602059358,0.0269252586364746,-2.10834392623901,-0.227721637916564
5.992587295578437,4.33796041488647,-2.77176433639526,-0.606134723854064
5.993192989097517,2.76443258285522,1.7212923042297401,-0.560629352760314
5.993798682616596,-1.7956846046447799,4.23366779251099,0.931467815208436
5.994404376135675,0.458028774261475,0.542942694854736,0.828481975364686
5.9950100696547555,-0.025765171051025403,-3.08072185592651,-0.0840204660415645
5.995615763173834,-0.8352817726135251,0.641138495635986,0.299182658958436
5.996221456692913,-1.82442483901978,1.88894367141724,0.040520549583435504
5.996827150211993,-2.32498392105103,-1.92392742233276,-1.40846626682281
5.997432843731072,2.7907777976989703,-4.0842350395202605,0.512339397239686
5.998038537250151,2.40278463363647,0.677063788604736,-0.768996051979064
5.998644230769231,-0.763431186676025,3.1654890815734897,0.969788127708436
5.99924992428831,2.02437154769897,2.00629962844849,0.8596172292709361
5.999855617807389,0.812491664886475,-1.10962078170776,-1.00610298557281
6.000461311326469,-0.425733432769775,-1.19823650436401,0.8835674245834361
6.001067004845548,-3.04827981948853,1.88175861282349,-0.11994575901031401
6.001672698364627,-4.89962991714478,-0.302499199676514,0.109976115989686
6.002278391883707,1.13581930160522,-3.0591666801452604,-1.53300728244781
6.002884085402786,3.02548971176147,-1.84249675827026,-0.666010212135314
6.003489778921866,1.72978414535522,3.10082355422974,-0.139105915260314
6.004095472440945,1.18611471176147,2.8062361518859897,-0.124735798072814
6.004701165960024,0.951402797698975,-1.33954265670776,0.699150920677186
6.005306859479104,-1.36218606948853,-2.0843937309265104,0.567424846458436
6.005912552998183,-4.15477884292603,1.17283283157349,0.735076213645936
6.006518246517262,-3.0770200538635297,1.31174396438599,-0.24448677463531399
6.007123940036342,0.383783168792725,-1.39702312545776,-1.31506050510406
6.007729633555421,4.57027730941772,-3.1645475395202602,-0.431298298072814
6.0083353270745,3.06860006332397,0.595633124542236,-1.69826363010406
6.00894102059358,-1.2520151710510299,3.95824054641724,0.866802287864686
6.009546714112659,-0.059295444488525396,0.981231269073486,1.87750053005219
6.010152407631738,-0.7562461280822751,-1.62454998092651,0.5243144948959361
6.010758101150818,-2.41359964370728,-0.125267754364014,0.45246390895843597
6.011363794669897,-1.44601175308228,0.6315584175109861,-0.8528217355728139
6.011969488188976,-0.44968362808227497,-1.91913738327026,-0.903117145729064
6.012575181708056,3.64579977035522,-2.76457927780151,-0.699540485572814
6.013180875227135,2.92489889144897,1.24947345657349,0.165061565208436
6.013786568746214,-1.42685159683228,4.97133380813599,0.6057451589584361
6.014392262265294,-0.188626499176025,0.427981757354736,1.03924369411469
6.014997955784373,0.5993349266052249,-2.6831486137390104,-0.10078560276031401
6.015603649303452,-1.06520364761353,0.744124335479736,0.459648967552186
6.016209342822532,-2.34893411636353,1.75003253860474,0.450068889427186
6.016815036341611,-2.12619729995728,-1.50240398483276,-1.68868355197906
6.0174207298606905,1.9381508445739701,-4.06746990280151,0.397378459739686
6.01802642337977,2.86741842269897,0.607608222198486,-0.622899860572814
6.018632116898849,-0.511954135894775,2.96430744094849,0.35187308864593597
6.019237810417929,1.97886617660522,2.4038728706359898,0.7254961355209361
6.019843503937008,0.6616054344177249,-1.01861003952026,0.280022502708436
6.020449197456087,-0.768221225738525,-1.2724821098327599,0.809321819114686
6.021054890975167,-3.13450052261353,1.83146320266724,-0.419323200416564
6.021660584494246,-4.87567972183228,-0.537211113739014,0.246492229270936
6.022266278013325,1.12863424301147,-3.01366130905151,-1.15459419651031
6.022871971532405,3.01830465316772,-1.80417644577026,-1.22883980197906
6.023477665051484,2.42912984848022,3.22296955032349,-0.299572223854064
6.024083358570563,1.43998678207397,2.5523640815734896,1.03205863552094
6.024689052089643,0.745431118011475,-1.50479900436401,0.25128226833343603
6.025294745608722,-1.41727151870728,-1.74430095748901,0.12913627223968602
6.025900439127801,-4.18591409683228,1.18959796829224,0.596165080833436
6.026506132646881,-2.99558938980103,1.07463703079224,0.311157756614686
6.02711182616596,0.297562465667725,-2.1179240043640104,-0.29478218479156404
6.027717519685039,4.39304586410522,-2.3598209770202603,-1.33901070041656
6.028323213204119,3.21469625473022,0.0447786323547363,-0.222931598854064
6.028928906723198,-1.02209329605103,4.09236164016724,0.160271526145936
6.029534600242277,-0.466448764801025,1.28539874954224,1.22845023708344
6.030140293761357,-1.28794046401978,-2.32868572311401,0.9410478933334361
6.0307459872804365,-2.00405130386353,0.059148749542236305,-0.21574654026031398
6.031351680799515,-1.88190530776978,0.46151203079223596,-0.36663277072906403
6.031957374318595,-0.155096225738525,-1.58862468795776,-0.737860798072814
6.032563067837674,3.68412008285522,-3.12622722702026,-0.32591743869781403
6.0331687613567535,2.95603414535522,1.48418537063599,-0.661220173072814
6.033774454875833,-1.44840677261353,4.10912677688599,1.84397025661469
6.034380148394912,-0.461658725738525,1.06984699172974,0.208171916770936
6.034985841913992,0.5993349266052249,-2.90349041061401,0.38300834255218597
6.035591535433071,-1.07957376480103,0.284280585479736,-0.0600702707290645
6.03619722895215,-1.79328958511353,2.5954744331359896,-0.627689899635314
6.03680292247123,-2.49263528823853,-2.7334440238952604,0.25128226833343603
6.037408615990309,2.03634664535522,-3.0926969535827604,-1.53061226291656
6.038014309509388,2.62791646957397,-0.11089763717651399,0.49317924098968596
6.038620003028468,-0.394598178863525,2.9882576362609896,0.5626348073959361
6.039225696547547,1.58129293441772,2.7727058784484897,-0.10557564182281401
6.039831390066626,0.7621962547302249,-1.46168865280151,-0.519914020729064
6.040437083585706,-0.6987656593322751,-1.02819011764526,0.169851604270936
6.041042777104785,-3.25904153823853,1.1225374214172401,0.9194927175521861
6.041648470623864,-3.96796731948853,0.701013983917236,-0.189401325416564
6.042254164142944,0.5346693992614749,-3.5836759574890102,-0.282807087135314
6.042859857662023,3.20511617660522,-1.61017986373901,-1.58330269260406
6.043465551181102,2.43631490707397,2.7391756050109897,0.270442424583436
6.0440712447001825,0.8747621726989749,2.90682697219849,0.07165580348968549
6.044676938219261,0.8340468406677249,-0.918019219207764,0.25128226833343603
6.04528263173834,-1.53223245620728,-2.16821941452026,0.533894573020936
6.04588832525742,-3.8889316749572798,1.31892902297974,0.397378459739686
6.0464940187764995,-3.22072122573853,0.806394843292236,0.569819865989686
6.047099712295578,0.129911098480225,-1.32277751998901,-1.04681831760406
6.047705405814658,4.13917379379272,-2.7166788871765104,-1.30308540744781
6.048311099333737,3.23864645004272,-0.127662773895264,-0.778576130104064
6.0489167928528165,-1.01251321792603,4.41568927688599,0.6823857839584361
6.049522486371896,-0.574224643707275,1.16804279251099,1.35778129177094
6.050128179890975,-0.931082553863525,-2.01014812545776,1.05600883083344
6.050733873410055,-1.8603501319885298,-0.0438370903015137,1.00331840114594
6.051339566929134,-1.66156351089478,0.12381427688598601,-0.800131305885314
6.051945260448213,-0.202996616363525,-1.13117595748901,-2.39521431369781
6.052550953967293,3.21469625473022,-3.5477506645202603,0.9793682058334361
6.0531566474863725,3.58113424301147,1.46502521438599,-0.22053657932281398
6.053762341005451,-1.80526468276978,4.37257892532349,0.909912639427186
6.054368034524531,-0.296402378082275,0.914170722198486,0.165061565208436
6.05497372804361,1.1382143211364701,-2.5633976371765104,-0.318732380104064
6.0555794215626895,-1.45559183120728,0.061543769073486305,0.787766643333436
6.056185115081769,-1.3334458351135299,2.4757234565734896,-0.47440864963531404
6.056790808600848,-2.98840433120728,-2.1873795707702604,-0.337892536354064
6.057396502119927,2.06748189926147,-3.09030193405151,-0.848031696510314
6.058002195639007,2.70934713363647,-0.441410332489014,0.481204143333436
6.058607889158086,-0.416153354644775,2.8828767768859898,0.153086467552186
6.059213582677165,1.9812611961364701,3.0026277534484898,0.35426810817718596
6.0598192761962455,0.968167934417725,-1.5934147270202599,0.567424846458436
6.060424969715324,-0.564644565582275,-0.779108086395264,0.141111369895936
6.061030663234403,-2.88541849136353,1.63028156204224,0.440488811302186
6.061636356753483,-4.8517295265197795,-0.391114922332764,-0.0696503488540645
6.0622420502725625,0.587359828948975,-2.7957145317077603,-1.17614937229156
6.062847743791641,3.36318746566772,-2.0772086723327603,-1.37972603244781
6.063453437310721,1.8399550437927201,2.6960652534484897,-0.227721637916564
6.0640591308298,1.43998678207397,3.3882258979797397,0.488389201927186
6.064664824348879,0.5179042625427249,-1.6317350395202599,0.6225102956771861
6.065270517867959,-1.48672708511353,-1.91913738327026,0.27283744411468597
6.065876211387038,-3.82666116714478,0.957281073760986,0.8045317800521861
6.0664819049061185,-3.26143655776978,1.20875812454224,0.00220023708343554
6.067087598425197,0.101170864105225,-1.58622966842651,-0.390582966041564
6.067693291944276,4.3092201805114705,-2.8555900199890103,-1.94016060276031
6.068298985463356,3.3296571922302203,-0.352794609832764,-0.6372699777603139
6.0689046789824355,-0.586199741363525,4.3845540229797395,0.7231011159896861
6.069510372501514,-0.8209116554260251,1.47221027297974,0.768606487083436
6.070116066020594,-0.773011264801025,-2.28557537155151,1.35778129177094
6.070721759539673,-1.96812601089478,0.0759138862609863,-0.297177204322814
6.071327453058752,-1.8507700538635299,0.475882147979736,-0.040910114479064494
6.071933146577832,-0.447288608551025,-1.27966716842651,-0.48398872776031404
6.072538840096911,3.22427633285522,-3.27950847702026,-1.17614937229156
6.07314453361599,3.72483541488647,1.41712482376099,-0.232511676979064
6.07375022713507,-2.02800149917603,3.95105548782349,1.71942924098969
6.074355920654149,0.285587368011475,1.2806087104797401,0.100396037864686
6.074961614173228,0.264032192230225,-2.5969279106140104,-0.16545113010406398
6.0755673076923085,-1.2017197608947798,0.26272540969848596,-0.210956501197814
6.076173001211387,-1.24483011245728,1.95121417922974,1.02966361598969
6.076778694730466,-2.51419046401978,-1.55988445358276,-0.9965229074478139
6.077384388249546,2.00521139144897,-3.38249431686401,-0.567814411354064
6.077990081768625,2.55606588363647,-0.10610759811401399,0.268047405052186
6.078595775287704,-0.10719583511352501,3.3020051948547398,0.826086955833436
6.079201468806784,1.77289449691772,2.2505916206359897,1.3721514089584401
6.079807162325863,1.00888326644897,-0.860538750457764,-0.565419391822814
6.080412855844942,-0.612544956207275,-1.61736492233276,1.46316215114594
6.081018549364022,-2.79201272964478,1.96558429641724,-0.649245075416564
6.081624242883101,-5.11757669448853,-0.290524102020264,0.356663127708436
6.08222993640218,0.9753529930114749,-2.4340665824890104,-1.2408148996353099
6.08283562992126,2.98477437973022,-2.14187419967651,-0.299572223854064
6.083441323440339,1.86869527816772,2.3104671089172397,0.042915569114685505
6.084047016959419,1.54536764144897,3.86483478469849,-1.4204413644790599
6.084652710478498,0.307142543792725,-1.71795574264526,1.74098441677094
6.085258403997577,-0.832886753082275,-1.88081707077026,-0.45285347385406405
6.085864097516657,-4.04460794448853,1.17043781204224,-0.124735798072814
6.086469791035736,-3.35484231948853,0.6914339057922361,1.61644340114594
6.087075484554815,0.14188619613647502,-1.01861003952026,-1.56414253635406
6.087681178073895,4.08887838363647,-3.0016862113952603,-1.35577583713531
6.088286871592974,3.75118062973022,-0.38632488327026404,-0.6516400949478139
6.088892565112053,-0.8400718116760251,4.20732257766724,0.23451713161468601
6.089498258631133,-0.6364951515197751,1.53687580032349,1.22366019802094
6.090103952150212,-0.590989780426025,-2.29515544967651,0.6632256277084361
6.090709645669291,-2.32019388198853,-0.165983086395264,0.931467815208436
6.091315339188371,-1.30231058120728,0.5932381050109861,-0.196586384010314
6.09192103270745,-0.193416538238525,-1.97182781295776,-1.27913521213531
6.092526726226529,3.36797750473022,-2.62806316452026,-1.05160835666656
6.093132419745609,3.3727675437927203,0.636348456573486,-0.045700153541564495
6.093738113264688,-1.7789194679260298,4.20971759719849,0.850037151145936
6.094343806783767,-0.200601596832275,1.3620393745422401,0.929072795677186
6.094949500302847,0.414918422698975,-2.56100261764526,0.26565238552093595
6.095555193821926,-1.08675882339478,0.32260089797973596,-0.0840204660415645
6.096160887341005,-1.65198343276978,2.21945636672974,0.512339397239686
6.096766580860085,-2.28187356948853,-1.67245037155151,-0.467223591041564
6.097372274379164,1.77049947738647,-3.8135978324890103,-0.579789509010314
6.097977967898244,2.90094869613647,0.0304085151672363,-1.28153023166656
6.098583661417323,-0.202996616363525,2.1140755073547397,1.76732963161469
6.099189354936402,1.63158834457397,3.6373079292297397,-0.0121698801040645
6.099795048455482,0.9537978172302249,-0.9635245903015139,-0.639664997291564
6.100400741974561,-0.236526889801025,-2.21611980514526,1.6715288503646901
6.10100643549364,-2.90218362808228,2.4829085151672396,-0.948622516822814
6.10161212901272,-5.32833841323853,-0.8461686332702639,0.651250530052186
6.102217822531799,0.810096645355225,-2.44125164108276,-1.45157661838531
6.102823516050878,2.82430807113647,-2.1035538871765103,-0.519914020729064
6.103429209569958,2.4914003562927203,2.4302180854797397,-0.689960407447814
6.104034903089037,1.51183736801147,2.8685066596984896,0.38540336208343595
6.104640596608116,0.5825697898864749,-0.7886881645202639,0.691965862083436
6.105246290127196,-0.713135776519775,-2.21851482467651,-0.11515571994781401
6.105851983646275,-3.91288187026978,0.981231269073486,0.569819865989686
6.106457677165354,-3.99431253433228,1.6015413276672401,0.227332073020936
6.107063370684434,0.105960903167725,-1.79699138717651,-1.27674019260406
6.107669064203513,4.19186422348022,-2.4963370903015103,-1.59527779026031
6.108274757722592,3.96912740707397,-0.254598809051514,-0.11515571994781401
6.108880451241672,-0.610149936676025,4.38694904251099,0.0620757253646855
6.109486144760751,-0.9741929054260251,1.71889728469849,2.16250785427094
6.11009183827983,-0.248501987457275,-2.1011588676452604,1.36736136989594
6.11069753179891,-2.33695901870728,-0.692887383270264,0.5099443777084359
6.1113032253179895,-1.88430032730103,1.35724933547974,-1.31027046604156
6.111908918837068,-0.9957480812072751,-1.88081707077026,-1.21446968479156
6.112514612356148,3.54999898910522,-2.89151531295776,-0.129525837135314
6.113120305875227,3.5955043601989702,0.32020587844848597,0.0932109792709355
6.1137259993943065,-1.84837503433228,4.02051105422974,0.100396037864686
6.114331692913386,-0.346697788238525,1.91049884719849,0.627300334739686
6.114937386432465,0.5825697898864749,-3.0687467582702603,0.629695354270936
6.115543079951545,-0.643680210113525,0.0663338081359863,-0.18461128635406399
6.116148773470624,-1.58971292495728,2.5260188667297396,0.514734416770936
6.116754466989703,-2.92852884292603,-1.91674236373901,-0.5917646066665639
6.117360160508783,2.08424703598022,-3.35375408248901,-0.998917926979064
6.117965854027862,2.94884908676147,0.032803534698486306,-0.048095173072814495
6.118571547546941,-0.6005698585510251,2.4493782417297396,0.35187308864593597
6.119177241066021,1.5405776023864701,3.35230060501099,-0.31394234104156404
6.1197829345851,0.812491664886475,-1.67484539108276,0.929072795677186
6.1203886281041795,0.20176168441772502,-1.14315105514526,0.186616740989686
6.120994321623259,-2.95966409683228,1.70931720657349,-0.268436969947814
6.121600015142338,-4.87807474136353,0.267515448760986,0.7398662527084361
6.122205708661417,0.345462856292725,-2.8819352348327603,-0.6755902902603139
6.122811402180497,2.95842916488647,-1.86165691452026,-1.24799995822906
6.123417095699576,2.16088766098022,2.4565633003234897,0.24409720973968602
6.124022789218655,1.05199361801147,3.25649982376099,0.07644584255218549
6.1246284827377355,0.7789613914489749,-0.975499687957764,0.617720256614686
6.125234176256814,-0.665235385894775,-2.28797039108276,0.102791057395936
6.125839869775893,-3.65900979995728,1.44347003860474,-0.42650825901031403
6.126445563294973,-3.73086038589478,1.0027864448547401,1.59249320583344
6.1270512568140525,0.14667623519897502,-1.50240398483276,-0.309152301979064
6.127656950333131,4.18707418441772,-2.77415935592651,-2.2107978097915604
6.128262643852211,3.8086610984802203,-0.381534844207764,-1.01807808322906
6.12886833737129,-0.947847690582275,4.03248615188599,0.878777385520936
6.1294740308903695,-0.732295932769775,1.90331378860474,1.25958549098969
6.130079724409449,-0.923897495269775,-2.03409832077026,0.23451713161468601
6.130685417928528,-2.04716165542603,-0.556371269989014,0.490784221458436
6.131291111447607,-1.48672708511353,0.926145819854736,-0.982152790260314
6.131896804966687,-0.945452671051025,-1.50958904342651,-1.17614937229156
6.132502498485766,3.14045064926147,-3.5405656059265103,0.241702190208436
6.133108192004846,4.12240865707397,0.940515937042236,-1.07076851291656
6.1337138855239255,-2.08308694839478,3.78819415969849,1.40089164333344
6.134319579043004,0.08440572738647459,2.21466632766724,-0.438483356666564
6.134925272562084,1.02564840316772,-3.07353679733276,0.428513713645936
6.135530966081163,-0.9813779640197751,-0.10131755905151399,0.809321819114686
6.1361366596002425,-1.1538193702697799,2.41824298782349,0.23451713161468601
6.136742353119322,-3.2135361671447797,-1.80657146530151,0.536289592552186
6.137348046638401,1.46872701644897,-3.5645158012390104,-1.66473335666656
6.13795374015748,2.76443258285522,-0.400695000457764,-1.29590034885406
6.13855943367656,-0.305982456207275,2.69846027297974,1.38412650661469
6.139165127195639,1.5525527000427202,3.3642757026672396,0.8596172292709361
6.139770820714718,0.8148866844177249,-0.810243340301514,0.145901408958436
6.1403765142337985,-0.277242221832275,-1.79699138717651,0.212961955833436
6.140982207752877,-2.4519199562072798,1.73566242141724,-0.28520210666656404
6.141587901271956,-4.91639505386353,-0.518050957489014,1.44160697536469
6.142193594791036,0.120331020355225,-2.01733318405151,-1.85154488010406
6.1427992883101155,2.74527242660522,-2.83403484420776,-0.23490669651031398
6.143404981829194,2.31656393051147,2.31525714797974,-0.46482857151031404
6.144010675348274,1.12863424301147,3.6804182807922396,-0.625294880104064
6.144616368867353,0.786146450042725,-1.1527311332702599,1.00571342067719
6.145222062386432,-0.749061069488525,-2.10834392623901,0.315947795677186
6.145827755905512,-3.94401712417603,0.942910956573486,0.220147014427186
6.146433449424591,-3.6494297218322798,1.13211749954224,0.36384818630218596
6.1470391429436715,-0.238921909332275,-1.45450359420776,-0.03851509494781449
6.14764483646275,3.87811666488647,-2.80768962936401,-1.82998970432281
6.148250529981829,3.81584615707397,-0.144427910614014,-1.4803168527603099
6.148856223500909,-0.9741929054260251,4.00614093704224,1.32904105739594
6.1494619170199885,-0.873602085113525,1.86499347610474,0.5817949636459361
6.150067610539067,-0.27005716323852497,-2.2807853324890104,1.08953910427094
6.150673304058147,-2.33456399917603,-0.640196953582764,0.6632256277084361
6.151278997577226,-1.6711435890197799,1.00518146438599,-1.21207466526031
6.151884691096305,-0.7754062843322751,-1.59580974655151,0.153086467552186
6.152490384615385,2.86502340316772,-3.07353679733276,-1.13543404026031
6.153096078134464,4.13917379379272,0.8710603706359861,-0.7330707590103139
6.153701771653543,-1.61366312026978,3.8241194526672397,1.95893119411469
6.154307465172623,-0.10719583511352501,2.49727863235474,-0.737860798072814
6.154913158691702,0.632865200042725,-3.35614910202026,1.13025443630219
6.155518852210781,-0.746666049957275,-0.204303398895264,-0.342682575416564
6.1561245457298615,-0.868812046051025,2.3727376167297396,-0.33549751682281403
6.15673023924894,-3.89611673355103,-1.89039714889526,-0.0600702707290645
6.157335932768019,1.88785543441772,-2.98731609420776,-1.40846626682281
6.157941626287099,2.62791646957397,-0.712047539520264,-0.153476032447814
6.158547319806178,-0.322747592926025,2.8325813667297397,-0.0241449777603145
6.159153013325257,2.16088766098022,2.36794757766724,1.21887015895844
6.159758706844337,0.493954067230225,-0.8246134574890139,-0.9342523996353139
6.160364400363416,-0.356277866363525,-1.60778484420776,0.39498344020843595
6.160970093882495,-3.00277444839478,1.50334552688599,0.191406780052186
6.161575787401575,-4.70323831558228,-0.11329265670776399,0.6656206472396861
6.162181480920654,0.0628505516052246,-2.51070720748901,-1.25997505588531
6.162787174439733,2.89615865707397,-2.5897428520202603,-1.16896431369781
6.163392867958813,2.32614400863647,2.23861652297974,-0.407348102760314
6.163998561477892,1.48549215316772,3.74508380813599,-0.428903278541564
6.164604254996972,0.850811977386475,-1.0928556449890099,1.3122759206771901
6.165209948516051,-1.28315042495728,-2.0700236137390102,-0.558234333229064
6.16581564203513,-3.46740823745728,0.495042304229736,1.42244681911469
6.16642133555421,-3.80510599136353,1.03631671829224,0.0644707448959355
6.167027029073289,0.19697164535522502,-1.00423992233276,-1.60725288791656
6.167632722592368,3.32247213363647,-2.9418107231140103,0.205776897239686
6.168238416111448,3.90925191879272,1.38359455032349,-2.16529243869781
6.168844109630527,-0.478423862457275,2.3463924018859896,2.36847953395844
6.169449803149606,-0.708345737457275,1.69255206985474,0.06686576442718549
6.170055496668686,-0.631705112457275,-1.22458171920776,1.07995902614594
6.170661190187765,-2.44952493667603,-0.793478203582764,1.41765678005219
6.171266883706844,-1.34063089370728,2.2170613471984897,-2.29941353244781
6.171872577225924,-1.46996194839478,-3.0424015434265104,0.735076213645936
6.172478270745003,3.97391744613647,-2.5897428520202603,-1.87070503635406
6.173083964264082,2.80514791488647,0.29386066360473595,0.711126018333436
6.173689657783162,-1.23045999526978,4.60250080032349,-0.148685993385314
6.174295351302241,0.611310024261475,1.4817903511047401,1.41765678005219
6.17490104482132,-0.631705112457275,-2.9489957817077603,0.735076213645936
6.1755067383404,-1.34781595230103,0.061543769073486305,-1.41804634494781
6.17611243185948,-1.03167337417603,1.23989337844849,1.8727104909896901
6.176718125378558,-2.68184183120728,-0.31686931686401404,-1.35577583713531
6.177323818897638,1.5525527000427202,-3.7633024223327602,-0.369027790260314
6.177929512416717,3.04943990707397,-0.403090019989014,-0.419323200416564
6.1785352059357965,-0.315562534332275,2.53080890579224,0.39498344020843595
6.179140899454876,1.88067037582397,2.74396564407349,0.438093791770936
6.179746592973955,0.228106899261475,-0.570741387176514,-0.6971454660415639
6.180352286493035,-0.583804721832275,-1.86165691452026,0.830876994895936
6.180957980012114,-2.1525425148010298,1.93684406204224,-0.658825153541564
6.181563673531193,-5.13194681167603,-0.134847832489014,1.46076713161469
6.182169367050273,0.5418544578552249,-2.41490642623901,-1.3006903879165599
6.182775060569352,2.88178853988647,-2.3143156059265104,-1.40128120822906
6.183380754088431,1.73457418441772,2.14281574172974,-0.292387165260314
6.183986447607511,1.99084127426147,3.59659259719849,0.217751994895936
6.18459214112659,0.367018032073975,-1.50000896530151,1.53980277614594
6.185197834645669,-1.12747415542603,-1.36349285202026,-1.62641304416656
6.185803528164749,-3.80031595230103,0.195664862823486,2.1170024831771896
6.186409221683828,-3.24946146011353,0.142974433135986,0.0237554128646855
6.187014915202907,0.9561928367614749,-1.32517253952026,-0.450458454322814
6.187620608721987,1.90462057113647,-0.10131755905151399,-1.20009956760406
6.188226302241066,2.81951803207397,-0.640196953582764,-1.73897896213531
6.188831995760145,2.3117738914489703,2.0565950386047396,0.320737834739686
6.1894376892792256,-1.2615952491760298,2.00150958938599,1.69547904567719
6.190043382798304,-1.3166806983947799,-0.697677422332764,-0.6947504465103139
6.190649076317383,-1.76933938980103,0.028013495635986298,0.885962444114686
6.191254769836463,-2.07829690933228,0.619583319854736,0.972183147239686
6.1918604633555425,0.022135219573974598,-2.04607341842651,-2.19163765354156
6.192466156874621,1.75133932113647,-3.34656902389526,-1.5617475168228099
6.193071850393701,4.05295309066772,1.3404841987609901,0.897937541770936
6.19367754391278,-0.08564065933227541,3.32356037063599,1.71703422145844
6.1942832374318595,-0.200601596832275,2.80144611282349,-1.25278999729156
6.194888930950939,-0.909527378082275,-3.6411564262390104,1.6116533620834401
6.195494624470018,-0.9981431007385251,-0.494100762176514,-1.72221382541656
6.196100317989098,-0.732295932769775,2.40147785110474,1.46076713161469
6.196706011508177,-2.16691263198853,-0.721627617645264,-0.318732380104064
6.197311705027256,1.8734853172302202,-2.87475017623901,-1.23123482151031
6.197917398546336,1.46393697738647,-0.855748711395264,-0.0361200754165645
6.198523092065415,0.704715785980225,1.91049884719849,-0.610924762916564
6.199128785584494,1.7202040672302201,2.21227130813599,1.64039359645844
6.199734479103574,-0.552669467926025,0.140579413604736,-1.09711372776031
6.200340172622653,-0.0329502296447754,-1.60778484420776,1.16857474880219
6.2009458661417325,-1.92501565933228,1.36922443313599,0.756631389427186
6.201551559660812,-4.39907083511353,-0.292919121551514,-0.541469196510314
6.202157253179891,-0.210181674957275,-3.01126628952026,0.713521037864686
6.20276294669897,1.78726461410522,-0.994659844207764,-1.76532417697906
6.20336864021805,2.66384176254272,1.19917804641724,0.31355277614593596
6.203974333737129,2.0555068016052203,3.45528644485474,-0.0720453683853145
6.204580027256208,0.165836391448975,-0.240228691864014,-0.543864216041564
6.2051857207752885,-0.749061069488525,-3.5669108207702602,1.99964652614594
6.205791414294367,-3.47698831558228,2.31765216751099,-0.563024372291564
6.206397107813446,-3.25185647964478,1.37161945266724,1.33622611598969
6.207002801332526,-0.5790146827697751,-1.4137882621765099,-0.9366474191665639
6.2076084948516055,2.56085592269897,-3.2986686332702604,-2.03117134494781
6.208214188370684,5.06365133285522,-0.616246758270264,-1.0827436105728099
6.208819881889764,-0.456868686676025,3.90794513626099,1.07037894802094
6.209425575408843,-0.986168003082275,2.4733284370422397,1.16378470973969
6.2100312689279225,-0.6820005226135251,-2.15145427780151,0.478809123802186
6.210636962447002,-2.64591653823853,-0.8629337699890139,0.876382365989686
6.211242655966081,-0.241316928863525,1.48658039016724,-1.47792183322906
6.21184834948516,-1.8507700538635299,-2.7023087699890103,-0.194191364479064
6.21245404300424,2.5943861961364703,-0.419855156707764,-2.62513618869781
6.213059736523319,3.54760396957397,-1.57425457077026,2.55768607692719
6.213665430042399,-0.5191391944885251,4.06362140579224,-0.7953412668228139
6.2142711235614785,-0.5790146827697751,2.5068587104797397,0.986553264427186
6.214876817080557,0.453238735198975,-3.29387859420776,0.7446562917709361
6.215482510599637,-0.294007358551025,0.760889472198486,-1.17614937229156
6.216088204118716,-1.46277688980103,1.6614168159484901,0.794951701927186
6.2166938976377955,-2.69621194839478,-1.66766033248901,-1.60725288791656
6.217299591156875,0.161046352386475,-3.2076578910827602,0.6225102956771861
6.217905284675954,2.94645406723022,0.0351985542297363,-0.699540485572814
6.218510978195033,0.903502407073975,1.92726398391724,0.368638225364686
6.219116671714113,1.6555385398864702,3.3115852729797397,0.0141753347396855
6.219722365233192,0.120331020355225,-1.46647869186401,0.5817949636459361
6.220328058752271,-0.248501987457275,-1.15033611373901,0.162666545677186
6.2209337522713515,-2.41359964370728,1.54406085891724,-0.29478218479156404
6.22153944579043,-4.18830911636353,-0.819823418426514,1.06558890895844
6.222145139309509,-0.9765879249572751,-1.45450359420776,0.208171916770936
6.222750832828589,2.34051412582397,-1.23895183639526,-2.03117134494781
6.2233565263476684,3.72962545394897,-0.38871990280151403,-1.02765816135406
6.223962219866747,1.8998305320739701,4.29593830032349,-0.5558393136978139
6.224567913385827,-0.8783921241760251,-0.189933281707764,1.64997367458344
6.225173606904906,-0.9167124366760251,-2.39095623092651,-0.687565387916564
6.225779300423985,-3.48896341323853,1.16564777297974,1.13743949489594
6.226384993943065,-2.98121927261353,1.01236652297974,0.7446562917709361
6.226990687462144,-0.511954135894775,-1.22697673873901,-0.9725727121353139
6.2275963809812245,2.58241109848022,-2.11552898483276,-0.809711384010314
6.228202074500303,5.42529928207397,-0.45817546920776403,-1.03244820041656
6.228807768019382,-0.0281601905822754,2.93077716751099,1.21647513942719
6.229413461538462,-1.8603501319885298,2.57152423782349,0.6799907644271861
6.2300191550575414,-0.7969614601135251,-2.2975504692077604,0.897937541770936
6.23062484857662,-1.65677347183228,-0.515655937957764,-0.10797066135406401
6.2312305420957,-0.787381381988525,-0.41506511764526405,0.28481254177093596
6.231836235614779,-0.272452182769775,0.116629218292236,-0.309152301979064
6.232441929133858,0.426893520355225,-0.482125664520264,-0.888747028541564
6.233047622652938,4.73553365707397,-2.15863933639526,-0.946227497291564
6.233653316172017,0.8819472312927249,3.28284503860474,-1.23362984104156
6.234259009691096,-3.37879251480103,2.2434065620422396,2.8522734792709397
6.234864703210176,0.668790493011475,-1.60059978561401,-1.16417427463531
6.235470396729255,-0.054505405426025395,-0.8677238090515139,0.359058147239686
6.236076090248334,-0.7011606788635251,1.80272296829224,0.371033244895936
6.2366817837674144,-2.54053567886353,-1.94548259811401,-1.53300728244781
6.237287477286493,-0.583804721832275,-2.5202872856140104,0.811716838645936
6.237893170805572,3.40869283676147,-0.218673516082764,-0.860006794166564
6.238498864324652,2.5512758445739703,1.94163410110474,-0.0289350168228145
6.239104557843731,-1.23285501480103,2.89724689407349,1.44639701442719
6.23971025136281,0.589754848480225,-0.45817546920776403,-1.40607124729156
6.24031594488189,0.467608852386475,-2.01493816452026,0.816506877708436
6.240921638400969,-2.41359964370728,2.04222492141724,0.11955619411468599
6.241527331920048,-3.35963235855103,0.00885333938598633,1.05600883083344
6.242133025439128,-2.52377054214478,-2.2975504692077604,-0.9342523996353139
6.242738718958207,3.40390279769897,-1.20542156295776,-1.27674019260406
6.2433444124772866,3.33923727035522,-0.522840996551514,0.9051226003646861
6.243950105996366,0.592149868011475,4.92103839797974,-2.33773384494781
6.244555799515445,-0.593384799957275,-1.71077068405151,3.37678275661469
6.245161493034525,0.165836391448975,-1.48084880905151,-1.70065864963531
6.245767186553604,-3.24227640151978,1.06745197219849,1.32185599880219
6.246372880072683,-2.90697366714478,1.1009822456359901,0.100396037864686
6.246978573591763,-1.2568052101135299,-1.40181316452026,-0.0864154855728145
6.247584267110842,2.28063863754272,-2.24486003952026,-1.88747017307281
6.248189960629921,5.24327779769897,-0.822218437957764,-1.89226021213531
6.248795654149001,0.0149501609802246,3.32356037063599,1.64039359645844
6.24940134766808,-1.53702249526978,2.8253963081359896,0.356663127708436
6.250007041187159,-0.789776401519775,-2.6855436332702602,1.72661429958344
6.250612734706239,-0.909527378082275,0.586053046417236,-0.218141559791564
6.251218428225318,-1.01969827651978,-0.223463555145264,0.31355277614593596
6.251824121744397,-1.90346048355103,-1.51916912155151,-2.39521431369781
6.252429815263477,1.54536764144897,-0.00551677780151367,-1.6599433176040599
6.253035508782556,4.76187887191772,-1.7131657035827599,3.79830619411469
6.253641202301635,-0.056900424957275396,3.1151936714172397,-1.25518501682281
6.254246895820715,-1.40529642105103,3.30919025344849,-0.8121064035415639
6.254852589339794,-0.123960971832275,-3.4639249809265102,2.2295684011459396
6.255458282858873,0.42928853988647503,0.617188300323486,-0.546259235572814
6.256063976377953,-1.2568052101135299,1.88175861282349,1.11109428005219
6.2566696698970325,-3.72367532730103,-1.57904460983276,-1.74376900119781
6.257275363416111,0.5394594383239749,-2.4173014457702604,-1.15698921604156
6.257881056935191,2.74766744613647,-1.94787761764526,1.8511553152084401
6.25848675045427,2.40996969223022,3.09603351516724,-0.0912055246353145
6.2590924439733495,0.551434535980225,3.06010822219849,1.79367484645844
6.259698137492429,-0.375438022613525,-0.570741387176514,-0.728280719947814
6.260303831011508,0.529879360198975,-1.68921550827026,0.07405082302093549
6.260909524530587,-2.73932229995728,0.5884480659484861,1.32425101833344
6.261515218049667,-4.28889993667603,0.940515937042236,-1.64796821994781
6.262120911568746,-1.5609726905822798,-4.6302994926452605,2.5936113698959398
6.262726605087826,3.4326430320739703,1.55364093704224,-3.2214960519790603
6.263332298606905,3.21709127426147,0.5525227729797361,1.20450004177094
6.263937992125984,1.42801168441772,1.81230304641724,-1.71502876682281
6.264543685645064,0.38857320785522503,0.844715155792236,-0.689960407447814
6.265149379164143,-1.68551370620728,-4.08663005905151,3.41989310817719
6.265755072683222,-2.04237161636353,3.04334308547974,-2.04793648166656
6.266360766202302,-4.61462259292603,-0.422250176239014,3.0558501394271897
6.266966459721381,-0.164676303863525,-0.374349785614014,-3.8178559152603104
6.26757215324046,2.67821187973022,-3.3848893363952604,1.8128350027084401
6.26817784675954,3.91404195785522,0.425586737823486,-2.35210396213531
6.268783540278619,1.6603285789489701,3.17746417922974,0.318342815208436
6.269389233797698,-2.65310159683228,1.61351642532349,2.3732695730209397
6.2699949273167785,-0.8951572608947751,-0.333634453582764,-1.60485786838531
6.270600620835857,-1.70227884292603,-2.2376749809265104,3.4438433034896896
6.271206314354936,-1.42685159683228,2.0901253120422396,-2.11978706760406
6.271812007874016,-0.770616245269775,-2.20893474655151,-0.33310249729156405
6.2724177013930955,1.73457418441772,-1.62934001998901,-1.62641304416656
6.273023394912174,3.85895650863647,0.34176105422973596,0.5602397878646861
6.273629088431254,0.398153285980225,2.38471271438599,1.0344536550521901
6.274234781950333,-1.5561826515197799,2.9092219917297397,-0.49596382541656403
6.274840475469413,-0.5359043312072751,-2.2999454887390103,0.7039409597396861
6.275446168988492,-0.0329502296447754,-0.932389336395264,0.330317912864686
6.276051862507571,-0.7610361671447751,3.45528644485474,0.32552787380218595
6.27665755602665,-3.01235452651978,-3.3513590629577603,0.814111858177186
6.27726324954573,1.08073385238647,-2.62806316452026,-2.2036127511978103
6.277868943064809,1.7968446922302201,0.7728645698547361,0.308762737083436
6.278474636583889,1.7202040672302201,1.41472980422974,0.349478069114686
6.279080330102968,1.56692281723022,3.2181795112609897,-0.11994575901031401
6.279686023622047,-0.926292514801025,-1.27727214889526,1.25958549098969
6.280291717141127,0.723875942230225,-1.39941814498901,-1.00849800510406
6.280897410660206,-2.33456399917603,1.80511798782349,0.938652873802186
6.281503104179285,-4.27692483901978,1.0411067573547401,0.06686576442718549
6.282108797698365,-0.9981431007385251,-3.8806583793640104,-0.321127399635314
6.282714491217444,2.26387350082397,-1.25092693405151,-1.52342720432281
6.283320184736523,3.19074605941772,1.48897540969849,0.636880412864686
6.283925878255603,1.92378072738647,3.45289142532349,-0.371422809791564
6.284531571774682,-0.871207065582275,-0.170773125457764,0.8212969167709361
6.285137265293761,-0.567039585113525,-2.83403484420776,0.0572856863021855
6.2857429588128415,-3.07462503433228,1.23031330032349,0.25128226833343603
6.28634865233192,-3.40034769058228,2.31525714797974,0.828481975364686
6.286954345850999,-0.502374057769775,-1.67245037155151,-0.6157148019790639
6.287560039370079,2.41715475082397,-3.1382023246765103,-1.03005318088531
6.2881657328891585,4.68284322738647,-0.498890801239014,-0.939042438697814
6.288771426408237,0.225711879730225,3.23015460891724,0.361453166770936
6.289377119927317,-1.66635354995728,2.82060626907349,1.73379935817719
6.289982813446396,-0.528719272613525,-2.55860759811401,2.4259600027084396
6.2905885069654754,-1.4963071632385299,0.0926790229797363,-0.977362751197814
6.291194200484555,-1.64719339370728,1.2207332221984901,-0.187006305885314
6.291799894003634,-0.931082553863525,-1.42576335983276,-0.8719818918228139
6.292405587522714,1.63637838363647,-3.40644451217651,-0.292387165260314
6.293011281041793,4.35951559066772,0.974046210479736,-1.56414253635406
6.293616974560872,-0.705950717926025,3.10082355422974,1.65715873317719
6.294222668079951,-0.567039585113525,2.8325813667297397,0.359058147239686
6.294828361599031,0.14667623519897502,-2.64482830123901,0.227332073020936
6.29543405511811,-0.442498569488525,-0.958734551239014,0.586585002708436
6.29603974863719,-0.418548374176025,3.3044002143859896,-0.5726044504165639
6.296645442156269,-3.7955259132385297,-2.18498455123901,-0.10078560276031401
6.297251135675348,0.805306606292725,-3.11425212936401,-1.57372261447906
6.297856829194428,2.4746352195739703,-1.28445720748901,0.646460490989686
6.298462522713507,0.644840297698975,2.67690509719849,-1.01807808322906
6.299068216232586,1.80881978988647,3.6181477729797398,0.06686576442718549
6.299673909751666,0.367018032073975,-0.656962090301514,1.11109428005219
6.300279603270745,0.149071254730225,-1.57425457077026,-0.46482857151031404
6.300885296789824,-2.4351548194885297,1.0411067573547401,0.931467815208436
6.3014909903089045,-4.73437356948853,0.8327400581359861,0.34229301052093597
6.302096683827983,-1.02927835464478,-2.12510906295776,-1.37733101291656
6.302702377347062,2.8338881492614703,-2.8627750785827604,-0.0959955636978145
6.303308070866142,2.97519430160522,1.81469806594849,-0.560629352760314
6.303913764385221,1.36334615707397,3.5247420112609897,-0.198981403541564
6.3045194579043,0.589754848480225,-0.185143242645264,0.718311076927186
6.30512515142338,-0.811331577301025,-2.72146892623901,0.308762737083436
6.305730844942459,-3.43387796401978,0.394451483917236,0.145901408958436
6.306336538461538,-3.64463968276978,1.63746662063599,0.426118694114686
6.306942231980618,-0.904737339019775,-1.19823650436401,-1.44439155979156
6.307547925499697,3.16919088363647,-2.89151531295776,-1.21207466526031
6.308153619018777,4.31880025863647,-1.05214031295776,-0.22053657932281398
6.308759312537856,0.153861293792725,3.5343220893859897,0.155481487083436
6.309365006056935,-1.12747415542603,2.5355989448547396,1.26677054958344
6.309970699576015,-0.713135776519775,-2.01014812545776,0.612930217552186
6.310576393095094,-1.91783060073853,-0.676122246551514,0.210566936302186
6.311182086614173,-1.53223245620728,0.159739569854736,0.31355277614593596
6.311787780133253,-0.746666049957275,-1.06411541061401,-1.09711372776031
6.312393473652332,1.95731100082397,-2.62087810592651,-0.9965229074478139
6.312999167171411,4.41460103988647,-0.374349785614014,-0.196586384010314
6.313604860690491,-0.993353061676025,3.60856769485474,0.8620122488021861
6.31421055420957,-0.495188999176025,2.66492999954224,0.672805705833436
6.314816247728649,0.544249477386475,-2.8028995903015104,0.5650298269271861
6.315421941247729,-0.5957798194885251,-0.29531414108276405,-0.5917646066665639
6.316027634766808,-0.583804721832275,2.14281574172974,0.7015459402084361
6.316633328285887,-3.25904153823853,-1.48563884811401,0.38540336208343595
6.317239021804967,0.8963173484802249,-3.0016862113952603,-1.25997505588531
6.317844715324046,2.66384176254272,-1.74430095748901,0.9434429128646861
6.318450408843125,0.436473598480225,2.5595491401672397,0.988948283958436
6.319056102362205,1.48309713363647,3.3810408393859896,0.17943168239593602
6.319661795881284,0.496349086761475,-0.831798516082764,0.696755901145936
6.320267489400363,0.120331020355225,-1.60299480514526,0.253677287864686
6.320873182919443,-2.34653909683228,1.27581867141724,-0.6971454660415639
6.321478876438523,-4.73676858901978,0.5309675971984861,0.9649980886459361
6.322084569957601,-0.8568369483947751,-1.83770671920776,-0.728280719947814
6.322690263476681,2.55367086410522,-2.9992911918640104,-0.740255817604064
6.32329595699576,2.50337545394897,1.33329914016724,-0.7330707590103139
6.3239016505148395,1.5022572898864701,3.8073543159484897,0.33510795192718595
6.324507344033919,0.690345668792725,-0.5467911918640139,1.59728324489594
6.325113037552998,-0.729900913238525,-2.14905925827026,-0.907907184791564
6.325718731072078,-3.11294534683228,0.229195136260986,1.43442191677094
6.326324424591157,-3.92006692886353,1.79314289016724,-0.143895954322814
6.326930118110236,-0.590989780426025,-0.8653287895202639,-0.728280719947814
6.327535811629316,3.16200582504272,-3.31303875045776,-0.625294880104064
6.328141505148395,4.6085976219177205,-0.561161309051514,-1.69826363010406
6.328747198667474,-0.33951272964477497,2.7751008979797396,1.56854301052094
6.329352892186554,-1.14663431167603,3.29003009719849,-0.009774860572814459
6.329958585705633,-0.140726108551025,-2.49154705123901,1.70505912380219
6.330564279224712,-1.90585550308228,-0.292919121551514,-0.227721637916564
6.331169972743792,-1.0819687843322798,0.518992499542236,0.397378459739686
6.331775666262871,-1.34781595230103,-1.27487712936401,-0.907907184791564
6.33238135978195,2.35248922348022,-1.90955730514526,-1.9593207590103099
6.33298705330103,4.33796041488647,-1.28685222702026,0.773396526145936
6.333592746820109,-0.7945664405822751,4.2648030464172395,-0.476803669166564
6.334198440339188,-0.495188999176025,2.67451007766724,1.71703422145844
6.334804133858269,0.5562245750427249,-2.3095255668640102,0.0572856863021855
6.335409827377347,-0.7179258155822751,-1.01621501998901,0.260862346458436
6.336015520896426,-1.18495462417603,2.5068587104797397,0.7997417409896861
6.336621214415506,-3.24946146011353,-1.2126066215515099,-0.378607868385314
6.3372269079345855,0.843626918792725,-3.0424015434265104,-2.1940326730728104
6.337832601453664,2.69976705551147,-1.38025798873901,-0.16066109104156398
6.338438294972744,0.297562465667725,1.88175861282349,0.759026408958436
6.339043988491823,1.7369692039489701,3.8504646675109897,-0.261251911354064
6.3396496820109025,0.826861782073975,-0.9850797660827639,1.34580619411469
6.340255375529982,0.295167446136475,-0.9443644340515139,-1.40607124729156
6.340861069049061,-2.19325784683228,0.42079669876098597,1.28832572536469
6.34146676256814,-4.86609964370728,0.657903632354736,0.260862346458436
6.34207245608722,-0.667630405426025,-1.77783123092651,-1.0611884347915599
6.342678149606299,2.60875631332397,-3.32261882858276,-0.23011665744781398
6.343283843125379,2.42194478988647,1.7212923042297401,-1.66233833713531
6.343889536644458,1.28431051254272,3.49600177688599,0.6847808034896861
6.344495230163537,0.769381313323975,0.49025226516723597,0.148296428489686
6.345100923682617,-0.8616269874572751,-2.9753409965515103,0.366243205833436
6.345706617201696,-3.05785989761353,0.454326972198486,0.478809123802186
6.346312310720775,-4.08292825698853,1.63028156204224,1.18054984645844
6.346918004239855,-1.1202890968322798,-0.5276310356140139,-1.56653755588531
6.347523697758934,3.12129049301147,-3.1118571098327603,-0.5773944894790639
6.348129391278013,4.43376119613647,-1.56946453170776,-0.49356880588531404
6.348735084797093,0.283192348480225,3.9438704292297397,-0.900722126197814
6.349340778316172,-1.34063089370728,2.47093341751099,2.4331450613021897
6.349946471835251,0.297562465667725,-1.36828289108276,0.596165080833436
6.3505521653543315,-2.39922952651978,-1.21500164108276,0.8428520925521861
6.35115785887341,-1.75017923355103,0.842320136260986,-1.00610298557281
6.351763552392489,-1.26878030776978,-1.0545353324890099,-1.09232368869781
6.352369245911569,2.47224020004272,-2.73104900436401,0.00459525661468554
6.3529749394306485,4.30443014144897,-0.482125664520264,-1.01328804416656
6.353580632949727,-0.7610361671447751,3.6013826362609898,0.6033501394271861
6.354186326468807,-0.770616245269775,2.86371662063599,1.02726859645844
6.354792019987886,0.831651821136475,-2.15624431686401,0.165061565208436
6.3553977135069655,-0.5981748390197751,-1.2341617973327599,0.356663127708436
6.356003407026045,-1.16339944839478,2.38231769485474,-0.349867634010314
6.356609100545124,-2.77285257339478,-0.697677422332764,-0.050490192604064496
6.357214794064203,0.350252895355225,-3.3345939262390103,-1.31266548557281
6.357820487583283,3.18356100082397,-1.66766033248901,-0.10557564182281401
6.358426181102362,0.297562465667725,1.71650226516724,0.0548906667709355
6.359031874621442,0.743036098480225,3.6133577339172396,-0.32352241916656405
6.359637568140521,1.32981588363647,-0.324054375457764,1.18773490505219
6.3602432616596,0.0652455711364746,-1.68682048873901,-0.6755902902603139
6.36084895517868,-2.01363138198853,1.21833820266724,0.0357305105209355
6.361454648697759,-4.83735940933228,0.5333626167297361,0.512339397239686
6.3620603422168385,-1.05083353042603,-1.43294841842651,-0.8145014230728139
6.362666035735918,2.96082418441772,-3.6148112113952604,0.40216849880218597
6.363271729254997,2.33093404769897,1.63746662063599,-2.1413422433853104
6.363877422774076,1.28910055160522,3.74508380813599,1.03205863552094
6.364483116293156,1.23401510238647,-0.0869474418640137,0.18422172145843602
6.365088809812235,-0.413758335113525,-2.39095623092651,-0.378607868385314
6.365694503331314,-3.48656839370728,0.35134113235473596,1.1326494558334401
6.3663001968503945,-3.78115579605103,1.65662677688599,0.8620122488021861
6.366905890369473,-1.21129983901978,-0.8270084770202639,-0.37621284885406403
6.367511583888552,3.68412008285522,-2.21851482467651,-2.01440620822906
6.368117277407632,4.19665426254272,-1.60059978561401,-0.5749994699478139
6.3687229709267115,0.19218160629272502,3.4337312690734896,0.236912151145936
6.36932866444579,-1.01730325698853,2.7631258003234898,1.87510551052094
6.36993435796487,-0.10480081558227501,-1.26050701217651,0.311157756614686
6.370540051483949,-2.04716165542603,-1.21979168014526,0.888357463645936
6.371145745003028,-1.68311868667603,0.935725897979736,-0.709120563697814
6.371751438522108,-1.41727151870728,-1.62934001998901,-0.0289350168228145
6.372357132041187,2.46026510238647,-2.11552898483276,-1.90184029026031
6.372962825560267,4.17509908676147,-1.47845378952026,0.181826701927186
6.373568519079346,-0.784986362457275,3.9965608589172397,-0.208561481666564
6.374174212598425,-0.545484409332275,2.94754230422974,0.972183147239686
6.374779906117504,0.350252895355225,-2.47238689498901,0.519524455833436
6.3753855996365845,-0.442498569488525,-0.48691570358276404,-1.29590034885406
6.375991293155663,-1.08915384292603,1.18480792922974,2.25112357692719
6.376596986674743,-2.6315464210510298,0.061543769073486305,-1.90663032932281
6.377202680193822,-0.0449253273010254,-3.2842985160827602,-1.57611763401031
6.377808373712901,3.28175680160522,-1.38504802780151,1.1326494558334401
6.378414067231981,0.314327602386475,1.88415363235474,0.555449748802186
6.37901976075106,0.8819472312927249,3.65886310501099,-0.280412067604064
6.379625454270139,1.4759120750427202,-0.185143242645264,0.43330375270843596
6.380231147789219,-0.15749124526977498,-1.97422283248901,0.6799907644271861
6.380836841308298,-1.81484476089478,1.17762287063599,0.153086467552186
6.381442534827377,-4.75832376480103,0.9692561714172361,0.557844768333436
6.3820482283464575,-1.02448831558228,-1.88800212936401,-0.7330707590103139
6.382653921865536,2.9105287742614703,-3.12383220748901,-1.13064400119781
6.383259615384615,2.31895895004272,1.51771564407349,-0.6133197824478139
6.383865308903695,1.10228902816772,3.2277595893859896,1.44879203395844
6.384471002422774,0.790936489105225,0.823159980010986,-0.25646187229156403
6.385076695941853,-0.308377475738525,-2.31910564498901,-0.124735798072814
6.385682389460933,-3.2303013038635298,-0.5443961723327639,1.93977103786469
6.386288082980012,-3.73804544448853,2.32244220657349,-0.318732380104064
6.386893776499091,-1.2400400733947798,-0.9060441215515139,-0.677985309791564
6.387499470018171,3.04225484848022,-2.42209148483276,-1.46115669651031
6.38810516353725,4.50561178207397,-1.62934001998901,-0.546259235572814
6.38871085705633,0.218526821136475,2.8325813667297397,0.533894573020936
6.389316550575409,-1.01251321792603,3.5678523628234897,0.409353557395936
6.389922244094488,-0.38980813980102497,-2.29515544967651,1.73619437770844
6.390527937613568,-2.01123636245728,-0.630616875457764,0.371033244895936
6.391133631132647,-1.53702249526978,0.727359198760986,-0.48398872776031404
6.391739324651726,-1.0723887062072799,-1.31559246139526,-0.546259235572814
6.392345018170806,2.07706197738647,-2.01972820358276,-1.77729927463531
6.392950711689885,4.27808492660522,-1.44971355514526,0.153086467552186
6.393556405208964,-0.569434604644775,3.99895587844849,-0.505543903541564
6.394162098728044,-0.9550327491760251,3.14632892532349,1.14941459255219
6.394767792247123,0.5370644187927249,-2.6089030082702602,0.5434746511459361
6.395373485766202,-0.533509311676025,-1.02819011764526,-0.783366169166564
6.395979179285282,-1.0029331398010302,2.21945636672974,1.16857474880219
6.396584872804361,-2.84949319839478,-0.48691570358276404,-0.618109821510314
6.39719056632344,0.182601528167725,-3.07114177780151,-1.55935249729156
6.39779625984252,3.07818014144897,-2.10594890670776,0.694360881614686
6.398401953361599,0.553829555511475,2.02306476516724,-0.0145648996353145
6.399007646880678,0.19697164535522502,3.3714607612609897,-0.131920856666564
6.399613340399758,1.74894430160522,0.0687288276672363,-0.141500934791564
6.400219033918837,-0.0712705421447754,-2.04367839889526,-0.045700153541564495
6.400824727437916,-2.3321689796447798,0.818369940948486,0.835667033958436
6.401430420956996,-4.14519876480103,0.976441230010986,0.689570842552186
6.402036114476076,-1.73820413589478,-2.17540447311401,-1.12585396213531
6.402641807995154,3.09734029769897,-2.86038005905151,-0.400163044166564
6.403247501514234,2.60157125473022,0.9309358589172361,-0.8935370676040639
6.403853195033313,1.1166591453552202,3.83130451126099,-0.141500934791564
6.4044588885523925,1.02085836410522,-0.33602947311401404,0.972183147239686
6.405064582071472,0.060455532073974604,-1.97422283248901,-1.57851265354156
6.405670275590551,-3.45782815933228,-0.10131755905151399,1.9709062917709401
6.406275969109631,-3.87935159683228,1.85062335891724,0.268047405052186
6.40688166262871,-1.10831399917603,-0.189933281707764,-1.21446968479156
6.407487356147789,2.85304830551147,-3.5214054496765104,-0.768996051979064
6.408093049666869,4.80977926254272,-1.40181316452026,-1.33182564182281
6.408698743185948,0.0484804344177246,3.1080086128234896,0.718311076927186
6.409304436705027,-1.04604349136353,3.16309406204224,1.40089164333344
6.409910130224107,-0.0976157569885254,-1.92153240280151,1.65955375270844
6.410515823743186,-1.8938804054260299,-1.28206218795776,0.232122112083436
6.411121517262265,-1.68551370620728,0.5716829292297361,-0.467223591041564
6.411727210781345,-1.49391214370728,-0.834193535614014,0.0644707448959355
6.412332904300424,1.98605123519897,-2.20174968795776,-1.47073677463531
6.412938597819503,4.35951559066772,-1.38504802780151,-0.742650837135314
6.413544291338583,-0.624520053863525,3.77621906204224,0.44527885036468595
6.414149984857662,-0.9622178077697751,3.2421297065734898,1.03684867458344
6.414755678376741,0.9753529930114749,-1.99577800827026,0.8021367605209361
6.415361371895822,-0.751456089019775,-0.7886881645202639,-0.946227497291564
6.4159670654149,-1.0029331398010302,1.88654865188599,0.591375041770936
6.416572758933979,-2.62196634292603,-0.6880973442077639,-0.397768024635314
6.417178452453059,-0.15270120620727498,-3.2723234184265104,-1.25997505588531
6.4177841459721385,3.23864645004272,-1.49282390670776,-0.09839058322906451
6.418389839491217,0.431683559417725,2.04940998001099,-0.208561481666564
6.418995533010297,0.951402797698975,3.2277595893859896,1.10630424098969
6.419601226529376,1.53099752426147,0.42319171829223595,-1.08513863010406
6.4202069200484555,0.00776510238647461,-2.1634293754577603,-0.282807087135314
6.420812613567535,-1.95136087417603,0.5692879096984861,1.68829398708344
6.421418307086614,-4.77748392105103,1.80032794876099,0.07884086208343549
6.422024000605693,-1.68311868667603,-2.12510906295776,0.0309404714584355
6.422629694124773,2.95842916488647,-3.6076261528015103,-1.16656929416656
6.423235387643852,3.02788473129272,1.55364093704224,-1.90902534885406
6.423841081162932,0.9753529930114749,3.13674884719849,1.94695609645844
6.424446774682011,1.34418600082397,1.06505695266724,-0.448063434791564
6.42505246820109,-0.056900424957275396,-2.38137615280151,-0.36423775119781404
6.42565816172017,-3.19437601089478,-0.810243340301514,1.48471732692719
6.426263855239249,-3.76199563980103,2.1044954292297398,-0.213351520729064
6.426869548758328,-1.6112681007385299,-0.441410332489014,0.196196819114686
6.427475242277408,3.0901552391052203,-2.08199871139526,-2.0000360910415598
6.428080935796487,4.78343404769897,-2.03170330123901,-0.47440864963531404
6.428686629315566,0.49874410629272503,2.67451007766724,-0.0217499582290645
6.429292322834646,-1.37416116714478,3.9797957221984896,0.5075493581771859
6.429898016353725,-0.07606058120727541,-1.98859294967651,2.67504203395844
6.430503709872804,-1.58731790542603,-0.872513848114014,-0.35465767307281404
6.4311094033918845,-1.7908945655822799,0.679458808135986,-0.246881794166564
6.431715096910963,-1.41248147964478,-1.09046062545776,-0.649245075416564
6.432320790430042,1.84953512191772,-2.2544401176452604,-1.79885445041656
6.432926483949122,4.28047994613647,-1.80178142623901,0.200986858177186
6.4335321774682015,-0.16228128433227498,4.40850421829224,-0.5941596261978139
6.43413787098728,-1.6543784523010299,2.38231769485474,2.96004935817719
6.43474356450636,1.2531752586364702,-1.23176677780151,-0.639664997291564
6.435349258025439,-0.507164096832275,-1.48084880905151,-0.258856891822814
6.4359549515445185,-1.0340683937072799,2.19790119094849,0.20338187770843602
6.436560645063598,-2.29384866714478,0.140579413604736,0.25128226833343603
6.437166338582677,-0.547879428863525,-3.7345621879577604,-0.18461128635406399
6.437772032101756,3.37037252426147,-1.33714763717651,-1.16417427463531
6.438377725620836,0.285587368011475,1.15127765579224,1.08953910427094
6.438983419139915,0.867577114105225,3.83609455032349,0.40216849880218597
6.439589112658994,1.69146383285522,0.145369452667236,0.972183147239686
6.440194806178074,-0.11198587417602501,-1.54311931686401,-0.6564301340103139
6.440800499697153,-1.56336771011353,0.21722003860473602,1.11588431911469
6.441406193216233,-4.46134134292603,1.44107501907349,-0.16545113010406398
6.442011886735312,-2.41359964370728,-1.88081707077026,0.196196819114686
6.4426175802543915,2.97519430160522,-3.1525724418640104,-0.8168964426040639
6.443223273773471,2.7309023094177203,1.17522785110474,-1.65036323947906
6.44382896729255,1.28910055160522,3.00981281204224,1.23084525661469
6.444434660811629,1.3825063133239701,0.957281073760986,0.0860259206771855
6.445040354330709,-0.653260288238525,-2.88672527389526,0.895542522239686
6.445646047849788,-2.89499856948853,0.394451483917236,0.153086467552186
6.446251741368867,-4.43499612808228,1.72847736282349,0.488389201927186
6.4468574348879475,-1.52983743667603,-0.513260918426514,-0.0792304269790645
6.447463128407026,3.18356100082397,-2.39574626998901,-1.48750191135406
6.448068821926105,4.39065084457397,-2.20174968795776,-1.04921333713531
6.448674515445185,0.846021938323975,3.32356037063599,-0.45285347385406405
6.4492802089642645,-1.2568052101135299,3.2541048042297396,2.12179252223969
6.449885902483343,0.0029750633239746097,-1.07848552780151,0.23451713161468601
6.450491596002423,-1.79807962417603,-1.14315105514526,0.11955619411468599
6.451097289521502,-1.62324319839478,0.43995685501098597,-0.0959955636978145
6.451702983040581,-1.0604136085510298,-0.714442559051514,-0.11036568088531401
6.452308676559661,1.68906881332397,-2.2831803520202603,-0.6755902902603139
6.45291437007874,4.06013814926147,-1.99577800827026,-0.31394234104156404
6.45352006359782,0.467608852386475,4.26001300735474,-0.43608833713531403
6.454125757116899,-1.84118997573853,2.69846027297974,1.84876029567719
6.454731450635978,0.946612758636475,-1.58143962936401,-0.728280719947814
6.455337144155058,-0.186231479644775,-1.63652507858276,0.538684612083436
6.4559428376741375,-1.20411478042603,2.21466632766724,0.759026408958436
6.456548531193216,-2.65549661636353,-0.00791179733276367,-0.249276813697814
6.457154224712296,-0.7227158546447751,-3.9405338676452604,-0.670800251197814
6.457759918231375,3.69609518051147,-1.04016521530151,-1.19770454807281
6.458365611750454,0.122726039886475,1.58238117141724,0.548264690208436
6.458971305269534,0.625680141448975,3.54629718704224,0.6608306081771861
6.459576998788613,1.83276998519897,0.356131171417236,0.042915569114685505
6.460182692307692,-0.286822299957275,-1.96703777389526,-0.5534442941665639
6.460788385826772,-1.7405991554260298,0.518992499542236,0.732681194114686
6.461394079345851,-4.56911722183228,1.53208576126099,0.241702190208436
6.46199977286493,-2.20283792495728,-2.25923015670776,0.136321330833436
6.4626054663840105,3.14045064926147,-2.7262589653015104,-2.17247749729156
6.463211159903089,2.35727926254272,-0.0893424613952637,0.0956059988021855
6.463816853422168,1.54536764144897,3.85525470657349,-0.10318062229156401
6.464422546941248,1.02804342269897,1.15127765579224,-0.0241449777603145
6.465028240460327,-0.569434604644775,-2.9058854301452604,0.409353557395936
6.465633933979406,-2.66507669448853,0.205244940948486,-0.0888105051040645
6.466239627498486,-4.26015970230103,0.976441230010986,1.75056449489594
6.466845321017565,-1.12507913589478,0.257935370635986,-1.13782905979156
6.467451014536644,2.76922262191772,-2.6160880668640103,-0.946227497291564
6.468056708055724,4.73792867660522,-2.4604117973327604,0.548264690208436
6.468662401574803,0.5753847312927249,3.23973468704224,-0.761810993385314
6.469268095093883,-1.7573642921447798,2.83737140579224,1.78888480739594
6.469873788612962,0.443658657073975,-0.939574394989014,0.596165080833436
6.470479482132041,-2.08787698745728,-1.01861003952026,-0.00498482151031446
6.471085175651121,-1.88190530776978,1.08182208938599,-0.0600702707290645
6.4716908691702,-1.0556235694885299,-1.0928556449890099,-0.0552802316665645
6.472296562689279,1.82558492660522,-2.1610343559265104,-1.80603950901031
6.472902256208359,4.55111715316772,-1.41139324264526,-0.457643512916564
6.473507949727438,-0.413758335113525,3.62533283157349,0.418933635520936
6.474113643246517,-1.33584085464478,3.7642439643859897,1.1326494558334401
6.474719336765597,0.862787075042725,-1.95506267623901,0.13871635036468602
6.475325030284676,-0.404178256988525,-1.74430095748901,-0.7330707590103139
6.475930723803755,-0.8185166358947751,2.00629962844849,1.13504447536469
6.476536417322835,-2.85907327651978,0.214825019073486,-0.450458454322814
6.477142110841914,-0.6412851905822751,-2.89151531295776,-1.50426704807281
6.477747804360993,3.44461812973022,-2.1706144340515103,0.485994182395936
6.478353497880073,0.496349086761475,1.62788654251099,-0.642060016822814
6.478959191399152,0.18739156723022501,3.85525470657349,0.29439261989593596
6.479564884918231,1.9381508445739701,0.236380194854736,0.854827190208436
6.480170578437311,-0.0377402687072754,-1.81854656295776,-0.337892536354064
6.48077627195639,-2.03518655776978,0.46151203079223596,1.09193412380219
6.481381965475469,-4.57390726089478,1.28779376907349,-0.148685993385314
6.481987658994549,-2.03997659683228,-1.94548259811401,0.287207561302186
6.482593352513629,3.0302797508239703,-3.1884977348327603,-1.15938423557281
6.483199046032707,2.62791646957397,0.880640448760986,-1.31506050510406
6.483804739551787,0.929847621917725,3.51516193313599,1.20450004177094
6.484410433070866,1.34418600082397,0.784839667510986,-0.428903278541564
6.4850161265899455,-0.0209751319885254,-2.40772136764526,0.5458696706771861
6.485621820109025,-3.08181009292603,-0.371954766082764,0.8212969167709361
6.486227513628104,-4.12364358901978,1.9009187690734901,-0.42650825901031403
6.486833207147184,-1.38853128433228,-0.165983086395264,0.339897990989686
6.487438900666263,2.74527242660522,-2.8124796684265103,-1.04921333713531
6.488044594185342,4.67805318832397,-1.85207683639526,-2.0000360910415598
6.488650287704422,0.743036098480225,2.60744953079224,0.598560100364686
6.489255981223501,-1.35739603042603,3.6037776557922396,1.05600883083344
6.48986167474258,0.115540981292725,-1.02100505905151,0.610535198020936
6.49046736826166,-1.70467386245728,-1.50719402389526,0.629695354270936
6.491073061780739,-1.65198343276978,1.01955158157349,-0.740255817604064
6.491678755299818,-1.11789407730103,-1.24134685592651,0.30397269802093596
6.492284448818898,1.53818258285522,-1.82094158248901,-1.63359810276031
6.492890142337977,3.93559713363647,-1.76585613327026,0.236912151145936
6.493495835857056,0.357437953948975,3.69478839797974,-0.412138141822814
6.494101529376136,-1.58492288589478,3.02657794876099,1.43921195583344
6.494707222895215,1.04720357894897,-1.48563884811401,-0.0912055246353145
6.495312916414294,-0.708345737457275,-1.46408367233276,-0.32591743869781403
6.4959186099333746,-1.04364847183228,2.14281574172974,0.7805815847396861
6.496524303452453,-2.3752793312072797,0.233985175323486,-0.26604195041656403
6.497129996971532,-0.478423862457275,-3.7968326957702603,-1.11148384494781
6.497735690490612,3.70088521957397,-1.70119060592651,-0.682775348854064
6.4983413840096915,0.43886861801147503,1.18480792922974,0.548264690208436
6.49894707752877,0.570594692230225,4.044461249542239,0.17464164333343601
6.49955277104785,1.5621327781677201,0.504622382354736,0.811716838645936
6.500158464566929,0.09159078598022459,-2.15863933639526,-0.129525837135314
6.5007641580860085,-1.52983743667603,0.238775214385986,0.713521037864686
6.501369851605088,-4.84933450698853,1.70931720657349,-0.886352009010314
6.501975545124167,-2.49982034683228,-2.0508634574890103,0.529104533958436
6.502581238643246,2.80754293441772,-2.80050457077026,-1.07316353244781
6.503186932162326,2.75485250473022,0.468697089385986,-1.23602486057281
6.503792625681405,1.04959859848022,3.13674884719849,0.790161662864686
6.504398319200485,1.10228902816772,1.50574054641724,-0.397768024635314
6.505004012719564,0.153861293792725,-2.64722332077026,0.6249053152084361
6.505609706238643,-2.96205911636353,-0.221068535614014,0.811716838645936
6.506215399757723,-4.10208841323853,1.98713947219849,-0.0936005441665645
6.506821093276802,-1.86993021011353,-0.510865898895264,0.114766155052186
6.507426786795881,2.52493062973022,-2.2304899223327603,-1.47073677463531
6.508032480314961,5.10915670394897,-2.12271404342651,-0.721095661354064
6.50863817383404,0.311932582855225,2.59068439407349,-0.340287555885314
6.509243867353119,-1.58731790542603,3.75466388626099,1.00571342067719
6.509849560872199,-0.0018149757385253899,-1.55030437545776,1.83918021755219
6.510455254391278,-1.86753519058228,-0.8868839653015139,-0.28520210666656404
6.511060947910357,-2.05674173355103,0.902195624542236,-0.10557564182281401
6.5116666414294375,-1.47235696792603,-0.42704021530151404,-0.16066109104156398
6.512272334948516,1.4591469383239701,-2.68075359420776,-1.0827436105728099
6.512878028467595,4.32119527816772,-1.59101970748901,-1.05400337619781
6.513483721986675,0.163441371917725,3.1678841011047396,0.677595744895936
6.5140894155057545,-2.06871683120728,3.3044002143859896,0.888357463645936
6.514695109024833,1.58129293441772,-1.2126066215515099,-0.10318062229156401
6.515300802543913,-0.729900913238525,-2.54184246139526,0.909912639427186
6.515906496062992,-0.9382676124572751,2.63858478469849,0.177036662864686
6.5165121895820715,-2.34414407730103,0.248355292510986,-0.419323200416564
6.517117883101151,-0.806541538238525,-3.45673992233276,-1.03005318088531
6.51772357662023,3.42306295394897,-1.8329166801452599,0.548264690208436
6.51832927013931,0.19218160629272502,1.3404841987609901,-0.761810993385314
6.518934963658389,0.7023207664489749,3.75466388626099,0.749446330833436
6.519540657177468,1.40406148910522,0.427981757354736,0.773396526145936
6.520146350696547,-0.0425303077697754,-1.66526531295776,-1.39888618869781
6.520752044215627,-1.41727151870728,0.31062580032348597,2.23196342067719
6.521357737734706,-4.62899271011353,1.70452716751099,-0.563024372291564
6.521963431253786,-2.22918313980103,-2.01493816452026,-0.278017048072814
6.522569124772865,2.91771383285522,-3.21005291061401,-0.177426227760314
6.5231748182919445,2.46266012191772,1.16804279251099,-1.35098579807281
6.523780511811024,1.50704732894897,3.21578449172974,1.17336478786469
6.524386205330103,1.0615736961364701,1.21115314407349,-0.39537300510406403
6.524991898849182,0.0556654930114746,-2.5059171684265102,0.34229301052093597
6.525597592368262,-2.73692728042603,-0.850958672332764,0.9003325613021861
6.526203285887341,-4.09729837417603,2.27933185501099,-0.189401325416564
6.52680897940642,-1.74778421401978,-0.503680840301514,1.25000541286469
6.5274146729255005,2.49858541488647,-2.01733318405151,-2.2898334543228103
6.528020366444579,4.64931295394897,-2.4604117973327604,-0.570209430885314
6.528626059963658,0.965772914886475,2.3895027534484896,-0.045700153541564495
6.529231753482738,-1.54420755386353,3.94866046829224,0.9841582448959361
6.5298374470018175,-0.509559116363525,-1.38983806686401,2.2702837331771897
6.530443140520896,-1.56576272964478,-1.0329801567077599,-0.340287555885314
6.531048834039976,-1.6807236671447798,0.356131171417236,0.0333354909896855
6.531654527559055,-0.828096714019775,-0.144427910614014,-0.400163044166564
6.532260221078134,1.00888326644897,-3.0184513481140103,-0.862401813697814
6.532865914597214,4.40981100082397,-1.25811199264526,-0.9318573801040639
6.533471608116293,0.252057094573975,2.93077716751099,1.14701957302094
6.534077301635373,-1.66156351089478,3.6133577339172396,0.308762737083436
6.534682995154452,1.0615736961364701,-1.50240398483276,0.574609905052186
6.535288688673531,-0.550274448394775,-2.51789226608276,0.754236369895936
6.535894382192611,-0.9574277687072751,2.57391925735474,-0.428903278541564
6.5365000757116904,-2.42317972183228,0.777654608917236,-0.661220173072814
6.537105769230769,-1.05083353042603,-3.8734733207702603,-0.36663277072906403
6.537711462749849,3.5092836570739703,-1.78741130905151,-1.45876167697906
6.538317156268928,0.501139125823975,1.08421710891724,0.105186076927186
6.538922849788007,0.493954067230225,3.20620441360474,1.59249320583344
6.539528543307087,2.0722719383239703,1.8194881050109901,-0.6923554269790639
6.540134236826166,-0.20778665542602498,-2.86038005905151,0.397378459739686
6.540739930345245,-1.2017197608947798,0.605213202667236,-0.0720453683853145
6.541345623864325,-4.39907083511353,1.06505695266724,1.4535820730209401
6.541951317383404,-2.8973935890197797,-1.41139324264526,-0.8360565988540639
6.542557010902483,2.67821187973022,-2.99689617233276,-1.5018720285415599
6.5431627044215634,2.93208395004272,0.0735188667297363,0.169851604270936
6.543768397940642,1.0615736961364701,3.42654621047974,-0.09839058322906451
6.544374091459721,0.9561928367614749,1.54406085891724,-0.658825153541564
6.544979784978801,0.0245302391052246,-2.3670060356140104,0.737471233177186
6.54558547849788,-2.48784524917603,-0.522840996551514,0.677595744895936
6.546191172016959,-4.1068784523010295,2.0565950386047396,-0.0241449777603145
6.546796865536039,-1.82202981948853,-0.400695000457764,0.440488811302186
6.547402559055118,2.44589498519897,-2.23527996139526,-1.09471870822906
6.548008252574197,4.47926656723022,-2.49154705123901,-0.986942829322814
6.548613946093277,1.10468404769897,2.8421614448547396,-1.10669380588531
6.549219639612356,-1.5010972023010298,3.6971834175109897,1.38891654567719
6.549825333131436,0.00776510238647461,-0.8461686332702639,1.00331840114594
6.550431026650515,-1.7573642921447798,-1.78741130905151,0.996133342552186
6.551036720169594,-1.94896585464478,0.9692561714172361,-1.09711372776031
6.551642413688674,-1.1801645851135298,-0.223463555145264,-0.297177204322814
6.552248107207753,0.6568153953552249,-2.60171794967651,-0.761810993385314
6.552853800726832,4.60141256332397,-1.32517253952026,-1.27913521213531
6.553459494245912,0.711900844573975,2.26496173782349,1.59728324489594
6.554065187764991,-1.71185892105103,4.32707355422974,0.0261504323959355
6.55467088128407,1.21245992660522,-1.46647869186401,0.835667033958436
6.55527657480315,-0.229341831207275,-2.1107389457702603,-0.5965546457290639
6.555882268322229,-0.8807871437072751,1.9607942573547401,0.0596807058334355
6.556487961841308,-2.16930765151978,0.720174140167236,0.596165080833436
6.557093655360388,-1.53223245620728,-3.2220280082702604,-1.05400337619781
6.557699348879467,3.47096334457397,-1.80896648483276,-0.845636676979064
6.558305042398546,0.8220717430114749,0.815974921417236,1.38173148708344
6.558910735917626,0.400548305511475,3.59180255813599,0.588980022239686
6.559516429436705,1.84953512191772,1.25426349563599,0.37342826442718596
6.560122122955784,-0.308377475738525,-2.32868572311401,0.260862346458436
6.560727816474865,-1.24483011245728,0.602818183135986,0.0333354909896855
6.561333509993943,-4.20028421401978,1.1009822456359901,0.378218303489686
6.561939203513022,-2.96684915542603,-1.42097332077026,-1.01807808322906
6.562544897032102,2.6111513328552203,-2.97773601608276,-0.824081501197814
6.5631505905511816,2.86262838363647,-0.0869474418640137,-0.0528852121353145
6.56375628407026,1.26754537582397,3.9127351753234896,-0.407348102760314
6.56436197758934,1.1334242820739702,1.63507160110474,-0.10078560276031401
6.564967671108419,-0.10719583511352501,-2.64482830123901,0.694360881614686
6.5655733646274985,-2.02081644058228,-0.800663262176514,0.8212969167709361
6.566179058146578,-4.2529746437072795,2.04222492141724,0.136321330833436
6.566784751665657,-2.51898050308228,0.495042304229736,-0.347472614479064
6.567390445184736,2.24950338363647,-2.42448650436401,-0.907907184791564
6.567996138703816,4.94390035629272,-2.68075359420776,-1.28392525119781
6.568601832222895,1.31065572738647,2.1667659370422396,0.0644707448959355
6.569207525741975,-1.18734964370728,4.03248615188599,0.986553264427186
6.569813219261054,0.14667623519897502,-1.00423992233276,1.34101615505219
6.570418912780133,-1.85316507339478,-1.00902996139526,-0.0600702707290645
6.571024606299213,-2.02081644058228,0.384871405792236,0.114766155052186
6.571630299818292,-0.847256870269775,-0.621036797332764,0.165061565208436
6.572235993337371,0.6352602195739749,-2.6400382621765104,-1.18812446994781
6.572841686856451,4.65170797348022,-1.58383464889526,-1.34140571994781
6.57344738037553,0.826861782073975,2.94754230422974,0.691965862083436
6.574053073894609,-2.0327915382385298,3.59180255813599,1.02726859645844
6.574658767413689,1.5190224266052201,-0.35518962936401405,-0.869586872291564
6.575264460932768,-0.768221225738525,-3.08072185592651,1.0943291433334401
6.575870154451847,-0.466448764801025,2.2362215034484896,0.0860259206771855
6.5764758479709275,-2.42557474136353,1.17762287063599,-0.0624652902603145
6.577081541490006,-1.2783603858947798,-4.04351970748901,0.229727092552186
6.577687235009085,4.18467916488647,-1.5934147270202599,-1.45636665744781
6.578292928528165,0.311932582855225,0.861480292510986,0.229727092552186
6.5788986220472445,0.414918422698975,3.7307136909484897,0.220147014427186
6.579504315566323,1.8399550437927201,0.942910956573486,0.29439261989593596
6.580110009085403,0.00537008285522461,-2.13947918014526,-0.36423775119781404
6.580715702604482,-1.29033548355103,0.26033039016723597,0.07165580348968549
6.581321396123562,-4.23860452651978,1.54645587844849,1.00571342067719
6.581927089642641,-2.71297708511353,-1.39941814498901,0.191406780052186
6.58253278316172,2.43870992660522,-2.58734783248901,-2.48143501682281
6.583138476680799,2.58241109848022,-0.556371269989014,0.224937053489686
6.583744170199879,1.8351650047302202,3.3475105659484896,0.428513713645936
6.584349863718958,0.965772914886475,2.01827472610474,-1.24320991916656
6.584955557238038,-0.164676303863525,-2.72386394577026,1.77451469020844
6.585561250757117,-1.92501565933228,-0.32644939498901404,0.390193401145936
6.586166944276196,-4.21465433120728,1.59675128860474,0.37342826442718596
6.586772637795276,-1.88430032730103,0.231590155792236,-0.201376423072814
6.587378331314355,2.18244283676147,-2.9250455863952602,-1.08513863010406
6.587984024833434,4.76187887191772,-2.02451824264526,-1.78208931369781
6.588589718352514,1.11905416488647,2.13802570266724,-0.5079389230728141
6.589195411871593,-1.24722513198853,3.7331087104797396,1.60446830348969
6.589801105390672,-0.44968362808227497,-0.530026055145264,1.13743949489594
6.590406798909752,-1.8555600929260299,-1.71795574264526,0.7446562917709361
6.591012492428831,-1.64000833511353,0.763284491729736,-0.5318891183853139
6.59161818594791,-1.58252786636353,-0.300104180145264,-0.0959955636978145
6.5922238794669905,0.805306606292725,-2.29276043014526,-0.898327106666564
6.592829572986069,4.75229879379272,-1.78501628952026,-1.18812446994781
6.593435266505148,0.8963173484802249,2.33920734329224,0.869197307395936
6.594040960024228,-1.72383401870728,4.12828693313599,0.914702678489686
6.5946466535433075,0.944217739105225,-0.494100762176514,0.0261504323959355
6.595252347062386,-0.744271030426025,-2.5466325004577604,-0.37381782932281404
6.595858040581466,-0.473633823394775,2.1308406440734897,0.191406780052186
6.596463734100545,-2.43275979995728,0.820764960479736,0.102791057395936
6.5970694276196244,-0.9981431007385251,-3.59565105514526,-0.43608833713531403
6.597675121138704,3.62184957504272,-1.50000896530151,-1.28871529026031
6.598280814657783,0.343067836761475,0.617188300323486,0.430908733177186
6.598886508176863,0.450843715667725,3.44331134719849,0.888357463645936
6.599492201695942,1.61003316879272,1.39796466751099,0.18422172145843602
6.600097895215021,-0.11198587417602501,-2.2903654106140103,0.390193401145936
6.6007035887341,-0.605359897613525,0.5908430854797361,0.24888724880218602
6.60130928225318,-4.24578958511353,1.32371906204224,0.514734416770936
6.601914975772259,-2.84230813980103,-0.975499687957764,-0.9534125558853139
6.602520669291339,2.50337545394897,-3.13341228561401,-0.9941278879165639
6.603126362810418,2.77640768051147,-0.680912285614014,-0.198981403541564
6.6037320563294974,1.86390523910522,3.87201984329224,-0.388187946510314
6.604337749848577,0.946612758636475,1.74045246047974,-0.0241449777603145
6.604943443367656,0.441263637542725,-2.2065397270202602,-0.0696503488540645
6.605549136886735,-2.38246438980103,-0.8270084770202639,0.481204143333436
6.606154830405815,-4.01826272964478,1.52969074172974,1.05361381130219
6.606760523924894,-2.47347513198853,0.5716829292297361,-0.31633736057281403
6.607366217443973,1.96928609848022,-2.3095255668640102,-1.08753364963531
6.6079719109630535,4.93192525863647,-2.85079998092651,-1.0013129465103099
6.608577604482132,1.43519674301147,2.2937019721984897,-0.40495308322906404
6.609183298001211,-1.65677347183228,4.51149005813599,1.68110892848969
6.609788991520291,-0.00900003433227539,-0.831798516082764,0.6225102956771861
6.61039468503937,-1.2783603858947798,-1.62454998092651,-0.146290973854064
6.611000378558449,-2.12619729995728,0.36331623001098595,0.311157756614686
6.611606072077529,-0.8759971046447751,0.346551093292236,-1.11866890354156
6.612211765596608,0.144281215667725,-2.66398845748901,-0.5534442941665639
6.612817459115687,4.87204977035522,-1.55748943405151,-0.958202594947814
6.613423152634767,1.16934957504272,2.30567706985474,0.996133342552186
6.614028846153846,-2.23636819839478,4.2049275581359895,0.727891155052186
6.614634539672926,1.28431051254272,-0.774318047332764,0.33510795192718595
6.615240233192005,-0.267662143707275,-2.32150066452026,-0.278017048072814
6.615845926711084,-0.8544419288635251,1.68536701126099,0.929072795677186
6.616451620230164,-2.26750345230103,1.15606769485474,-0.0936005441665645
6.617057313749243,-1.61366312026978,-2.8627750785827604,-0.967782673072814
6.617663007268322,3.68412008285522,-2.4628068168640103,-0.5079389230728141
6.618268700787402,1.32502584457397,1.31413898391724,-0.448063434791564
6.618874394306481,-0.0329502296447754,3.2277595893859896,1.25719047145844
6.61948008782556,2.06269186019897,1.7596126167297401,-0.622899860572814
6.62008578134464,-0.0329502296447754,-2.59453289108276,0.5075493581771859
6.620691474863719,-0.864022006988525,-0.0198868949890137,0.46204398708343597
6.621297168382798,-4.50445169448853,1.63507160110474,-0.251671833229064
6.621902861901878,-3.3500522804260298,-1.01861003952026,-0.297177204322814
6.622508555420957,2.64468160629272,-3.46871501998901,-0.299572223854064
6.623114248940036,3.17158590316772,-0.343214531707764,-0.500753864479064
6.623719942459116,1.2412001609802201,3.7570589057922397,-1.08753364963531
6.624325635978195,1.00409322738647,1.91049884719849,0.38300834255218597
6.624931329497274,0.311932582855225,-2.3670060356140104,0.828481975364686
6.625537023016354,-2.71537210464478,-0.692887383270264,0.040520549583435504
6.626142716535433,-3.86019144058228,1.61830646438599,0.814111858177186
6.626748410054512,-2.3752793312072797,0.32020587844848597,-0.287597126197814
6.627354103573592,2.24471334457397,-2.2807853324890104,-1.23123482151031
6.627959797092672,4.76666891098022,-2.5059171684265102,-1.65036323947906
6.62856549061175,1.5142323875427202,1.59675128860474,0.0548906667709355
6.62917118413083,-0.947847690582275,4.18337238235474,0.598560100364686
6.629776877649909,-0.322747592926025,-0.26896892623901403,1.1326494558334401
6.6303825711689885,-1.47714700698853,-1.91674236373901,0.816506877708436
6.630988264688068,-1.75017923355103,0.38008136672973597,-0.6157148019790639
6.631593958207147,-1.08675882339478,0.38008136672973597,-0.5103339426040641
6.632199651726227,0.285587368011475,-2.75499919967651,-0.22053657932281398
6.632805345245306,4.83372945785522,-1.57664959030151,-1.00610298557281
6.633411038764385,0.989723110198975,2.3439973823547398,0.938652873802186
6.634016732283465,-2.0160264015197797,3.78819415969849,0.5075493581771859
6.634622425802544,1.06396871566772,-0.194723320770264,0.632090373802186
6.635228119321623,-0.277242221832275,-2.9418107231140103,0.998528362083436
6.635833812840703,-0.447288608551025,2.12844562454224,-1.46355171604156
6.636439506359782,-2.28187356948853,1.01476154251099,0.8428520925521861
6.637045199878861,-1.76454935073853,-3.85191814498901,0.380613323020936
6.637650893397941,3.54760396957397,-1.61975994186401,-1.85393989963531
6.63825658691702,0.951402797698975,0.504622382354736,0.747051311302186
6.638862280436099,0.381388149261475,3.10082355422974,0.466834026145936
6.639467973955179,2.02197652816772,1.91289386672974,0.172246623802186
6.640073667474258,-0.164676303863525,-2.57537273483276,0.5099443777084359
6.640679360993337,-0.5814097023010251,0.169319647979736,-0.29478218479156404
6.641285054512418,-4.68407815933228,1.51771564407349,0.996133342552186
6.641890748031496,-2.78482767105103,-0.994659844207764,-0.297177204322814
6.642496441550575,2.25908346176147,-3.34896404342651,-1.22404976291656
6.643102135069655,2.95603414535522,-0.209093437957764,-0.943832477760314
6.6437078285887345,1.7202040672302201,2.90682697219849,0.196196819114686
6.644313522107813,0.7023207664489749,2.5427840034484896,-0.23969673557281398
6.644919215626893,0.208946743011475,-2.31192058639526,0.610535198020936
6.645524909145972,-1.88190530776978,-1.50000896530151,0.878777385520936
6.6461306026650515,-4.0733481788635295,2.1571858589172397,0.526709514427186
6.646736296184131,-2.50461038589478,0.0208284370422363,0.200986858177186
6.64734198970321,2.03634664535522,-2.26162517623901,-1.35817085666656
6.647947683222289,4.62296773910522,-2.4292765434265102,-0.828871540260314
6.648553376741369,2.27345357894897,1.42909992141724,0.00459525661468554
6.649159070260448,-1.64240335464478,4.06841144485474,1.29790580348969
6.649764763779528,-0.27005716323852497,0.056753730010986304,1.48232230739594
6.650370457298607,-1.22566995620728,-2.01493816452026,0.478809123802186
6.650976150817686,-2.20523294448853,1.05787189407349,-0.689960407447814
6.651581844336766,-1.5394175148010298,-0.058207207489013695,-0.0337250558853145
6.652187537855845,0.09159078598022459,-2.6831486137390104,-0.840846637916564
6.652793231374924,4.56548727035522,-1.33954265670776,-1.54258736057281
6.653398924894004,1.08073385238647,1.34527423782349,1.95653617458344
6.654004618413083,-1.67832864761353,4.52107013626099,0.34468803005218596
6.654610311932162,0.7550111961364749,-0.37674480514526404,0.7422612722396861
6.655216005451242,-0.260477085113525,-3.15736248092651,-0.000194782447814462
6.655821698970321,-0.665235385894775,2.00390460891724,-0.16066109104156398
6.6564273924894,-2.4183896827697797,0.962071112823486,0.691965862083436
6.6570330860084805,-1.75975931167603,-3.0591666801452604,-1.12824898166656
6.657638779527559,2.88657857894897,-2.19216960983276,-0.254066852760314
6.658244473046638,0.843626918792725,0.241170233917236,-0.194191364479064
6.658850166565718,0.398153285980225,3.48642169876099,-0.627689899635314
6.6594558600847975,1.89743551254272,1.97995441360474,0.7614214284896861
6.660061553603876,0.158651332855225,-2.2233048637390103,0.177036662864686
6.660667247122956,-0.631705112457275,-0.225858574676514,0.258467326927186
6.661272940642035,-4.25057962417603,1.73087238235474,0.236912151145936
6.661878634161115,-3.0339097023010297,-1.52156414108276,0.306367717552186
6.662484327680194,2.04113668441772,-2.78373943405151,-1.27434517307281
6.663090021199273,2.5345107078552203,-0.173168144989014,-0.9318573801040639
6.663695714718352,1.82318990707397,3.4481013862609897,-0.206166462135314
6.664301408237432,1.10947408676147,2.19790119094849,0.236912151145936
6.664907101756511,0.149071254730225,-2.65440837936401,1.5733330495834401
6.665512795275591,-1.87472024917603,-0.283339043426514,-1.35577583713531
6.66611848879467,-4.51163675308228,1.22791828079224,1.58291312770844
6.666724182313749,-2.24115823745728,0.617188300323486,0.13871635036468602
6.667329875832829,1.54776266098022,-2.37179607467651,-1.35098579807281
6.667935569351908,4.78343404769897,-2.46520183639526,-1.2623700754165599
6.6685412628709875,1.95731100082397,1.4219148628234901,0.00699027614593554
6.669146956390067,-0.986168003082275,4.09715167922974,1.28593070583344
6.669752649909146,-0.6149399757385251,-0.0869474418640137,0.5434746511459361
6.670358343428225,-1.28794046401978,-1.58862468795776,0.157876506614686
6.670964036947305,-1.92501565933228,0.46151203079223596,-0.000194782447814462
6.671569730466384,-1.51546731948853,-0.0701823051452637,-0.177426227760314
6.672175423985463,0.6208901023864749,-2.24486003952026,-1.10429878635406
6.6727811175045435,4.58225240707397,-1.76346111373901,-0.900722126197814
6.673386811023622,1.35376607894897,1.6997371284484901,0.32552787380218595
6.673992504542701,-2.01123636245728,4.18816242141724,0.270442424583436
6.674598198061781,0.563409633636475,-0.37674480514526404,1.4919023855209401
6.6752038915808605,-0.447288608551025,-2.68075359420776,-0.840846637916564
6.675809585099939,-0.456868686676025,1.82667316360474,0.406958537864686
6.676415278619019,-2.55730081558228,1.03631671829224,1.24042533473969
6.677020972138098,-1.29033548355103,-2.9394157035827604,-1.70544868869781
6.677626665657177,3.06620504379272,-2.5562125785827603,-0.5151239816665639
6.678232359176257,1.2795204734802201,0.803999823760986,0.34468803005218596
6.678838052695336,0.5801747703552249,3.42894123001099,0.268047405052186
6.679443746214416,1.26036031723022,1.9392390815734901,0.974578166770936
6.680049439733495,0.0676405906677246,-2.13947918014526,0.042915569114685505
6.680655133252574,-0.7179258155822751,0.0208284370422363,-0.0792304269790645
6.681260826771653,-4.39907083511353,1.25905353469849,1.07516898708344
6.6818665202907335,-3.02432962417603,-0.40788005905151403,-1.3006903879165599
6.682472213809812,1.8734853172302202,-3.37291423873901,-0.476803669166564
6.683077907328892,2.86262838363647,-0.870118828582764,-0.8336615793228139
6.683683600847971,1.66751363754272,3.3020051948547398,-0.18461128635406399
6.68428929436705,0.862787075042725,2.02785480422974,0.986553264427186
6.68489498788613,-0.0137900733947754,-1.73472087936401,-0.630084919166564
6.685500681405209,-1.7525742530822799,-1.18147136764526,-0.37621284885406403
6.686106374924288,-3.62547952651978,1.46502521438599,1.55896293239594
6.686712068443368,-2.52377054214478,0.5716829292297361,-0.00498482151031446
6.687317761962447,1.58368795394897,-2.3741910942077604,-0.838451618385314
6.687923455481526,4.65889303207397,-2.32868572311401,-1.6814984933853099
6.6885291490006065,1.7800795555114701,1.35245929641724,-0.23969673557281398
6.689134842519685,-1.28794046401978,4.31509845657349,0.754236369895936
6.689740536038764,-0.14791116714477498,-0.561161309051514,1.46795219020844
6.690346229557844,-1.42445657730103,-2.15624431686401,0.711126018333436
6.690951923076923,-1.94657083511353,0.940515937042236,-0.8719818918228139
6.691557616596002,-1.5010972023010298,-0.194723320770264,0.27283744411468597
6.692163310115082,0.235291957855225,-2.00296306686401,-1.39649116916656
6.692769003634161,4.68284322738647,-2.41251140670776,-0.27562202854156403
6.69337469715324,1.36334615707397,1.86020343704224,0.0117803152084355
6.69398039067232,-1.74538919448853,4.56897052688599,0.41414359645843596
6.694586084191399,0.652025356292725,-0.678517266082764,1.21168510036469
6.695191777710479,-0.430523471832275,-2.5562125785827603,-1.21207466526031
6.695797471229558,-0.8568369483947751,0.904590644073486,0.9793682058334361
6.696403164748637,-2.0926670265197798,1.39317462844849,-0.10318062229156401
6.697008858267717,-1.90106546401978,-3.01366130905151,-0.802526325416564
6.697614551786796,3.18595602035522,-2.5538175590515104,-0.927067341041564
6.698220245305875,1.26515035629272,0.607608222198486,-0.040910114479064494
6.698825938824954,0.08680074691772459,3.1319588081359897,0.632090373802186
6.699431632344034,1.82318990707397,1.82427814407349,0.0596807058334355
6.700037325863113,0.165836391448975,-2.27599529342651,0.447673869895936
6.700643019382193,-0.8951572608947751,0.0926790229797363,-0.10557564182281401
6.701248712901272,-3.8889316749572798,1.34527423782349,0.45246390895843597
6.701854406420351,-3.5296787452697798,-0.582716484832764,-0.481593708229064
6.702460099939431,1.84235006332397,-3.6076261528015103,-0.36663277072906403
6.70306579345851,2.99914449691772,-0.757552910614014,-0.7139106027603139
6.703671486977589,1.24599020004272,3.67562824172974,-0.0025898019790644602
6.704277180496669,1.1382143211364701,2.0542000190734897,0.608140178489686
6.704882874015748,0.412523403167725,-2.0939738090515103,0.12434623317718599
6.705488567534827,-1.82681985855103,-1.43534343795776,0.5434746511459361
6.706094261053907,-3.99670755386353,1.85062335891724,0.7422612722396861
6.706699954572986,-3.01474954605103,1.21354816360474,-0.498358844947814
6.707305648092065,1.3226308250427201,-2.10834392623901,-0.9534125558853139
6.707911341611145,4.96066549301147,-3.1214371879577603,-1.41086128635406
6.708517035130225,2.11059225082397,0.8135799018859861,-0.321127399635314
6.709122728649303,-1.5346274757385299,4.47556476516724,0.699150920677186
6.709728422168383,-0.0473203468322754,0.0495686714172363,1.77690970973969
6.710334115687462,-1.3214707374572798,-2.12510906295776,1.12306937770844
6.7109398092065415,-2.27947854995728,0.940515937042236,-0.677985309791564
6.711545502725621,-1.60408304214478,-0.508470879364014,0.7039409597396861
6.7121511962447,-0.023370151519775402,-1.98140789108276,-1.76771919651031
6.71275688976378,4.55351217269897,-1.76106609420776,-0.630084919166564
6.713362583282859,1.11186910629272,1.74524249954224,0.27523246364593595
6.713968276801938,-1.5178623390197798,4.21690265579224,0.30397269802093596
6.714573970321018,0.8388368797302249,-0.189933281707764,0.974578166770936
6.715179663840097,-0.14791116714477498,-2.2975504692077604,-0.565419391822814
6.715785357359176,-0.9358725929260251,0.9117757026672361,0.876382365989686
6.716391050878256,-1.94896585464478,2.04461994094849,-0.44327339572906405
6.716996744397335,-2.34174905776978,-3.01366130905151,-1.2623700754165599
6.717602437916414,3.60029439926147,-2.55142253952026,-0.929462360572814
6.718208131435494,1.50944234848022,0.142974433135986,1.64278861598969
6.718813824954573,-0.454473667144775,3.85525470657349,-0.6923554269790639
6.719419518473652,1.94054586410522,2.0805452339172397,0.646460490989686
6.720025211992732,0.0748256492614746,-2.4628068168640103,0.9218877370834361
6.720630905511811,-0.574224643707275,0.059148749542236305,-1.01328804416656
6.72123659903089,-4.3727256202697795,0.995601386260986,1.29311576442719
6.721842292549971,-3.35963235855103,0.0304085151672363,-0.8959320871353139
6.722447986069049,1.8998305320739701,-3.2316080863952603,0.12913627223968602
6.723053679588128,2.48182027816772,-1.13836101608276,-1.10908882541656
6.723659373107208,1.89264547348022,3.4481013862609897,-1.1809394113540599
6.7242650666262875,1.1549794578552202,1.82427814407349,1.68829398708344
6.724870760145366,0.117936000823975,-1.25811199264526,-0.48638374729156403
6.725476453664446,-2.02560647964478,-1.34672771530151,0.17943168239593602
6.726082147183525,-3.8721665382385297,1.30455890579224,0.878777385520936
6.7266878407026045,-2.20762796401978,0.657903632354736,0.00938529567718554
6.727293534221684,0.786146450042725,-2.25204509811401,-0.7330707590103139
6.727899227740763,4.65410299301147,-2.2999454887390103,-1.54737739963531
6.728504921259842,2.32135396957397,0.662693671417236,0.12195121364593599
6.729110614778922,-1.28075540542603,4.6575862495422395,0.339897990989686
6.729716308298001,-0.34909280776977497,-0.0941325004577637,1.42484183864594
6.730322001817081,-0.420943393707275,-1.58383464889526,0.337502971458436
6.73092769533616,-2.3321689796447798,0.763284491729736,0.26325736598968597
6.731533388855239,-1.60168802261353,0.130999335479736,-0.419323200416564
6.732139082374319,0.204156703948975,-2.3574259574890104,-1.19770454807281
6.732744775893398,4.26131978988647,-2.5897428520202603,-0.5773944894790639
6.733350469412477,1.76570943832397,1.89133869094849,-0.357052692604064
6.733956162931557,-1.73341409683228,4.03967121047974,1.2739556081771901
6.734561856450636,0.848416957855225,-0.158798027801514,1.32904105739594
6.735167549969715,-0.210181674957275,-2.8388248832702603,-0.907907184791564
6.735773243488795,-0.607754917144775,1.19917804641724,-0.201376423072814
6.736378937007874,-1.97770608901978,1.20396808547974,0.907517619895936
6.736984630526953,-1.8555600929260299,-2.01254314498901,-1.85154488010406
6.7375903240460335,2.57283102035522,-3.1286222465515103,0.160271526145936
6.738196017565112,1.80881978988647,0.7081990425109861,-0.0576752511978145
6.738801711084191,0.390968227386475,3.31637531204224,1.20689506130219
6.739407404603271,1.3561610984802202,1.37161945266724,1.63560355739594
6.7400130981223505,0.426893520355225,-1.10962078170776,-1.01328804416656
6.740618791641429,-0.8592319679260251,-0.949154473114014,1.45118705348969
6.741224485160509,-3.68775003433228,1.87457355422974,0.37342826442718596
6.741830178679588,-3.92725198745728,-0.532421074676514,-0.721095661354064
6.7424358721986675,1.4759120750427202,-3.5046403129577604,-0.630084919166564
6.743041565717747,3.26020162582397,-0.9874747856140139,-0.388187946510314
6.743647259236826,1.48788717269897,3.68520831985474,-0.768996051979064
6.744252952755905,0.824466762542725,2.12844562454224,0.529104533958436
6.744858646274985,0.467608852386475,-2.05325847702026,0.12195121364593599
6.745464339794064,-1.59210794448853,-1.55269939498901,0.114766155052186
6.746070033313144,-4.13561868667603,1.63746662063599,0.512339397239686
6.746675726832223,-2.63394144058228,0.621978339385986,0.514734416770936
6.747281420351302,0.8148866844177249,-1.76585613327026,-1.05400337619781
6.747887113870382,4.68044820785522,-2.3502408988952603,-2.12218208713531
6.748492807389461,2.42912984848022,0.176504706573486,0.00220023708343554
6.7490985009085405,-1.63521829605103,4.6504011909484895,0.375823283958436
6.74970419442762,-0.411363315582275,-0.0438370903015137,1.72421928005219
6.750309887946699,-0.8568369483947751,-1.77543621139526,0.299182658958436
6.750915581465778,-2.11661722183228,0.6914339057922361,-0.311547321510314
6.751521274984858,-1.2951255226135299,-0.13724285202026398,0.217751994895936
6.752126968503937,-0.44968362808227497,-2.2664152153015102,-0.962992634010314
6.752732662023016,4.7283485984802205,-1.84968181686401,-0.5558393136978139
6.7533383555420965,1.7537343406677202,1.53448078079224,0.768606487083436
6.753944049061175,-2.02321146011353,4.74620197219849,-0.503148884010314
6.754549742580254,0.647235317230225,-0.199513359832764,1.03684867458344
6.755155436099334,-0.210181674957275,-3.07353679733276,0.7231011159896861
6.7557611296184135,-0.6412851905822751,1.65183673782349,0.258467326927186
6.756366823137492,-2.43275979995728,1.08900714797974,0.689570842552186
6.756972516656572,-1.73820413589478,-1.97901287155151,-1.53300728244781
6.757578210175651,3.15482076644897,-2.9489957817077603,0.0548906667709355
