Time (s),Accel X (m/s^2),Accel Y (m/s^2),Accel Z (m/s^2),CI Value
4.0285,0.6649193555831909,-3.8530856234550503,-0.22991345500946,1.5343265229379344
4.02910569351908,0.571513593864441,-0.615019217205048,-2.12916394329071,1.5343265229379344
4.029711387038159,0.10927482433319101,1.1117898648262001,-0.11734753704070999,1.5343265229379344
4.030317080557238,-2.08456306629181,0.0172659390449524,0.24190539264679,1.5343265229379344
4.030922774076317,-1.1073950975418099,-0.346777029705048,0.77838976764679,1.5343265229379344
4.031528467595397,2.39891349620819,0.671106271076202,0.74006945514679,1.5343265229379344
4.0321341611144765,0.8253856641769409,1.61713898591995,0.0646739473342898,1.5343265229379344
4.032739854633555,1.33791984386444,2.8745242398262,-0.15327283000946,1.5343265229379344
4.033345548152635,0.569118574333191,-2.29153288908005,0.12933947467804,1.5343265229379344
4.033951241671715,-0.39128425769805897,-3.15852995939255,-1.87768689250946,1.5343265229379344
4.0345569351907935,-1.69656990222931,1.3225515835762,0.80713000202179,1.5343265229379344
4.035162628709873,-3.62216560535431,0.16815216951370202,-0.12692761516571,1.5343265229379344
4.035768322228952,0.6242040235519409,-1.49159636564255,-0.77837292766571,1.5343265229379344
4.036374015748032,2.7030809766769397,0.302273263263702,0.83826525592804,1.5343265229379344
4.036979709267111,3.2491454298019398,2.13925324373245,-1.07296033000946,1.5343265229379344
4.03758540278619,0.8852611524581909,2.5440115445136997,0.42871691608429,1.5343265229379344
4.03819109630527,-2.65697273426056,-0.425812674236298,-0.12932263469695998,1.5343265229379344
4.0387967898243495,-1.07865486316681,-3.6016085726738,0.81431506061554,1.5343265229379344
4.039402483343428,-1.7875806444168099,0.07474640779495241,-0.06465710735321019,1.5343265229379344
4.040008176862508,-1.68219978504181,0.845942696857452,0.58918322467804,1.5343265229379344
4.040613870381587,0.6265990430831909,-1.5562618929863,0.50775256061554,1.5343265229379344
4.0412195639006665,2.31508781261444,-0.286901541423798,-2.22256970500946,1.5343265229379344
4.041825257419746,3.0024584180831897,1.19082550935745,1.48252550983429,1.5343265229379344
4.042430950938825,-1.39479744129181,2.38354523591995,1.38911974811554,1.5343265229379344
4.043036644457905,-2.52045662097931,0.546565255451202,-1.27893200969696,1.5343265229379344
4.0436423379769835,0.0326341993331909,-3.38845183439255,1.05381701374054,1.5343265229379344
4.044248031496063,-0.561330644416809,0.17773224763870202,-0.6658070096969599,1.5343265229379344
4.044853725015143,-0.19249763660430902,0.776487130451202,-1.50645886516571,1.5343265229379344
4.045459418534222,-0.35296394519805896,-3.47946257658005,0.55565295124054,1.5343265229379344
4.046065112053301,1.07925773448944,1.25788605623245,-0.19159314250946,1.5343265229379344
4.046670805572381,1.31396964855194,2.0554275601386998,2.25611681842804,1.5343265229379344
4.04727649909146,-1.14811042957306,2.8026736538887,-0.66101697063446,1.5343265229379344
4.0478821926105395,-1.0475196092605599,-0.749140310955048,0.83587023639679,1.5343265229379344
4.048487886129618,1.65406242198944,-3.1321847445488,-1.14960095500946,1.5343265229379344
4.049093579648698,0.696054609489441,-0.947926932048798,-0.50055066204071,1.5343265229379344
4.049699273167778,-0.338593828010559,1.0064090054512,-0.45744031047821,1.5343265229379344
4.0503049666868565,-1.38042732410431,0.551355294513702,-0.76879284954071,1.5343265229379344
4.050910660205936,-1.51454841785431,-1.24251433439255,2.19624133014679,1.5343265229379344
4.051516353725015,2.4971092969894397,1.74168000154495,-1.28372204875946,1.5343265229379344
4.052122047244095,0.557143476676941,0.992038888263702,1.34121935749054,1.5343265229379344
4.052727740763174,1.20379875011444,3.4493289273262,-0.92686413860321,1.5343265229379344
4.053333434282253,0.593068769645691,-2.3418282992363,-0.35684949016571,1.5343265229379344
4.053939127801333,-0.44157966785430897,-3.0220138461113,-0.93883923625946,1.5343265229379344
4.0545448213204125,-1.67501472644806,1.89975129060745,0.12215441608429001,1.5343265229379344
4.055150514839491,-3.23896248035431,-0.983852225017548,1.61425158405304,1.5343265229379344
4.055756208358571,0.420627363395691,-1.1515035922050498,-0.92207409954071,1.5343265229379344
4.05636190187765,2.7988817579269396,0.728586739826202,-0.27062878704071,1.5343265229379344
4.0569675953967295,3.22280021495819,1.6243240445137002,0.76401965045929,1.5343265229379344
4.057573288915809,0.6433641798019409,3.3343679898262,-0.61551159954071,1.5343265229379344
4.058178982434888,-2.3001148241043103,-1.5610519320487999,0.46943224811554,1.5343265229379344
4.058784675953968,-1.49538826160431,-3.0651241976738,-0.009571658134460231,1.5343265229379344
4.059390369473046,-1.8259009569168099,0.558540353107452,-0.59874646282196,1.5343265229379344
4.059996062992126,-2.2737696092605604,0.268742989826202,-0.016756716728210202,1.5343265229379344
4.060601756511206,0.937951582145691,-1.1059982211113,0.30896593952179,1.5343265229379344
4.061207450030285,2.97132316417694,-1.05570281095505,-0.0933973417282102,1.5343265229379344
4.061813143549364,2.51147941417694,2.00992218904495,-0.81190320110321,1.5343265229379344
4.062418837068444,-1.63190437488556,3.0158303921699496,0.8717955293655401,1.5343265229379344
4.063024530587523,-2.45100105457306,-1.0293575961113,-0.29457898235321,1.5343265229379344
4.0636302241066025,1.2277489454269401,-5.012275076580051,-0.07663220500946019,1.5343265229379344
4.064235917625681,-1.17924568347931,2.0410574429512,0.48619738483429,1.5343265229379344
4.064841611144761,-1.85703621082306,4.5222976773262,-0.14369275188445998,1.5343265229379344
4.065447304663841,1.34989494152069,-5.9199874789238,-0.74244763469696,1.5343265229379344
4.066052998182919,2.5665648633956897,-1.4604611117363,-1.52082898235321,1.5343265229379344
4.066658691701999,-0.5301953905105591,4.10795929841995,1.97589953327179,1.5343265229379344
4.067264385221078,-1.2055908983230599,3.03020050935745,0.0383287324905398,1.5343265229379344
4.067870078740158,-0.427209550666809,0.196892403888702,1.68131213092804,1.5343265229379344
4.068475772259237,0.7870653516769409,-3.2423556429863,-1.36515271282196,1.5343265229379344
4.069081465778316,1.68280265636444,-3.4052169711113,-1.14481091594696,1.5343265229379344
4.069687159297396,-2.4462110155105603,1.99076203279495,-0.49336560344696,1.5343265229379344
4.0702928528164755,-0.127832109260559,1.50217804841995,-0.29218396282196,1.5343265229379344
4.070898546335554,0.940346601676941,-1.7406783968925499,2.38065783405304,1.5343265229379344
4.071504239854634,-0.11585701160430899,2.1943386929511997,-1.81541638469696,1.5343265229379344
4.072109933373713,-0.08232673816680909,-0.729980154705048,1.81543322467804,1.5343265229379344
4.072715626892792,1.06728263683319,2.1176980679511996,-0.36163952922821,1.5343265229379344
4.073321320411872,1.27804435558319,-0.938346853923798,-0.0215467557907102,1.5343265229379344
4.073927013930951,0.655339277458191,-2.0065255648613,-1.06338025188446,1.5343265229379344
4.074532707450031,-2.4198658006668103,2.2278689663886997,0.69456408405304,1.5343265229379344
4.075138400969109,-3.6341407030105604,-1.29520476408005,0.39997668170929,1.5343265229379344
4.075744094488189,1.57742179698944,-2.2627926547050503,-1.79146618938446,1.5343265229379344
4.076349788007269,1.17026847667694,0.671106271076202,1.33642931842804,1.5343265229379344
4.076955481526348,2.59770011730194,3.10205109529495,-1.04901013469696,1.5343265229379344
4.077561175045427,1.40977042980194,2.9080545132637,1.28134386920929,1.5343265229379344
4.078166868564507,-1.4283277147293099,-0.310851736736298,-0.92207409954071,1.5343265229379344
4.078772562083586,-0.228422929573059,-5.251777029705051,0.81431506061554,1.5343265229379344
4.079378255602665,-3.32518318347931,0.630390939044952,-0.74005261516571,1.5343265229379344
4.079983949121744,-2.65457771472931,1.8734060757637,-0.0550770292282102,1.5343265229379344
4.080589642640824,1.36666007823944,-1.6089523226737998,1.00352160358429,1.5343265229379344
4.081195336159904,2.86115226573944,-0.895236502361298,-2.44770154094696,1.5343265229379344
4.081801029678982,2.1546215040206897,-0.327616873455048,1.01310168170929,1.5343265229379344
4.082406723198062,-1.63908943347931,3.6553006070136997,0.0958092012405398,1.5343265229379344
4.083012416717141,-1.88817146472931,0.596860665607452,1.28373888874054,1.5343265229379344
4.083618110236221,0.935556562614441,-2.56456511564255,-0.27062878704071,1.5343265229379344
4.0842238037553,-1.23433113269806,-0.641364432048798,-1.30048718547821,1.5343265229379344
4.084829497274379,-0.635576249885559,-0.442577810955048,-0.77837292766571,1.5343265229379344
4.085435190793459,-0.0392163866043091,-3.12499968595505,1.08734728717804,1.5343265229379344
4.086040884312538,0.832570722770691,2.4194705288887,-0.85980359172821,1.5343265229379344
4.086646577831617,1.57263175792694,1.7871853726387001,1.48971056842804,1.5343265229379344
4.087252271350697,-0.525405351448059,1.86622101716995,0.11017931842804,1.5343265229379344
4.087857964869776,-0.467924882698059,-0.0761398226737976,0.19160998249054,1.5343265229379344
4.088463658388855,1.49838615245819,-3.0675192172050503,-0.79034802532196,1.5343265229379344
4.089069351907935,-0.235607988166809,-0.888051443767548,-0.77597790813446,1.5343265229379344
4.089675045427014,-0.676291581916809,0.503454903888702,-0.16524792766571,1.5343265229379344
4.090280738946094,-1.00201423816681,0.484294747638702,0.15089465045929001,1.5343265229379344
4.090886432465172,-1.82829597644806,-0.916791678142548,1.79866808795929,1.5343265229379344
4.091492125984252,3.2683055860519397,1.2602810757637,-1.54477917766571,1.5343265229379344
4.092097819503332,1.19421867198944,0.606440743732452,2.01182482624054,1.5343265229379344
4.0927035130224105,0.6433641798019409,3.8780374234199497,-1.04901013469696,1.5343265229379344
4.09330920654149,0.5284032423019409,-2.2029171664238003,0.0838341035842898,1.5343265229379344
4.09391490006057,-0.987644120979309,-3.9081710726738,-0.70652234172821,1.5343265229379344
4.094520593579649,-1.27983650379181,1.42553742341995,0.13412951374054,1.5343265229379344
4.095126287098728,-3.8161621873855602,-0.140805350017548,0.64666369342804,1.5343265229379344
4.095731980617807,0.288901289176941,-0.353962088298798,-0.6250916776657099,1.5343265229379344
4.096337674136887,3.6275585157394397,0.448369454669952,0.51972765827179,1.5343265229379344
4.096943367655967,2.8395970899581897,1.65545929841995,-0.21314831829071,1.5343265229379344
4.097549061175045,0.640969160270691,2.8936843960761998,0.68019396686554,1.5343265229379344
4.098154754694125,-2.62823249988556,-0.945531912517548,0.61313341999054,1.5343265229379344
4.098760448213204,-1.43311775379181,-2.7489816195488,0.99873156452179,1.5343265229379344
4.0993661417322835,-1.72052009754181,-0.291691580486298,0.15089465045929001,1.5343265229379344
4.099971835251363,-1.76363044910431,0.292693185138702,-0.74005261516571,1.5343265229379344
4.100577528770442,0.909211347770691,-1.40537566251755,0.27064562702179,1.5343265229379344
4.101183222289522,2.6360204298019396,-0.049794607830047605,-1.34120251750946,1.5343265229379344
4.101788915808601,2.8395970899581897,1.8350857632637,1.10890246295929,1.5343265229379344
4.10239460932768,-1.8905664842605598,2.43144562654495,1.03465685749054,1.5343265229379344
4.10300030284676,-1.93367683582306,-0.9718771273612979,-0.14608777141571,1.5343265229379344
4.103605996365839,-0.309853593635559,-3.3309713656425504,0.98436144733429,1.5343265229379344
4.104211689884918,-0.9684839647293091,2.0075271695137,-2.28723523235321,1.5343265229379344
4.104817383403998,-0.235607988166809,-0.8521261507987979,0.60115832233429,1.5343265229379344
4.105423076923077,0.0302391798019409,-2.4615792757988,-1.19271130657196,1.5343265229379344
4.1060287704421565,0.487687910270691,1.1237649624824502,0.33052111530304,1.5343265229379344
4.106634463961236,1.20140373058319,1.8901712124824501,2.34233752155304,1.5343265229379344
4.107240157480315,-0.5709107225418091,2.6565774624824496,-0.14129773235321,1.5343265229379344
4.107845850999395,-1.07386482410431,-0.356357107830048,0.54128283405304,1.5343265229379344
4.1084515445184735,1.1032079298019402,-3.2639108187675503,-1.55675427532196,1.5343265229379344
4.109057238037553,0.875681074333191,-1.2975997836113,-0.88854382610321,1.5343265229379344
4.109662931556633,0.482897871208191,1.4279324429512001,0.10059924030304,1.5343265229379344
4.110268625075712,-2.26897957019806,-0.13122527189254798,0.38800158405304,1.5343265229379344
4.110874318594791,-1.05949470691681,-0.586278982830048,0.46224718952179,1.5343265229379344
4.111480012113871,2.04924064464569,0.505849923419952,0.34489123249054,1.5343265229379344
4.11208570563295,0.561933515739441,1.9356765835762,-0.34247937297821,1.5343265229379344
4.1126913991520295,0.993037031364441,2.3548050015449498,0.77838976764679,1.5343265229379344
4.113297092671108,0.858915937614441,-1.87958952970505,-0.94123425579071,1.5343265229379344
4.113902786190188,-0.429604570198059,-3.1082345492363,-0.5053407011032099,1.5343265229379344
4.114508479709268,-1.7061499803543099,1.3369217007637,1.07058215045929,1.5343265229379344
4.1151141732283465,-3.49283455066681,0.307063302326202,-0.98194958782196,1.5343265229379344
4.115719866747426,-0.18291755847930902,-2.3561984164238003,0.9316710176467901,1.5343265229379344
4.116325560266505,3.0359886915206897,1.07107453279495,-0.26583874797821,1.5343265229379344
4.116931253785585,2.84199210948944,1.8877761929512,0.050303830146789796,1.5343265229379344
4.117536947304664,0.854125898551941,3.4253787320136997,-0.009571658134460231,1.5343265229379344
4.118142640823743,-2.27137458972931,-1.28562468595505,0.96999133014679,1.5343265229379344
4.118748334342823,-1.86661628894806,-3.59442351408005,-0.39277478313446,1.5343265229379344
4.1193540278619025,-1.21756599597931,1.1668753140449502,-1.41784314250946,1.5343265229379344
4.119959721380981,-2.63781257801056,0.0460061734199524,1.43223009967804,1.5343265229379344
4.120565414900061,0.468527754020691,-1.41016570158005,-1.18313122844696,1.5343265229379344
4.12117110841914,3.0623339063644397,-0.701239920330048,-0.82627331829071,1.5343265229379344
4.1217768019382195,2.58572501964569,1.0782595913887,2.42855822467804,1.5343265229379344
4.122382495457299,-0.975669023323059,3.6816458218574497,-0.83106335735321,1.5343265229379344
4.122988188976378,-2.6090723436355603,-0.543168631267548,0.66103381061554,1.5343265229379344
4.123593882495458,0.358356855583191,-2.7417965609550503,0.50296252155304,1.5343265229379344
4.1241995760145365,-0.487085038948059,0.508244942951202,-1.2741419706344599,1.5343265229379344
4.124805269533616,-0.345778886604309,-0.512033377361298,0.16047472858429002,1.5343265229379344
4.125410963052696,-0.168547441291809,-1.9466500765800498,-1.40107800579071,1.5343265229379344
4.126016656571775,0.530798261833191,0.273533028888702,0.95562121295929,1.5343265229379344
4.126622350090854,1.72112296886444,2.7356131070137,0.45027209186554,1.5343265229379344
4.127228043609934,-0.7529322069168091,1.8638259976387002,0.77359972858429,1.5343265229379344
4.127833737129013,-0.860708085823059,-0.35875212736129797,-0.16764294719696,1.5343265229379344
4.1284394306480925,1.48162101573944,-2.93339812345505,-0.67059704875946,1.5343265229379344
4.129045124167171,0.480502851676941,-1.5011764437675499,0.56283800983429,1.5343265229379344
4.129650817686251,0.135620039176941,1.71293976716995,-1.14481091594696,1.5343265229379344
4.13025651120533,-1.87380134754181,-0.301271658611298,0.22753527545929,1.5343265229379344
4.1308622047244095,-1.19122078113556,-0.650944510173798,0.13173449420929,1.5343265229379344
4.131467898243489,2.5138744337081897,0.515430001544952,0.50296252155304,1.5343265229379344
4.132073591762568,1.1247631055831901,1.83748078279495,0.61073840045929,1.5343265229379344
4.132679285281647,0.815805586051941,3.2577273648262,0.0622789278030398,1.5343265229379344
4.133284978800727,0.46613273448944104,-2.2795577914238003,-0.10537243938445999,1.5343265229379344
4.133890672319806,-0.024846269416809102,-3.36929167814255,-1.17594616985321,1.5343265229379344
4.134496365838886,-1.79955574207306,1.38721711091995,0.92688097858429,1.5343265229379344
4.1351020593579655,-3.28207283191681,0.268742989826202,-0.22991345500946,1.5343265229379344
4.135707752877044,0.0733495313644409,-1.48201628751755,-0.46941540813446,1.5343265229379344
4.136313446396124,2.6935008985519397,0.920188302326202,0.15568468952179002,1.5343265229379344
4.136919139915203,3.57965812511444,1.5620535367012,0.27064562702179,1.5343265229379344
4.1375248334342825,0.937951582145691,2.8122537320137,0.14610461139679,1.5343265229379344
4.138130526953362,-2.48692634754181,-1.16108367033005,0.36644640827179,1.5343265229379344
4.138736220472441,-1.28941658191681,-3.5201779086113003,0.22993029499054002,1.5343265229379344
4.139341913991521,-1.87380134754181,0.165757149982452,-0.0263367948532102,1.5343265229379344
4.1399476075106,-1.8857764451980599,0.9441384976387021,-0.49576062297821,1.5343265229379344
4.140553301029679,0.775090254020691,-1.80294890470505,-0.16524792766571,1.5343265229379344
4.141158994548758,2.3965184766769396,-0.775485525798798,-0.88854382610321,1.5343265229379344
4.1417646880678385,3.1748998243331896,2.0578225796699496,0.17963488483429,1.5343265229379344
4.142370381586917,-1.60555916004181,2.4074954312324497,1.07058215045929,1.5343265229379344
4.142976075105996,-2.45818611316681,-0.0929049593925476,-0.29218396282196,1.5343265229379344
4.143581768625076,0.310456464958191,-3.01003874845505,0.86700549030304,1.5343265229379344
4.1441874621441555,-1.16008552722931,0.18252228670120202,-1.01547986125946,1.5343265229379344
4.144793155663234,0.22663078136444098,0.695056466388702,-1.35796765422821,1.5343265229379344
4.145398849182314,-0.204472734260559,-3.1848751742363,0.75922961139679,1.5343265229379344
4.146004542701394,0.0661644727706909,1.07107453279495,-0.74723767375946,1.5343265229379344
4.146610236220472,1.51275626964569,2.14883332185745,1.76513781452179,1.5343265229379344
4.147215929739552,-0.827177812385559,2.12967316560745,0.70174914264679,1.5343265229379344
4.147821623258631,-0.855918046760559,0.333408517169952,-0.65143689250946,1.5343265229379344
4.148427316777711,0.952321699333191,-3.6063986117363003,-0.13890271282195998,1.5343265229379344
4.14903301029679,0.6457591993331909,-0.373122244548798,-1.82739148235321,1.5343265229379344
4.149638703815869,0.0589794141769409,0.438789376544952,0.48140734577179,1.5343265229379344
4.150244397334949,-1.53610359363556,0.486689767169952,-0.34487439250946,1.5343265229379344
4.1508500908540285,-1.62711433582306,-0.677289725017548,2.14594591999054,1.5343265229379344
4.151455784373107,2.29832267589569,0.711821603107452,0.026353634834289798,1.5343265229379344
4.152061477892187,1.41935050792694,1.8494558804512,-0.07902722454071019,1.5343265229379344
4.152667171411267,0.581093671989441,2.7835134976386997,0.58918322467804,1.5343265229379344
4.153272864930345,0.535588300895691,-1.88916960783005,-1.04901013469696,1.5343265229379344
4.153878558449425,-0.448764726448059,-3.4770675570488003,0.0526988496780398,1.5343265229379344
4.154484251968504,-1.71812507801056,1.4039822476387,0.0383287324905398,1.5343265229379344
4.155089945487584,-3.10005134754181,-0.0114742953300476,0.0479088106155398,1.5343265229379344
4.155695639006663,0.0613744337081909,-1.59697722501755,-0.45504529094696,1.5343265229379344
4.156301332525742,2.84678214855194,0.781277169513702,-0.0910023221969602,1.5343265229379344
4.156907026044821,3.41679679698944,1.5309182827949501,1.31966418170929,1.5343265229379344
4.1575127195639014,0.8421508008956909,3.2625174038886997,-0.0454969511032102,1.5343265229379344
4.15811841308298,-2.3528052537918103,-0.710819998455048,-0.12213757610321,1.5343265229379344
4.158724106602059,-1.60555916004181,-3.47467253751755,0.0886241426467898,1.5343265229379344
4.15932980012114,-1.76123542957306,0.374123849201202,-0.45025525188446,1.5343265229379344
4.159935493640218,-2.04145271472931,0.450764474201202,0.0287486543655398,1.5343265229379344
4.160541187159297,0.973876875114441,-0.756325369548798,-0.59156140422821,1.5343265229379344
4.161146880678377,2.66236564464569,-1.3742404086113,-0.55324109172821,1.5343265229379344
4.161752574197457,2.9162377149581897,1.3321316617012,0.96759631061554,1.5343265229379344
4.162358267716535,-1.48580818347931,3.0900759976387,0.68019396686554,1.5343265229379344
4.162963961235615,-2.7886988084793103,-0.231816092205048,-0.16285290813446,1.5343265229379344
4.163569654754694,0.36554191417694104,-2.77053679533005,0.40955675983429,1.5343265229379344
4.164175348273774,-0.855918046760559,0.0986966031074524,-1.03943005657196,1.5343265229379344
4.164781041792853,0.178730390739441,-0.0306344515800476,-0.60832654094696,1.5343265229379344
4.165386735311932,-0.364939042854309,-3.29265105314255,0.94843615436554,1.5343265229379344
4.165992428831013,0.940346601676941,1.51654816560745,-0.93404919719696,1.5343265229379344
4.166598122350091,1.2828343946456902,2.2326590054512,1.84656847858429,1.5343265229379344
4.16720381586917,-1.22954109363556,2.1991287320137,0.63468859577179,1.5343265229379344
4.16780950938825,-0.240398027229309,0.331013497638702,-0.41432995891571,1.5343265229379344
4.16841520290733,0.990642011833191,-3.2998361117363,-0.11974255657196,1.5343265229379344
4.169020896426408,0.33680167980194103,-1.0485177523612998,-0.79274304485321,1.5343265229379344
4.169626589945488,-0.0056861131668090705,1.0638894742012002,-0.44786023235321,1.5343265229379344
4.170232283464567,-1.5265235155105599,0.115461739826202,0.10538927936554,1.5343265229379344
4.1708379769836466,-1.33492195301056,-0.787460623455048,0.73527941608429,1.5343265229379344
4.171443670502726,2.09953605480194,0.821992501544952,-0.07423718547821019,1.5343265229379344
4.172049364021805,1.01698722667694,1.3465017788887002,0.96999133014679,1.5343265229379344
4.172655057540884,1.08165275402069,3.3104177945137,-0.9244691190719599,1.5343265229379344
4.173260751059964,0.729584882926941,-1.79336882658005,-0.43828015422821,1.5343265229379344
4.173866444579043,-0.204472734260559,-3.6447189242363,-0.9843446073532099,1.5343265229379344
4.174472138098122,-2.14443855457306,1.0303592007637001,0.69695910358429,1.5343265229379344
4.175077831617203,-3.5575000780105603,0.127436837482452,0.25388049030304,1.5343265229379344
4.175683525136281,0.468527754020691,-0.876076346111298,-0.81190320110321,1.5343265229379344
4.17628921865536,2.4372338087081897,0.316643380451202,1.25499865436554,1.5343265229379344
4.17689491217444,3.12699943370819,1.6770144742012,-0.58916638469696,1.5343265229379344
4.1775006056935196,1.06249259777069,2.7643533413887,0.0550938692092898,1.5343265229379344
4.178106299212598,-2.33125007801056,-1.07486296720505,0.84784533405304,1.5343265229379344
4.178711992731678,-1.6893848436355599,-2.80885710783005,-0.32331921672821,1.5343265229379344
4.179317686250757,-1.79476570301056,0.137016915607452,-0.08142224407196019,1.5343265229379344
4.1799233797698365,-1.8259009569168099,0.285508126544952,-0.0526820096969602,1.5343265229379344
4.180529073288916,0.894841230583191,-0.914396658611298,-1.09930554485321,1.5343265229379344
4.181134766807995,2.47555412120819,-0.871286307048798,-0.44307019329071,1.5343265229379344
4.181740460327076,2.6767357618331897,1.2602810757637,1.27655383014679,1.5343265229379344
4.182346153846154,-1.04991462879181,3.1523465054511997,0.6921690645217901,1.5343265229379344
4.182951847365233,-2.7551685350418103,-0.610229178142548,0.84305529499054,1.5343265229379344
4.183557540884313,0.126039961051941,-2.9310031039238003,-0.28499890422821,1.5343265229379344
4.1841632344033926,-1.02356941394806,0.151387032794952,-0.38798474407196,1.5343265229379344
4.184768927922471,0.133225019645691,0.501059884357452,-0.78076794719696,1.5343265229379344
4.185374621441551,-0.106276933479309,-2.73700652189255,-0.25386365032196,1.5343265229379344
4.18598031496063,0.250580976676941,0.5848855679512021,0.0191685762405398,1.5343265229379344
4.1865860084797095,1.77381339855194,2.42186554841995,1.31247912311554,1.5343265229379344
4.187191701998789,-0.8104126756668091,1.6386941617012,1.09932238483429,1.5343265229379344
4.187797395517868,-0.8894483201980591,0.6447610562324521,-0.77597790813446,1.5343265229379344
4.188403089036947,1.1247631055831901,-3.2279855257988,-0.06705212688446019,1.5343265229379344
4.189008782556027,0.657734296989441,-1.0149874789238,-1.48490368938446,1.5343265229379344
4.189614476075106,-0.0392163866043091,0.951323556232452,-0.06944714641571019,1.5343265229379344
4.190220169594185,-1.33252693347931,0.0891165249824524,0.81910509967804,1.5343265229379344
4.1908258631132655,-1.8091358201980599,-0.476108084392548,0.7113292207717901,1.5343265229379344
4.191431556632344,1.8432689649581901,0.702241524982452,-0.18440808391571,1.5343265229379344
4.192037250151423,1.53670646495819,1.43990754060745,0.49098742389679,1.5343265229379344
4.192642943670503,0.9020262891769409,3.0421756070137,0.0646739473342898,1.5343265229379344
4.1932486371895825,0.320036543083191,-1.9634152132987999,-0.46702038860321,1.5343265229379344
4.193854330708661,-0.40086433582305897,-3.79081511564255,-0.73526257610321,1.5343265229379344
4.194460024227741,-1.4283277147293099,2.0793777554512,-0.30655408000946,1.5343265229379344
4.19506571774682,-3.52157478504181,-0.5527487093925479,1.55437609577179,1.5343265229379344
4.1956714112658995,0.0326341993331909,-0.991037283611298,-1.61662976360321,1.5343265229379344
4.196277104784979,2.2408422071456897,0.383703927326202,0.40476672077179,1.5343265229379344
4.196882798304058,3.27070060558319,1.8015554898262,-0.38079968547820997,1.5343265229379344
4.197488491823137,1.26127921886444,3.5187844937324497,-0.59395642375946,1.5343265229379344
4.198094185342217,-2.46776619129181,-1.24730437345505,1.19751818561554,1.5343265229379344
4.198699878861296,-0.7888574998855591,-3.3932418734550502,-0.24428357219696,1.5343265229379344
4.199305572380376,-1.58879402332306,0.125041817951202,0.29459582233429,1.5343265229379344
4.1999112658994555,-2.20431404285431,0.709426583576202,-0.0263367948532102,1.5343265229379344
4.200516959418534,0.640969160270691,-0.897631521892548,-0.30415906047821,1.5343265229379344
4.201122652937614,2.40849357433319,-0.856916189861298,-0.71370740032196,1.5343265229379344
4.201728346456693,3.1222093946456897,1.03754425935745,0.67061388874054,1.5343265229379344
4.2023340399757725,-1.34929207019806,3.1427664273261997,0.72330431842804,1.5343265229379344
4.202939733494852,-2.8222290819168103,-0.210260916423798,0.20358508014679,1.5343265229379344
4.203545427013931,0.308061445426941,-3.00045867033005,0.0934141817092898,1.5343265229379344
4.20415112053301,-1.18164070301056,0.5250100796699521,-0.61072156047821,1.5343265229379344
4.20475681405209,0.37751701183319103,-0.207865896892548,-0.49336560344696,1.5343265229379344
4.205362507571169,0.262556074333191,-2.51666472501755,-1.29569714641571,1.5343265229379344
4.205968201090248,0.10208976573944101,0.536985177326202,0.42392687702179,1.5343265229379344
4.2065738946093285,1.70435783214569,1.8805911343574502,2.08607043170929,1.5343265229379344
4.207179588128407,-0.707426835823059,2.5488015835762,0.15568468952179002,1.5343265229379344
4.207785281647486,-0.764907304573059,-0.215050955486298,0.57720812702179,1.5343265229379344
4.208390975166566,1.13194816417694,-3.1226046664238,-1.64057995891571,1.5343265229379344
4.2089966686856455,0.571513593864441,-1.24730437345505,-0.56282116985321,1.5343265229379344
4.209602362204724,0.178730390739441,0.953718575763702,0.14849963092804,1.5343265229379344
4.210208055723804,-1.67501472644806,0.635180978107452,-0.28739392375946,1.5343265229379344
4.210813749242883,-1.57921394519806,-0.935951834392548,1.35319445514679,1.5343265229379344
4.2114194427619625,2.19533683605194,0.649551095294952,-0.49815564250946,1.5343265229379344
4.212025136281042,1.11278800792694,1.66503937654495,0.5125425996780401,1.5343265229379344
4.212630829800121,0.995432050895691,3.34155304841995,-0.27302380657196,1.5343265229379344
4.213236523319201,0.801435468864441,-1.88437956876755,0.0335386934280398,1.5343265229379344
4.21384221683828,-0.11585701160430899,-3.5034127718925503,-0.65143689250946,1.5343265229379344
4.214447910357359,-1.86182624988556,1.21956574373245,-0.38798474407196,1.5343265229379344
4.215053603876439,-3.4640943162918103,-0.19110076017379798,0.84305529499054,1.5343265229379344
4.2156592973955185,0.188310468864441,-0.907211600017548,-0.07184216594696019,1.5343265229379344
4.216264990914597,2.75098136730194,0.687871407794952,0.31375597858429,1.5343265229379344
4.216870684433677,2.95695304698944,1.4710427945137001,0.45745715045929003,1.5343265229379344
4.217476377952756,1.11997306652069,3.2577273648262,-0.46462536907196,1.5343265229379344
4.2180820714718354,-2.20191902332306,-1.36226531095505,1.71005236530304,1.5343265229379344
4.218687764990915,-1.45946296863556,-3.05314910001755,-0.16285290813446,1.5343265229379344
4.219293458509994,-1.67980476551056,0.527405099201202,-0.52689587688446,1.5343265229379344
4.219899152029074,-2.13485847644806,0.199287423419952,0.82629015827179,1.5343265229379344
4.220504845548153,0.9235814649581909,-0.607834158611298,-1.53759411907196,1.5343265229379344
4.221110539067232,2.36538322277069,-1.59697722501755,0.0790440645217898,1.5343265229379344
4.221716232586311,3.08149406261444,1.46385773591995,-0.13890271282195998,1.5343265229379344
4.2223219261053915,-1.07146980457306,3.05894074373245,1.47534045124054,1.5343265229379344
4.22292761962447,-2.8294141405105604,0.175337228107452,0.50056750202179,1.5343265229379344
4.223533313143549,0.233815839958191,-2.5621700961113003,-0.90051892375946,1.5343265229379344
4.224139006662629,-0.7098218553543091,-1.1083932406425498,0.78557482624054,1.5343265229379344
4.2247447001817084,0.0446092969894409,1.33452668123245,-2.57224255657196,1.5343265229379344
4.225350393700787,-0.604440995979309,-2.9405831820488,0.65863879108429,1.5343265229379344
4.225956087219867,0.657734296989441,0.474714669513702,0.33531115436554,1.5343265229379344
4.226561780738947,2.06840080089569,2.73800812654495,0.29459582233429,1.5343265229379344
4.227167474258025,-1.30618171863556,1.3465017788887002,1.76513781452179,1.5343265229379344
4.227773167777105,-0.7912525194168091,0.8435476773262021,-0.8454334745407099,1.5343265229379344
4.228378861296184,1.0912328321456901,-3.6686691195488,0.12933947467804,1.5343265229379344
4.228984554815264,0.449367597770691,-0.557538748455048,-1.53759411907196,1.5343265229379344
4.229590248334343,-0.185312578010559,0.563330392169952,0.54128283405304,1.5343265229379344
4.230195941853422,-1.90493660144806,0.218447579669952,-0.22751843547821,1.5343265229379344
4.230801635372503,-1.3301319139480599,-0.543168631267548,0.76880968952179,1.5343265229379344
4.231407328891581,1.87919425792694,0.474714669513702,0.41674181842804,1.5343265229379344
4.23201302241066,1.13434318370819,1.87580109529495,-0.23470349407196,1.5343265229379344
4.23261871592974,1.00261710948944,2.39312531404495,0.49098742389679,1.5343265229379344
4.23322440944882,0.46613273448944104,-0.9120016390800479,-1.82978650188446,1.5343265229379344
4.233830102967898,-0.434394609260559,-4.0614523226738,0.35686633014679,1.5343265229379344
4.234435796486978,-1.45227791004181,1.4854129117012,0.20119006061554,1.5343265229379344
4.235041490006057,-3.5167847459793102,0.283113107013702,0.0383287324905398,1.5343265229379344
4.235647183525137,0.233815839958191,-1.7502584750175498,0.35207629108429,1.5343265229379344
4.236252877044216,3.11981437511444,0.853127755451202,0.026353634834289798,1.5343265229379344
4.236858570563295,2.6958959180831896,1.5381033413887,0.0574888887405398,1.5343265229379344
4.237464264082374,1.01219718761444,3.05415070466995,0.12454943561554001,1.5343265229379344
4.238069957601454,-2.64020759754181,-0.818595877361298,0.45985216999054,1.5343265229379344
4.238675651120533,-1.01398933582306,-3.0747042757988003,-0.69215222454071,1.5343265229379344
4.239281344639612,-1.85703621082306,0.170547189044952,-0.55084607219696,1.5343265229379344
4.239887038158693,-2.3432251756668103,0.261557931232452,0.52691271686554,1.5343265229379344
4.240492731677771,1.02896232433319,-0.763510428142548,-1.16397107219696,1.5343265229379344
4.24109842519685,2.07558585948944,-1.2544894320488,-0.18440808391571,1.5343265229379344
4.24170411871593,3.21082511730194,1.09502472810745,0.9316710176467901,1.5343265229379344
4.24230981223501,-1.04512458972931,3.0397805874824497,0.35447131061554,1.5343265229379344
4.242915505754088,-2.99706550769806,-0.30845671720504797,0.83587023639679,1.5343265229379344
4.243521199273168,0.197890546989441,-2.36817351408005,-0.73286755657196,1.5343265229379344
4.244126892792247,-0.822387773323059,-0.516823416423798,0.74006945514679,1.5343265229379344
4.2447325863113265,0.269741132926941,0.388493966388702,-1.09691052532196,1.5343265229379344
4.245338279830406,-0.345778886604309,-2.72742644376755,-1.42742322063446,1.5343265229379344
4.245943973349485,0.0398192579269409,0.240002755451202,0.5125425996780401,1.5343265229379344
4.246549666868566,1.8049486524581901,2.3524099820137,1.55198107624054,1.5343265229379344
4.247155360387644,-0.7289820116043091,2.54640656404495,-0.15806286907196,1.5343265229379344
4.247761053906723,-0.956508867073059,-0.0162643343925476,0.46224718952179,1.5343265229379344
4.248366747425803,1.60137199230194,-3.33576140470505,-0.11734753704070999,1.5343265229379344
4.248972440944883,0.7655101758956909,-0.854521170330048,-0.76160779094696,1.5343265229379344
4.249578134463961,-0.28350837879180896,0.821992501544952,0.50056750202179,1.5343265229379344
4.250183827983041,-1.13134529285431,0.383703927326202,0.10538927936554,1.5343265229379344
4.25078952150212,-1.86661628894806,-0.959902029705048,0.95801623249054,1.5343265229379344
4.2513952150211995,2.11869621105194,0.927373360919952,-1.14481091594696,1.5343265229379344
4.252000908540279,1.14152824230194,1.0495193570137,0.89574572467804,1.5343265229379344
4.252606602059358,0.976271894645691,3.5355496304511997,-0.51252575969696,1.5343265229379344
4.253212295578437,0.873286054801941,-1.44848601408005,0.25148547077179,1.5343265229379344
4.253817989097517,-0.436789628791809,-3.9225411898613003,-0.5053407011032099,1.5343265229379344
4.254423682616596,-1.35887214832306,1.4135623257637,-0.60114148235321,1.5343265229379344
4.255029376135675,-3.32997322254181,-0.222236014080048,1.04423693561554,1.5343265229379344
4.255635069654756,-0.0056861131668090705,-0.988642264080048,-0.92925915813446,1.5343265229379344
4.256240763173834,2.45160392589569,0.278323067951202,0.68258898639679,1.5343265229379344
4.256846456692913,3.1725048048019397,1.3632669156074502,0.21795519733429,1.5343265229379344
4.257452150211993,1.31396964855194,3.1260012906074497,0.13891955280304,1.5343265229379344
4.2580578437310725,-2.53722175769806,-0.684474783611298,0.62031847858429,1.5343265229379344
4.258663537250151,-1.75405037097931,-3.5824484164238,-0.46223034954071,1.5343265229379344
4.259269230769231,-1.52173347644806,0.46992463045120203,-0.60832654094696,1.5343265229379344
4.25987492428831,-2.22586921863556,-0.0785348422050476,1.36277453327179,1.5343265229379344
4.2604806178073895,1.11039298839569,-0.248581228923798,-1.90403210735321,1.5343265229379344
4.261086311326469,2.05642570323944,-1.4221407992363,-0.41672497844696,1.5343265229379344
4.261692004845548,3.07670402355194,1.5261282437324502,0.39997668170929,1.5343265229379344
4.262297698364627,-0.808017656135559,2.7116629117012,1.60706652545929,1.5343265229379344
4.262903391883707,-2.74798347644806,0.376518868732452,-0.48857556438446,1.5343265229379344
4.263509085402786,0.233815839958191,-2.8112521273613003,-0.41911999797821,1.5343265229379344
4.264114778921866,-0.719401933479309,-0.507243338298798,0.45985216999054,1.5343265229379344
4.2647204724409455,0.169150312614441,0.745351876544952,-1.62860486125946,1.5343265229379344
4.265326165960024,-0.48229499988555896,-2.9357931429863,0.0718590059280398,1.5343265229379344
4.265931859479104,0.7223998243331909,1.3081814663887001,-1.02745495891571,1.5343265229379344
4.266537552998183,1.4073754102706901,1.5237332242012,2.22737658405304,1.5343265229379344
4.2671432465172625,-0.7098218553543091,2.9631399624824497,-0.13171765422821,1.5343265229379344
4.267748940036342,-1.3900074022293099,-0.346777029705048,0.72330431842804,1.5343265229379344
4.268354633555421,1.68280265636444,-2.88549773283005,-1.13283581829071,1.5343265229379344
4.2689603270745,0.17633537120819098,-1.0700729281425498,-1.00829480266571,1.5343265229379344
4.26956602059358,-0.07753669910430909,0.807622384357452,0.49817248249054,1.5343265229379344
4.270171714112659,-1.29660164051056,0.247187814044952,-0.040706912040710204,1.5343265229379344
4.270777407631738,-1.6079541795730599,-0.660524588298798,1.39630480670929,1.5343265229379344
4.2713831011508185,2.04684562511444,1.14292511873245,-0.13411267375945998,1.5343265229379344
4.271988794669897,0.748745039176941,0.922583321857452,1.11129748249054,1.5343265229379344
4.272594488188976,1.1511083204269401,3.44693390779495,-0.42151501750946,1.5343265229379344
4.273200181708056,0.6050438673019409,-1.77420867033005,0.10059924030304,1.5343265229379344
4.2738058752271355,-0.151782304573059,-3.47467253751755,-1.42742322063446,1.5343265229379344
4.274411568746214,-1.61992927722931,1.5381033413887,0.27543566608429,1.5343265229379344
4.275017262265294,-3.62935066394806,-0.00189421720504762,1.63341174030304,1.5343265229379344
4.275622955784373,-0.13262214832305902,-0.574303885173798,-1.19510632610321,1.5343265229379344
4.2762286493034525,2.67434074230194,-0.447367850017548,1.15680285358429,1.5343265229379344
4.276834342822532,3.0790990430831897,2.01471222810745,-1.76033093547821,1.5343265229379344
4.277440036341611,1.29959953136444,2.6398123257637,0.97717638874054,1.5343265229379344
4.27804572986069,-2.18515388660431,-0.19589079923629799,0.97717638874054,1.5343265229379344
4.27865142337977,-1.56005378894806,-2.8735226351738,-0.94123425579071,1.5343265229379344
4.279257116898849,-1.64387947254181,-0.828175955486298,0.91490588092804,1.5343265229379344
4.279862810417929,-1.91691169910431,0.936953439044952,-0.33529431438446,1.5343265229379344
4.2804685039370085,0.672104414176941,-1.5059664828300499,0.16526476764679002,1.5343265229379344
4.281074197456087,2.2168920118331896,-0.284506521892548,-1.59746960735321,1.5343265229379344
4.281679890975167,2.8300170118331898,1.21477570466995,0.81910509967804,1.5343265229379344
4.282285584494246,-0.7313770311355591,2.41228547029495,0.92448595905304,1.5343265229379344
4.2828912780133255,-2.7192432420730603,0.17294220857620202,-0.18440808391571,1.5343265229379344
4.283496971532405,-0.07993171863555909,-3.24954070158005,0.0958092012405398,1.5343265229379344
4.284102665051484,-0.266743242073059,0.9441384976387021,-1.25737683391571,1.5343265229379344
4.284708358570564,-0.0966968553543091,-0.140805350017548,1.51366076374054,1.5343265229379344
4.285314052089643,-0.135017167854309,-2.4472091586113,-1.6333949003219599,1.5343265229379344
4.285919745608722,0.233815839958191,0.7836721890449521,-0.40953991985321,1.5343265229379344
4.286525439127801,1.39779533214569,1.78958039216995,2.29204211139679,1.5343265229379344
4.2871311326468815,-0.168547441291809,2.9272146695137,-0.63946179485321,1.5343265229379344
4.28773682616596,-1.33731697254181,-0.188705740642548,1.33163927936554,1.5343265229379344
4.288342519685039,1.15589835948944,-2.9597433382988,-1.18073620891571,1.5343265229379344
4.288948213204119,0.521218183708191,-1.31436492033005,-1.09930554485321,1.5343265229379344
4.2895539067231985,0.348776777458191,0.759721993732452,0.43590197467804,1.5343265229379344
4.290159600242277,-1.41395759754181,0.481899728107452,-0.55084607219696,1.5343265229379344
4.290765293761357,-1.74207527332306,-0.540773611736298,0.93406603717804,1.5343265229379344
4.291370987280436,1.91272453136444,0.268742989826202,0.74725451374054,1.5343265229379344
4.291976680799515,1.04572746105194,1.38242707185745,0.00479845905303977,1.5343265229379344
4.292582374318595,0.6864745313644409,3.0230154507636997,-0.16764294719696,1.5343265229379344
4.293188067837674,1.07925773448944,-1.1586886507988,-0.44546521282196,1.5343265229379344
4.293793761356753,-0.257163163948059,-3.96325652189255,-0.76400281047821,1.5343265229379344
4.294399454875833,-1.58160896472931,1.81353058748245,-0.33289929485321,1.5343265229379344
4.295005148394912,-3.4736743944168103,-0.243791189861298,1.33642931842804,1.5343265229379344
4.295610841913992,-0.434394609260559,-1.2449093539237999,-1.40107800579071,1.5343265229379344
4.2962165354330715,2.92342277355194,0.587280587482452,0.45985216999054,1.5343265229379344
4.29682222895215,2.96413810558319,1.2554910367012,0.51493761920929,1.5343265229379344
4.29742792247123,1.47922599620819,3.4732791226387,-0.47899548625946,1.5343265229379344
4.29803361599031,-2.4557910936355603,-1.2592794711113,1.62862170124054,1.5343265229379344
4.298639309509388,-1.11458015613556,-2.8304122836113,-1.30527722454071,1.5343265229379344
4.299245003028468,-1.62711433582306,-0.0761398226737976,0.20598009967804,1.5343265229379344
4.299850696547547,-2.5899121873855604,1.0159890835762,-0.83345837688446,1.5343265229379344
4.300456390066627,0.7655101758956909,-1.2880197054862998,-0.52450085735321,1.5343265229379344
4.301062083585706,2.50908439464569,-1.36226531095505,-0.29218396282196,1.5343265229379344
4.301667777104785,3.16771476573944,1.51654816560745,-0.25625866985321,1.5343265229379344
4.302273470623864,-1.0642847459793099,2.6493924038887,1.66933703327179,1.5343265229379344
4.3028791641429445,-2.74319343738556,0.577700509357452,0.0311436738967898,1.5343265229379344
4.303484857662023,0.22184074230194098,-3.0148287875175503,0.15328966999054,1.5343265229379344
4.304090551181102,-0.0272412889480591,-0.5934640414237979,-0.35684949016571,1.5343265229379344
4.304696244700182,-0.29308845691680896,0.690266427326202,-0.93644421672821,1.5343265229379344
4.305301938219261,-0.34098884754180897,-1.9155148226738,0.00958849811553977,1.5343265229379344
4.30590763173834,0.614623945426941,-0.504848318767548,0.51733263874054,1.5343265229379344
4.30651332525742,1.67561759777069,2.22547394685745,0.79275988483429,1.5343265229379344
4.307119018776499,-1.35887214832306,2.5871218960761997,1.15919787311554,1.5343265229379344
4.307724712295578,-0.9493238084793091,0.101091622638702,0.45985216999054,1.5343265229379344
4.308330405814658,1.2445140821456901,-2.8016720492363003,-0.35205945110321,1.5343265229379344
4.308936099333737,0.18591544933319099,-1.21377410001755,-0.29697400188446,1.5343265229379344
4.309541792852817,0.303271406364441,0.498664864826202,0.25148547077179,1.5343265229379344
4.310147486371896,-1.87140632801056,0.762117013263702,-0.7855579862594599,1.5343265229379344
4.310753179890975,-0.9517188280105591,-0.253371267986298,0.93406603717804,1.5343265229379344
4.311358873410056,1.8863793165206901,0.153782052326202,0.62271349811554,1.5343265229379344
4.311964566929134,0.7080297071456909,2.10572297029495,-0.55324109172821,1.5343265229379344
4.312570260448213,0.7223998243331909,2.3739651577949497,0.9915465059280401,1.5343265229379344
4.313175953967293,0.997827070426941,-1.32873503751755,0.22274523639679,1.5343265229379344
4.313781647486373,-0.489480058479309,-3.6207687289238,-0.38319470500946,1.5343265229379344
4.314387341005451,-1.66543464832306,1.6722244351387001,-1.67411023235321,1.5343265229379344
4.314993034524531,-3.87124763660431,0.06516632966995241,1.59509142780304,1.5343265229379344
4.31559872804361,0.0326341993331909,-1.3886105257988,0.0383287324905398,1.5343265229379344
4.31620442156269,3.14376457042694,-0.162360525798798,0.61073840045929,1.5343265229379344
4.316810115081769,2.14504142589569,1.5955838101387,0.24430041217804,1.5343265229379344
4.317415808600848,1.51275626964569,3.48046418123245,-0.85022351360321,1.5343265229379344
4.318021502119927,-2.49171638660431,-0.823385916423798,0.76162463092804,1.5343265229379344
4.318627195639007,-1.26307136707306,-3.0148287875175503,-0.78316296672821,1.5343265229379344
4.319232889158086,-1.35647712879181,-0.686869803142548,0.50535754108429,1.5343265229379344
4.319838582677165,-2.6928980272293104,0.730981759357452,-0.0550770292282102,1.5343265229379344
4.320444276196246,0.995432050895691,-0.313246756267548,-1.05140515422821,1.5343265229379344
4.321049969715324,2.23605216808319,-1.6185324007988,-0.39756482219696,1.5343265229379344
4.321655663234403,3.37608146495819,1.46385773591995,-0.35445447063446,1.5343265229379344
4.322261356753483,-1.1241602342605599,2.8888943570137,1.76034777545929,1.5343265229379344
4.322867050272563,-3.16950691394806,0.06516632966995241,0.58199816608429,1.5343265229379344
4.323472743791641,0.557143476676941,-2.56456511564255,-0.9651844511032099,1.5343265229379344
4.324078437310721,-0.5517505662918091,-0.550353689861298,0.12933947467804,1.5343265229379344
4.3246841308298,-0.561330644416809,0.546565255451202,-1.33641247844696,1.5343265229379344
4.3252898243488795,0.0134740430831909,-2.7346115023613002,-0.06705212688446019,1.5343265229379344
4.325895517867959,0.8637059766769409,1.05670441560745,-0.87417370891571,1.5343265229379344
4.326501211387038,1.53910148448944,1.8638259976387002,1.98787463092804,1.5343265229379344
4.327106904906119,-0.467924882698059,2.6038870327949497,0.5724180879592901,1.5343265229379344
4.327712598425197,-1.30139167957306,0.0986966031074524,0.30417590045929,1.5343265229379344
4.328318291944276,1.73788810558319,-3.09625945158005,-0.25865368938446,1.3624214067294869
4.328923985463356,0.492477949333191,-1.25209441251755,-1.35557263469696,1.3624214067294869
4.329529678982436,-0.0416114061355591,0.754931954669952,0.29459582233429,1.3624214067294869
4.330135372501514,-1.56005378894806,0.158572091388702,0.17723986530304,1.3624214067294869
4.330741066020594,-1.63190437488556,-0.277321463298798,0.44787707233429,1.3624214067294869
4.331346759539673,1.97260001964569,0.472319649982452,0.00479845905303977,1.3624214067294869
4.3319524530587525,1.0481224805831901,0.994433907794952,0.51014758014679,1.3624214067294869
4.332558146577832,0.777485273551941,3.3319729702949497,0.0550938692092898,1.3624214067294869
4.333163840096911,0.892446211051941,-1.0173824984550501,-0.92207409954071,1.3624214067294869
4.33376953361599,0.152385175895691,-3.8890109164238003,-0.19159314250946,1.3624214067294869
4.33437522713507,-1.45227791004181,1.18603547029495,0.30657091999054,1.3624214067294869
4.334980920654149,-3.35631843738556,0.520220040607452,0.6322935762405401,1.3624214067294869
4.335586614173228,-0.465529863166809,-1.3694503695487998,0.20837511920929,1.3624214067294869
4.336192307692309,3.02640861339569,0.606440743732452,0.34010119342804,1.3624214067294869
4.336798001211387,2.7030809766769397,1.2986013882637,0.32812609577179,1.3624214067294869
4.337403694730466,1.21337882823944,3.4397488492012,-0.99631970500946,1.3624214067294869
4.338009388249546,-1.97918220691681,-0.662919607830048,1.27894884967804,1.3624214067294869
4.3386150817686255,-1.61034919910431,-3.4387472445488,-0.00717663860321023,1.3624214067294869
4.339220775287704,-1.5648438280105599,0.23760773591995202,-0.28260388469696,1.3624214067294869
4.339826468806784,-2.5755420701980603,0.249582833576202,0.94125109577179,1.3624214067294869
4.340432162325863,0.971481855583191,-0.200680838298798,-1.27893200969696,1.3624214067294869
4.3410378558449425,2.28634757823944,-1.8867745882987998,0.98675646686554,1.3624214067294869
4.341643549364022,3.1126293165206897,1.6003738492012,-0.62988171672821,1.3624214067294869
4.342249242883101,-0.901423417854309,3.0661258023261997,0.5125425996780401,1.3624214067294869
4.34285493640218,-2.83420417957306,-0.124040213298798,1.33642931842804,1.3624214067294869
4.34346062992126,0.451762617301941,-1.9250949007987999,-1.50166882610321,1.3624214067294869
4.344066323440339,-0.6738965623855591,-0.756325369548798,0.60834338092804,1.3624214067294869
4.344672016959419,-0.13741218738555902,0.508244942951202,-1.17594616985321,1.3624214067294869
4.3452777104784985,0.0781395704269409,-2.37775359220505,-0.6849671659469599,1.3624214067294869
4.345883403997577,0.126039961051941,0.386098946857452,0.62750353717804,1.3624214067294869
4.346489097516657,1.75704826183319,2.26379425935745,1.03226183795929,1.3624214067294869
4.347094791035736,-0.17333748035430901,2.30211457185745,0.43111193561554,1.3624214067294869
4.3477004845548155,-1.20798591785431,-0.0234493929862976,0.53649279499054,1.3624214067294869
4.348306178073895,1.5702367383956901,-2.9812985140800503,-1.22624158000946,1.3624214067294869
4.348911871592974,0.6840795118331909,-1.5131515414238,-1.48490368938446,1.3624214067294869
4.349517565112053,-0.218842851448059,0.8842630093574521,0.60834338092804,1.3624214067294869
4.350123258631133,-1.4067725389480599,0.826782540607452,0.40476672077179,1.3624214067294869
4.350728952150212,-1.3516870897293098,-0.878471365642548,0.9508311738967901,1.3624214067294869
4.351334645669291,2.34861808605194,0.699846505451202,-0.41432995891571,1.3624214067294869
4.3519403391883715,0.755930097770691,1.1788504117012,0.46703722858429003,1.3624214067294869
4.35254603270745,0.755930097770691,3.3199978726387,-0.69454724407196,1.3624214067294869
4.353151726226529,0.928371504020691,-1.4628561312675499,0.57002306842804,1.3624214067294869
4.353757419745609,-0.760117265510559,-3.85787566251755,-0.54845105266571,1.3624214067294869
4.3543631132646885,-1.17445564441681,1.74168000154495,-0.45504529094696,1.3624214067294869
4.354968806783767,-3.95746833972931,-0.152780447673798,0.66582384967804,1.3624214067294869
4.355574500302847,-0.0368213670730591,-1.1850338656425499,-0.040706912040710204,1.3624214067294869
4.356180193821926,2.67434074230194,0.366938790607452,1.01549670124054,1.3624214067294869
4.3567858873410055,2.7126610548019396,1.9284915249824501,-1.29330212688446,1.3624214067294869
4.357391580860085,1.37863517589569,2.6877127163887,0.38800158405304,1.3624214067294869
4.357997274379164,-2.12527839832306,-0.0354244906425476,-0.0886073026657102,1.3624214067294869
4.3586029678982445,-1.7827906053543099,-3.5824484164238,0.50535754108429,1.3624214067294869
4.359208661417323,-1.21996101551056,0.582490548419952,-0.87896374797821,1.3624214067294869
4.359814354936402,-2.2402393358230603,-0.0881149203300476,1.57353625202179,1.3624214067294869
4.360420048455482,0.518823164176941,-0.718005057048798,-1.65016003704071,1.3624214067294869
4.3610257419745615,1.86721916027069,-1.57781706876755,-0.62269665813446,1.3624214067294869
4.36163143549364,3.17010978527069,1.03275422029495,1.19512316608429,1.3624214067294869
4.36223712901272,-0.815202714729309,3.4445388882637,0.10778429889679,1.3624214067294869
4.362842822531799,-3.3108130662918103,-0.234211111736298,0.83347521686554,1.3624214067294869
4.3634485160508785,0.698449629020691,-4.4207052523613,-1.6333949003219599,1.3624214067294869
4.364054209569958,-0.295483476448059,0.247187814044952,-0.46223034954071,1.3624214067294869
4.364659903089037,-1.7492603319168099,4.3259060757637,0.99873156452179,1.3624214067294869
4.365265596608117,0.195495527458191,-4.4997408968925505,-0.85261853313446,1.3624214067294869
4.365871290127196,2.4037035352706897,-1.8724044711113,-0.96039441204071,1.3624214067294869
4.366476983646275,-0.168547441291809,3.2433572476387,2.06930529499054,1.3624214067294869
4.367082677165354,-0.300273515510559,3.1954568570136996,-0.35205945110321,1.3624214067294869
4.3676883706844345,-1.37324226551056,0.522615060138702,1.60946154499054,1.3624214067294869
4.368294064203513,1.21337882823944,-3.0124337679863,-0.39037976360321,1.3624214067294869
4.368899757722592,1.37145011730194,-2.8160421664238,-0.90291394329071,1.3624214067294869
4.369505451241672,-1.39240242176056,1.3632669156074502,-0.51971081829071,1.3624214067294869
4.3701111447607515,-0.254768144416809,0.513034982013702,0.53888781452179,1.3624214067294869
4.37071683827983,-0.297878495979309,-0.346777029705048,0.76641466999054,1.3624214067294869
4.37132253179891,-0.190102617073059,0.781277169513702,0.59876330280304,1.3624214067294869
4.371928225317989,0.772695234489441,0.726191720294952,-0.040706912040710204,1.3624214067294869
4.372533918837068,0.700844648551941,1.9979470913887,-0.0454969511032102,1.3624214067294869
4.373139612356148,0.954716718864441,-0.167150564861298,-0.35924450969696,1.3624214067294869
4.373745305875227,0.940346601676941,-3.0507540804863003,-1.54477917766571,1.3624214067294869
4.374350999394307,-1.67980476551056,1.4902029507637,0.91969591999054,1.3624214067294869
4.374956692913386,-3.13358162097931,0.110671700763702,0.96999133014679,1.3624214067294869
4.375562386432465,-0.08472175769805909,-3.16331999845505,-0.51731579875946,1.3624214067294869
4.376168079951545,1.74028312511444,0.8842630093574521,0.77599474811554,1.3624214067294869
4.3767737734706245,2.76774650402069,1.6530642788887,-0.20596325969696,1.3624214067294869
4.377379466989703,1.8863793165206901,3.60979523591995,-0.84782849407196,1.3624214067294869
4.377985160508783,-1.8905664842605598,-0.286901541423798,0.91969591999054,1.3624214067294869
4.378590854027863,-0.781672441291809,-4.4398654086113005,-1.36515271282196,1.3624214067294869
4.379196547546941,-2.16120369129181,-0.145595389080048,0.69456408405304,1.3624214067294869
4.379802241066021,-2.86294441394806,1.4949929898262,0.39997668170929,1.3624214067294869
4.3804079345851,1.53191642589569,-0.787460623455048,-0.96757947063446,1.3624214067294869
4.38101362810418,2.1115111524581898,-1.2281442172050498,-0.0023865995407102297,1.3624214067294869
4.381619321623259,2.8587572462081896,0.474714669513702,0.43590197467804,1.3624214067294869
4.382225015142338,-0.6116260545730591,2.7356131070137,0.49817248249054,1.3624214067294869
4.382830708661417,-2.68810798816681,0.383703927326202,1.51605578327179,1.3624214067294869
4.3834364021804975,0.533193281364441,-2.2627926547050503,-0.33529431438446,1.3624214067294869
4.384042095699576,-1.32294685535431,-0.337196951580048,-0.92686413860321,1.3624214067294869
4.384647789218655,-0.161362382698059,-0.727585135173798,-0.28978894329071,1.3624214067294869
4.385253482737735,0.7223998243331909,-2.42086394376755,-1.60225964641571,1.3624214067294869
4.385859176256814,0.00628898448944093,1.18603547029495,0.67540392780304,1.3624214067294869
4.386464869775893,1.50796623058319,2.5919119351387,1.72202746295929,1.3624214067294869
4.387070563294973,-0.175732499885559,1.82790070466995,0.20119006061554,1.3624214067294869
4.387676256814053,-1.20798591785431,-0.00668425626754762,0.22993029499054002,1.3624214067294869
4.388281950333131,1.67082755870819,-2.58372527189255,-0.64904187297821,1.3624214067294869
4.388887643852211,0.147595136833191,-1.9298849398612998,-0.34247937297821,1.3624214067294869
4.38949333737129,0.18112541027069098,1.4710427945137001,-1.07056531047821,1.3624214067294869
4.39009903089037,-1.53849861316681,-0.444972830486298,1.44420519733429,1.3624214067294869
4.390704724409449,-1.44269783191681,0.0891165249824524,0.0958092012405398,1.3624214067294869
4.391310417928528,1.77381339855194,0.225632638263702,0.7520445528030401,1.3624214067294869
4.391916111447607,1.26367423839569,1.09502472810745,0.21556017780304002,1.3624214067294869
4.392521804966687,1.15350333995819,3.73912629060745,-0.94362927532196,1.3624214067294869
4.393127498485766,0.248185957145691,-1.73588835783005,1.03944689655304,1.3624214067294869
4.393733192004846,-0.228422929573059,-3.67106413908005,-1.62860486125946,1.3624214067294869
4.394338885523926,-1.64866951160431,0.484294747638702,0.38800158405304,1.3624214067294869
4.394944579043004,-3.3946387498855604,0.862707833576202,0.34968127155304,1.3624214067294869
4.395550272562084,-0.27153328113555897,-0.741955252361298,-0.07423718547821019,1.3624214067294869
4.396155966081163,3.17729484386444,0.07714142732620241,0.8119200410842901,1.3624214067294869
4.396761659600243,2.95455802745819,1.4446975796699502,-0.81669324016571,1.3624214067294869
4.397367353119322,0.973876875114441,3.1954568570136996,-0.39756482219696,1.3624214067294869
4.397973046638401,-2.32885505847931,-0.607834158611298,-0.10776745891570999,1.3624214067294869
4.39857874015748,-1.50736335926056,-2.89986785001755,0.54128283405304,1.3624214067294869
4.39918443367656,-1.6462744920730599,-0.346777029705048,1.11608752155304,1.3624214067294869
4.399790127195639,-2.04145271472931,0.216052560138702,0.21795519733429,1.3624214067294869
4.400395820714718,0.5643285352706909,-1.1970089632988,-1.0346400175094599,1.3624214067294869
4.401001514233799,2.41567863292694,-0.41862761564254797,-1.41305310344696,1.3624214067294869
4.401607207752877,2.50189933605194,0.841152657794952,1.39390978717804,1.3624214067294869
4.402212901271956,-0.896633378791809,3.18827179841995,0.00479845905303977,1.3624214067294869
4.402818594791036,-2.68810798816681,-0.512033377361298,1.11848254108429,1.3624214067294869
4.403424288310116,-0.08951179676055909,-2.8639425570488,-0.23470349407196,1.3624214067294869
4.404029981829194,-0.6140210741043091,0.41004914216995203,-0.40953991985321,1.3624214067294869
4.404635675348274,-0.144597245979309,-0.140805350017548,-0.13411267375945998,1.3624214067294869
4.405241368867353,0.631389082145691,-2.1430416781425503,-1.37233777141571,1.3624214067294869
4.4058470623864325,-0.146992265510559,-0.260556326580048,0.73527941608429,1.3624214067294869
4.406452755905512,1.60137199230194,2.6925027554512,0.64666369342804,1.3624214067294869
4.407058449424591,-0.556540605354309,2.2805593960762,0.85024035358429,1.3624214067294869
4.407664142943672,-1.38282234363556,0.127436837482452,0.40716174030304003,1.3624214067294869
4.40826983646275,1.56065666027069,-3.1273947054863003,-0.47660046672821,1.3624214067294869
4.408875529981829,0.449367597770691,-1.5371017367363,-1.0945155057907099,1.3624214067294869
4.409481223500909,0.042214277458190896,1.1620852749824502,-0.53647595500946,1.3624214067294869
4.410086917019989,-1.35408210926056,-0.049794607830047605,0.49338244342804,1.3624214067294869
4.410692610539067,-1.52173347644806,0.036426095294952394,-0.08142224407196019,1.3624214067294869
4.411298304058147,1.57742179698944,0.0795364468574524,0.96520129108429,1.3624214067294869
4.411903997577226,1.11278800792694,1.3512918179512001,-0.14129773235321,1.3624214067294869
4.4125096910963055,1.36187003917694,2.8745242398262,-0.12453259563446,1.3624214067294869
4.413115384615385,0.427812421989441,-1.60176726408005,0.13412951374054,1.3624214067294869
4.413721078134464,-0.396074296760559,-3.4603024203300503,-1.80104626750946,1.3624214067294869
4.414326771653543,-1.4067725389480599,0.520220040607452,0.95801623249054,1.3624214067294869
4.414932465172623,-3.26051765613556,0.216052560138702,0.15568468952179002,1.3624214067294869
4.415538158691702,-0.487085038948059,-1.5131515414238,-0.35924450969696,1.3624214067294869
4.416143852210781,2.4707640821456898,0.192102364826202,0.90293078327179,1.3624214067294869
4.416749545729862,3.18447990245819,1.9548367398262,-1.38910290813446,1.3624214067294869
4.41735523924894,1.50078117198944,2.3643850796699497,1.16159289264679,1.3624214067294869
4.417960932768019,-2.08456306629181,-0.133620291423798,-0.59395642375946,1.3624214067294869
4.418566626287099,-1.34450203113556,-3.8099752718925504,-0.16524792766571,1.3624214067294869
4.4191723198061785,-1.6295093553543099,0.22802765779495202,1.15680285358429,1.3624214067294869
4.419778013325257,-2.69050300769806,1.6123489468574501,-0.77118786907196,1.3624214067294869
4.420383706844337,1.38103019542694,-2.5765402132988,0.17963488483429,1.3624214067294869
4.420989400363416,2.1809667188644397,-0.801830740642548,-1.39149792766571,1.3624214067294869
4.4215950938824955,2.6168602735519397,1.57881867341995,0.16047472858429002,1.3624214067294869
4.422200787401575,-0.245188066291809,2.30211457185745,1.46576037311554,1.3624214067294869
4.422806480920654,-3.08568123035431,0.733376778888702,0.26346056842804,1.3624214067294869
4.423412174439733,0.293691328239441,-3.48425261564255,0.36884142780304,1.3624214067294869
4.424017867958813,-0.499060136604309,-0.049794607830047605,-1.01308484172821,1.3624214067294869
4.424623561477892,-1.06667976551056,0.661526192951202,0.0838341035842898,1.3624214067294869
4.425229254996972,1.15350333995819,-2.3466183382988,-1.25737683391571,1.3624214067294869
4.4258349485160515,0.5451683790206909,0.0819314663887024,0.44308703327179,1.3624214067294869
4.42644064203513,0.480502851676941,2.1655984585762,1.72202746295929,1.3624214067294869
4.42704633555421,0.205075605583191,2.37875519685745,-0.42391003704071,1.3624214067294869
4.427652029073289,-1.94325691394806,0.230422677326202,1.46336535358429,1.3624214067294869
4.4282577225923685,1.3858202344894401,-2.1119064242363,-1.92558728313446,1.1417415950554488
4.428863416111448,1.43372062511444,-2.76095671720505,0.86461047077179,1.1417415950554488
4.429469109630527,-0.695451738166809,2.20631379060745,-0.18680310344696,1.1417415950554488
4.430074803149606,-1.21756599597931,-0.250976248455048,0.44787707233429,1.1417415950554488
4.430680496668686,-1.55765876941681,-0.866496267986298,0.32094103717804,1.1417415950554488
4.431286190187765,1.1678734571456901,1.1261599820137,-0.43828015422821,1.1417415950554488
4.431891883706844,1.34510490245819,0.496269845294952,1.50887072467804,1.1417415950554488
4.4324975772259245,1.13434318370819,3.6481155484199497,-0.88614880657196,1.1417415950554488
4.433103270745003,0.650549238395691,-0.995827322673798,-0.14848279094695999,1.1417415950554488
4.433708964264082,-0.194892656135559,-4.36561980314255,-0.70652234172821,1.1417415950554488
4.434314657783162,-1.66064460926056,1.5692385952949501,0.0455137910842898,1.1417415950554488
4.4349203513022415,-3.36350349597931,0.486689767169952,1.24781359577179,1.1417415950554488
4.43552604482132,-0.39367927722930895,-1.19940398283005,-0.86698865032196,1.1417415950554488
4.4361317383404,2.4635790235519397,0.558540353107452,0.66103381061554,1.1417415950554488
4.436737431859479,3.1293944532394398,1.2866262906074502,-0.20835827922820999,1.1417415950554488
4.4373431253785585,1.4241405469894401,3.8469021695137,-0.5652161893844599,1.1417415950554488
4.437948818897638,-2.3599903123855603,-0.325221853923798,0.96520129108429,1.1417415950554488
4.438554512416717,-0.8702881639480591,-3.43156218595505,-0.79753308391571,1.1417415950554488
4.439160205935796,-1.81632087879181,-0.629389334392548,0.55804797077179,1.1417415950554488
4.439765899454876,-2.68810798816681,1.4949929898262,-0.47420544719696,1.1417415950554488
4.440371592973955,1.06249259777069,-1.2736495882988,-0.52929089641571,1.1417415950554488
4.440977286493035,2.36298820323944,-1.48680632658005,-0.74005261516571,1.1417415950554488
4.4415829800121145,3.18687492198944,1.5644485562324502,0.23711535358429,1.1417415950554488
4.442188673531193,-1.0858399217605599,2.4913211148262,1.27655383014679,1.1417415950554488
4.442794367050273,-2.8318091600418103,1.0471243374824502,-0.0838172636032102,1.1417415950554488
4.443400060569353,0.142805097770691,-3.05314910001755,-0.0622620878219602,1.1417415950554488
4.4440057540884315,-0.865498124885559,-0.0833248812675476,-1.04661511516571,1.1417415950554488
4.444611447607511,-0.0200562303543091,-0.0761398226737976,0.35447131061554,1.1417415950554488
4.44521714112659,0.0805345899581909,-1.87958952970505,-1.41065808391571,1.1417415950554488
4.44582283464567,0.183520429801941,0.251977853107452,0.19640002155304,1.1417415950554488
4.446428528164749,1.78578849620819,1.2938113492012,2.53393908405304,1.1417415950554488
4.447034221683828,-0.07993171863555909,3.44693390779495,-0.62269665813446,1.1417415950554488
4.447639915202907,-1.66064460926056,-0.440182791423798,1.35319445514679,1.1417415950554488
4.4482456087219875,1.46485587902069,-2.52624480314255,-2.03336316204071,1.1417415950554488
4.448851302241066,0.6864745313644409,-1.7526534945488,-0.54366101360321,1.1417415950554488
4.449456995760145,0.042214277458190896,1.10460480623245,0.0119835176467898,1.1417415950554488
4.450062689279225,-1.51454841785431,0.170547189044952,-0.16285290813446,1.1417415950554488
4.4506683827983045,-1.48101814441681,-0.667709646892548,0.81431506061554,1.1417415950554488
4.451274076317383,1.73309806652069,0.354963692951202,0.0143785371780398,1.1417415950554488
4.451879769836463,1.11997306652069,1.3129715054512001,0.52691271686554,1.1417415950554488
4.452485463355542,1.04572746105194,3.3319729702949497,-0.0933973417282102,1.1417415950554488
4.453091156874621,0.322431562614441,-1.04133269376755,-0.25865368938446,1.1417415950554488
4.453696850393701,-0.31224861316680896,-4.2817941195488,-0.37121960735320997,1.1417415950554488
4.45430254391278,-1.31815681629181,1.14771515779495,-0.70173230266571,1.1417415950554488
4.45490823743186,-3.6868311326980603,1.2507009976387,0.0766490449905398,1.1417415950554488
4.455513930950939,-0.355358964729309,-1.9203048617362999,0.96999133014679,1.1417415950554488
4.456119624470018,3.25633048839569,0.390888985919952,-0.34966443157196,1.1417415950554488
4.456725317989099,2.74858634777069,1.2650711148262002,0.49098742389679,1.1417415950554488
4.4573310115081775,1.42174552745819,3.4876492398262,-0.19159314250946,1.1417415950554488
4.457936705027256,-2.1300684373855603,-0.454552908611298,1.12806261920929,1.1417415950554488
4.458542398546336,-1.5863990037918099,-2.76574675626755,-0.54845105266571,1.1417415950554488
4.459148092065416,-1.67261970691681,-0.349172049236298,0.11736437702179,1.1417415950554488
4.459753785584494,-2.1372534959793104,-0.473713064861298,0.91730090045929,1.1417415950554488
4.460359479103574,0.9020262891769409,-0.047399588298797604,-2.01659802532196,1.1417415950554488
4.460965172622653,2.0947460157394397,-1.5275216586112998,0.8909556856155401,1.1417415950554488
4.461570866141733,2.68392082042694,1.2794412320137,-0.77118786907196,1.1417415950554488
4.462176559660812,-0.245188066291809,2.9607449429512,1.07058215045929,1.1417415950554488
4.462782253179891,-3.1287915819168104,-0.413837576580048,1.09453234577179,1.1417415950554488
4.46338794669897,0.298481367301941,-1.9346749789238,-1.89924206829071,1.1417415950554488
4.4639936402180505,-0.642761308479309,-0.277321463298798,0.82389513874054,1.1417415950554488
4.464599333737129,-0.410444413948059,0.462739571857452,-1.59267956829071,1.1417415950554488
4.465205027256208,0.561933515739441,-2.9262130648613,-0.22033337688446,1.1417415950554488
4.465810720775288,-0.305063554573059,0.0891165249824524,0.15568468952179002,1.1417415950554488
4.466416414294367,1.5486815626144401,2.58951691560745,0.5317027559280401,1.1417415950554488
4.467022107813446,-0.429604570198059,2.22547394685745,1.76513781452179,1.1417415950554488
4.467627801332526,-1.15769050769806,0.254372872638702,0.0574888887405398,1.1417415950554488
4.468233494851606,1.6851976758956901,-3.0220138461113,-0.80232312297821,1.1417415950554488
4.468839188370684,0.0709545118331909,-1.5083615023613,-0.57958630657196,1.1417415950554488
4.469444881889764,0.0278441602706909,1.5692385952949501,-0.84303845500946,1.1417415950554488
4.470050575408843,-1.40198249988556,-0.262951346111298,0.93885607624054,1.1417415950554488
4.470656268927923,-1.83308601551056,-0.0234493929862976,-0.55324109172821,1.1417415950554488
4.471261962447002,1.6420873243331902,0.390888985919952,0.62989855670929,1.1417415950554488
4.471867655966081,1.16068839855194,0.505849923419952,0.91969591999054,1.1417415950554488
4.47247334948516,1.05291251964569,3.8804324429512,-1.69087536907196,1.1417415950554488
4.47307904300424,0.614623945426941,-1.7622335726737999,1.82022326374054,1.1417415950554488
4.473684736523319,-0.101486894416809,-3.4722775179863,-1.81781140422821,1.1417415950554488
4.474290430042399,-1.47383308582306,0.982458810138702,-0.11255749797820999,1.1417415950554488
4.474896123561479,-3.32039314441681,0.216052560138702,0.24909045124054,1.1417415950554488
4.475501817080557,-0.458344804573059,-1.2880197054862998,-0.40235486125946,1.1417415950554488
4.476107510599637,2.62165031261444,0.414839181232452,0.9316710176467901,1.1417415950554488
4.476713204118716,3.0096434766769398,1.8829861538887,-0.75442273235321,1.1417415950554488
4.477318897637796,1.77860343761444,2.5823318570137,0.9915465059280401,1.1417415950554488
4.477924591156875,-2.12288337879181,-0.10009001798629799,-0.41911999797821,1.1417415950554488
4.478530284675954,-1.6031641405105599,-3.52736296720505,0.24430041217804,1.1417415950554488
4.479135978195033,-1.30618171863556,-0.35875212736129797,0.6514537324905401,1.1417415950554488
4.479741671714113,-2.33843513660431,0.960903634357452,-0.6849671659469599,1.1417415950554488
4.480347365233192,0.401467207145691,-1.4652511507988,-0.0598670682907102,1.1417415950554488
4.480953058752271,2.5162694532394396,-0.370727225017548,-1.91840222454071,1.1417415950554488
4.481558752271352,3.32339103527069,0.833967599201202,1.2406285371780401,1.1417415950554488
4.48216444579043,-0.7122168748855591,2.8888943570137,0.91011584186554,1.1417415950554488
4.482770139309509,-2.7886988084793103,0.685476388263702,-0.17482800579071,1.1417415950554488
4.483375832828589,0.10448478527069101,-3.6327438265800502,1.29571398639679,1.1417415950554488
4.4839815263476686,-0.47271492176055896,0.457949532794952,-1.75554089641571,1.1417415950554488
4.484587219866747,-0.434394609260559,-0.0258444125175476,0.28501574420929,1.1417415950554488
4.485192913385827,0.0278441602706909,-2.3561984164238003,-0.69694226360321,1.1417415950554488
4.485798606904906,0.399072187614441,0.620810860919952,0.48859240436554,1.1417415950554488
4.4864043004239855,1.3307347852706901,1.9117263882637001,1.79387804889679,1.1417415950554488
4.487009993943065,-0.408049394416809,2.8649441617012,-1.08972546672821,1.1417415950554488
4.487615687462144,-1.35647712879181,-0.339591971111298,1.76034777545929,1.1417415950554488
4.488221380981225,1.26127921886444,-2.5621700961113003,-1.41784314250946,1.1417415950554488
4.488827074500303,0.576303632926941,-1.7287032992362998,-0.30655408000946,1.1417415950554488
4.489432768019382,-0.305063554573059,1.50696808748245,-0.26104870891570997,1.1417415950554488
4.490038461538462,-1.04991462879181,-0.162360525798798,0.88137560749054,1.1417415950554488
4.4906441550575416,-1.0906299608230599,-0.193495779705048,0.42153185749054,1.1417415950554488
4.49124984857662,1.65885246105194,0.754931954669952,-0.37121960735320997,1.1417415950554488
4.4918555420957,1.34031486339569,1.2315408413887001,1.73400256061554,1.1417415950554488
4.492461235614779,1.02177726573944,3.5786599820136997,-0.0574720487594602,1.1417415950554488
4.4930669291338585,1.11278800792694,-1.3790304476738,-0.63227673625946,1.1417415950554488
4.493672622652938,-0.27153328113555897,-3.50820281095505,-1.11128064250946,1.1417415950554488
4.494278316172017,-1.64148445301056,0.793252267169952,0.99633654499054,1.1417415950554488
4.494884009691096,-3.0784961717605603,0.709426583576202,0.36644640827179,1.1417415950554488
4.495489703210176,-0.484690019416809,-1.6568527132988,-0.18680310344696,1.1417415950554488
4.496095396729255,3.02640861339569,0.448369454669952,-0.19638318157196,1.1417415950554488
4.496701090248334,2.68871085948944,1.1117898648262001,0.16047472858429002,1.1417415950554488
4.4973067837674146,1.3474999219894401,3.4110086148262,0.51733263874054,1.1417415950554488
4.497912477286493,-2.43423591785431,-0.564723807048798,0.85024035358429,1.1417415950554488
4.498518170805572,-1.41395759754181,-3.01003874845505,-0.77358288860321,1.1417415950554488
4.499123864324652,-1.11697517566681,-0.10009001798629799,0.0574888887405398,1.1417415950554488
4.4997295578437315,-2.60667732410431,0.331013497638702,0.0455137910842898,1.1417415950554488
4.50033525136281,0.832570722770691,-0.674894705486298,-1.71722058391571,1.1417415950554488
4.50094094488189,2.34861808605194,-1.3598702914238,0.88856066608429,1.1417415950554488
4.501546638400969,3.0958641798019397,1.3560818570137,0.22274523639679,1.1417415950554488
4.5021523319200485,-0.796042558479309,2.6350222867012,-0.38319470500946,1.1417415950554488
4.502758025439128,-2.77672371082306,0.0460061734199524,1.29092394733429,1.1417415950554488
4.503363718958207,0.11645988292694101,-2.8591525179863,-0.28739392375946,1.1417415950554488
4.503969412477286,-0.915793535041809,0.213657540607452,-0.81429822063446,1.1417415950554488
4.504575105996366,0.09490470714569091,0.333408517169952,0.15328966999054,1.1417415950554488
4.505180799515445,0.17154533214569098,-2.67952605314255,-0.80950818157196,1.1417415950554488
4.505786493034525,0.0613744337081909,0.580095528888702,-0.30176404094696,1.1417415950554488
4.5063921865536045,1.49359611339569,1.8159256070137,2.54591418170929,1.1417415950554488
4.506997880072683,-0.26434822254180895,2.7164529507636996,-0.0886073026657102,1.1417415950554488
4.507603573591763,-1.1457154100418099,-0.272531424236298,1.22625841999054,1.1417415950554488
4.508209267110842,1.29720451183319,-2.7537716586113,-1.30288220500946,1.1417415950554488
4.5088149606299215,0.411047285270691,-1.3047848422050499,-1.10649060344696,1.1417415950554488
4.509420654149001,-0.158967363166809,0.697451485919952,0.57720812702179,1.1417415950554488
4.51002634766808,-0.717006913948059,-0.13122527189254798,0.26825060749054,1.1417415950554488
4.51063204118716,-1.9887622850418099,-0.0905099398612976,0.026353634834289798,1.1417415950554488
4.511237734706239,1.57742179698944,0.378913888263702,0.46224718952179,1.1417415950554488
4.511843428225318,2.14983146495819,0.853127755451202,0.94364611530304,1.1417415950554488
4.512449121744397,0.7439550001144409,2.9535598843574498,-1.05380017375946,1.1417415950554488
4.5130548152634775,0.731979902458191,-1.1898239047050498,-0.06944714641571019,1.1417415950554488
4.513660508782556,-0.580490800666809,-3.5465231234550503,-1.08733044719696,1.1417415950554488
4.514266202301635,-1.67261970691681,1.1453201382637002,-0.39516980266571,1.1417415950554488
4.514871895820715,-3.0353858201980604,0.0292410367012024,0.71372424030304,1.1417415950554488
4.5154775893397945,-0.661921464729309,-1.61134734220505,-0.33050427532196,1.1417415950554488
4.516083282858873,2.8060668165206897,0.781277169513702,0.5125425996780401,1.1417415950554488
4.516688976377953,3.27309562511444,1.43032746248245,0.10778429889679,1.1417415950554488
4.517294669897032,1.4289305860519401,3.52357453279495,-0.66341199016571,1.1417415950554488
4.5179003634161115,-2.4893213670730603,-0.921581717205048,0.90772082233429,1.1417415950554488
4.518506056935191,-1.72052009754181,-3.4100070101738003,0.0191685762405398,1.1417415950554488
4.51911175045427,-1.58400398426056,-0.0881149203300476,0.70414416217804,1.1417415950554488
4.519717443973349,-2.22107917957306,1.1836404507637002,-0.78795300579071,1.1417415950554488
4.520323137492429,0.138015058708191,-1.2880197054862998,-0.62030163860321,1.1417415950554488
4.520928831011508,2.56895988292694,-1.1036032015800499,-0.24907361125945998,1.1417415950554488
4.521534524530587,3.3114159376144396,1.4878079312324501,-0.07423718547821019,1.1417415950554488
4.5221402180496675,-0.396074296760559,2.7595633023262,0.92209093952179,1.1417415950554488
4.522745911568746,-3.0521509569168104,-0.286901541423798,1.08016222858429,1.1417415950554488
4.523351605087826,-0.14220222644805902,-2.78969695158005,-0.34487439250946,1.1417415950554488
4.523957298606906,-0.695451738166809,-0.047399588298797604,-0.7855579862594599,1.1417415950554488
4.5245629921259845,0.159570234489441,0.024450997638702402,-0.44307019329071,1.1417415950554488
4.525168685645064,0.672104414176941,-2.61725554533005,-0.22512341594696,1.1417415950554488
4.525774379164143,-0.175732499885559,0.467529610919952,0.20358508014679,1.1417415950554488
4.526380072683223,1.76902335948944,2.3979153531074497,1.27655383014679,1.1417415950554488
4.526985766202302,-0.329013749885559,1.91412140779495,0.81671008014679,1.1417415950554488
4.527591459721381,-1.34210701160431,0.47950470857620203,-0.57479626750946,1.1417415950554488
4.52819715324046,1.05770255870819,-3.59442351408005,8.41999053976861e-06,1.791436712433745
4.5288028467595405,0.576303632926941,-0.928766775798798,-1.20229138469696,1.791436712433745
4.529408540278619,0.138015058708191,1.0974197476387,0.37123644733429,1.791436712433745
4.530014233797698,-1.69417488269806,0.287903146076202,0.0574888887405398,1.791436712433745
4.530619927316778,-1.49538826160431,-0.531193533611298,0.30417590045929,1.791436712433745
4.5312256208358574,1.95822990245819,-0.133620291423798,1.18554308795929,1.791436712433745
4.531831314354936,1.1846385938644401,2.0171072476387,-0.0335218534469602,1.791436712433745
4.532437007874016,0.981061933708191,2.67094757966995,0.00479845905303977,1.791436712433745
4.533042701393095,0.638574140739441,-1.65445769376755,-0.65383191204071,1.791436712433745
4.533648394912174,0.10927482433319101,-3.7740499789238,-0.7256824979782099,1.791436712433745
4.534254088431254,-1.01398933582306,1.70814972810745,-0.29218396282196,1.791436712433745
4.534859781950333,-4.0676392381668105,0.268742989826202,0.88137560749054,1.791436712433745
4.5354654754694135,0.0254491407394409,-1.0054074007988,-0.8645936307907099,1.791436712433745
4.536071168988492,3.04317375011444,-0.0833248812675476,0.95322619342804,1.791436712433745
4.536676862507571,2.7701415235519398,1.7225198452949502,-0.73526257610321,1.791436712433745
4.53728255602665,1.33791984386444,3.1092361538886997,-0.53408093547821,1.791436712433745
4.5378882495457304,-2.41747078113556,-0.955111990642548,1.29331896686554,1.791436712433745
4.538493943064809,-1.39240242176056,-2.55019499845505,-1.11128064250946,1.791436712433745
4.539099636583889,-1.59837410144806,-0.495268240642548,0.10778429889679,1.791436712433745
4.539705330102969,-1.85703621082306,0.745351876544952,-0.68736218547821,1.791436712433745
4.540311023622047,0.688869550895691,-1.2616744906425499,0.18921496295929,1.791436712433745
4.540916717141127,2.53542960948944,-1.0964181429863,-0.11255749797820999,1.791436712433745
4.541522410660206,2.85157218761444,1.81353058748245,-0.00717663860321023,1.791436712433745
4.542128104179286,-0.939743730354309,2.99188019685745,1.34361437702179,1.791436712433745
4.542733797698365,-2.8294141405105604,0.0963015835762024,-0.39995984172821,1.791436712433745
4.543339491217444,0.32482658214569105,-2.6196505648613,-0.14129773235321,1.791436712433745
4.543945184736523,-0.17812751941680902,0.041216134357452396,0.48380236530304,1.791436712433745
4.544550878255603,-0.235607988166809,0.211262521076202,-0.22272839641571,1.791436712433745
4.545156571774682,-0.357753984260559,-1.44369597501755,-1.03943005657196,1.791436712433745
4.545762265293761,0.490082929801941,-0.330011892986298,0.82389513874054,1.791436712433745
4.546367958812841,2.06840080089569,2.6038870327949497,-0.39756482219696,1.791436712433745
4.54697365233192,-0.987644120979309,2.30690461091995,1.42504504108429,1.791436712433745
4.547579345850999,-0.937348710823059,-0.0713497836112976,1.02028674030304,1.791436712433745
4.548185039370079,1.1247631055831901,-2.5621700961113003,-1.07296033000946,1.791436712433745
4.548790732889158,0.16675529308319098,-1.8652194125175499,-0.27062878704071,1.791436712433745
4.549396426408237,0.736769941520691,1.3728469937324501,-1.45855847454071,1.791436712433745
4.550002119927317,-2.13485847644806,-0.399467459392548,1.58311633014679,1.791436712433745
4.550607813446396,-1.1505054491043099,0.194497384357452,0.43111193561554,1.791436712433745
4.5512135069654756,1.87200919933319,0.175337228107452,0.74006945514679,1.791436712433745
4.551819200484555,0.899631269645691,1.79437043123245,-0.54366101360321,1.791436712433745
4.552424894003634,1.27564933605194,2.4482107632637,1.01549670124054,1.791436712433745
4.553030587522715,0.530798261833191,-0.823385916423798,-0.94602429485321,1.791436712433745
4.553636281041793,-0.135017167854309,-4.03031706876755,-0.57000622844696,1.791436712433745
4.554241974560872,-1.01638435535431,1.3273416226387,-0.41911999797821,1.791436712433745
4.554847668079951,-3.63174568347931,0.40046906404495203,0.70653918170929,1.791436712433745
4.555453361599032,-0.226027910041809,-1.4796212679863,0.21316515827179,1.791436712433745
4.55605905511811,3.06472892589569,0.759721993732452,-0.32092419719695997,1.791436712433745
4.55666474863719,2.9497679883956898,0.776487130451202,1.06818713092804,1.791436712433745
4.557270442156269,1.38821525402069,4.1247244351387,-1.47532361125946,1.791436712433745
4.5578761356753486,-2.59709724597931,-1.4556710726738,1.66215197467804,1.791436712433745
4.558481829194428,-1.15290046863556,-2.9693234164238,-1.44179333782196,1.791436712433745
4.559087522713507,-1.89775154285431,-0.638969412517548,0.53409777545929,1.791436712433745
4.559693216232586,-1.91691169910431,0.563330392169952,0.70414416217804,1.791436712433745
4.560298909751666,0.578698652458191,-0.310851736736298,-2.16508923625946,1.791436712433745
4.560904603270745,2.38214835948944,-1.4844113070487999,-0.16045788860321,1.791436712433745
4.561510296789824,3.36650138683319,1.05670441560745,0.96999133014679,1.791436712433745
4.562115990308905,-1.31336677722931,2.6014920132637,0.82150011920929,1.791436712433745
4.562721683827983,-2.58512214832306,0.249582833576202,0.33531115436554,1.791436712433745
4.563327377347062,0.262556074333191,-2.7346115023613002,-0.47181042766571,1.791436712433745
4.563933070866142,-0.103881913948059,0.0867215054512024,-0.30415906047821,1.791436712433745
4.5645387643852215,-0.515825273323059,0.170547189044952,-0.6658070096969599,1.791436712433745
4.5651444579043,0.00389396495819093,-2.63641570158005,-0.76160779094696,1.791436712433745
4.56575015142338,0.482897871208191,0.956113595294952,-0.29218396282196,1.791436712433745
4.566355844942459,1.85524406261444,2.5176663296699497,1.35319445514679,1.791436712433745
4.5669615384615385,-0.558935624885559,1.89975129060745,0.90053576374054,1.791436712433745
4.567567231980618,-1.35647712879181,0.125041817951202,-0.72089245891571,1.791436712433745
4.568172925499697,1.07686271495819,-3.52257292814255,-0.22751843547821,1.791436712433745
4.568778619018776,0.937951582145691,-0.476108084392548,-1.51124890422821,1.791436712433745
4.569384312537856,0.018264082145690898,0.893843087482452,-0.19877820110320998,1.791436712433745
4.569990006056935,-1.28223152332306,0.0986966031074524,0.0598839082717898,1.791436712433745
4.570595699576015,-1.59358406238556,-0.595859060955048,1.54479601764679,1.791436712433745
4.5712013930950945,1.35468498058319,0.328618478107452,0.52451769733429,1.791436712433745
4.571807086614173,1.43611564464569,1.5907937710762001,-0.35205945110321,1.791436712433745
4.572412780133253,1.0050121290206901,3.3223928921699497,0.25627550983429,1.791436712433745
4.573018473652332,0.715214765739441,-1.0580978304863,-0.45025525188446,1.791436712433745
4.5736241671714115,-0.5134302537918091,-4.3129293734550505,-0.68017712688446,1.791436712433745
4.574229860690491,-0.942138749885559,1.67940949373245,-0.21793835735321,1.791436712433745
4.57483555420957,-3.71557136707306,0.196892403888702,0.79754992389679,1.791436712433745
4.57544124772865,0.0613744337081909,-0.957507010173798,-0.59156140422821,1.791436712433745
4.576046941247729,2.5402196485519397,0.211262521076202,0.92688097858429,1.791436712433745
4.576652634766808,3.17968986339569,1.4662527554512002,-0.49097058391570997,1.791436712433745
4.577258328285887,1.19661369152069,2.5272464077949497,-0.23949353313446,1.791436712433745
4.5778640218049675,-2.26179451160431,-0.274926443767548,0.45985216999054,1.791436712433745
4.578469715324046,-0.937348710823059,-3.0124337679863,0.53888781452179,1.791436712433745
4.579075408843125,-2.02229255847931,-0.282111502361298,-0.40714490032196,1.791436712433745
4.579681102362205,-2.28574470691681,0.874682931232452,-0.36163952922821,1.791436712433745
4.5802867958812845,0.413442304801941,-1.7670236117362998,0.6921690645217901,1.791436712433745
4.580892489400363,2.58812003917694,-0.562328787517548,-1.88726697063446,1.791436712433745
4.581498182919443,2.93060783214569,1.2554910367012,0.33770617389679003,1.791436712433745
4.582103876438522,-1.18643074207306,2.7140579312324498,1.33163927936554,1.791436712433745
4.5827095699576015,-2.85336433582306,-0.0881149203300476,0.5317027559280401,1.791436712433745
4.583315263476681,0.44457755870819105,-2.57414519376755,-0.93165417766571,1.791436712433745
4.58392095699576,-0.568515703010559,-0.227026053142548,0.11975939655304,1.791436712433745
4.584526650514839,-0.13262214832305902,0.417234200763702,-0.59635144329071,1.791436712433745
4.585132344033919,-0.0416114061355591,-2.47834441251755,-1.02266491985321,1.791436712433745
4.585738037552998,0.195495527458191,0.261557931232452,0.51972765827179,1.791436712433745
4.586343731072078,1.85763908214569,2.32606476716995,1.41306994342804,1.791436712433745
4.5869494245911575,-0.618811113166809,1.87101105623245,0.81671008014679,1.791436712433745
4.587555118110236,-0.8942383592605591,0.405259103107452,0.0479088106155398,1.791436712433745
4.588160811629316,1.19661369152069,-3.44114226408005,-0.34247937297821,1.791436712433745
4.588766505148396,0.628994062614441,-0.849731131267548,-1.92798230266571,1.791436712433745
4.5893721986674745,-0.0440064256668091,0.273533028888702,0.8310801973342901,1.791436712433745
4.589977892186554,-1.3301319139480599,0.395679024982452,-0.0287318143844602,1.791436712433745
4.590583585705633,-1.96002205066681,-0.626994314861298,1.44660021686554,1.791436712433745
4.591189279224713,1.7833934766769401,0.675896310138702,-0.54845105266571,1.791436712433745
4.591794972743792,1.71154289073944,1.38721711091995,0.44548205280304,1.791436712433745
4.592400666262871,0.8062255079269409,2.9200296109199497,0.76162463092804,1.791436712433745
4.59300635978195,0.31764152355194103,-0.849731131267548,-1.12325574016571,1.791436712433745
4.5936120533010305,-0.525405351448059,-4.21712859220505,-0.20356824016570998,1.791436712433745
4.594217746820109,-1.10500007801056,1.79437043123245,-1.05380017375946,1.791436712433745
4.594823440339188,-3.53594490222931,-0.164755545330048,1.44420519733429,1.791436712433745
4.595429133858268,0.0781395704269409,-1.2784396273613,-0.70412732219696,1.791436712433745
4.5960348273773475,2.80367179698944,0.532195138263702,0.33770617389679003,1.791436712433745
4.596640520896426,3.05754386730194,1.1596902554512,0.99394152545929,1.791436712433745
4.597246214415506,1.5654466993331901,3.7415213101386997,-0.71610241985321,1.791436712433745
4.597851907934585,-2.50369148426056,-0.729980154705048,1.16877795124054,1.791436712433745
4.5984576014536644,-1.21996101551056,-3.4147970492363,-0.10058240032195999,1.791436712433745
4.599063294972744,-1.61274421863556,0.388493966388702,-0.9651844511032099,1.791436712433745
4.599668988491823,-1.89296150379181,0.417234200763702,0.60355334186554,1.791436712433745
4.600274682010902,0.360751875114441,-0.789855642986298,-0.95799939250946,1.791436712433745
4.600880375529982,2.30311271495819,-1.2161691195488,-0.0431019315719602,1.791436712433745
4.601486069049061,3.0120384962081896,0.850732735919952,1.16159289264679,1.791436712433745
4.60209176256814,-1.25109626941681,3.21701203279495,0.26346056842804,1.791436712433745
4.6026974560872205,-2.4462110155105603,-0.179125662517548,0.94364611530304,1.791436712433745
4.603303149606299,-0.0296363084793091,-2.95255827970505,-0.39756482219696,1.791436712433745
4.603908843125379,-0.896633378791809,0.357358712482452,-0.43349011516571,1.791436712433745
4.604514536644459,0.207470625114441,0.484294747638702,-0.57719128704071,1.791436712433745
4.605120230163537,-0.257163163948059,-2.8950778109550503,-1.02266491985321,1.791436712433745
4.605725923682617,0.411047285270691,1.06628449373245,-0.55084607219696,1.791436712433745
4.606331617201696,1.77860343761444,1.87101105623245,1.91602404499054,1.791436712433745
4.606937310720776,-0.427209550666809,2.6014920132637,0.0455137910842898,1.791436712433745
4.607543004239855,-1.24151619129181,0.125041817951202,0.40237170124054,1.791436712433745
4.608148697758934,1.1247631055831901,-3.3285763461113,-1.22863659954071,1.791436712433745
4.608754391278013,1.13673820323944,-1.11797331876755,-0.63946179485321,1.791436712433745
4.6093600847970935,-0.103881913948059,0.716611642169952,0.55086291217804,1.791436712433745
4.609965778316172,-1.3468970506668099,0.422024239826202,-0.0550770292282102,1.791436712433745
4.610571471835251,-1.49299324207306,-0.780275564861298,1.16877795124054,1.791436712433745
4.611177165354331,1.74028312511444,0.726191720294952,-0.54126599407196,1.791436712433745
4.61178285887341,0.8876561719894409,0.642366036701202,1.45618029499054,1.791436712433745
4.612388552392489,1.23972404308319,3.90198761873245,-1.69566540813446,1.791436712433745
4.612994245911569,0.451762617301941,-1.69756804533005,0.24430041217804,1.791436712433745
4.613599939430648,0.0877196485519409,-3.2327755648613,-0.9843446073532099,1.791436712433745
4.614205632949727,-1.61274421863556,1.11418488435745,0.53888781452179,1.791436712433745
4.614811326468807,-3.78502693347931,0.06995636873245241,0.30417590045929,1.791436712433745
4.615417019987886,-0.08472175769805909,-1.0317526156425498,-0.31613415813446,1.791436712433745
4.616022713506966,2.45878898448944,-0.054584646892547606,1.41546496295929,1.791436712433745
4.616628407026045,3.56528800792694,2.0218972867012,-1.49687878704071,1.791436712433745
4.617234100545124,1.27564933605194,2.6685525601387,0.71851427936554,1.791436712433745
4.617839794064203,-2.44381599597931,-0.284506521892548,0.51972765827179,1.791436712433745
4.618445487583283,-1.50017830066681,-3.66148406095505,0.37123644733429,1.791436712433745
4.619051181102362,-1.56005378894806,0.580095528888702,-1.07056531047821,1.791436712433745
4.619656874621442,-2.23544929676056,0.412444161701202,0.39758166217804003,1.791436712433745
4.620262568140522,0.5475633985519409,-1.3502902132988,-0.88375378704071,1.791436712433745
4.6208682616596,2.2911376173019398,-0.955111990642548,-1.30048718547821,1.791436712433745
4.62147395517868,2.8587572462081896,0.879472970294952,1.23823351764679,1.791436712433745
4.622079648697759,-0.796042558479309,3.49004425935745,0.55086291217804,1.791436712433745
4.622685342216839,-3.08568123035431,-0.0737448031425476,1.06339709186554,1.791436712433745
4.623291035735918,0.00628898448944093,-2.6962911898613,-0.42391003704071,1.791436712433745
4.623896729254997,-0.487085038948059,-0.550353689861298,0.14610461139679,1.791436712433745
4.624502422774076,-0.34338386707305896,0.886658028888702,-1.08733044719696,1.791436712433745
4.625108116293156,-0.36254402332305896,-2.48792449064255,-0.62030163860321,1.791436712433745
4.625713809812235,0.6649193555831909,0.608835763263702,-0.0359168729782102,1.791436712433745
4.626319503331314,1.4025853712081902,1.95244172029495,1.49689562702179,1.791436712433745
4.626925196850394,-0.42241951160430896,2.1033279507637,0.99633654499054,1.791436712433745
4.627530890369473,-1.4714380662918098,0.608835763263702,-0.35684949016571,1.791436712433745
4.628136583888552,1.29241447277069,-3.09625945158005,-1.2741419706344599,1.47621998124414
4.628742277407632,0.8828661329269409,-1.1203683382988,-0.44786023235321,1.47621998124414
4.629347970926712,-0.000896074104309071,0.855522774982452,0.0934141817092898,1.47621998124414
4.62995366444579,-0.7912525194168091,0.247187814044952,-0.35445447063446,1.47621998124414
4.63055935796487,-2.2234741991043103,-0.416232596111298,1.38432970905304,1.47621998124414
4.631165051483949,1.73549308605194,1.1788504117012,-0.30415906047821,1.47621998124414
4.6317707450030285,1.5055712110519401,0.810017403888702,0.87898058795929,1.47621998124414
4.632376438522108,1.07925773448944,3.2673074429512,-0.27541882610321,1.47621998124414
4.632982132041187,0.6074388868331909,-1.00780242033005,-1.34120251750946,1.47621998124414
4.633587825560268,-0.245188066291809,-4.2434738070488,-0.24428357219696,1.47621998124414
4.634193519079346,-1.1720606248855598,1.5309182827949501,0.19400500202179,1.47621998124414
4.634799212598425,-3.67485603504181,0.319038399982452,0.32573107624054,1.47621998124414
4.635404906117504,-0.13741218738555902,-1.3790304476738,-0.34966443157196,1.47621998124414
4.636010599636585,2.77732658214569,0.194497384357452,0.46943224811554,1.47621998124414
4.636616293155663,2.9952733594894396,1.32015656404495,0.93646105670929,1.47621998124414
4.637221986674743,1.35468498058319,3.58584504060745,-0.0239417753219602,1.47621998124414
4.637827680193822,-2.30490486316681,-0.873681326580048,0.49577746295929,1.47621998124414
4.6384333737129015,-1.29660164051056,-3.14894988126755,0.0622789278030398,1.47621998124414
4.639039067231981,-2.03905769519806,0.105881661701202,0.49098742389679,1.47621998124414
4.63964476075106,-2.45818611316681,0.474714669513702,0.16765978717804,1.47621998124414
4.640250454270139,0.856520918083191,-0.0809298617362976,-1.54238415813446,1.47621998124414
4.640856147789219,2.01092033214569,-1.8532443148613,0.88137560749054,1.47621998124414
4.641461841308298,3.34734123058319,1.5572634976387,-1.15918103313446,1.47621998124414
4.642067534827377,-1.46904304676056,2.4290506070137,1.46097033405304,1.47621998124414
4.642673228346458,-2.64020759754181,0.366938790607452,1.01070666217804,1.47621998124414
4.643278921865536,0.37751701183319103,-2.3729635531425504,-0.88375378704071,1.47621998124414
4.643884615384615,-0.9110034959793091,-0.227026053142548,0.25627550983429,1.47621998124414
4.644490308903695,0.22663078136444098,0.656736153888702,-1.18552624797821,1.47621998124414
4.6450960024227745,-0.12304207019805899,-3.3956368929863,-0.51013074016571,1.47621998124414
4.645701695941853,0.7056346876144409,0.829177560138702,0.16047472858429002,1.47621998124414
4.646307389460933,1.32833976573944,2.08656281404495,1.62383166217804,1.47621998124414
4.646913082980012,-0.7122168748855591,2.6685525601387,0.0191685762405398,1.47621998124414
4.6475187764990915,-1.20798591785431,-0.0258444125175476,0.90532580280304,1.47621998124414
4.648124470018171,1.53431144542694,-3.1034445101738,-1.39868298625946,1.47621998124414
4.64873016353725,1.03854240245819,-1.21377410001755,-0.81429822063446,1.47621998124414
4.649335857056329,-0.209262773323059,0.929768380451202,0.0838341035842898,1.47621998124414
4.649941550575409,-1.27504646472931,0.0843264859199524,0.41195177936554,1.47621998124414
4.650547244094488,-1.76842048816681,-0.346777029705048,1.02268175983429,1.47621998124414
4.651152937613568,1.79057853527069,0.455554513263702,-0.52210583782196,1.47621998124414
4.6517586311326475,1.04572746105194,1.0519143765449501,0.24669543170929,1.47621998124414
4.652364324651726,0.516428144645691,3.41819367341995,-0.0263367948532102,1.47621998124414
4.652970018170806,1.24211906261444,-0.837756033611298,-0.30415906047821,1.47621998124414
4.653575711689885,-0.11585701160430899,-4.0662423617363,-0.50055066204071,1.47621998124414
4.6541814052089645,-1.4498828905105599,1.10460480623245,-0.18440808391571,1.47621998124414
4.654787098728044,-3.55271003894806,-0.0785348422050476,0.52691271686554,1.47621998124414
4.655392792247123,-0.139807206916809,-1.0389376742363,-0.73526257610321,1.47621998124414
4.655998485766203,2.56416984386444,0.338198556232452,1.39630480670929,1.47621998124414
4.656604179285282,2.9593480665206897,1.4375125210762,-0.34726941204071,1.47621998124414
4.657209872804361,1.2660692579269401,3.5403396695137,-0.76160779094696,1.47621998124414
4.65781556632344,-2.5731470506668104,-1.4077706820487998,1.33642931842804,1.47621998124414
4.6584212598425205,-1.29660164051056,-2.4472091586113,-1.33162243938446,1.47621998124414
4.659026953361599,-1.84506111316681,-0.349172049236298,0.66342883014679,1.47621998124414
4.659632646880678,-2.20191902332306,0.613625802326202,-0.51252575969696,1.47621998124414
4.660238340399758,0.8661009962081909,-0.775485525798798,-1.13523083782196,1.47621998124414
4.6608440339188375,2.3701732618331897,-1.5059664828300499,-0.39756482219696,1.47621998124414
4.661449727437916,3.1485546094894397,1.3656619351387,0.61313341999054,1.47621998124414
4.662055420956996,-1.3684522264480599,2.4003103726387,1.76753283405304,1.47621998124414
4.662661114476075,-2.4701612108230604,0.656736153888702,-0.41672497844696,1.47621998124414
4.6632668079951545,-0.0128711717605591,-3.49862273283005,0.66103381061554,1.47621998124414
4.663872501514234,-0.815202714729309,0.536985177326202,-1.55914929485321,1.47621998124414
4.664478195033313,-0.20207771472930902,-0.270136404705048,0.43590197467804,1.47621998124414
4.665083888552392,-0.254768144416809,-2.4280490023613,-0.98913464641571,1.47621998124414
4.665689582071472,0.6242040235519409,1.14292511873245,-0.29218396282196,1.47621998124414
4.666295275590551,1.73788810558319,1.1501101773262001,2.58423449420929,1.47621998124414
4.666900969109631,-0.487085038948059,2.7763284390449496,-1.32204236125946,1.47621998124414
4.6675066626287105,-1.32294685535431,-0.265346365642548,1.50168566608429,1.47621998124414
4.668112356147789,1.49120109386444,-2.9645333773613003,-0.87896374797821,1.47621998124414
4.668718049666869,0.8062255079269409,-1.1850338656425499,-0.74963269329071,1.47621998124414
4.669323743185949,0.26734611339569103,1.23872589998245,-0.20596325969696,1.47621998124414
4.6699294367050275,-1.57442390613556,-0.227026053142548,0.33770617389679003,1.47621998124414
4.670535130224107,-1.46185798816681,-0.406652517986298,0.5317027559280401,1.47621998124414
4.671140823743186,1.77620841808319,0.721401681232452,0.0167735567092898,1.47621998124414
4.671746517262266,0.930766523551941,1.0399392788887,0.89574572467804,1.47621998124414
4.672352210781345,0.935556562614441,3.0517556851387,-0.85261853313446,1.47621998124414
4.672957904300424,0.8876561719894409,-1.33831511564255,-0.13650769329071,1.47621998124414
4.673563597819503,-0.015266191291809101,-3.3094161898613,-1.27653699016571,1.47621998124414
4.6741692913385835,-1.48580818347931,1.1309500210762,-0.16285290813446,1.47621998124414
4.674774984857662,-3.6509058397293104,-0.00907927579879762,1.32445422077179,1.47621998124414
4.675380678376741,0.212260664176941,-1.39579558439255,-0.0933973417282102,1.47621998124414
4.675986371895821,2.9856932813644397,0.271138009357452,0.29459582233429,1.47621998124414
4.6765920654149005,3.01443351573944,1.89975129060745,-0.64664685344696,1.47621998124414
4.677197758933979,1.17266349620819,3.06852082185745,0.62510851764679,1.47621998124414
4.677803452453059,-2.33843513660431,-0.409047537517548,1.04663195514679,1.47621998124414
4.678409145972138,-1.27504646472931,-3.3070211703300503,-0.9651844511032099,1.47621998124414
4.679014839491217,-1.59837410144806,0.395679024982452,-0.97476452922821,1.47621998124414
4.679620533010297,-2.5060865037918103,-0.00668425626754762,1.09453234577179,1.47621998124414
4.680226226529376,1.0864427930831901,-0.626994314861298,-0.80711316204071,1.47621998124414
4.680831920048455,2.51866447277069,-0.928766775798798,-0.44067517375945997,1.47621998124414
4.681437613567535,2.16899162120819,1.15250519685745,-0.31613415813446,1.47621998124414
4.682043307086614,-0.887053300666809,2.82901886873245,0.67300890827179,1.47621998124414
4.682649000605693,-2.8892896287918104,0.23281769685745202,-0.06944714641571019,1.47621998124414
4.6832546941247735,0.11406486339569101,-4.83983367033005,-0.004781619071960229,1.47621998124414
4.683860387643852,0.535588300895691,1.0734695523262001,-0.78316296672821,1.47621998124414
4.684466081162932,-2.38394050769806,3.8900125210762,1.28134386920929,1.47621998124414
4.685071774682012,0.511638105583191,-4.20275847501755,-1.18073620891571,1.47621998124414
4.68567746820109,3.0790990430831897,-1.7574435336113,-2.40698620891571,1.47621998124414
4.68628316172017,-0.877473222541809,2.7236380093574497,3.66199328327179,1.47621998124414
4.686888855239249,-0.33140876941680897,4.7043191617012,-1.47771863079071,1.47621998124414
4.687494548758329,-1.18164070301056,-0.849731131267548,2.66806017780304,1.47621998124414
4.688100242277408,1.08404777355194,-2.46397429533005,-1.76272595500946,1.47621998124414
4.688705935796487,1.49359611339569,-2.6244406039238,-1.88726697063446,1.47621998124414
4.689311629315566,-1.27983650379181,1.2099856656074501,-0.11255749797820999,1.47621998124414
4.6899173228346465,-0.568515703010559,1.01359406404495,0.59876330280304,1.47621998124414
4.690523016353725,0.439787519645691,-0.914396658611298,1.90883898639679,1.47621998124414
4.691128709872804,-0.417629472541809,1.0543093960762,-0.79753308391571,1.47621998124414
4.691734403391884,0.0637694532394409,0.7237967007637021,0.52451769733429,1.47621998124414
4.692340096910963,1.34510490245819,1.7392849820137,1.28373888874054,1.47621998124414
4.692945790430042,0.770300214958191,0.165757149982452,-1.42023816204071,1.47621998124414
4.693551483949122,0.7631151563644409,-3.0842843539238003,-0.65383191204071,1.47621998124414
4.694157177468201,-1.8426660936355599,1.10460480623245,1.7795079317092901,1.47621998124414
4.69476287098728,-3.6173755662918103,0.735771798419952,-1.07056531047821,1.47621998124414
4.69536856450636,0.312851484489441,-2.8711276156425503,-0.12453259563446,1.47621998124414
4.695974258025439,1.57263175792694,0.800437325763702,0.83587023639679,1.47621998124414
4.696579951544519,2.53782462902069,1.91412140779495,-0.33529431438446,1.47621998124414
4.697185645063598,1.90553947277069,3.0709158413887,0.74006945514679,1.47621998124414
4.697791338582677,-1.45706794910431,-0.183915701580048,0.41434679889679,1.47621998124414
4.698397032101756,-0.527800370979309,-4.4111251742363,-0.16285290813446,1.47621998124414
4.699002725620836,-2.6857129686355603,0.036426095294952394,0.026353634834289798,1.47621998124414
4.699608419139915,-2.4390259569168102,1.4494876187324501,0.74485949420929,1.47621998124414
4.700214112658994,0.7655101758956909,-1.05091277189255,-0.25146863079070997,1.47621998124414
4.700819806178075,2.20970695323944,-0.631784353923798,-1.59507458782196,1.47621998124414
4.701425499697153,2.8132518751144397,-0.349172049236298,1.40588488483429,1.47621998124414
4.702031193216233,-1.03793953113556,3.2050369351387,-0.9053089628219599,1.47621998124414
4.702636886735312,-2.71684822254181,0.800437325763702,1.61185656452179,1.47621998124414
4.703242580254392,0.5451683790206909,-2.1023263461113,-0.79753308391571,1.47621998124414
4.703848273773471,-0.975669023323059,-0.37791228361129797,-1.03224499797821,1.47621998124414
4.70445396729255,-0.616416093635559,-0.782670584392548,-0.0478919706344602,1.47621998124414
4.705059660811629,0.655339277458191,-2.3274581820488,-1.26935193157196,1.47621998124414
4.705665354330709,-0.163757402229309,1.00880402498245,0.56283800983429,1.47621998124414
4.706271047849788,1.38342521495819,2.4051004117012,0.28741076374054003,1.47621998124414
4.706876741368867,-0.408049394416809,1.6841995327949502,1.00591662311554,1.47621998124414
4.707482434887947,-1.01398933582306,0.41004914216995203,-0.37361462688446,1.47621998124414
4.708088128407026,1.77860343761444,-3.2519357211113,-0.28260388469696,1.47621998124414
4.708693821926105,0.0278441602706909,-0.866496267986298,-0.41193493938446,1.47621998124414
4.709299515445185,-0.240398027229309,0.625600899982452,0.35207629108429,1.47621998124414
4.709905208964265,-1.36605720691681,-0.30845671720504797,0.82389513874054,1.47621998124414
4.710510902483343,-1.88817146472931,0.620810860919952,-0.74723767375946,1.47621998124414
4.711116596002423,2.2144969923019397,-0.112065115642548,0.81671008014679,1.47621998124414
4.711722289521502,1.91990958995819,0.984853829669952,0.51014758014679,1.47621998124414
4.7123279830405815,0.5020580274581911,3.2481472867012,-0.12453259563446,1.47621998124414
4.712933676559661,0.430207441520691,-1.16587370939255,-1.01547986125946,1.47621998124414
4.71353937007874,-0.489480058479309,-4.42310027189255,-0.39995984172821,1.47621998124414
4.714145063597821,-0.764907304573059,0.587280587482452,0.63708361530304,1.47621998124414
4.714750757116899,-3.49283455066681,0.826782540607452,-0.6658070096969599,1.47621998124414
4.715356450635978,-0.887053300666809,-1.0772579867363,0.33291613483429,1.47621998124414
4.715962144155058,3.94849113292694,0.216052560138702,0.0718590059280398,1.47621998124414
4.716567837674138,3.14615958995819,0.999223946857452,-0.07902722454071019,1.47621998124414
4.717173531193216,1.02417228527069,3.4301687710762,-0.06465710735321019,1.47621998124414
4.717779224712296,-2.74079841785431,-0.947926932048798,1.15680285358429,1.47621998124414
4.718384918231375,-1.37803230457306,-2.6555758578300503,-0.33050427532196,1.47621998124414
4.7189906117504545,-1.63190437488556,-0.409047537517548,-0.0526820096969602,1.47621998124414
4.719596305269534,-2.2234741991043103,0.17773224763870202,-0.36403454875946,1.47621998124414
4.720201998788613,0.720004804801941,-0.483293142986298,-0.67299206829071,1.47621998124414
4.720807692307692,2.26479240245819,-0.847336111736298,-0.64425183391571,1.47621998124414
4.721413385826772,3.2419603712081897,1.57402863435745,0.20598009967804,1.47621998124414
4.722019079345851,-1.03554451160431,2.4961111538887,1.10650744342804,1.47621998124414
4.72262477286493,-2.9347949998855603,-0.279716482830048,0.00958849811553977,1.47621998124414
4.723230466384011,0.178730390739441,-3.1226046664238,0.55325793170929,1.47621998124414
4.723836159903089,-0.367334062385559,0.845942696857452,-1.55435925579071,1.47621998124414
4.724441853422168,0.0853246290206909,-0.0857199007987976,-0.40714490032196,1.47621998124414
4.725047546941248,0.48529289073944104,-2.5525900179863004,-0.92686413860321,1.47621998124414
4.7256532404603275,0.260161054801941,0.369333810138702,0.11736437702179,1.47621998124414
4.726258933979406,1.5654466993331901,2.00513214998245,1.87770373249054,1.47621998124414
4.726864627498486,-0.645156328010559,2.83859894685745,-0.52689587688446,1.47621998124414
4.727470321017565,-1.36605720691681,-0.0833248812675476,0.55565295124054,1.47621998124414
4.7280760145366445,1.67801261730194,-3.5393380648613,-0.34966443157196,0.9203958590717108
4.728681708055724,0.849335859489441,-0.667709646892548,-1.5735194120407099,0.9203958590717108
4.729287401574803,0.238605879020691,0.560935372638702,1.1208775606155401,0.9203958590717108
4.729893095093882,-1.37324226551056,0.369333810138702,-0.39516980266571,0.9203958590717108
4.730498788612962,-1.96481208972931,-0.576698904705048,0.72569933795929,0.9203958590717108
4.731104482132041,1.51515128917694,-0.0354244906425476,0.49338244342804,0.9203958590717108
4.731710175651121,1.25888419933319,1.49738800935745,-0.47660046672821,0.9203958590717108
4.7323158691702005,1.07925773448944,2.5583816617012,0.74725451374054,0.9203958590717108
4.732921562689279,0.995432050895691,-1.1036032015800499,-0.31134411907195997,0.9203958590717108
4.733527256208359,-0.154177324104309,-4.04468718595505,-0.12213757610321,0.9203958590717108
4.734132949727438,-1.42593269519806,1.7919754117012001,-0.89333386516571,0.9203958590717108
4.7347386432465175,-3.5934253709793103,0.189707345294952,1.18793810749054,0.9203958590717108
4.735344336765597,-0.408049394416809,-1.7670236117362998,-0.32810925579071,0.9203958590717108
4.735950030284676,2.4396288282394396,0.534590157794952,-0.61790661907196,0.9203958590717108
4.736555723803756,3.07670402355194,1.8207156460762002,0.22274523639679,0.9203958590717108
4.737161417322835,1.13913322277069,2.6781326382637,0.40476672077179,0.9203958590717108
4.737767110841914,-2.22586921863556,-0.811410818767548,0.77838976764679,0.9203958590717108
4.738372804360993,-1.3636621873855599,-3.3142062289238003,-0.75921277141571,0.9203958590717108
4.7389784978800735,-1.82350593738556,0.0268460171699524,-0.22512341594696,0.9203958590717108
4.739584191399152,-1.7492603319168099,0.989643868732452,0.8909556856155401,0.9203958590717108
4.740189884918231,0.28650626964569104,-1.45327605314255,-0.84782849407196,0.9203958590717108
4.740795578437311,2.04684562511444,-0.979062185955048,-0.66101697063446,0.9203958590717108
4.7414012719563905,3.0024584180831897,1.39200714998245,0.88377062702179,0.9203958590717108
4.742006965475469,-0.721796953010559,3.0278054898262,-0.33529431438446,0.9203958590717108
4.742612658994549,-2.74798347644806,0.151387032794952,0.89814074420929,0.9203958590717108
4.743218352513628,-0.0966968553543091,-2.5885153109550503,0.0479088106155398,0.9203958590717108
4.7438240460327075,-0.46313484363555896,-0.409047537517548,0.5915782442092901,0.9203958590717108
4.744429739551787,-0.29308845691680896,0.122646798419952,-1.26456189250946,0.9203958590717108
4.745035433070866,-0.00808113269805907,-2.7058712679863,-0.79274304485321,0.9203958590717108
4.745641126589945,0.173940351676941,0.16815216951370202,0.74725451374054,0.9203958590717108
4.746246820109025,1.87200919933319,2.66136750154495,1.19991320514679,0.9203958590717108
4.746852513628104,-0.5349854295730591,2.0290823452949502,1.35558947467804,0.9203958590717108
4.747458207147184,-1.47383308582306,0.6040457242012021,-0.99392468547821,0.9203958590717108
4.7480639006662635,1.29480949230194,-3.1896652132988,-0.40235486125946,0.9203958590717108
4.748669594185342,0.482897871208191,-1.3478951937675498,-1.1543909940719599,0.9203958590717108
4.749275287704422,0.190705488395691,1.09981476716995,-0.11255749797820999,0.9203958590717108
4.749880981223502,-1.8426660936355599,-0.0785348422050476,0.35207629108429,0.9203958590717108
4.7504866747425805,-1.52173347644806,-0.227026053142548,-0.0981873807907102,0.9203958590717108
4.75109236826166,1.87440421886444,0.0220559781074524,0.99873156452179,0.9203958590717108
4.751698061780739,1.00261710948944,1.8781961148262,-0.54845105266571,0.9203958590717108
4.752303755299819,0.988246992301941,3.0278054898262,0.34249621295929,0.9203958590717108
4.752909448818898,0.530798261833191,-1.7718136507987998,0.80713000202179,0.9203958590717108
4.753515142337977,-0.204472734260559,-3.5129928500175502,-1.66213513469696,0.9203958590717108
4.754120835857056,-1.33492195301056,1.2459109585762,-0.53647595500946,0.9203958590717108
4.7547265293761365,-3.61977058582306,0.00289582185745238,1.36277453327179,0.9203958590717108
4.755332222895215,-0.0943018358230591,-1.13234343595505,-0.0622620878219602,0.9203958590717108
4.755937916414294,2.27197746105194,0.273533028888702,0.68019396686554,0.9203958590717108
4.756543609933374,2.96413810558319,1.4015872281074502,0.14131457233429,0.9203958590717108
4.7571493034524535,1.73070304698944,3.0900759976387,-0.48618054485321,0.9203958590717108
4.757754996971532,-2.44381599597931,-0.334801932048798,0.25627550983429,0.9203958590717108
4.758360690490612,-1.4067725389480599,-2.9980636507988003,0.21316515827179,0.9203958590717108
4.758966384009691,-1.70135994129181,-0.222236014080048,0.00479845905303977,0.9203958590717108
4.75957207752877,-2.11569832019806,0.800437325763702,0.22514025592804002,0.9203958590717108
4.76017777104785,0.490082929801941,-1.05091277189255,-1.19750134563446,0.9203958590717108
4.760783464566929,2.26239738292694,-1.2065890414237999,-0.40953991985321,0.9203958590717108
4.761389158086008,3.11741935558319,1.1165799038887,1.03944689655304,0.9203958590717108
4.761994851605088,-0.360149003791809,3.22659211091995,-0.10537243938445999,0.9203958590717108
4.762600545124167,-3.28207283191681,-0.605439139080048,1.94955431842804,0.9203958590717108
4.763206238643246,0.188310468864441,-2.1334616000175504,-1.98306775188446,0.9203958590717108
4.7638119321623265,-0.5301953905105591,-0.835361014080048,0.6322935762405401,0.9203958590717108
4.764417625681405,-0.28111335926055897,0.762117013263702,-1.20229138469696,0.9203958590717108
4.765023319200485,0.140410078239441,-2.3825436312675503,-0.92686413860321,0.9203958590717108
4.765629012719565,0.7080297071456909,-0.0641647250175476,0.97238634967804,0.9203958590717108
4.766234706238643,1.86242912120819,2.4673709195136997,1.19512316608429,0.9203958590717108
4.766840399757723,-1.01877937488556,2.1033279507637,1.43941515827179,0.9203958590717108
4.767446093276802,-1.19122078113556,1.0830496304512,-0.9843446073532099,0.9203958590717108
4.768051786795882,1.59179191417694,-3.8099752718925504,0.23472033405304,0.9203958590717108
4.768657480314961,0.691264570426941,-0.844941092205048,-1.8130213651657099,0.9203958590717108
4.76926317383404,-0.209262773323059,1.0399392788887,0.050303830146789796,0.9203958590717108
4.769868867353119,-0.978064042854309,-0.365937185955048,0.71372424030304,0.9203958590717108
4.7704745608721995,-1.73489021472931,0.218447579669952,-0.40235486125946,0.9203958590717108
4.771080254391278,1.45767082042694,0.388493966388702,0.64905871295929,0.9203958590717108
4.771685947910357,1.15829337902069,1.14292511873245,0.30896593952179,0.9203958590717108
4.772291641429437,1.03375236339569,2.94876984529495,-0.15806286907196,0.9203958590717108
4.772897334948516,0.9235814649581909,-0.959902029705048,-0.29218396282196,0.9203958590717108
4.773503028467595,-0.494270097541809,-3.78123503751755,-0.58437634563446,0.9203958590717108
4.774108721986675,-1.13853035144806,1.30578644685745,-0.42151501750946,0.9203958590717108
4.774714415505754,-3.5143897264480604,0.326223458576202,0.58439318561554,0.9203958590717108
4.775320109024833,-0.6116260545730591,-1.6808029086112999,-0.0526820096969602,0.9203958590717108
4.775925802543913,2.5306395704269398,0.477109689044952,0.51493761920929,0.9203958590717108
4.776531496062992,2.91384269542694,1.4111673062324501,0.36644640827179,0.9203958590717108
4.777137189582072,1.37863517589569,3.3319729702949497,-1.36036267375946,0.9203958590717108
4.777742883101151,-2.3863355272293103,-0.634179373455048,1.15440783405304,0.9203958590717108
4.77834857662023,-1.38761238269806,-3.41240202970505,0.16765978717804,0.9203958590717108
4.778954270139311,-1.41635261707306,0.038821114826202395,-0.84303845500946,0.9203958590717108
4.779559963658389,-1.87619636707306,0.431604317951202,1.49210558795929,0.9203958590717108
4.780165657177468,0.621809004020691,-0.574303885173798,-1.7531458768844599,0.9203958590717108
4.780771350696547,2.3198778516769396,-1.3407101351738,-0.78795300579071,0.9203958590717108
4.781377044215628,3.16052970714569,0.836362618732452,1.66933703327179,0.9203958590717108
4.781982737734706,-0.8535230272293091,3.28407257966995,-0.40714490032196,0.9203958590717108
4.782588431253786,-2.8318091600418103,-0.239001150798798,1.28613390827179,0.9203958590717108
4.783194124772865,0.576303632926941,-2.29153288908005,-0.83585339641571,0.9203958590717108
4.783799818291945,-0.28111335926055897,0.156177071857452,-0.38798474407196,0.9203958590717108
4.784405511811024,-0.736167070198059,-0.159965506267548,0.31375597858429,0.9203958590717108
4.785011205330103,0.33680167980194103,-2.1957321078300502,-1.9327723417282099,0.9203958590717108
4.785616898849182,0.303271406364441,0.273533028888702,1.4202550020217901,0.9203958590717108
4.786222592368262,1.1247631055831901,2.55598664216995,1.12566759967804,0.9203958590717108
4.786828285887341,-0.448764726448059,2.2613992398261997,0.050303830146789796,0.9203958590717108
4.78743397940642,-1.33971199207306,-0.10727507658004799,0.25148547077179,0.9203958590717108
4.7880396729255,1.8648241407394401,-2.6292306429863,-1.53280408000946,0.9203958590717108
4.788645366444579,0.391887129020691,-1.45806609220505,0.0526988496780398,0.9203958590717108
4.789251059963658,0.173940351676941,1.0399392788887,0.20598009967804,0.9203958590717108
4.789856753482738,-1.14811042957306,0.0100808804512024,0.36165636920929,0.9203958590717108
4.790462447001818,-1.9025415819168099,-0.262951346111298,0.22274523639679,0.9203958590717108
4.791068140520896,1.47204093761444,0.328618478107452,-0.06705212688446019,0.9203958590717108
4.791673834039976,1.33312980480194,1.01359406404495,0.39039660358429,0.9203958590717108
4.792279527559055,1.37145011730194,3.7151760952949497,-0.40474988079071,0.9203958590717108
4.7928852210781345,0.329616621208191,-0.804225760173798,-0.44067517375945997,0.9203958590717108
4.793490914597214,-0.0583765428543091,-4.01115691251755,-0.51971081829071,0.9203958590717108
4.794096608116293,-1.1720606248855598,0.747746896076202,1.03465685749054,0.9203958590717108
4.794702301635374,-3.1719019334793104,0.568120431232452,0.23711535358429,0.9203958590717108
4.795307995154452,-0.446369706916809,-1.1083932406425498,-0.14608777141571,0.9203958590717108
4.795913688673531,2.4300487501144397,-0.00189421720504762,1.15201281452179,0.9203958590717108
4.796519382192611,3.4383519727706897,1.7249148648262,-1.76991101360321,0.9203958590717108
4.797125075711691,0.8038304883956909,2.6541824429511998,0.70174914264679,0.9203958590717108
4.797730769230769,-2.1109082811355604,-0.183915701580048,0.88137560749054,0.9203958590717108
4.798336462749849,-1.39479744129181,-3.37887175626755,-0.8645936307907099,0.9203958590717108
4.798942156268928,-1.97439216785431,-0.17673064298629798,-0.10776745891570999,0.9203958590717108
4.7995478497880075,-1.89775154285431,0.508244942951202,0.43829699420929,0.9203958590717108
4.800153543307087,0.899631269645691,-1.0437277132987999,-0.50773572063446,0.9203958590717108
4.800759236826166,2.11869621105194,-1.09881316251755,-0.65622693157196,0.9203958590717108
4.801364930345245,3.13657951183319,1.0902346890449501,0.43829699420929,0.9203958590717108
4.801970623864325,-0.621206132698059,2.9511648648262,0.24909045124054,0.9203958590717108
4.802576317383404,-3.0114356248855603,-0.0354244906425476,0.42153185749054,0.9203958590717108
4.803182010902483,0.391887129020691,-2.6220455843925503,-0.62988171672821,0.9203958590717108
4.8037877044215636,-0.578095781135559,-0.444972830486298,0.0167735567092898,0.9203958590717108
4.804393397940642,-0.07993171863555909,0.577700509357452,-0.61551159954071,0.9203958590717108
4.804999091459721,-0.13262214832305902,-2.3801486117363,-1.08733044719696,0.9203958590717108
4.805604784978801,0.16675529308319098,-0.0641647250175476,0.77838976764679,0.9203958590717108
4.8062104784978805,1.47922599620819,1.9692068570137,1.53042590045929,0.9203958590717108
4.806816172016959,-0.07514167957305909,2.5775418179511997,0.42153185749054,0.9203958590717108
4.807421865536039,-1.45706794910431,0.376518868732452,0.19400500202179,0.9203958590717108
4.808027559055118,1.50078117198944,-3.2184054476738,-0.67778210735321,0.9203958590717108
4.8086332525741975,0.892446211051941,-1.48680632658005,-0.84303845500946,0.9203958590717108
4.809238946093277,-0.585280839729309,1.4327224820137001,-0.48378552532196,0.9203958590717108
4.809844639612356,-1.23433113269806,-0.24618620939254798,0.77359972858429,0.9203958590717108
4.810450333131435,-1.4666480272293099,-0.112065115642548,-0.30655408000946,0.9203958590717108
4.811056026650515,1.4025853712081902,-0.0114742953300476,0.93406603717804,0.9203958590717108
4.811661720169594,1.24211906261444,1.5381033413887,-0.25865368938446,0.9203958590717108
4.812267413688674,1.0433324415206902,2.70447785310745,0.83587023639679,0.9203958590717108
4.8128731072077535,0.597858808708191,-1.3694503695487998,-0.23470349407196,0.9203958590717108
4.813478800726832,-0.204472734260559,-2.8447824007988003,-2.16987927532196,0.9203958590717108
4.814084494245912,-1.27983650379181,-0.483293142986298,2.60818468952179,0.9203958590717108
4.814690187764992,-2.99706550769806,1.21477570466995,-1.60944470500946,0.9203958590717108
4.8152958812840705,-0.736167070198059,-1.7287032992362998,0.73767443561554,0.9203958590717108
4.81590157480315,2.78451164073944,0.656736153888702,0.34010119342804,0.9203958590717108
4.816507268322229,3.10304923839569,1.2866262906074502,-0.27062878704071,0.9203958590717108
4.817112961841309,1.49838615245819,2.6925027554512,0.35926134967804,0.9203958590717108
4.817718655360388,-1.9672071092605599,0.23281769685745202,-0.75681775188446,0.9203958590717108
4.818324348879467,-1.6510645311355598,-4.0949825961113,1.76034777545929,0.9203958590717108
4.818930042398546,-1.31815681629181,0.601650704669952,-0.86219861125946,0.9203958590717108
4.8195357359176265,-2.0797730272293102,-0.133620291423798,0.88616564655304,0.9203958590717108
4.820141429436705,0.499663007926941,-0.923976736736298,-0.77597790813446,0.9203958590717108
4.820747122955784,2.1306713087081897,-0.840151053142548,-1.36275769329071,0.9203958590717108
4.821352816474864,2.84438712902069,0.560935372638702,0.94125109577179,0.9203958590717108
4.8219585099939435,-0.6715015428543091,3.20743195466995,0.62750353717804,0.9203958590717108
4.822564203513022,-2.64499763660431,0.0172659390449524,1.63101672077179,0.9203958590717108
4.823169897032102,-0.0511914842605591,-2.42086394376755,-0.90051892375946,0.9203958590717108
4.823775590551181,-0.846337968635559,-0.049794607830047605,-0.52210583782196,0.9203958590717108
