Time (s),Accel X (m/s^2),Accel Y (m/s^2),Accel Z (m/s^2),CI Value
6.598625,8.42805520648956,5.36783237886429,1.02350448646545,0.7151844947466296
6.59923069351908,1.3675376283645602,-4.19069057035446,-2.06607070884705,0.7151844947466296
6.599836387038159,4.96006692523956,-2.8207393984794598,-2.48280410728455,0.7151844947466296
6.600442080557238,4.8642661439895605,-0.42571986722946203,0.609166107559204,0.7151844947466296
6.601047774076317,-10.2028017271042,0.709519390583038,0.673831634902954,0.7151844947466296
6.601653467595397,-9.54417135601044,1.82799351167679,2.40303573646545,0.7151844947466296
6.6022591611144765,5.40075051898956,4.14397739839554,1.51208847084045,0.7151844947466296
6.602864854633555,3.75537210102081,-1.86512660551071,-2.33910293540955,0.7151844947466296
6.603470548152635,4.06432962055206,-4.72717494535446,-2.1930067440033,0.7151844947466296
6.604076241671715,6.77070169086456,-0.497570453166962,-0.114129790878296,0.7151844947466296
6.6046819351907935,-6.91922994976044,1.66273716402054,0.863038177871704,0.7151844947466296
6.605287628709873,-13.3953627622604,0.09160435152053831,1.5528038028717002,0.7151844947466296
6.605893322228952,2.30878030414581,4.58705601167679,1.8617613224029501,0.7151844947466296
6.606499015748032,6.80183694477081,0.11794956636428801,-1.3379847713470499,0.7151844947466296
6.607104709267111,2.94106546039581,-6.06599086332321,-2.28641250572205,0.7151844947466296
6.60771040278619,8.69869241352081,0.34308140230178796,-0.648219146347046,0.7151844947466296
6.60831609630527,-2.52915914897919,0.750234722614288,1.0450596622467,0.7151844947466296
6.6089217898243495,-17.2872695005417,-0.5909762148857121,1.2941416934967,0.7151844947466296
6.609527483343428,-3.19018453960419,3.7823294491767903,2.0413877872467,0.7151844947466296
6.610133176862508,11.4050644838333,3.2674002499580403,0.144532318496704,0.7151844947466296
6.610738870381587,1.97347756977081,-6.91622279691696,-3.05760879478455,0.7151844947466296
6.6113445639006665,8.69150735492706,-1.2400265078544601,-1.80740859947205,0.7151844947466296
6.611950257419746,2.35907571430206,0.436487164020538,0.671436615371704,0.7151844947466296
6.612555950938825,-17.4788710630417,-0.411349750041962,2.0892881778717003,0.7151844947466296
6.613161644457905,-8.28918112163544,3.54761753511429,1.7707505802154502,0.7151844947466296
6.6137673379769835,10.5069321596146,5.89713169527054,0.767237396621704,0.7151844947466296
6.614373031496063,3.76974221820831,-5.94144984769821,-3.16777969322205,0.7151844947466296
6.614978725015143,7.79098001117706,-4.5283883242607095,-3.08634902915955,0.7151844947466296
6.615584418534222,5.16124856586456,0.12273960542678801,0.333738861465454,0.7151844947466296
6.616190112053301,-15.0742714536667,1.33222446870804,1.8114659122467,0.7151844947466296
6.616795805572381,-11.5631728208542,2.9440726132392903,3.18860214271545,0.7151844947466296
6.61740149909146,7.66404397602081,5.77259067964554,1.5192735294342001,0.7151844947466296
6.6180071926105395,5.01994241352081,-3.6757613711357098,-2.8540321346282997,0.7151844947466296
6.618612886129618,6.05219583148956,-6.3845284609794595,-3.56056289634705,0.7151844947466296
6.619218579648698,8.27956399555206,-0.040121722698211695,-0.0782044979095462,0.7151844947466296
6.619824273167778,-10.9500478208542,1.78248814058304,1.6054942325592,0.7151844947466296
6.6204299666868565,-15.7784071958542,1.91181919527054,2.60421737709045,0.7151844947466296
6.621035660205936,4.50261819477081,5.35346226167679,2.0389927677154502,0.7151844947466296
6.621641353725015,7.00780862445831,-1.18254603910446,-1.8624940486908,0.7151844947466296
6.622247047244095,5.25944436664581,-7.23955043363571,-3.30669082603455,0.7151844947466296
6.622852740763174,11.0410215150833,-0.341894183635712,-0.746414947128296,0.7151844947466296
6.623458434282253,-7.79341207866669,1.41844517183304,1.3707823184967,0.7151844947466296
6.624064127801333,-20.1133925474167,0.687964214801788,2.5395518497467,0.7151844947466296
6.6246698213204125,-0.038338836479187004,4.81697788667679,1.9384019474029501,0.7151844947466296
6.625275514839491,11.290103546333299,1.70584751558304,-0.9020912166595461,0.7151844947466296
6.625881208358571,3.42006936664581,-7.42636195707321,-3.69947402915955,0.7151844947466296
6.62648690187765,11.3451889955521,-1.27595180082321,-1.5846717830658,0.7151844947466296
6.6270925953967295,-1.59510153179169,0.38140171480178797,1.51208847084045,0.7151844947466296
6.627698288915809,-21.0785854185104,0.295181011676788,1.9791172794342,0.7151844947466296
6.628303982434888,-5.93487692241669,5.04929478120804,2.70001815834045,0.7151844947466296
6.628909675953968,11.0937119447708,4.92954380464554,-0.10215469322204601,0.7151844947466296
6.629515369473046,5.62827737445831,-7.0503438906669595,-3.68031387290955,0.7151844947466296
6.630121062992126,10.2195298158646,-4.91638148832321,-3.1102992244720498,0.7151844947466296
6.630726756511206,1.96150247211456,0.319131206989288,0.6546714786529539,0.7151844947466296
6.631332450030285,-18.5254945981979,2.34052769136429,2.5515269474029503,0.7151844947466296
6.631938143549364,-10.3441078794479,3.9427957577705404,3.2700328067779503,0.7151844947466296
6.632543837068444,9.71657571430206,5.64804966402054,0.932493744277954,0.7151844947466296
6.633149530587523,5.69773294086456,-5.30916469144821,-3.52703262290955,0.7151844947466296
6.6337552241066025,8.15502297992706,-7.85267543363571,-3.75695449790955,0.7151844947466296
6.634360917625681,7.90833596820831,0.869985699176788,0.293023529434204,0.7151844947466296
6.634966611144761,-15.6107558286667,3.24584507417679,2.3575303653717,0.7151844947466296
6.635572304663841,-16.2837563169479,2.2519119687080402,2.73833847084045,0.7151844947466296
6.636177998182919,7.20180520648956,6.16537388277054,2.19706405677795,0.7151844947466296
6.636783691701999,6.91679788227081,-3.1033517031669597,-3.3809364315033,0.7151844947466296
6.637389385221078,7.15390481586456,-8.61668666410446,-4.00124649009705,0.7151844947466296
6.637995078740158,12.3726523744583,0.539473003864288,0.120582123184204,0.7151844947466296
6.638600772259237,-12.981024383354201,2.30460239839554,1.5719639591217,0.7151844947466296
6.639206465778316,-21.3851479185104,1.6603421444892899,2.53715683021545,0.7151844947466296
6.639812159297396,4.20803079242706,5.22173618745804,2.80539901771545,0.7151844947466296
6.6404178528164755,10.2147397768021,0.774184917926788,-2.1930067440033,0.7151844947466296
6.641023546335554,5.34566506977081,-8.03948695707321,-4.3557093807220495,0.7151844947466296
6.641629239854634,13.1893540346146,-1.89147182035446,-0.823055572128296,0.7151844947466296
6.642234933373713,-6.96234030132294,0.630483746051788,1.1743907169342,0.7151844947466296
6.642840626892792,-22.2257997739792,1.24839878511429,2.7048081974029503,0.7151844947466296
6.643446320411872,-1.9854897153854398,5.25047642183304,2.4102207950592,0.7151844947466296
6.644052013930951,10.437476593208299,4.4529349179267905,-0.209930572128296,0.7151844947466296
6.644657707450031,6.63179055805206,-7.33774623441696,-4.03477676353455,0.7151844947466296
6.645263400969109,12.3415171205521,-5.9654000430107095,-2.9234877010345497,0.7151844947466296
6.645869094488189,-2.80698141460419,1.06877232027054,1.1815757755279501,0.7151844947466296
6.646474788007269,-20.8462685239792,2.90575230073929,2.8245591739654503,0.7151844947466296
6.647080481526348,-6.76355368022919,4.4529349179267905,3.6604209903717,0.7151844947466296
6.647686175045427,9.60640481586456,4.96307407808304,-0.0422792049407962,0.7151844947466296
6.648291868564507,5.86298928852081,-6.36057826566696,-4.09225723228455,0.7151844947466296
6.648897562083586,11.0961069643021,-7.80717006254196,-3.21568008384705,0.7151844947466296
6.649503255602665,3.7218418275833103,1.39209995698929,0.5780308536529539,0.7151844947466296
6.650108949121744,-19.7253993833542,3.83022983980179,2.9970005802154502,0.7151844947466296
6.650714642640824,-11.8793153989792,2.86264194917679,2.8988047794342,0.7151844947466296
6.651320336159904,9.36690286273956,5.50195347261429,0.903753509902954,0.7151844947466296
6.651926029678982,5.84382913227081,-4.06614955472946,-3.5725379940032997,0.7151844947466296
6.652531723198062,9.96086770648956,-8.53765101957321,-3.7689295955657998,0.7151844947466296
6.653137416717141,9.61119485492706,0.8268753476142879,0.27865341224670404,0.7151844947466296
6.653743110236221,-18.2261171567917,3.02550327730179,2.9874205020904503,0.7151844947466296
6.6543488037553,-19.1529897153854,1.8136233944892899,2.58984725990295,0.7151844947466296
6.654954497274379,8.080777374458311,5.57859409761429,1.99109237709045,0.7151844947466296
6.655560190793459,9.12261087055206,-0.46643519926071203,-2.33910293540955,0.7151844947466296
6.656165884312538,6.56712503070831,-8.72446254301071,-4.4730653377533,0.7151844947466296
6.656771577831617,13.3282651674271,-1.1202755312919601,-0.38237197837829595,0.7151844947466296
6.657377271350697,-12.9355190122604,1.6651321835517898,1.7803306583404501,0.7151844947466296
6.657982964869776,-22.086888641166702,1.7633279843330398,3.29877304115295,0.7151844947466296
6.658588658388855,2.9434604799270603,5.54506382417679,2.41261581459045,0.7151844947466296
6.659194351907935,9.68783547992706,3.09974888277054,-1.3499598690033,0.7151844947466296
6.659800045427014,7.60895852680206,-8.13768275785446,-4.54731094322205,0.7151844947466296
6.660405738946094,13.4192759096146,-5.87438930082321,-1.6637074275970498,0.7151844947466296
6.661011432465172,-8.39216696147919,2.04833530855179,1.1504405216217002,0.7151844947466296
6.661617125984252,-21.9024721372604,4.06254673433304,3.3897837833404503,0.7151844947466296
6.662222819503332,-1.3268593442916898,4.06254673433304,3.96458847084045,0.7151844947466296
6.6628285130224105,9.23996682758331,3.98351108980179,-1.0194471736908,0.7151844947466296
6.66343420654149,6.10009622211456,-6.67672084379196,-4.48025039634705,0.7151844947466296
6.66403990006057,13.9413901674271,-7.62275355863571,-2.5426795955658,0.7151844947466296
6.664645593579649,-1.81065328960419,1.59328159761429,1.1264903263092,0.7151844947466296
6.665251287098728,-22.0461733091354,4.97983921480179,2.8748545841217,0.7151844947466296
6.665856980617807,-6.72283834819794,2.70217564058304,3.3897837833404503,0.7151844947466296
6.666462674136887,9.31660745258331,4.18469273042679,-0.0973646541595462,0.7151844947466296
6.6670683676559666,5.69773294086456,-4.1427901797294595,-3.88628555259705,0.7151844947466296
6.667674061175045,12.9426670228958,-8.18079310941696,-3.01449844322205,0.7151844947466296
6.668279754694125,4.68942971820831,0.764604839801788,0.5109703067779541,0.7151844947466296
6.668885448213205,-22.3431557310104,4.48167515230179,3.4400791934967,0.7151844947466296
6.6694911417322835,-13.8360463560104,1.7848831601142898,3.58138534584045,0.7151844947466296
6.670096835251363,10.676978546333299,4.57987095308304,1.23905624427795,0.7151844947466296
6.670702528770442,7.32395120258331,-0.916698871135712,-3.0935340877532997,0.7151844947466296
6.671308222289522,9.54413430805206,-9.10527064847946,-3.6683387752533,0.7151844947466296
6.671913915808601,10.6673984682083,-0.552655902385712,0.0846568302154538,0.7151844947466296
6.67251960932768,-18.7937367856979,2.70936069917679,2.4437510684967,0.7151844947466296
6.67312530284676,-18.9709682310104,1.94055942964554,2.8940147403717003,0.7151844947466296
6.673730996365839,7.21617532367706,5.48279331636429,1.8402061466217001,0.7151844947466296
6.674336689884918,8.39931497211456,2.2495169491767903,-2.43969375572205,0.7151844947466296
6.674942383403998,8.73461770648956,-9.47170863676071,-4.8323182674408,0.7151844947466296
6.675548076923077,13.0408628236771,-5.1942037539482095,-1.3787001033783,0.7151844947466296
6.6761537704421565,-14.152188934135399,3.5428274960517903,2.3431602481842,0.7151844947466296
6.676759463961236,-21.0306850278854,4.1463724179267905,3.4592393497467,0.7151844947466296
6.677365157480315,3.85596292133331,3.7128738827705403,2.9131748966217,0.7151844947466296
6.677970850999395,8.200528351020811,3.23626499605179,-1.63496719322205,0.7151844947466296
6.6785765445184735,6.46653421039581,-7.6754439883232095,-5.2442616268158,0.7151844947466296
6.679182238037553,14.9233481752396,-7.42157191801071,-1.9343446346283,0.7151844947466296
6.679787931556633,-8.20056539897919,2.71415073823929,1.6174693302154501,0.7151844947466296
6.680393625075712,-22.8101845396042,6.49588657808304,3.81609725990295,0.7151844947466296
6.680999318594791,-0.7903749692916869,1.5142459530830399,2.9754454044342,0.7151844947466296
6.68160501211387,8.72743264789581,3.28177036714554,-0.794315337753296,0.7151844947466296
6.68221070563295,5.53726663227081,-4.4685128359794595,-4.08746719322205,0.7151844947466296
6.6828163991520295,15.838245636177101,-9.009469867229459,-2.89953750572205,0.7151844947466296
6.683422092671108,-1.01550680522919,1.70105747652054,0.8390879825592039,0.7151844947466296
6.684027786190188,-25.186043914604202,6.34500034761429,3.35146347084045,0.7151844947466296
6.684633479709268,-7.93950827007294,1.16217808198929,2.4772813419342,0.7151844947466296
6.6852391732283465,11.407459503364601,3.38475620698929,-0.0303041072845462,0.7151844947466296
6.685844866747426,6.18871194477081,-0.772997699260712,-3.5821180721282997,0.7151844947466296
6.686450560266505,12.8684214174271,-9.11245570707321,-3.0408436580658,0.7151844947466296
6.687056253785585,6.10728128070831,-0.818503070354462,0.26907333412170403,0.7151844947466296
6.687661947304664,-23.4400746763229,4.28049351167679,1.7204551700592001,0.7151844947466296
6.688267640823743,-13.737850555229201,2.2854422421455403,3.35146347084045,0.7151844947466296
6.688873334342823,9.73094583148956,3.9691409726142903,1.2510313419342,0.7151844947466296
6.6894790278619025,7.22575540180206,2.10102573823929,-2.7247010799408,0.7151844947466296
6.690084721380981,10.2386899721146,-10.1614742617607,-4.25511856040955,0.7151844947466296
6.690690414900061,10.1955796205521,-4.89243129301071,-0.5979237361907961,0.7151844947466296
6.69129610841914,-18.6668007505417,5.66960483980179,2.7479185489654503,0.7151844947466296
6.6919018019382195,-18.0896010435104,4.12481724214554,3.38499374427795,0.7151844947466296
6.692507495457299,7.81253518695831,2.95604771089554,2.0270176700592,0.7151844947466296
6.693113188976378,7.00301858539581,2.87940708589554,-2.46364395103455,0.7151844947466296
6.693718882495458,6.97188333148956,-8.91366908597946,-4.8610585018157995,0.7151844947466296
6.6943245760145365,14.7748569643021,-6.55696986722946,-1.3715150447845499,0.7151844947466296
6.694930269533616,-13.3953627622604,4.95349399995804,2.20185409584045,0.7151844947466296
6.695535963052696,-22.0940736997604,5.91150181245804,3.3969688419342,0.7151844947466296
6.696141656571775,4.09785989398956,0.893935894489288,3.2724278263092,0.7151844947466296
6.696747350090854,8.03527200336456,2.83390171480179,-1.8217787166595498,0.7151844947466296
6.697353043609934,5.62109231586456,-5.19659877347946,-4.5305458065033,0.7151844947466296
6.697958737129013,16.9327695619583,-8.15684291410446,-1.1679383846282998,0.7151844947466296
6.6985644306480925,-7.58265035991669,2.4890189023017903,1.7707505802154502,0.7151844947466296
6.699170124167171,-25.9883754575729,7.23594761323929,4.0292539981842,0.7151844947466296
6.699775817686251,-1.0490370786666898,-0.222143207073212,3.20297225990295,0.7151844947466296
6.70038151120533,10.7464341127396,2.57284458589554,-0.693724517440796,0.7151844947466296
6.7009872047244095,5.68096780414581,-0.720307269573212,-3.8312001033783,0.7151844947466296
6.701592898243489,15.1724302064896,-9.548349261760709,-2.1834266658783,0.7151844947466296
6.702198591762568,-0.07186910991668699,-0.016171527385711697,0.453489838027954,0.7151844947466296
6.702804285281648,-25.4518910825729,5.96179722261429,2.98263046302795,0.7151844947466296
6.703409978800727,-7.98740866069794,1.6268118710517898,2.78623886146545,0.7151844947466296
6.704015672319806,9.92494241352081,3.6697635312080403,0.867828216934204,0.7151844947466296
6.704621365838886,6.61502542133331,1.7848831601142898,-2.8037367244720497,0.7151844947466296
6.7052270593579655,12.6241294252396,-11.181752582073202,-3.9988514705658,0.7151844947466296
6.705832752877044,5.84143411273956,-3.85059779691696,-0.231485747909546,0.7151844947466296
6.706438446396124,-22.3503407896042,7.09703648042679,2.4437510684967,0.7151844947466296
6.707044139915203,-13.3067470396042,3.8757352108955403,3.86399765052795,0.7151844947466296
6.7076498334342824,10.2027646791458,1.98366978120804,0.913333588027954,0.7151844947466296
6.708255526953362,6.07135598773956,2.78360630464554,-2.9139076229095497,0.7151844947466296
6.708861220472441,9.54173928852081,-9.56271937894821,-4.5113856502533,0.7151844947466296
6.709466913991521,11.2182529603958,-6.28393764066696,-1.1799134822845498,0.7151844947466296
6.7100726075106,-18.7123061216354,6.71622837495804,2.7167832950592,0.7151844947466296
6.710678301029679,-17.8405190122604,5.84683628511429,3.0329258731842,0.7151844947466296
6.711283994548758,7.59937844867706,-0.329919085979462,1.88092147865295,0.7151844947466296
6.7118896880678385,6.80423196430206,3.1308841366767903,-2.60255508384705,0.7151844947466296
6.712495381586917,7.24252053852081,-6.470749164104459,-4.51857070884705,0.7151844947466296
6.713101075105996,16.2430039369583,-7.80956508207321,-1.1535682674407999,0.7151844947466296
6.713706768625076,-13.912686981010399,4.73075718355179,2.1898789981842,0.7151844947466296
6.7143124621441554,-24.8746913755417,7.10422153902054,2.80539901771545,0.7151844947466296
6.714918155663234,4.66547952289581,-1.04842494535446,2.30723495521545,0.7151844947466296
6.715523849182314,9.97284280414581,2.3093924374580403,-1.35714492759705,0.7151844947466296
6.716129542701394,5.43188577289581,-1.44360316801071,-4.5976063533783,0.7151844947466296
6.716735236220472,16.549566436958298,-9.35914271879196,-1.5607215877532998,0.7151844947466296
6.717340929739552,-6.46657125835419,0.637668804645538,1.3612022403717001,0.7151844947466296
6.717946623258631,-26.3117030942917,7.13775181245804,3.0760362247467,0.7151844947466296
6.718552316777711,-1.4202651060104399,0.048493999958038304,2.4748863224029503,0.7151844947466296
6.71915801029679,9.59682473773956,3.37517612886429,0.23314804115295398,0.7151844947466296
6.719763703815869,6.04980081195831,1.7034524960517898,-3.7832997127533,0.7151844947466296
6.720369397334949,14.9089780580521,-12.798390765667,-2.6911708065032998,0.7151844947466296
6.7209750908540284,0.43587503070831296,-2.33215541410446,-0.0350941463470462,0.7151844947466296
6.721580784373107,-25.3417201841354,9.51840122652054,2.5587120059967,0.7151844947466296
6.722186477892187,-7.51558981304169,1.66752720308304,3.6843711856842,0.7151844947466296
6.722792171411267,11.184722686958299,1.1645731015205398,0.111002045059204,0.7151844947466296
6.723397864930345,4.73254006977081,2.9871829648017902,-3.2276551815033,0.7151844947466296
6.724003558449425,12.0684848939896,-11.071581683635701,-3.68989395103455,0.7151844947466296
6.724609251968504,6.95751321430206,-4.9547018008232095,-0.18119033775329602,0.7151844947466296
6.725214945487584,-22.355130828666702,8.36879185152054,2.90598983802795,0.7151844947466296
6.725820639006663,-12.846903289604201,4.84811314058304,3.12154159584045,0.7151844947466296
6.726426332525742,9.92494241352081,-1.66394496488571,0.482230072402954,0.7151844947466296
6.727032026044821,5.81748391742706,3.6098880429267903,-2.7773915096282997,0.7151844947466296
6.727637719563901,9.07471047992706,-7.00004848051071,-3.9365809627533,0.7151844947466296
6.72824341308298,12.8420762025833,-7.98200648832321,-0.238670806503296,0.7151844947466296
6.728849106602059,-19.2942958677292,7.09943149995804,2.56110702552795,0.7151844947466296
6.72945480012114,-20.7744179380417,6.74017857027054,3.0712461856842,0.7151844947466296
6.730060493640218,9.50102395648956,-2.6003976016044597,2.3862705997467,0.7151844947466296
6.730666187159297,8.56696633930206,3.19315464448929,-1.9870350643158,0.7151844947466296
6.731271880678377,6.32043801898956,-2.96204555082321,-3.97729629478455,0.7151844947466296
6.731877574197457,16.070562530708298,-8.90408900785446,-1.5439564510345498,0.7151844947466296
6.732483267716535,-13.2157362974167,3.0446634335517904,1.66536972084045,0.7151844947466296
6.733088961235615,-25.0303676450729,7.28863804292679,3.14070175209045,0.7151844947466296
6.733694654754694,4.84989602680206,-0.734677386760712,2.4653062442779503,0.7151844947466296
6.7343003482737736,9.36929788227081,3.27219028902054,-1.1391981502533,0.7151844947466296
6.734906041792853,5.69294290180206,0.333501324176788,-4.34133926353455,0.7151844947466296
6.735511735311932,16.0514023744583,-12.4127926211357,-1.5894618221283,0.7151844947466296
6.736117428831013,-6.00433248882294,-0.523915668010712,0.690596771621704,0.7151844947466296
6.736723122350091,-25.9093398130417,10.550654644489299,3.39457382240295,0.7151844947466296
6.73732881586917,-1.06819723491669,0.319131206989288,3.26045272865295,0.7151844947466296
6.73793450938825,10.4853769838333,0.608928570270538,-0.312916411972046,0.7151844947466296
6.73854020290733,4.43316262836456,2.94646763277054,-3.8072499080658,0.7151844947466296
6.739145896426408,14.0036606752396,-11.7685323672295,-3.39770156822205,0.7151844947466296
6.739751589945488,0.9819394838333131,-3.7452169375419597,0.0032261661529537997,0.7151844947466296
6.740357283464567,-24.4938832700729,11.2140750546455,3.7274815372467,0.7151844947466296
6.7409629769836465,-6.84737936382294,2.10821079683304,2.9898155216217,0.7151844947466296
6.741568670502726,10.653028351020799,-2.57644740629196,-0.28896621665954597,0.7151844947466296
6.742174364021805,4.90019143695831,4.61340122652054,-2.86600723228455,0.7151844947466296
6.742780057540884,12.0589048158646,-8.66698207426071,-4.00124649009705,0.7151844947466296
6.743385751059964,7.71673440570831,-6.40608363676071,-0.138079986190796,0.7151844947466296
6.743991444579043,-23.5550356138229,9.312429546833041,3.3490684513092,0.7151844947466296
6.744597138098122,-14.9473354185104,4.82895298433304,2.2665196231842,0.7151844947466296
6.745202831617203,11.658936554145798,-4.41342738676071,0.769632416152954,0.7151844947466296
6.745808525136281,6.84973733539581,4.27809849214554,-1.9822450252533,0.7151844947466296
6.74641421865536,8.19334329242706,-3.75719203519821,-3.8455702205658,0.7151844947466296
6.74701991217444,12.621734405708299,-9.68965541410446,-0.0973646541595462,0.7151844947466296
6.7476256056935195,-18.9949184263229,5.38699253511429,2.0365977481842,0.7151844947466296
6.748231299212598,-20.8606386411667,7.43712925386429,2.47009628334045,0.7151844947466296
6.748836992731678,9.56089944477081,-3.0530562930107097,1.8905015567779502,0.7151844947466296
6.749442686250757,8.08317239398956,4.2134329648017905,-1.5391664119720498,0.7151844947466296
6.7500483797698365,6.54556985492706,-1.73340053129196,-4.03477676353455,0.7151844947466296
6.750654073288916,15.3257114564896,-12.5469137148857,-1.3116395565032999,0.7151844947466296
6.751259766807995,-12.901988738822899,2.7452859921455404,1.4522129825592,0.7151844947466296
6.751865460327076,-24.3190468442917,10.0261453671455,3.1957872013092,0.7151844947466296
6.752471153846154,5.4630210268020605,-1.5082686953544602,2.35992538490295,0.7151844947466296
6.753076847365233,9.54652932758331,1.19570835542679,-1.2134437557220499,0.7151844947466296
6.753682540884313,3.59251077289581,1.15738804292679,-4.37965957603455,0.7151844947466296
6.7542882344033925,15.682569366645799,-11.964923968792,-2.07086074790955,0.7151844947466296
6.754893927922471,-5.44150289897919,-0.986154437541962,1.4234727481842,0.7151844947466296
6.755499621441551,-25.7105531919479,12.4283499569893,3.84483749427795,0.7151844947466296
6.75610531496063,-0.601168426322937,-0.377819476604462,2.8652745059967,0.7151844947466296
6.7567110084797095,11.079341827583299,-3.0794015078544597,-1.0481874080657998,0.7151844947466296
6.757316701998789,4.13378518695831,4.9918143124580405,-3.5557728572845497,0.7151844947466296
6.757922395517868,14.2072373353958,-10.053698382854499,-2.2361170955658,0.7151844947466296
6.758528089036947,1.08253030414581,-4.5355733828544595,0.860643158340454,0.7151844947466296
6.759133782556027,-26.5344399106979,12.1217874569893,3.4592393497467,0.7151844947466296
6.759739476075106,-7.36470358257294,1.41126011323929,3.06885116615295,0.7151844947466296
6.760345169594185,12.7702256166458,-5.12235316801071,-0.24106582603454602,0.7151844947466296
6.7609508631132655,5.2833945619583105,6.11747349214554,-2.62650527915955,0.7151844947466296
6.761556556632344,11.0817368471146,-6.13784144926071,-3.05760879478455,0.7151844947466296
6.762162250151423,7.33353128070831,-8.590341449260709,-0.511703033065796,0.7151844947466296
6.762767943670503,-23.8639931333542,7.9784036679267905,2.9706553653717003,0.7151844947466296
6.7633736371895825,-14.202484344291701,5.75822056245804,2.3982456974029502,0.7151844947466296
6.763979330708661,11.9487339174271,-4.38708217191696,0.946863861465454,0.7151844947466296
6.764585024227741,6.79944192523956,5.36064732027054,-1.6517323299408,0.7151844947466296
6.76519071774682,8.59091653461456,-3.13209193754196,-3.6970790096283,0.7151844947466296
6.7657964112658995,11.3619541322708,-12.261906390667,-0.942806548690796,0.7151844947466296
6.766402104784979,-18.5590248716354,5.66720982027054,2.20664413490295,0.7151844947466296
6.767007798304058,-19.5505629575729,9.45613071870804,3.16944198646545,0.7151844947466296
6.767613491823137,10.2075547182083,-3.80030238676071,1.2270811466217002,0.7151844947466296
6.768219185342217,7.94905130023956,2.38124302339554,-1.44815566978455,0.7151844947466296
6.768824878861296,4.74691018695831,-0.813713031291962,-4.3437342830658,0.7151844947466296
6.769430572380376,14.748511749458299,-12.0176143984795,-0.526073150253296,0.7151844947466296
6.7700362658994555,-12.7606825864792,2.69259556245804,1.9886973575592002,0.7151844947466296
6.770641959418534,-23.7442421567917,12.0762820858955,2.8413243106842,0.7151844947466296
6.771247652937614,6.37073342914581,-3.33087855863571,2.7119932559967,0.7151844947466296
6.771853346456693,10.1716294252396,-1.54898402738571,-2.3893983455658,0.7151844947466296
6.7724590399757725,3.82722268695831,3.31769566011429,-4.2910438533783,0.7151844947466296
6.773064733494852,15.371216827583298,-10.7602291445732,-1.39546524009705,0.7151844947466296
6.773670427013931,-6.61266744976044,-1.0556100039482101,1.78991073646545,0.7151844947466296
6.77427612053301,-26.9176430356979,12.6582718319893,3.5861753849029503,0.7151844947466296
6.77488181405209,0.31612405414581296,-1.6878951601982102,2.16353378334045,0.7151844947466296
6.775487507571169,12.2816416322708,-4.82537074613571,-1.9582948299407998,0.7151844947466296
6.776093201090248,4.35412698383331,7.04913608980179,-3.01449844322205,0.7151844947466296
6.7766988946093285,13.5462119447708,-8.01553676176071,-1.4625257869720498,0.7151844947466296
6.777304588128407,0.9627793275833131,-7.07908412504196,-0.12610488853454602,0.7151844947466296
6.777910281647486,-26.8170522153854,11.056003765583,3.3203282169342,0.7151844947466296
6.778515975166566,-7.14915182476044,2.54410435152054,1.9360069278717,0.7151844947466296
6.7791216686856455,13.3450303041458,-5.23731410551071,0.192432709121704,0.7151844947466296
6.779727362204724,5.61390725727081,7.30540317964554,-1.99422012290955,0.7151844947466296
6.780333055723804,10.5356723939896,-5.98216517972946,-3.48871231040955,0.7151844947466296
6.780938749242883,6.28930276508331,-11.062001605510702,-0.985916900253296,0.7151844947466296
6.781544442761962,-22.7790492856979,9.08969273042679,2.3335801700592,0.7151844947466296
6.782150136281042,-13.1630458677292,7.37725376558304,2.8413243106842,0.7151844947466296
6.782755829800121,12.6911899721146,-5.29718959379196,0.590005951309204,0.7151844947466296
6.783361523319201,5.81748391742706,4.48407017183304,-1.79303848228455,0.7151844947466296
6.78396721683828,7.27605081195831,-2.52615199613571,-3.70426406822205,0.7151844947466296
6.784572910357359,10.4781919252396,-12.348127093792,-0.487752837753296,0.7151844947466296
6.785178603876439,-18.4368788755417,6.2420145077705405,2.33597518959045,0.7151844947466296
6.7857842973955185,-17.9818251646042,11.573327984333,3.0472959903717003,0.7151844947466296
6.786389990914597,9.91775735492706,-6.2049019961357095,0.621141205215454,0.7151844947466296
6.786995684433677,8.69390237445831,0.675989117145538,-1.9846400447845498,0.7151844947466296
6.787601377952756,5.39117044086456,1.97408970308304,-3.2228651424407997,0.7151844947466296
6.788207071471835,13.2420444643021,-11.6272262148857,-0.588343658065796,0.7151844947466296
6.788812764990915,-13.273216766166701,2.57284458589554,2.2353843692779503,0.7151844947466296
6.789418458509994,-24.0196694028854,12.3948196835518,3.66760604896545,0.7151844947466296
6.790024152029074,6.14799661273956,-4.5882638125419595,1.43065780677795,0.7151844947466296
6.790629845548153,11.5176304018021,-3.2063375430107097,-3.02886856040955,0.7151844947466296
6.791235539067232,4.84989602680206,6.28751987886429,-2.9546229549408,0.7151844947466296
6.791841232586311,13.938995147895799,-9.53397914457321,-1.35714492759705,0.7151844947466296
6.7924469261053915,-6.5719521177291895,-3.6350460391044597,1.5743589786529502,0.7151844947466296
6.79305261962447,-26.5488100278854,11.6260184140205,3.08801132240295,0.7151844947466296
6.793658313143549,0.064647003364563,-0.21974818754196201,1.7444053653717,0.7151844947466296
6.79426400666263,12.964222198677101,-4.36552699613571,-0.6817494197845461,0.7151844947466296
6.794869700181708,4.5385434877395605,7.120986675739291,-2.81331680259705,0.7151844947466296
6.795475393700787,12.315171905708299,-7.99637660551071,-2.0636756893158,0.7151844947466296
6.796081087219867,-0.21796530132293698,-8.60710658597946,0.0104112247467038,0.7151844947466296
6.796686780738947,-25.6482826841354,12.004431499958,3.2269224552154503,0.7151844947466296
6.797292474258025,-5.81273092632294,4.19666782808304,2.1922740177154503,0.7151844947466296
6.797898167777105,13.402510772895798,-5.92947475004196,0.108607025527954,0.7151844947466296
6.798503861296184,4.62715921039581,5.51153355073929,-2.4133485408783,0.7151844947466296
6.799109554815264,10.0566684877396,-5.22773402738571,-2.79894668540955,0.7151844947466296
6.799715248334343,5.32889993305206,-10.690773578167,-0.111734771347046,0.7151844947466296
6.800320941853422,-22.5611025083542,9.74353306245804,2.89161972084045,0.7151844947466296
6.800926635372502,-11.2494252622604,8.35921177339554,2.9275450138092003,0.7151844947466296
6.801532328891581,11.515235382270799,-7.44552211332321,-0.435062408065796,0.7151844947466296
6.80213802241066,6.43300393695831,2.84348179292679,-1.8960243221283,0.7151844947466296
6.80274371592974,8.32746438617706,-0.574211078166962,-3.39770156822205,0.7151844947466296
6.80334940944882,8.66995217914581,-11.4547848086357,-0.145265044784546,0.7151844947466296
6.803955102967898,-18.5542348325729,6.282729839801791,2.56589706459045,0.7151844947466296
6.804560796486978,-18.7578114927292,11.1973099179268,2.9131748966217,0.7151844947466296
6.805166490006057,9.63514505023956,-7.45270717191696,0.295418548965454,0.7151844947466296
6.805772183525137,10.3440708314896,-0.763417621135712,-2.22414199790955,0.7151844947466296
6.806377877044216,5.92046975727081,4.6589065976142905,-2.99533828697205,0.7151844947466296
6.806983570563295,11.103292022895799,-10.757834125042,-0.7775502010345461,0.7151844947466296
6.807589264082374,-13.0408998716354,0.297576031208038,2.0701280216217,0.7151844947466296
6.808194957601454,-22.7694692075729,11.2835306210518,2.79581893959045,0.7151844947466296
6.808800651120533,5.45583596820831,-3.46020961332321,1.3420420841217,0.7151844947466296
6.809406344639612,11.634986358833299,-2.6938033633232097,-2.12355117759705,0.7151844947466296
6.810012038158693,5.47739114398956,5.78217075777054,-2.7342811580657997,0.7151844947466296
6.810617731677771,12.008609405708299,-9.55313930082321,-1.5415614315033,0.7151844947466296
6.81122342519685,-7.59462545757294,-4.23380092191696,0.9756040958404539,0.7151844947466296
6.81182911871593,-24.9178017271042,12.1337625546455,3.43768417396545,0.7151844947466296
6.81243481223501,1.28850198383331,1.29390415620804,2.0030674747467,0.7151844947466296
6.813040505754088,12.2792466127396,-5.06487269926071,-1.1847035213470498,0.7151844947466296
6.813646199273168,3.9445786439895603,5.00378941011429,-3.2731605525970497,0.7151844947466296
6.814251892792247,11.6254062807083,-6.83958217191696,-1.8289637752533,0.7151844947466296
6.8148575863113265,-2.4022231138229397,-7.83112025785446,0.302603607559204,0.7151844947466296
6.815463279830406,-23.868783172416702,11.4990823788643,3.55743515052795,0.7151844947466296
6.816068973349485,-3.66200338726044,4.94870396089554,2.1802989200592,0.7151844947466296
6.816674666868566,11.611036163520799,-7.67304896879196,-1.1487782283783,0.7151844947466296
6.817280360387644,6.09291116352081,4.42419468355179,-2.4181385799407997,0.7151844947466296
6.817886053906723,10.756014190864601,-3.59433070707321,-1.9726649471283,0.7151844947466296
6.818491747425803,2.57462747211456,-9.52918910551071,0.443909759902954,0.7151844947466296
6.819097440944883,-22.5467323911667,10.2105618710518,2.2784947208404502,0.7151844947466296
6.819703134463961,-11.3835463560104,7.19523228120804,2.9035948184967,0.7151844947466296
6.820308827983041,11.3116587221146,-8.45382533597946,-0.8613758846282961,0.7151844947466296
6.82091452150212,8.38254983539581,2.3285525937080402,-2.54507461509705,0.7151844947466296
6.8215202150211995,8.73222268695831,1.38491489839554,-2.6408753963470497,0.7151844947466296
6.822125908540279,5.7959287416458105,-9.93394740629196,-0.284176177597046,0.7151844947466296
6.822731602059358,-18.1159462583542,4.07212681245804,2.58026718177795,0.7151844947466296
6.823337295578437,-16.219090789604202,9.57827671480179,2.77665878334045,0.7151844947466296
6.823942989097517,8.03527200336456,-5.74026820707321,-0.0518592830657962,0.7151844947466296
6.824548682616596,9.85788186664581,-0.260463519573212,-1.90799941978455,0.7151844947466296
6.825154376135675,7.48202249164581,4.16074253511429,-2.2600672908783,0.7151844947466296
6.825760069654756,8.88071389789581,-11.303898578167,-1.1631483455657998,0.7151844947466296
6.826365763173834,-12.966654266166701,-0.0353316836357117,1.7923057559967002,0.7151844947466296
6.826971456692913,-20.3672646177292,11.429626812458,2.9179649356842,0.7151844947466296
6.827577150211993,5.91088967914581,-1.80525111722946,0.944468841934204,0.7151844947466296
6.8281828437310725,10.756014190864601,-3.4817647891044596,-2.0014051815033,0.7151844947466296
6.828788537250151,5.26423440570831,3.8254398007392902,-3.3378260799408,0.7151844947466296
6.829394230769231,11.0242563783646,-7.91734096097946,-1.04100234947205,0.7151844947466296
6.82999992428831,-8.66998922710419,-3.57996058988571,1.0642198184967,0.7151844947466296
6.8306056178073895,-22.3766860044479,11.4056766171455,3.22213241615295,0.7151844947466296
6.831211311326469,2.33273049945831,1.8998440976142899,1.7779356388092,0.7151844947466296
6.831817004845548,10.466216827583299,-6.84676723051071,-2.10439102134705,0.7151844947466296
6.832422698364627,5.90609964008331,3.9188455624580403,-2.73667617759705,0.7151844947466296
6.833028391883707,11.3978794252396,-4.68885463285446,-1.3595399471282998,0.7151844947466296
6.833634085402786,-4.32063375835419,-6.62163539457321,1.0570347599029501,0.7151844947466296
6.834239778921866,-22.5634975278854,11.075163921833001,3.0377159122467,0.7151844947466296
6.8348454724409455,-4.28710348491669,4.57987095308304,1.6677647403717002,0.7151844947466296
6.835451165960024,11.088921905708299,-8.92803920316696,-1.71160781822205,0.7151844947466296
6.836056859479104,8.19334329242706,4.08889194917679,-2.85642715415955,0.7151844947466296
6.836662552998183,10.2171347963333,-0.818503070354462,-1.5032411190033,0.7151844947466296
6.8372682465172625,0.217928253364563,-9.51242396879196,0.690596771621704,0.7151844947466296
6.837873940036342,-20.5349159849167,7.74369175386429,2.3479502872467,0.7151844947466296
6.838479633555421,-10.2698622739792,6.7880789608955405,2.2353843692779503,0.7151844947466296
6.8390853270745,9.81237649555206,-6.46835414457321,-0.418297271347046,0.7151844947466296
6.83969102059358,9.41480325336456,2.1465311093330404,-1.84093887290955,0.7151844947466296
6.840296714112659,9.01243997211456,1.06398228120804,-2.3175477596283,0.7151844947466296
6.840902407631738,3.6452012025833103,-10.0920186953545,-0.605108794784546,0.7151844947466296
6.8415081011508185,-17.0980629575729,3.93082066011429,2.2473594669342,0.7151844947466296
6.842113794669897,-14.631192840385399,10.059675640583,2.8030039981842,0.7151844947466296
6.842719488188976,8.52625100727081,-4.12123500394821,0.302603607559204,0.7151844947466296
6.843325181708056,9.37648294086456,-2.00882777738571,-2.3079676815033,0.7151844947466296
6.8439308752271355,7.17066995258331,2.8243216366767903,-2.21456191978455,0.7151844947466296
6.844536568746214,6.95032815570831,-9.17233119535446,-0.835030669784546,0.7151844947466296
6.845142262265294,-13.977352508354201,-0.111972308635712,2.40303573646545,0.7151844947466296
6.845747955784373,-17.9267397153854,12.0020364804268,3.0472959903717003,0.7151844947466296
6.8463536493034525,5.84622415180206,-1.4268380312919602,0.532525482559204,0.7151844947466296
6.846959342822532,10.049483429145798,-5.0145772891044595,-1.88883926353455,0.7151844947466296
6.847565036341611,7.51315774555206,3.60030796480179,-3.1653846736908,0.7151844947466296
6.848170729860691,9.43875344867706,-6.62163539457321,-0.221905669784546,0.7151844947466296
6.84877642337977,-10.451883758354201,-2.88540492582321,1.2079209903717,0.7151844947466296
6.849382116898849,-21.5072939146042,11.149409527301799,3.77777694740295,0.7151844947466296
6.849987810417929,2.2081894838333103,1.5741214413642899,1.38754745521545,0.7151844947466296
6.8505935039370085,11.6661216127396,-8.07301723051071,-2.17624160728455,0.7151844947466296
6.851199197456087,7.72152444477081,3.87334019136429,-1.9535047908782999,0.7151844947466296
6.851804890975167,10.5739927064896,-2.09744350004196,-1.3164295955657999,0.7151844947466296
6.852410584494246,-6.34921530132294,-6.79886683988571,0.9588389591217039,0.7151844947466296
6.8530162780133255,-21.7324257505417,8.46698765230179,2.7407334903717,0.7151844947466296
6.853621971532405,-3.75540914897919,4.2134329648017905,1.9024766544342,0.7151844947466296
6.854227665051484,10.796729522895799,-6.67672084379196,-1.96068984947205,0.7151844947466296
6.854833358570563,8.56217630023956,3.60030796480179,-2.16666152915955,0.7151844947466296
6.855439052089643,9.56808450336456,-1.19931117582321,-1.01226211509705,0.7151844947466296
6.856044745608722,-1.82502340679169,-9.35435267972946,0.0295713809967038,0.7151844947466296
6.856650439127801,-19.270345672416703,6.87908970308304,2.72875839271545,0.7151844947466296
6.8572561326468815,-8.41851217632294,7.78201206636429,2.4964414981842,0.7151844947466296
6.85786182616596,9.71418069477081,-5.76421840238571,-0.425482329940796,0.7151844947466296
6.858467519685039,9.00285989398956,0.11794956636428801,-2.21935195884705,0.7151844947466296
6.859073213204119,9.05315530414581,1.09751255464554,-2.09481094322205,0.7151844947466296
6.8596789067231985,1.5902744447708101,-9.11964076566696,-0.554813384628296,0.7151844947466296
6.860284600242277,-17.5124013364792,3.7655643124580402,2.04378280677795,0.7151844947466296
6.860890293761357,-11.7188490903854,9.92076450777054,3.0856163028717,0.7151844947466296
6.861495987280437,7.9514463197708105,-3.90328822660446,-0.7607850643157961,0.7151844947466296
6.862101680799515,8.76814797992706,-3.3093233828544597,-2.6911708065032998,0.7151844947466296
6.862707374318595,9.45312356586456,3.2338699765205403,-2.09002090415955,0.7151844947466296
6.863313067837674,4.46429788227081,-6.8036568789482095,-0.7392298885345461,0.7151844947466296
6.863918761356754,-15.3185634458542,-0.0928121523857117,2.4389610294342,0.7151844947466296
6.864524454875833,-16.0921547544479,10.5530496640205,3.5167198184967,0.7151844947466296
6.865130148394912,5.04149758930206,-1.37893764066696,-0.7583900447845461,0.7151844947466296
6.865735841913992,10.5931528627396,-6.4180587344169595,-2.56902481040955,0.7151844947466296
6.8663415354330715,8.919034210395811,3.92124058198929,-1.9247645565032998,0.7151844947466296
6.86694722895215,7.47004739398956,-3.1392769961357097,-0.46859268150329597,0.7151844947466296
6.86755292247123,-11.3356459653854,-4.79184047269821,1.5096934513092002,0.7151844947466296
6.868158615990309,-19.1529897153854,9.17351841402054,2.60421737709045,0.7151844947466296
6.868764309509388,0.35683938617706296,2.09384067964554,0.740892181777954,0.7151844947466296
6.869370003028468,11.3859043275833,-7.02160365629196,-2.2121669002532998,0.7151844947466296
6.869975696547547,9.29984231586456,3.46139683198929,-2.1786366268157997,0.7151844947466296
6.870581390066626,8.71545755023956,-2.15971400785446,-1.0601625057220498,0.7151844947466296
6.871187083585706,-6.94078512554169,-6.92819789457321,1.27258651771545,0.7151844947466296
6.871792777104785,-20.1445278013229,8.08138950777054,2.6305625919342,0.7151844947466296
6.872398470623864,-2.61298483257294,5.62170444917679,2.0461778263092003,0.7151844947466296
6.8730041641429445,10.863790069770799,-6.21687709379196,-1.63017715415955,0.7151844947466296
6.873609857662023,7.87959573383331,1.19570835542679,-2.4277186580658,0.7151844947466296
6.874215551181102,9.55371438617706,-0.16466273832321202,-1.3787001033783,0.7151844947466296
6.874821244700183,-3.87755514507294,-8.02032680082321,-0.0494642635345462,0.7151844947466296
6.875426938219261,-18.8991176450729,6.16776890230179,3.41373397865295,0.7151844947466296
6.87603263173834,-6.01151754741669,7.99516880464554,2.5826622013092,0.7151844947466296
6.87663832525742,7.71673440570831,-5.931869769573209,-1.2517640682220499,0.7151844947466296
6.8772440187765,9.36929788227081,-1.50108363676071,-2.9785731502533,0.7151844947466296
6.877849712295578,10.5380674135208,1.77769810152054,-1.2876893611907998,0.7151844947466296
6.878455405814658,-0.546082977104187,-7.1030343203544595,0.451094818496704,0.7151844947466296
6.879061099333737,-17.713582977104203,3.6290481991767902,2.2952598575592003,0.7151844947466296
6.879666792852817,-11.515272430229201,9.58546177339554,2.3862705997467,0.7151844947466296
6.880272486371896,7.15150979633331,-4.2290108828544595,-0.655404204940796,0.7151844947466296
6.880878179890975,10.7799643861771,-4.49246303129196,-2.6384803768158,0.7151844947466296
6.881483873410055,10.4183164369583,3.59551792573929,-2.0349354549408,0.7151844947466296
6.882089566929134,2.57702249164581,-4.22182582426071,0.692991791152954,0.7151844947466296
6.882695260448213,-15.5604604185104,-2.14294887113571,1.4905332950592,0.7151844947466296
6.883300953967293,-15.708951629447899,9.559116558551791,2.4581211856842002,0.7151844947466296
6.883906647486373,4.50022317523956,-0.557445941448212,-0.219510650253296,0.7151844947466296
6.884512341005451,11.8625132143021,-6.0252755312919595,-2.22414199790955,0.7151844947466296
6.885118034524531,9.10105569477081,4.07452183198929,-1.60622695884705,0.7151844947466296
6.88572372804361,5.75042337055206,-3.80748744535446,-0.368001861190796,0.7151844947466296
6.88632942156269,-11.7140590513229,-4.44935267972946,1.1264903263092,0.7151844947466296
6.886935115081769,-17.5962270200729,8.840610699176791,2.66169784584045,0.7151844947466296
6.887540808600848,2.3279404603958103,2.92012241792679,1.1217002872467001,0.7151844947466296
6.888146502119927,10.6051279603958,-6.4515890078544595,-2.7630213924408,0.7151844947466296
6.888752195639007,8.23884866352081,1.4208401913642899,-2.42532363853455,0.7151844947466296
6.889357889158086,7.88917581195831,-1.10111537504196,-0.827845611190796,0.7151844947466296
6.889963582677165,-8.99810690288544,-5.96061000394821,1.4953233341217,0.7151844947466296
6.890569276196246,-18.4153236997604,7.3197732968330405,3.08801132240295,0.7151844947466296
6.891174969715324,-0.804745086479187,6.3617654843330405,1.7779356388092,0.7151844947466296
6.891780663234403,8.98609475727081,-7.7616646914482095,-2.32952285728455,0.7151844947466296
6.892386356753483,9.70220559711456,-0.708332171916962,-2.8636122127532997,0.7151844947466296
6.892992050272563,10.3656260072708,1.35377964448929,-0.7967103572845461,0.7151844947466296
6.893597743791641,-6.86653952007294,-6.72222621488571,0.45827987709045404,0.7151844947466296
6.894203437310721,-18.896722625541702,5.98574741792679,3.68676620521545,0.7151844947466296
6.8948091308298,-5.50377340679169,7.7460867733955405,1.92403183021545,0.7151844947466296
6.8954148243488795,8.22447854633331,-7.09584926176071,-2.0325404354095498,0.7151844947466296
6.896020517867959,11.0170713197708,-2.4183761172294598,-2.8875624080658,0.7151844947466296
6.896626211387038,10.293775421333299,3.54522251558304,-1.5846717830658,0.7151844947466296
6.897231904906119,-2.70399557476044,-5.34988002347946,0.7001768497467039,0.7151844947466296
6.897837598425197,-17.4094154966354,1.45197544527054,2.37429550209045,0.7151844947466296
6.898443291944276,-10.5931899106979,8.38076694917679,2.5587120059967,1.5967755283032241
6.899048985463356,6.46892922992706,-3.04826625394821,-1.2349989315032999,1.5967755283032241
6.899654678982436,11.8122178041458,-4.2888863711357095,-1.95110977134705,1.5967755283032241
6.900260372501514,10.2865903627396,2.95844273042679,-1.48647598228455,1.5967755283032241
6.900866066020594,1.0466050111770602,-4.04698939847946,-0.145265044784546,1.5967755283032241
6.901471759539673,-14.777289031791701,-1.92260707426071,1.4593980411529501,1.5967755283032241
6.9020774530587525,-14.2048793638229,9.11364292573929,2.6257725528717,1.5967755283032241
6.902683146577832,4.96964700336456,0.685569195270538,0.0391514591217038,1.5967755283032241
6.903288840096911,11.725997101020798,-6.20011195707321,-2.6576405330657997,1.5967755283032241
6.90389453361599,8.95735452289581,1.9764847226142899,-1.55832656822205,1.5967755283032241
6.90450022713507,4.30143655414581,-2.26988490629196,-0.571578521347046,1.5967755283032241
6.905105920654149,-13.0528749692917,-4.0230392031669595,1.90487167396545,1.5967755283032241
6.905711614173228,-15.6035707700729,9.05855747652054,2.9993955997467,1.5967755283032241
6.906317307692309,3.16380227680206,4.00267124605179,0.41756454505920404,1.5967755283032241
6.906923001211387,9.87943704242706,-8.10654750394821,-2.82768691978455,1.5967755283032241
6.907528694730466,10.5524375307083,0.611323589801788,-2.7869715877533,1.5967755283032241
6.908134388249546,7.2928159486770605,0.141899761676788,-0.14047500572204602,1.5967755283032241
6.9087400817686255,-11.864945281791702,-5.333114886760709,2.2329893497467,1.5967755283032241
6.909345775287704,-17.8716542661667,8.33286655855179,3.60054550209045,1.5967755283032241
6.909951468806784,-0.459862273979187,5.95940220308304,1.4857432559967,1.5967755283032241
6.910557162325863,9.13937600727081,-9.15077601957321,-2.8444520565033,1.5967755283032241
6.9111628558449425,10.6578183900833,-1.67831508207321,-3.08155899009705,1.5967755283032241
6.911768549364022,10.4566367494583,3.81106968355179,-0.425482329940796,1.5967755283032241
6.912374242883101,-8.145479949760439,-5.632492328166959,1.24384628334045,1.5967755283032241
6.91297993640218,-18.5278896177292,3.79669956636429,2.86287948646545,1.5967755283032241
6.91358562992126,-5.07027487163544,7.061111187458041,1.7396153263092,1.5967755283032241
6.914191323440339,7.9777915346145605,-5.95342494535446,-1.9439247127533,1.5967755283032241
6.914797016959419,12.449292999458299,-2.28904506254196,-2.6001600643158,1.5967755283032241
6.9154027104784985,9.24954690570831,2.75726108980179,-0.823055572128296,1.5967755283032241
6.916008403997577,-4.06915670757294,-4.64574428129196,0.724127045059204,1.5967755283032241
6.916614097516657,-16.5376283872604,0.850825542926788,2.14437362709045,1.5967755283032241
6.917219791035736,-10.068680633354202,8.55320835542679,2.02462265052795,1.5967755283032241
6.9178254845548155,7.3526914369583105,-1.95613734769821,-1.19907363853455,1.5967755283032241
6.918431178073895,11.702046905708299,-5.34748500394821,-2.5187294002533,1.5967755283032241
6.919036871592974,9.74771096820831,2.16329624605179,-1.51042617759705,1.5967755283032241
6.919642565112053,-0.203595184135437,-3.26860805082321,0.221172943496704,1.5967755283032241
6.920248258631133,-16.1352651060104,-1.75016566801071,1.6078892520904502,1.5967755283032241
6.920853952150212,-11.994276336479201,9.56151157808304,3.01137069740295,1.5967755283032241
6.921459645669291,5.70970803852081,1.09272251558304,-0.403927154159546,1.5967755283032241
6.9220653391883715,10.3895762025833,-7.56527308988571,-3.66594375572205,1.5967755283032241
6.92267103270745,11.1511924135208,1.5789114804267899,-1.8337538143157999,1.5967755283032241
6.923276726226529,3.58293069477081,-0.722702289104462,-0.169215240097046,1.5967755283032241
6.923882419745609,-15.5293251646042,-3.1632271914482097,2.19706405677795,1.5967755283032241
6.9244881132646885,-14.7078334653854,8.87174595308304,3.84962753334045,1.5967755283032241
6.925093806783767,2.96501565570831,3.2602151913642903,-0.44224746665954595,1.5967755283032241
6.925699500302847,9.35253274555206,-8.93522426176071,-3.80964492759705,1.5967755283032241
6.926305193821926,11.6397763978958,-0.579001117229462,-2.18582168540955,1.5967755283032241
6.9269108873410055,7.5323179018020605,3.0877737851142903,-0.32249649009704595,1.5967755283032241
6.927516580860085,-12.8588783872604,-5.0744527773857095,2.17790390052795,1.5967755283032241
6.928122274379164,-16.726834930229202,5.21455112886429,2.70001815834045,1.5967755283032241
6.9287279678982445,-1.4298451841354398,6.25638462495804,0.42953964271545403,1.5967755283032241
6.929333661417323,9.34295266742706,-7.63472865629196,-2.09960098228455,1.5967755283032241
6.929939354936402,12.6863999330521,-2.38005580472946,-2.7510462947845498,1.5967755283032241
6.930545048455482,8.22687356586456,3.3033255429267903,-0.909276275253296,1.5967755283032241
6.9311507419745615,-8.87596090679169,-4.57628871488571,1.6533946231842,1.5967755283032241
6.93175643549364,-17.2249989927292,2.96562778902054,2.39345565834045,1.5967755283032241
6.93236212901272,-5.60196920757294,7.70537144136429,1.7300352481842,1.5967755283032241
6.932967822531799,8.94298440570831,-4.23140590238571,-1.5655116268157998,1.5967755283032241
6.9335735160508785,11.9750791322708,-4.195480609416959,-2.7199110408783,1.5967755283032241
6.934179209569958,9.13937600727081,2.2423318905830403,-1.0194471736908,1.5967755283032241
6.934784903089037,-4.90501852397919,-3.49134486722946,0.745682220840454,1.5967755283032241
6.935390596608116,-17.4046254575729,0.800530132770538,2.86287948646545,1.5967755283032241
6.935996290127196,-7.45092428569794,8.55320835542679,2.57547714271545,1.5967755283032241
6.936601983646275,6.58628518695831,-1.3334322695732101,-1.59664688072205,1.5967755283032241
6.937207677165354,11.4361997377396,-6.54020473051071,-3.2180751033783,1.5967755283032241
6.9378133706844345,12.137940460395798,1.2675589413642898,-1.02184219322205,1.5967755283032241
6.938419064203513,-2.19385641460419,-1.2999019961357101,0.419959564590454,1.5967755283032241
6.939024757722592,-17.8357289731979,-1.70705531644821,3.23171249427795,1.5967755283032241
6.939630451241672,-10.1549013364792,9.04658237886429,3.7466416934967,1.5967755283032241
6.9402361447607515,3.93499856586456,0.798135113239288,-0.8781410213470461,1.5967755283032241
6.94084183827983,10.6171030580521,-8.48496058988571,-4.14494766197205,1.5967755283032241
6.94144753179891,13.3570054018021,0.721494488239288,-1.48647598228455,1.5967755283032241
6.94205322531799,1.7866660463333102,1.47832066011429,0.973209076309204,1.5967755283032241
6.942658918837068,-16.2119057310104,-3.5488253359794597,2.0222276309967,1.5967755283032241
6.943264612356148,-13.6061244810104,6.83837437105179,3.29398300209045,1.5967755283032241
6.943870305875227,2.10041360492706,3.94040073823929,-0.6410340877532961,1.5967755283032241
6.944475999394307,10.5213022768021,-8.32449428129196,-3.1126942440033,1.5967755283032241
6.945081692913386,12.6241294252396,-1.3669625430107102,-1.7379530330658,1.5967755283032241
6.945687386432465,4.97443704242706,3.20512974214554,-0.29136123619079596,1.5967755283032241
6.946293079951545,-13.124725555229201,-4.28170131254196,1.5695689395904502,1.5967755283032241
6.9468987734706245,-15.2251576841354,4.48407017183304,2.6401426700592,1.5967755283032241
6.947504466989703,-1.36757467632294,6.5485770077705405,1.0306895450592002,1.5967755283032241
6.948110160508783,9.68783547992706,-6.10191615629196,-2.62650527915955,1.5967755283032241
6.948715854027862,12.2552964174271,-4.25775111722946,-2.49717422447205,1.5967755283032241
6.949321547546941,7.99455667133331,2.7476810116767902,-0.406322173690796,1.5967755283032241
6.949927241066021,-9.59446676616669,-2.88540492582321,1.3564122013092001,1.5967755283032241
6.9505329345851,-17.7519032896042,2.12018589448929,2.52757675209045,1.5967755283032241
6.95113862810418,-3.25245504741669,8.26820103120804,1.9791172794342,1.5967755283032241
6.951744321623259,7.99455667133331,-3.81946254301071,-2.0253553768157997,1.5967755283032241
6.952350015142338,12.7007700502396,-5.95821498441696,-3.7497694393158,1.5967755283032241
6.952955708661417,11.769107452583299,1.7753030819892899,-0.435062408065796,1.5967755283032241
6.9535614021804975,-7.54672506694794,-1.33103725004196,1.14804550209045,1.5967755283032241
6.954167095699576,-18.958993133354202,1.05200718355179,2.78144882240295,1.5967755283032241
6.954772789218655,-6.05462789897919,7.74848179292679,2.90119979896545,1.5967755283032241
6.955378482737736,6.22942727680206,-1.67831508207321,-1.87446914634705,1.5967755283032241
6.955984176256814,12.248111358833299,-7.53653285551071,-4.17847793540955,1.5967755283032241
6.956589869775893,13.1701938783646,0.743049664020538,-1.47210586509705,1.5967755283032241
6.957195563294973,-3.8727651060104398,1.0352420468330399,1.2103160099029502,1.5967755283032241
6.957801256814053,-17.9339247739792,-1.93458217191696,3.0856163028717,1.5967755283032241
6.958406950333131,-8.99331686382294,7.11859165620804,2.5587120059967,1.5967755283032241
6.959012643852211,3.20451760883331,2.2327518124580403,-2.0780458065033,1.5967755283032241
6.95961833737129,11.5703208314896,-8.33886439847946,-3.08155899009705,1.5967755283032241
6.96022403089037,13.5725571596146,-0.293993793010712,-1.0146571346283,1.5967755283032241
6.960829724409449,-0.548477996635437,2.63272007417679,0.300208588027954,1.5967755283032241
6.961435417928528,-15.376043914604201,-4.13081508207321,2.2952598575592003,1.5967755283032241
6.962041111447607,-11.769144500541701,6.07915317964554,2.8461143497467,1.5967755283032241
6.962646804966687,0.759202667427063,5.19299595308304,-0.427877349472046,1.5967755283032241
6.963252498485766,11.0434165346146,-7.27308070707321,-2.6480604549408,1.5967755283032241
6.963858192004846,12.8971616518021,-3.33806361722946,-2.83247695884705,1.5967755283032241
6.964463885523926,4.04756448383331,3.4230765194892903,-0.111734771347046,1.5967755283032241
6.965069579043004,-14.0013027036667,-2.82552943754196,2.4054307559967003,1.5967755283032241
6.965675272562084,-15.177257293510399,3.27937534761429,2.20664413490295,1.5967755283032241
6.966280966081163,0.217928253364563,7.540115093708041,1.2486363224029502,1.5967755283032241
6.966886659600243,8.83760354633331,-6.0851510195732095,-2.7390711971283,1.5967755283032241
6.967492353119322,13.699493194770799,-5.31155971097946,-2.71272598228455,1.5967755283032241
6.968098046638401,8.77772805805206,2.6854105038642904,-0.36081680259704596,1.5967755283032241
6.96870374015748,-12.6002162778854,-1.91302699613571,2.6545127872467003,1.5967755283032241
6.96930943367656,-18.1111562192917,2.79558140230179,3.18860214271545,1.5967755283032241
6.969915127195639,-2.34713766460419,7.4131790585517905,2.0461778263092003,1.5967755283032241
6.970520820714718,7.97060647602081,-4.04219935941696,-2.5474696346283,1.5967755283032241
6.971126514233799,12.8660263978958,-6.7437813906669595,-3.7785096736907997,1.5967755283032241
6.971732207752877,12.205001007270798,2.0722855038642902,-0.37997695884704596,1.5967755283032241
6.972337901271956,-8.72986471538544,-0.322734027385712,0.851063080215454,1.5967755283032241
6.972943594791036,-18.9637831724167,0.0053836483955383395,3.3299082950592003,1.5967755283032241
6.973549288310116,-5.19721090679169,6.85513950777054,1.80428085365295,1.5967755283032241
6.974154981829194,5.0774228822708105,-1.2520016055107102,-2.20019180259705,1.5967755283032241
6.974760675348274,13.5773471986771,-6.88748256254196,-3.29232070884705,1.5967755283032241
6.975366368867353,13.019307647895799,0.709519390583038,-0.643429107284546,1.5967755283032241
6.9759720623864325,-5.64986959819794,1.4759256405830399,0.613956146621704,1.5967755283032241
6.976577755905512,-17.3327748716354,-2.40640101957321,3.14549179115295,1.5967755283032241
6.977183449424591,-8.025728973197939,6.26356968355179,2.6880430606842003,1.5967755283032241
6.977789142943672,2.96741067523956,2.83869175386429,-1.7619032283782998,1.5967755283032241
6.97839483646275,12.1618906557083,-7.79040492582321,-2.98096816978455,1.5967755283032241
6.979000529981829,13.7402085268021,-2.18605922269821,-1.1966786190032999,1.5967755283032241
6.979606223500909,-1.0705922544479398,2.99197300386429,0.154112396621704,1.5967755283032241
6.9802119170199886,-17.1747035825729,-2.63153285551071,2.2713096622467,1.5967755283032241
6.980817610539067,-11.4027065122604,5.53548374605179,3.3586485294342,1.5967755283032241
6.981423304058147,3.0296811830520602,4.92954380464554,-0.7416249080657961,1.5967755283032241
6.982028997577226,10.5620176088333,-8.11373256254196,-3.1222743221283,1.5967755283032241
6.9826346910963055,14.3293833314896,-3.44823451566696,-3.0600038143157997,1.5967755283032241
6.983240384615385,4.30622659320831,3.2242898983955404,0.271468353652954,1.5967755283032241
6.983846078134464,-16.966336883354202,-1.2304464297294602,2.41740585365295,1.5967755283032241
6.984451771653543,-15.4191542661667,4.32360386323929,2.84371933021545,1.5967755283032241
6.985057465172623,1.4968686830520601,5.37022739839554,1.51687850990295,1.5967755283032241
6.985663158691702,8.70827249164581,-6.2049019961357095,-4.41797988853455,1.5967755283032241
6.986268852210781,13.9126499330521,-6.08754603910446,-3.3857264705658,1.5967755283032241
6.9868745457298616,9.35013772602081,3.54043247652054,0.910938568496704,1.5967755283032241
6.98748023924894,-14.5832924497604,0.400561871051788,2.3886656192779503,1.5967755283032241
6.988085932768019,-17.4692909849167,0.836455425739288,2.7048081974029503,1.5967755283032241
6.988691626287099,-1.22147848491669,6.5150467343330405,1.7683555606842,1.5967755283032241
6.9892973198061785,6.1815268861770605,-3.26142299222946,-2.9881532283783,1.5967755283032241
6.989903013325257,15.2873911439896,-7.29942592191696,-3.64678359947205,1.5967755283032241
6.990508706844337,11.1823276674271,2.0531253476142903,-0.0973646541595462,1.5967755283032241
6.991114400363416,-11.328460906791701,1.3992850155830399,1.4378428653717001,1.5967755283032241
6.9917200938824955,-17.0262123716354,-0.995734515666962,3.4760044864654502,1.5967755283032241
6.992325787401575,-4.42840963726044,6.91261997652054,1.9216368106842001,1.5967755283032241
6.992931480920654,4.87384622211456,0.0532840390205383,-2.0109852596283,1.5967755283032241
6.993537174439733,13.886304718208299,-7.608383441448209,-3.6922889705657997,1.5967755283032241
6.994142867958813,12.6480796205521,-0.48559535551071203,-0.765575103378296,1.5967755283032241
6.994748561477892,-6.56237203960419,2.2686771054267902,0.764842377090454,1.5967755283032241
6.995354254996972,-18.5135195005417,-1.22326137113571,2.9179649356842,1.5967755283032241
6.9959599485160515,-6.61745748882294,5.90192173433304,2.9658653263092,1.5967755283032241
6.99656564203513,4.17450051898956,2.94886265230179,-1.91757949790955,1.5967755283032241
6.99717133555421,10.839839874458299,-8.22629848051071,-3.4384169002533,1.5967755283032241
6.997777029073289,16.2573740541458,-2.7800240664482097,-1.80740859947205,1.5967755283032241
6.9983827225923685,-1.80346823101044,3.11172398042679,0.683411713027954,2.169078093867802
6.998988416111448,-20.2331435239792,-0.780182757854462,3.7179014591217,2.169078093867802
6.999594109630527,-10.624325164604201,5.41812778902054,4.01248886146545,2.169078093867802
7.000199803149606,3.30750344867706,4.01225132417679,-0.691329497909546,2.169078093867802
7.000805496668686,10.4734018861771,-8.50651576566696,-3.90065566978455,2.169078093867802
7.001411190187765,15.9268613588333,-4.33199672269821,-3.1965199275970497,2.169078093867802
7.002016883706844,3.9709238588333102,4.606216167926791,0.7001768497467039,2.169078093867802
7.0026225772259245,-19.0404237974167,-0.516730609416962,3.17423202552795,2.169078093867802
7.003228270745003,-13.9725624692917,3.23866001558304,2.6114024356842003,2.169078093867802
7.003833964264082,1.17833108539581,5.1642557187080405,0.443909759902954,2.169078093867802
7.004439657783162,8.58612649555206,-5.3666451601982095,-4.54731094322205,2.169078093867802
7.0050453513022415,15.9556015932083,-6.20729701566696,-2.5330995174408,2.169078093867802
7.00565104482132,7.16348489398956,2.71415073823929,0.949258880996704,2.169078093867802
7.0062567383404,-15.093431609916701,0.802925152301788,2.1036582950592,2.169078093867802
7.00686243185948,-15.960428680229201,0.699939312458038,3.07843124427795,2.169078093867802
7.0074681253785585,-0.981976531791687,6.51744175386429,1.1648106388092,2.169078093867802
7.008073818897638,6.25816751117706,-2.58602748441696,-2.9737831111907997,2.169078093867802
7.008679512416717,14.9281382143021,-7.92931605863571,-3.5677479549408,2.169078093867802
7.009285205935797,11.2805234682083,1.06877232027054,-0.33207656822204595,2.169078093867802
7.009890899454876,-11.9080556333542,2.7045706601142903,1.7324302677154502,2.169078093867802
7.010496592973955,-18.3314980161667,-0.605346332073212,3.7945420841217,2.169078093867802
7.011102286493035,-2.93631246929169,6.32823521089554,1.8402061466217001,2.169078093867802
7.0117079800121145,5.00078225727081,0.438882183551788,-2.05649063072205,2.169078093867802
7.012313673531193,13.402510772895798,-8.21911342191696,-3.72821426353455,2.169078093867802
7.012919367050273,15.131714874458298,-1.5992794375419601,-1.3379847713470499,2.169078093867802
7.013525060569352,-8.05446920757294,3.13567417573929,1.5264585880279502,2.169078093867802
7.0141307540884315,-21.1097206724167,0.858010601520538,3.2772178653717,2.169078093867802
7.014736447607511,-5.98038229351044,5.65283970308304,3.0137657169342003,2.169078093867802
7.01534214112659,5.18040872211456,1.8615237851142898,-1.88404922447205,2.169078093867802
7.015947834645669,10.557227569770799,-8.67416713285446,-4.55689102134705,2.169078093867802
7.016553528164749,17.1555063783646,-4.17153041410446,-1.6804725643157998,2.169078093867802
7.017159221683828,-2.09326559429169,5.13312046480179,1.2845616153717,2.169078093867802
7.017764915202907,-21.8569667661667,-0.46643519926071203,2.70959823646545,2.169078093867802
7.0183706087219875,-8.81129537944794,4.07691685152054,2.9131748966217,2.169078093867802
7.018976302241066,2.64647805805206,4.00985630464554,-0.835030669784546,2.169078093867802
7.019581995760145,10.2746152650833,-6.70785609769821,-4.00603652915955,2.169078093867802
7.020187689279226,17.7949765932083,-5.62530726957321,-1.6924476619720499,2.169078093867802
7.0207933827983044,1.30047708148956,3.46139683198929,0.197222748184204,2.169078093867802
7.021399076317383,-19.481107391166702,1.46155552339554,2.6018223575592,2.169078093867802
7.022004769836463,-12.0661269224167,1.71063755464554,3.51911483802795,2.169078093867802
7.022610463355543,1.3507724916458101,5.71511021089554,0.0535215763092038,2.169078093867802
7.023216156874621,8.62684182758331,-4.48527797269821,-3.6156483455657997,2.169078093867802
7.023821850393701,16.2118686830521,-7.53174281644821,-3.5246376033783,2.169078093867802
7.02442754391278,7.29760598773956,2.4483035702705402,0.8342979434967039,2.169078093867802
7.02503323743186,-16.5256532896042,2.5584744687080403,2.38387558021545,2.169078093867802
7.025638930950939,-16.4106923521042,0.050889019489288305,3.01137069740295,2.169078093867802
7.026244624470018,1.26215676898956,6.55097202730179,1.70369003334045,2.169078093867802
7.026850317989098,5.70012796039581,-2.14294887113571,-3.72342422447205,2.169078093867802
7.0274560115081774,14.7940171205521,-8.37478969144821,-4.25511856040955,2.169078093867802
7.028061705027256,13.5246567689896,-0.17903285551071202,0.6762266544342039,2.169078093867802
7.028667398546336,-14.164164031791701,3.17638950777054,1.9503770450592002,2.169078093867802
7.029273092065415,-20.4079799497604,1.70105747652054,3.34188339271545,2.169078093867802
7.029878785584494,-1.10172750835419,5.57859409761429,3.3442784122467,2.169078093867802
7.030484479103574,5.0175473939895605,0.0796292538642883,-2.77499649009705,2.169078093867802
7.031090172622653,12.365467315864601,-9.25136683988571,-4.46109024009705,2.169078093867802
7.031695866141733,17.3518979799271,-1.91302699613571,-0.6170838924407961,2.169078093867802
7.032301559660812,-8.93823141460419,4.9918143124580405,1.8497862247467,2.169078093867802
7.032907253179891,-22.2401698911667,0.173035015583038,3.0736412052154503,2.169078093867802
7.03351294669897,-4.62001119976044,4.21582798433304,2.61379745521545,2.169078093867802
7.0341186402180504,3.54700540180206,2.5081790585517902,-1.7906434627532999,2.169078093867802
7.034724333737129,12.497193390083298,-7.3161910586357095,-3.9413710018157997,2.169078093867802
7.035330027256208,17.0453354799271,-4.77986537504196,-1.9822450252533,2.169078093867802
7.035935720775289,-4.42122457866669,4.52718052339554,1.2893516544342,2.169078093867802
7.036541414294367,-20.412769988822898,0.747839703083038,2.7982139591217,2.169078093867802
7.037147107813446,-8.29157614116669,2.74049595308304,2.4150108341217003,2.169078093867802
7.037752801332526,3.0895566713333102,4.53197056245804,-0.123709869003296,2.169078093867802
7.038358494851606,10.2674302064896,-5.98695521879196,-4.1760829158782995,2.169078093867802
7.038964188370684,17.0333603822708,-6.91622279691696,-2.0732557674408,2.169078093867802
7.039569881889764,1.9447373353958102,3.30093052339554,0.45827987709045404,2.169078093867802
7.040175575408843,-19.8834706724167,2.04833530855179,2.9107798770904503,2.169078093867802
7.0407812689279226,-12.2840736997604,1.59807163667679,2.98263046302795,2.169078093867802
7.041386962447002,2.40937112445831,5.70553013277054,-0.43985244712829596,2.169078093867802
7.041992655966081,7.40538186664581,-3.76437709379196,-3.3617762752533,2.169078093867802
7.04259834948516,17.612955108833297,-8.29335902738571,-3.5294276424407998,2.169078093867802
7.04320404300424,8.35141458148956,0.941836285114288,-0.0542543025970462,2.169078093867802
7.043809736523319,-19.270345672416703,4.06973179292679,2.50362655677795,2.169078093867802
7.044415430042399,-17.6800527036667,1.93097935152054,3.92626815834045,2.169078093867802
7.045021123561479,2.91951028461456,5.30795689058304,1.1073301700592002,2.169078093867802
7.045626817080557,6.19110696430206,-1.84117641019821,-4.07309707603455,2.169078093867802
7.046232510599637,14.403628936958299,-9.71121058988571,-4.39881973228455,2.169078093867802
7.046838204118716,15.079024444770798,-0.186217914104462,-0.183585357284546,2.169078093867802
7.0474438976377956,-15.332933563041701,5.32232700777054,2.3096299747467,2.169078093867802
7.048049591156875,-21.1767812192917,0.570608257770538,3.5837803653717,2.169078093867802
7.048655284675954,-0.205990203666687,4.30923374605179,2.24496444740295,2.169078093867802
7.049260978195033,4.07869973773956,0.613718609333038,-2.93785781822205,2.169078093867802
7.049866671714113,14.0180307924271,-8.16642299222946,-4.08746719322205,2.169078093867802
7.050472365233192,17.548289581489602,-3.96316371488571,-1.08411270103455,2.169078093867802
7.051078058752271,-10.746471160697899,5.444473003864291,1.7372203067779501,2.169078093867802
7.051683752271352,-22.0940736997604,1.79925327730179,3.60054550209045,2.169078093867802
7.05228944579043,-3.68355856304169,2.71415073823929,2.3000498966217,2.169078093867802
7.052895139309509,4.22000589008331,3.1668094296455402,-1.8050135799407998,2.169078093867802
7.053500832828589,11.6996518861771,-6.5641549258232095,-4.56647109947205,2.169078093867802
7.0541065263476685,17.8835923158646,-6.19532191801071,-1.4146253963470499,2.169078093867802
7.054712219866747,-4.23920309429169,4.3259988827705405,1.43065780677795,2.169078093867802
7.055317913385827,-22.7790492856979,2.6614603085517903,2.6353526309967,2.169078093867802
7.055923606904906,-7.68563619976044,2.04833530855179,3.32751327552795,2.169078093867802
7.0565293004239855,4.58165383930206,3.8925003476142903,-0.744019927597046,2.169078093867802
7.057134993943065,8.49272073383331,-4.48767299222946,-4.6550868221282995,2.169078093867802
7.057740687462144,19.1745078432083,-7.56048305082321,-2.14271133384705,2.169078093867802
7.058346380981225,3.17577737445831,2.25670200777054,0.989974213027954,2.169078093867802
7.058952074500303,-23.763402313041702,4.53197056245804,2.96826034584045,2.169078093867802
7.059557768019382,-12.5068105161667,1.60286167573929,4.3310264591217,2.169078093867802
7.060163461538462,4.81636575336456,4.14876743745804,-0.10454971275329601,2.169078093867802
7.0607691550575415,5.6426474916458105,-3.3189034609794597,-4.5928163143158,2.169078093867802
7.06137484857662,18.1709946596146,-8.73164760160446,-3.1102992244720498,2.169078093867802
7.0619805420957,10.4781919252396,0.594558453083038,-0.248250884628296,2.169078093867802
7.062586235614779,-21.2414467466354,5.24329136323929,3.51432479896545,2.169078093867802
7.0631919291338585,-17.833333953666703,1.2579788632392899,3.76819686927795,2.169078093867802
7.063797622652938,2.40937112445831,3.8757352108955403,0.187642670059204,2.169078093867802
7.064403316172017,5.88933450336456,-0.643666644573212,-3.2468153377533,2.169078093867802
7.065009009691096,16.1256479799271,-9.33998256254196,-4.2287733455658,2.169078093867802
7.065614703210176,14.4084189760208,-2.00164271879196,-0.197955474472046,2.169078093867802
7.066220396729255,-16.1089198911667,5.90910679292679,2.53715683021545,2.169078093867802
7.066826090248334,-20.7408876646042,1.62920689058304,3.21734237709045,2.169078093867802
7.0674317837674145,0.500540558052063,3.16920444917679,2.2569395450592,2.169078093867802
7.068037477286493,5.31931985492706,1.3178543515205399,-2.82289688072205,2.169078093867802
7.068643170805572,12.420552765083299,-7.08626918363571,-4.5616810604095495,2.169078093867802
7.069248864324652,17.4141684877396,-5.512741351604459,-0.942806548690796,2.169078093867802
7.0698545578437315,-9.46992575054169,5.31035191011429,1.7539854434967002,2.169078093867802
7.07046025136281,-23.6220961606979,3.41828648042679,3.44247421302795,2.169078093867802
7.07106594488189,-3.09917379741669,1.90942417573929,2.56589706459045,2.169078093867802
7.071671638400969,4.79241555805206,2.7979764218330403,-1.3739100643158,2.169078093867802
7.0722773319200485,10.423106476020799,-5.28521449613571,-4.66706191978455,2.169078093867802
7.072883025439128,20.290586944770798,-7.608383441448209,-1.88883926353455,2.169078093867802
7.073488718958207,-2.97223776226044,3.38475620698929,0.793582611465454,2.169078093867802
7.074094412477287,-26.1703969419479,5.7701956601142905,3.81130722084045,2.169078093867802
7.074700105996366,-8.25086080913544,1.59328159761429,3.0137657169342003,2.169078093867802
7.075305799515445,6.28690774555206,2.64230015230179,-1.7810633846283,2.169078093867802
7.075911493034525,6.73956643695831,-3.6949215273857097,-4.4682752986908,2.169078093867802
7.0765171865536045,19.8522983705521,-8.20234828519821,-2.54028457603455,2.169078093867802
7.077122880072683,5.54205667133331,1.3561746640205399,1.02350448646545,2.169078093867802
7.077728573591763,-25.004022430229202,6.41206089448929,3.1143565372467,2.169078093867802
7.078334267110842,-14.111473602104201,1.31066929292679,3.8711827091217,2.169078093867802
7.0789399606299215,5.57798196430206,2.3692679257392903,-0.174005279159546,2.169078093867802
7.079545654149001,6.18631692523956,-1.8124361758232101,-4.62395156822205,2.169078093867802
7.08015134766808,17.177061554145798,-8.56639125394821,-3.92460586509705,2.169078093867802
7.080757041187159,10.8805552064896,-1.40767787504196,1.0929600528717,2.169078093867802
7.081362734706239,-21.4665785825729,6.35218540620804,2.80539901771545,2.169078093867802
7.081968428225318,-17.9147646177292,2.2662820858955404,3.5262998966217003,2.169078093867802
7.082574121744397,4.56249368305206,2.1728763241767903,0.702571869277954,2.169078093867802
7.0831798152634775,5.03191751117706,0.369426617145538,-3.5964881893158,2.169078093867802
7.083785508782556,13.895884796333299,-8.22869350004196,-3.8455702205658,2.169078093867802
7.084391202301635,16.2669541322708,-4.09249476957321,-0.5596034236907961,2.169078093867802
7.084996895820715,-15.536510223197899,6.58450230073929,2.9371250919342002,2.169078093867802
7.0856025893397945,-23.1550673521042,3.11890903902054,3.3921788028717,2.169078093867802
7.086208282858873,1.83696145648956,1.8998440976142899,2.2042491153717,2.169078093867802
7.086813976377953,5.46062600727081,1.10948765230179,-3.04802871665955,2.169078093867802
7.087419669897033,11.5751108705521,-6.6240304141044595,-4.8035780330658,2.169078093867802
7.0880253634161114,20.2139463197708,-6.15460658597946,-0.890116119003296,2.169078093867802
7.088631056935191,-9.99443502788544,4.73794224214554,1.3348570255279502,2.169078093867802
7.08923675045427,-27.504422820854202,6.09352329683304,4.16577011146545,2.169078093867802
7.08984244397335,-2.46688864116669,0.929861187458038,3.5262998966217003,2.169078093867802
7.090448137492429,7.18743508930206,1.01129185152054,-2.4372987361908,2.169078093867802
7.091053831011508,7.84846047992706,-4.14758021879196,-5.52447891197205,2.169078093867802
7.091659524530587,21.0809433900833,-7.81675014066696,-1.59664688072205,2.169078093867802
7.0922652180496675,-0.900545867729187,2.2686771054267902,1.02350448646545,2.169078093867802
7.092870911568746,-27.9211562192917,6.78568394136429,4.1633750919342,2.169078093867802
7.093476605087826,-8.38258688335419,1.92858433198929,2.8652745059967,2.169078093867802
7.094082298606905,6.57191506977081,1.54298618745804,-1.1056678768158,2.169078093867802
7.094687992125984,7.23054544086456,-2.6435079531669596,-4.34133926353455,2.169078093867802
7.095293685645064,20.2355014955521,-8.73643764066696,-3.32585098228455,2.169078093867802
7.095899379164143,4.45950784320831,-0.30596889066696203,0.530130463027954,2.169078093867802
7.096505072683222,-25.2842397153854,8.07180942964554,3.18860214271545,2.169078093867802
7.097110766202302,-13.886341766166701,2.0387552304267897,4.39569198646545,2.169078093867802
7.097716459721381,7.03175881977081,1.2412137265205399,-0.6218739315032961,2.169078093867802
7.09832215324046,5.87017434711456,-1.1585958437919601,-3.6779188533783,1.7821977709390484
7.0989278467595405,16.2406089174271,-8.26461879301071,-3.9365809627533,1.7821977709390484
7.099533540278619,12.6911899721146,-2.34892055082321,0.333738861465454,1.7821977709390484
7.100139233797698,-21.6725502622604,7.07308628511429,3.45684433021545,1.7821977709390484
7.100744927316779,-19.7373744810104,3.70089878511429,3.51432479896545,1.7821977709390484
7.101350620835857,5.48218118305206,1.16217808198929,1.22947616615295,1.7821977709390484
7.101956314354936,5.54445169086456,-0.413744769573212,-3.60367324790955,1.7821977709390484
7.102562007874016,13.953365265083299,-7.01441859769821,-4.4826454158783,1.7821977709390484
7.103167701393096,18.0704038393021,-5.27802943754196,-0.365606841659546,1.7821977709390484
7.103773394912174,-16.353211883354202,6.9940506405830405,2.9850254825592,1.7821977709390484
7.104379088431254,-26.5991054380417,5.81330601167679,3.46163436927795,1.7821977709390484
7.104984781950333,2.87639993305206,0.359846539020538,2.1802989200592,1.7821977709390484
7.1055904754694135,7.18025003070831,-0.040121722698211695,-2.7726014705658,1.7821977709390484
7.106196168988492,9.42917337055206,-5.98216517972946,-5.5220838924408,1.7821977709390484
7.106801862507571,21.923990265083297,-6.24322230863571,-1.0338172908782999,1.7821977709390484
7.10740755602665,-9.45795065288544,3.59791294527054,2.18748397865295,1.7821977709390484
7.10801324954573,-28.9749648130417,7.98798374605179,4.57771347084045,1.7821977709390484
7.108618943064809,-2.11721578960419,-0.279623675823212,2.77186874427795,1.7821977709390484
7.109224636583889,7.2928159486770605,0.37182163667678797,-2.8157118221283,1.7821977709390484
7.109830330102968,7.81253518695831,-2.43514125394821,-4.6359266658783,1.7821977709390484
7.110436023622047,21.140818878364602,-9.21783656644821,-1.64933731040955,1.7821977709390484
7.111041717141127,-1.56875631694794,1.56933140230179,1.1384654239654501,1.7821977709390484
7.111647410660206,-28.0576723325729,8.66337925386429,4.30947128334045,1.7821977709390484
7.112253104179285,-7.93471823101044,1.1597830624580399,3.03532089271545,1.7821977709390484
7.112858797698365,7.82690530414581,0.13950474214553799,-1.4697108455658,1.7821977709390484
7.113464491217444,6.9000327455520605,-1.57532924222946,-4.1617127986908,1.7821977709390484
7.114070184736523,19.2080381166458,-8.59992152738571,-3.33543106040955,1.7821977709390484
7.114675878255603,5.64743753070831,-1.2687667422294602,1.1791807559967,1.7821977709390484
7.115281571774682,-26.1943471372604,8.41190220308304,3.32272323646545,1.7821977709390484
7.115887265293761,-15.1125917661667,3.04226841402054,3.5694102481842003,1.7821977709390484
7.116492958812842,8.43284524555206,-0.212563128948212,-0.19556045494079602,1.7821977709390484
7.11709865233192,6.28211770648956,-0.46643519926071203,-4.51857070884705,1.7821977709390484
7.117704345850999,16.4370005189896,-7.3425362734794595,-3.74737441978455,1.7821977709390484
7.118310039370079,13.7402085268021,-4.83016078519821,0.726522064590454,1.7821977709390484
7.118915732889159,-23.0688466489792,8.44303745698929,3.2245274356842,1.7821977709390484
7.119521426408237,-22.7622841489792,5.18102085542679,4.3932969669342,1.7821977709390484
7.120127119927317,8.07359231586456,-0.47601527738571203,1.8952915958404501,1.7821977709390484
7.120732813446396,6.65574075336456,-0.29638881254196203,-4.4060047908783,1.7821977709390484
7.1213385069654755,11.9487339174271,-6.8707174258232095,-5.2011512752533,1.7821977709390484
7.121944200484555,20.3001670228958,-5.8528341250419595,-0.34165664634704596,1.7821977709390484
7.122549894003634,-17.0262123716354,5.72229526948929,3.3059580997467,1.7821977709390484
7.123155587522714,-27.0996645200729,7.66465610933304,3.7849620059967,1.7821977709390484
7.123761281041793,3.30750344867706,-0.547865863323212,2.45572616615295,1.7821977709390484
7.124366974560872,7.53471292133331,0.101184429645538,-3.7018690486907997,1.7821977709390484
7.124972668079951,9.94649758930206,-4.71998988676071,-5.65380996665955,1.7821977709390484
7.125578361599031,21.636587921333298,-7.83830531644821,-0.368001861190796,1.7821977709390484
7.12618405511811,-9.98245993022919,3.30093052339554,2.33597518959045,1.7821977709390484
7.12678974863719,-28.9821498716354,8.28017612886429,4.87469589271545,1.7821977709390484
7.127395442156269,-1.47295553569794,0.608928570270538,2.7982139591217,1.7821977709390484
7.1280011356753485,8.02808694477081,-0.784972796916962,-2.1882167049408,1.7821977709390484
7.128606829194428,8.23405862445831,-1.94416225004196,-4.82513320884705,1.7821977709390484
7.129212522713507,19.6463266908646,-8.72685756254196,-2.59297500572205,1.7821977709390484
7.129818216232586,-1.23584860210419,0.0820242733955383,1.1600205997467001,1.7821977709390484
7.130423909751666,-27.7032094419479,10.6584305233955,4.8483506778717,1.7821977709390484
7.131029603270745,-9.65673727397919,1.62441685152054,3.8424424747467003,1.7821977709390484
7.131635296789824,9.93212747211456,-1.00291957426071,-1.63496719322205,1.7821977709390484
7.132240990308905,6.13123147602081,-1.2304464297294602,-4.17368789634705,1.7821977709390484
7.132846683827983,19.1266074525833,-8.15684291410446,-2.84205703697205,1.7821977709390484
7.133452377347062,7.47962747211456,-2.2052193789482097,0.843878021621704,1.7821977709390484
7.134058070866142,-28.8408437192917,9.65731235933304,4.47712265052795,1.7821977709390484
7.1346637643852215,-16.037069305229203,5.11396030855179,3.64365585365295,1.7821977709390484
7.1352694579043,10.1333091127396,-2.08307338285446,-0.28178115806579596,1.7821977709390484
7.13587515142338,6.25577249164581,-0.665221820354462,-4.33654922447205,1.7821977709390484
7.136480844942459,15.2251206361771,-6.98088832426071,-4.48983047447205,1.7821977709390484
7.1370865384615385,14.906583038520798,-5.95821498441696,0.532525482559204,1.7821977709390484
7.137692231980618,-23.2820033872604,9.37709507417679,3.28919296302795,1.7821977709390484
7.138297925499697,-24.2495912778854,6.35458042573929,3.92147811927795,1.7821977709390484
7.138903619018777,8.69629739398956,-2.31539027738571,0.987579193496704,1.7821977709390484
7.139509312537856,7.52992288227081,-0.258068500041962,-4.0036415096283,1.7821977709390484
7.140115006056935,11.500865265083299,-5.77619350004196,-5.02152481040955,1.7821977709390484
7.140720699576015,19.7636826478958,-6.77970668363571,0.0463365177154538,1.7821977709390484
7.1413263930950945,-17.9554799497604,6.07915317964554,3.4831895450592003,1.7821977709390484
7.141932086614173,-26.8410024106979,8.63224399995804,3.85441757240295,1.7821977709390484
7.142537780133253,4.76367532367706,-1.6591549258232101,2.2377793888092,1.7821977709390484
7.143143473652332,7.21857034320831,-0.581396136760712,-3.8719154354095497,1.7821977709390484
7.1437491671714115,8.83041848773956,-3.05545131254196,-4.9760194393158,1.7821977709390484
7.144354860690491,22.1251719057083,-8.21911342191696,-0.571578521347046,1.7821977709390484
7.14496055420957,-9.24239889507294,3.2003397030830403,1.99588241615295,1.7821977709390484
7.145566247728649,-30.273065398979202,9.93273960542679,4.5848985294342,1.7821977709390484
7.146171941247729,-1.37236471538544,0.09399937105178831,2.72396835365295,1.7821977709390484
7.146777634766808,9.39564309711456,-1.6591549258232101,-2.14750137290955,1.7821977709390484
7.147383328285887,7.75026467914581,-0.964599261760712,-4.81555313072205,1.7821977709390484
7.1479890218049675,22.0485312807083,-8.28138392972946,-1.9295545955658,1.7821977709390484
7.148594715324046,-1.51127584819794,-1.37414760160446,1.6917149356842,1.7821977709390484
7.149200408843125,-31.307713836479202,11.930185894489298,4.5657383731842005,1.7821977709390484
7.149806102362205,-9.35017477397919,2.0052249569892897,3.7753819278717002,1.7821977709390484
7.1504117958812845,12.1020151674271,-2.91414516019821,-1.11285293540955,1.7821977709390484
7.151017489400363,5.61390725727081,-0.0113814883232117,-5.2274964900970495,1.7821977709390484
7.151623182919443,18.7290342103958,-8.04667201566696,-3.69468399009705,1.7821977709390484
7.152228876438523,8.43524026508331,-4.50922816801071,1.7060850528717002,1.7821977709390484
7.1528345699576015,-29.6958656919479,11.144619488239298,4.12744979896545,1.7821977709390484
7.153440263476681,-16.9160414731979,4.98702427339554,3.95979843177795,1.7821977709390484
7.15404595699576,11.606246124458298,-3.8410177187919596,-0.248250884628296,1.7821977709390484
7.15465165051484,5.96358010883331,0.529892925739288,-5.1939662166595495,1.7821977709390484
7.155257344033919,15.2442807924271,-6.92101283597946,-3.27795059165955,1.7821977709390484
7.155863037552998,15.1101596986771,-7.11979945707321,-0.147660064315796,1.7821977709390484
7.156468731072078,-24.6735097349167,9.13759312105179,3.5262998966217003,1.7821977709390484
7.1570744245911575,-22.8604799497604,8.20353550386429,5.09024765052795,1.7821977709390484
7.157680118110236,9.08429055805206,-3.5057149844169597,0.15890243568420398,1.7821977709390484
7.158285811629316,7.09642434711456,-0.36584437894821203,-3.6755238338470497,1.7821977709390484
7.158891505148395,11.2829184877396,-4.54754848051071,-5.0095497127533,1.7821977709390484
7.1594971986674745,19.3972446596146,-7.54611293363571,0.060706634902953804,1.7821977709390484
7.160102892186554,-17.790223602104202,6.06717808198929,3.2149473575592,1.7821977709390484
7.160708585705633,-27.8014052427292,9.66928745698929,4.47712265052795,1.7821977709390484
7.161314279224712,4.84271096820831,-1.74058558988571,2.0294126895904503,1.7821977709390484
7.161919972743792,8.919034210395811,-1.5561690859794601,-3.8647303768158,1.7821977709390484
7.162525666262871,8.48314065570831,-2.44951137113571,-4.9137489315033,1.7821977709390484
7.16313135978195,22.7550620424271,-8.30293910551071,-0.8973011775970461,1.7821977709390484
7.1637370533010305,-9.55854147319794,1.5142459530830399,2.30723495521545,1.7821977709390484
7.164342746820109,-32.7447255552292,12.119392437458,4.80284530677795,1.7821977709390484
7.164948440339188,-1.5016957700729399,0.11315952730178801,3.4017588809967,1.7821977709390484
7.165554133858269,11.5343955385208,-3.06503139066696,-2.9354627986908,1.7821977709390484
7.1661598273773475,5.41991067523956,-0.487990375041962,-5.7711659236908,1.7821977709390484
7.166765520896426,22.2784531557083,-8.56399623441696,-2.46843399009705,1.7821977709390484
7.167371214415506,0.462220245552063,-2.6435079531669596,2.10126327552795,1.7821977709390484
7.167976907934586,-32.9363271177292,13.6090945858955,4.8962510684967,1.7821977709390484
7.168582601453664,-9.97527487163544,2.5752396054267903,3.0999864200592,1.7821977709390484
7.169188294972744,12.7893857728958,-5.14390834379196,-0.746414947128296,1.7821977709390484
7.169793988491823,6.27253762836456,1.13104282808304,-5.17480606040955,1.7821977709390484
7.170399682010903,17.7662363588333,-8.29335902738571,-3.58451309165955,1.7821977709390484
7.171005375529982,8.39452493305206,-6.22166713285446,1.3276719669342,1.7821977709390484
7.171611069049061,-29.2456020200729,12.399609722614299,3.57180526771545,1.7821977709390484
7.17221676256814,-17.0046571958542,6.0360428280830405,4.25678085365295,1.7821977709390484
7.1728224560872205,12.396602569770799,-5.1870186953544595,-0.06622940025329621,1.7821977709390484
7.173428149606299,6.37073342914581,0.798135113239288,-4.84429336509705,1.7821977709390484
7.174033843125379,14.044376007270799,-5.85043910551071,-3.94376602134705,1.7821977709390484
7.174639536644458,15.6059287416458,-7.65628383207321,0.748077240371704,1.7821977709390484
7.175245230163537,-24.1561855161667,8.64421909761429,3.6652110294342,1.7821977709390484
7.175850923682617,-23.4951601255417,9.20944370698929,4.3453965763092,1.7821977709390484
7.176456617201696,9.18488137836456,-4.14039516019821,0.180457611465454,1.7821977709390484
7.177062310720775,7.73349954242706,-1.0292647891044602,-3.6348085018158,1.7821977709390484
7.177668004239855,11.1919077455521,-3.0195260195732097,-4.82034316978455,1.7821977709390484
7.178273697758934,20.5851743471146,-8.31012416410446,-0.6194789119720461,1.7821977709390484
7.178879391278013,-17.5818569028854,4.9247537655830405,3.5861753849029503,1.7821977709390484
7.1794850847970935,-30.7975746763229,11.815224956989299,5.0710874942779505,1.7821977709390484
7.180090778316172,5.86777932758331,-2.50699183988571,2.2234092716217,1.7821977709390484
7.180696471835251,10.6937436830521,-2.72972865629196,-4.46109024009705,1.7821977709390484
7.181302165354332,6.0354306947708105,-1.6064644961357102,-5.58195938072205,1.7821977709390484
7.18190785887341,23.8879062807083,-8.56878627347946,-0.9595716854095461,1.7821977709390484
7.182513552392489,-8.47838766460419,0.395771831989288,2.12521347084045,1.7821977709390484
7.183119245911569,-33.611722625541695,14.3060452694893,5.19562850990295,1.7821977709390484
7.183724939430649,-1.74359274272919,-0.195797992229462,3.3921788028717,1.7821977709390484
7.184330632949727,12.8827915346146,-4.91159144926071,-2.8396620174408,1.7821977709390484
7.184936326468807,5.56121682758331,0.984946636676788,-5.4981336971283,1.7821977709390484
7.185542019987886,20.6522348939896,-8.88492885160446,-2.9139076229095497,1.7821977709390484
7.186147713506966,0.768782745552063,-3.68055141019821,2.13479354896545,1.7821977709390484
7.186753407026045,-33.0656581724167,14.7898392148018,5.0207920841217,1.7821977709390484
7.187359100545124,-9.50106100444794,2.98239292573929,2.9131748966217,1.7821977709390484
7.187964794064203,14.2575327455521,-6.29351771879196,-0.7991053768157961,1.7821977709390484
7.188570487583283,5.39117044086456,1.51664097261429,-5.38556777915955,1.7821977709390484
7.189176181102362,16.726797882270798,-7.1629098086357095,-3.3713563533783,1.7821977709390484
7.189781874621442,9.18248635883331,-6.5713399844169595,1.43065780677795,1.7821977709390484
7.190387568140521,-29.2911073911667,12.4882254452705,3.6939512638092,1.7821977709390484
7.1909932616596,-17.1435683286667,6.63000767183304,4.2304356388092,1.7821977709390484
7.19159895517868,12.7774106752396,-6.21448207426071,-0.928436431503296,1.7821977709390484
7.192204648697759,5.7360532533645605,0.537077984333038,-4.5976063533783,1.7821977709390484
7.192810342216839,14.5425400697708,-4.34636683988571,-4.1233924861908,1.7821977709390484
7.193416035735918,16.0753525697708,-8.24785365629196,0.101421966934204,1.7821977709390484
7.194021729254997,-25.6722328794479,8.52446812105179,3.9669834903717,1.7821977709390484
7.194627422774076,-24.5729189146042,10.3973733944893,5.1213829044342,1.7821977709390484
7.195233116293156,10.2482700502396,-4.84932094144821,-0.267411040878296,1.7821977709390484
7.195838809812235,7.93468118305206,-1.55856410551071,-4.15452774009705,1.7821977709390484
7.196444503331314,9.92973245258331,-2.59560756254196,-4.86345352134705,1.7821977709390484
7.197050196850395,21.5695273744583,-9.04300014066696,-1.1439881893158,1.7821977709390484
7.197655890369473,-17.3184047544479,3.97153599214554,4.36216171302795,1.7821977709390484
7.198261583888552,-31.173592742729202,14.1264188046455,4.53460311927795,0.9466786587352936
7.198867277407632,4.30862161273956,-3.01473598051071,1.83302108802795,0.9466786587352936
7.199472970926712,12.755855499458299,-4.17392543363571,-3.16777969322205,0.9466786587352936
7.20007866444579,6.59347024555206,-0.332314105510712,-6.2022694393158,0.9466786587352936
7.20068435796487,21.1503989564896,-8.95198939847946,-1.64454727134705,0.9466786587352936
7.201290051483949,-7.7694618833541895,-0.408954730510712,2.72875839271545,0.9466786587352936
7.2018957450030285,-33.4488612974167,15.1802273983955,5.1357530216217,0.9466786587352936
7.202501438522108,-1.3005141294479399,0.11555454683303801,3.05927108802795,0.9466786587352936
7.203107132041187,14.1162265932083,-6.37973842191696,-2.82768691978455,0.9466786587352936
7.203712825560267,4.12899514789581,1.78967319917679,-5.3927528377533,0.9466786587352936
7.204318519079346,20.9108970033646,-8.08499232816696,-1.8768641658782999,0.9466786587352936
7.204924212598425,1.7699009096145601,-4.66490443754196,1.8497862247467,0.9466786587352936
7.205529906117504,-33.4608363950729,15.470024761676799,4.6854893497467005,0.9466786587352936
7.206135599636585,-9.34538473491669,3.59551792573929,3.58138534584045,0.9466786587352936
7.206741293155663,13.3881406557083,-7.24194545316696,-1.68286758384705,0.9466786587352936
7.207346986674743,5.69533792133331,1.7417728085517898,-5.3496424861908,0.9466786587352936
7.207952680193822,18.1709946596146,-6.19532191801071,-3.2276551815033,0.9466786587352936
7.2085583737129015,8.78012307758331,-7.46468226957321,1.6390245059967001,0.9466786587352936
7.209164067231981,-30.7041689146042,12.914538921833,3.95979843177795,0.9466786587352936
7.20976976075106,-18.0536757505417,7.87781284761429,4.5034678653717,0.9466786587352936
7.210375454270139,13.9174399721146,-7.24194545316696,-0.48056777915954596,0.9466786587352936
7.210981147789219,6.57910012836456,0.237700542926788,-5.1484608455658,0.9466786587352936
7.211586841308298,13.1725888978958,-3.61349086332321,-4.6742469783783,0.9466786587352936
7.212192534827377,16.9615097963333,-9.46931361722946,0.767237396621704,0.9466786587352936
7.212798228346458,-24.8722963560104,7.81793735933304,4.15619003334045,0.9466786587352936
7.213403921865536,-25.7177382505417,12.780417828083,4.4938877872467,0.9466786587352936
7.214009615384615,10.3680210268021,-6.30788783597946,0.530130463027954,0.9466786587352936
7.214615308903695,9.75489602680206,-1.82201625394821,-4.43714004478455,0.9466786587352936
7.2152210024227745,8.90466409320831,-1.50108363676071,-5.07900527915955,0.9466786587352936
7.215826695941853,20.261846710395798,-10.317150531292,-0.7176747127532961,0.9466786587352936
7.216432389460933,-16.8585610044479,3.84459995698929,3.82088729896545,0.9466786587352936
7.217038082980012,-30.0934389341354,14.629372906208,5.0591123966217,0.9466786587352936
7.2176437764990915,5.19477883930206,-2.82552943754196,1.9384019474029501,0.9466786587352936
7.218249470018171,12.473243194770799,-5.11516810941696,-3.7353993221282997,0.9466786587352936
7.21885516353725,6.33001809711456,-0.370634418010712,-5.5987245174408,0.9466786587352936
7.21946085705633,20.8270713197708,-7.93889613676071,-1.2972694393158,0.9466786587352936
7.220066550575409,-7.59702047710419,-0.837663226604462,2.8652745059967,0.9466786587352936
7.220672244094488,-33.405750945854194,14.8137894101143,5.09982772865295,0.9466786587352936
7.221277937613568,-2.1459560239791897,0.838850445270538,2.4748863224029503,0.9466786587352936
7.2218836311326475,14.3174082338333,-7.17727992582321,-2.71272598228455,0.9466786587352936
7.222489324651726,5.62109231586456,1.3944949765205399,-5.1676210018157995,0.9466786587352936
7.223095018170806,20.5803843080521,-7.11261439847946,-2.0109852596283,0.9466786587352936
7.223700711689885,1.07055520648956,-4.8948263125419595,1.59830917396545,0.9466786587352936
7.2243064052089645,-34.112281707572905,15.127536968708,4.9010411075592,0.9466786587352936
7.224912098728044,-9.73337789897919,3.79430454683304,3.88794784584045,0.9466786587352936
7.225517792247123,14.9951987611771,-7.3425362734794595,-2.7486512752533,0.9466786587352936
7.226123485766202,4.50261819477081,1.85433872652054,-5.50531875572205,0.9466786587352936
7.226729179285282,18.3673862611771,-6.45398402738571,-2.0972059627533,0.9466786587352936
7.227334872804361,9.98002786273956,-8.26222377347946,0.314578705215454,0.9466786587352936
7.22794056632344,-30.8239198911667,12.3253641171455,4.32863143959045,0.9466786587352936
7.2285462598425205,-17.9842201841354,8.67535435152054,5.0303721622467,0.9466786587352936
7.229151953361599,12.7534604799271,-7.25392055082321,-1.6277821346283,0.9466786587352936
7.229757646880678,8.21250344867706,-0.0712569766044617,-3.9844813533783,0.9466786587352936
7.230363340399758,13.1438486635208,-3.5057149844169597,-4.9329090877533,0.9466786587352936
7.2309690339188375,15.1341098939896,-10.3794210391045,0.211592865371704,0.9466786587352936
7.231574727437916,-23.8496230161667,7.49700474214554,4.25199081459045,0.9466786587352936
7.232180420956996,-25.2650795591354,14.083308453083,4.5417881778717,0.9466786587352936
7.232786114476076,9.44354348773956,-6.25519740629196,0.791187591934204,0.9466786587352936
7.2333918079951545,11.167957550239601,-2.59560756254196,-4.03956680259705,0.9466786587352936
7.233997501514234,7.87720071430206,-1.50587367582321,-5.39514785728455,0.9466786587352936
7.234603195033313,19.663091827583298,-9.428598285198209,-0.648219146347046,0.9466786587352936
7.235208888552393,-15.3832289731979,3.4566067929267903,4.1585850528717,0.9466786587352936
7.235814582071472,-31.3148988950729,14.8832449765205,4.1729551700592005,0.9466786587352936
7.236420275590551,4.67984964008331,-2.56926234769821,2.10126327552795,0.9466786587352936
7.237025969109631,12.7199302064896,-5.74505824613571,-3.66594375572205,0.9466786587352936
7.2376316626287105,6.55035989398956,0.228120464801788,-6.13281387290955,0.9466786587352936
7.238237356147789,22.1347519838333,-7.95087123441696,-0.914066314315796,0.9466786587352936
7.238843049666869,-7.83652243022919,-1.3286422305107102,2.8604844669342,0.9466786587352936
7.239448743185948,-34.883477996635406,15.565825542926799,5.01360702552795,0.9466786587352936
7.2400544367050275,-2.3160024106979398,1.03045200777054,3.3155381778717,0.9466786587352936
7.240660130224107,14.935323272895799,-7.668258929729459,-2.3127577205658,0.9466786587352936
7.241265823743186,5.56600686664581,1.32024937105179,-5.62985977134705,0.9466786587352936
7.241871517262265,20.1947861635208,-6.49709437894821,-3.0360536190033,0.9466786587352936
7.242477210781345,1.39148782367706,-6.10670619535446,1.9719322208404502,0.9466786587352936
7.243082904300424,-34.054801238822904,15.3742239804268,5.00881698646545,0.9466786587352936
7.243688597819503,-10.945257781791701,4.85769321870804,3.3490684513092,0.9466786587352936
7.2442942913385835,15.0454941713333,-8.21432338285446,-1.5703016658783,0.9466786587352936
7.244899984857662,5.85819924945831,2.60637485933304,-5.3017420955658,0.9466786587352936
7.245505678376741,16.1567832338333,-6.30788783597946,-3.5437977596283,0.9466786587352936
7.246111371895822,10.0686435853958,-9.33519252347946,0.812742767715454,0.9466786587352936
7.2467170654149005,-29.3581679380417,12.2175882382393,4.49628280677795,0.9466786587352936
7.247322758933979,-18.9446230161667,10.1506863827705,4.9728916934967,0.9466786587352936
7.247928452453059,13.124688507270799,-7.44312709379196,-1.06974258384705,0.9466786587352936
7.248534145972139,8.54301614398956,-0.7107271914482121,-4.4443251033783,0.9466786587352936
7.249139839491217,11.8625132143021,-3.32848353910446,-4.19284805259705,0.9466786587352936
7.249745533010297,15.8478257143021,-9.16514613676071,-0.27938613853454597,0.9466786587352936
7.250351226529376,-23.0568715513229,7.22636753511429,4.02206893959045,0.9466786587352936
7.250956920048456,-26.0075356138229,13.180386089801798,4.6423789981842,0.9466786587352936
7.251562613567535,9.18488137836456,-5.52950648832321,0.451094818496704,0.9466786587352936
7.252168307086614,11.1056870424271,-3.6158858828544598,-3.7641395565033,0.9466786587352936
7.252774000605693,9.49383889789581,-0.7107271914482121,-5.18438613853455,0.9466786587352936
7.2533796941247735,19.4187998353958,-8.650216937541959,-0.744019927597046,0.9466786587352936
7.253985387643852,-16.1616103208542,2.9943680233955403,3.6604209903717,0.9466786587352936
7.254591081162932,-31.413094695854202,14.9503055233955,4.6950694278717,0.9466786587352936
7.255196774682011,4.96246194477081,-2.9069601016044597,2.00546249427795,0.9466786587352936
7.25580246820109,12.8588413393021,-5.4001754336357095,-4.6287416072845495,0.9466786587352936
7.25640816172017,5.45344094867706,0.764604839801788,-5.7591908260345495,0.9466786587352936
7.257013855239249,22.6880014955521,-8.12091762113571,-0.456617583847046,0.9466786587352936
7.257619548758328,-7.0509560239791895,-2.20761439847946,2.1228184513092,0.9466786587352936
7.258225242277408,-34.768517059135405,16.3801321835518,4.9297813419342,0.9466786587352936
7.258830935796487,-2.67765035991669,0.623298687458038,3.02095077552795,0.9466786587352936
7.259436629315566,14.8730527650833,-7.90297084379196,-2.9498329158783,0.9466786587352936
7.2600423228346465,5.93962991352081,2.1920364804267902,-5.4454432674408,0.9466786587352936
7.260648016353725,19.5553159486771,-7.63233363676071,-2.8803773494720497,0.9466786587352936
7.261253709872804,0.890928741645813,-6.39889857816696,2.05336288490295,0.9466786587352936
7.261859403391885,-32.8620815122604,15.481999859333,5.2890342716217,0.9466786587352936
7.262465096910963,-9.90102926616669,5.64565464448929,3.5861753849029503,0.9466786587352936
7.263070790430042,14.3916538393021,-8.49933070707321,-1.5391664119720498,0.9466786587352936
7.263676483949122,5.94920999164581,1.36335972261429,-5.2634217830658,0.9466786587352936
7.264282177468202,16.1998935853958,-5.81451381254196,-3.39770156822205,0.9466786587352936
7.26488787098728,9.71178567523956,-8.43466517972946,0.951653900527954,0.9466786587352936
7.26549356450636,-29.0132851255417,12.2080081601143,4.16577011146545,0.9466786587352936
7.266099258025439,-18.017750457572898,9.17351841402054,5.02797714271545,0.9466786587352936
7.266704951544519,12.7893857728958,-7.33056117582321,-1.3787001033783,0.9466786587352936
7.267310645063598,7.96102639789581,-0.978969378948212,-4.40360977134705,0.9466786587352936
7.267916338582677,13.9198349916458,-3.35003871488571,-3.04802871665955,0.9466786587352936
7.268522032101756,15.1341098939896,-8.52807094144821,-0.27938613853454597,0.9466786587352936
7.269127725620836,-24.5633388364792,7.58322544527054,4.46275253334045,0.9466786587352936
7.269733419139915,-25.018392547416703,12.981599468708,5.43513046302795,0.9466786587352936
7.270339112658994,9.39085305805206,-5.86001918363571,0.149322357559204,0.9466786587352936
7.270944806178074,10.8063096010208,-3.4386544375419597,-3.8288050838470498,0.9466786587352936
7.271550499697153,9.91296731586456,-0.9095138125419621,-5.1293006893158,0.9466786587352936
7.272156193216233,19.3828745424271,-9.03342006254196,-1.1415931697845498,0.9466786587352936
7.272761886735312,-16.7316249692917,2.86982700777054,4.33821151771545,0.9466786587352936
7.273367580254392,-31.8897035825729,15.9274734921455,4.31426132240295,0.9466786587352936
7.273973273773471,4.86666116352081,-3.8649679141044597,2.0294126895904503,0.9466786587352936
7.27457896729255,14.7006113588333,-5.64207240629196,-3.8647303768158,0.9466786587352936
7.275184660811629,5.23788919086456,1.57172642183304,-6.5375721736907995,0.9466786587352936
7.275790354330709,20.4079429018021,-9.26094691801071,0.151717377090454,0.9466786587352936
7.276396047849788,-7.22100241069794,-2.14773891019821,1.8449961856842,0.9466786587352936
7.277001741368867,-33.695548309135404,16.303491558551798,4.7669200138092,0.9466786587352936
7.277607434887948,-1.74359274272919,0.937046246051788,3.5119297794342,0.9466786587352936
7.278213128407026,14.1138315736771,-7.38085658597946,-3.7689295955657998,0.9466786587352936
7.278818821926105,4.67984964008331,1.3609647030830399,-4.9209339900970495,0.9466786587352936
7.279424515445185,19.691832061958298,-7.51976771879196,-2.3223377986908,0.9466786587352936
7.280030208964265,0.991519561958313,-5.02655238676071,1.8905015567779502,0.9466786587352936
7.280635902483343,-33.2955800474167,14.878454937458,4.7477598575592,0.9466786587352936
7.281241596002423,-9.50345602397919,4.97265415620804,3.17902206459045,0.9466786587352936
7.281847289521502,14.441949249458299,-8.49214564847946,-2.0636756893158,0.9466786587352936
7.2824529830405815,6.46174417133331,1.04242710542679,-5.3927528377533,0.9466786587352936
7.283058676559661,17.7087558900833,-4.90440639066696,-3.0504237361907998,0.9466786587352936
7.28366437007874,7.27365579242706,-7.76405971097946,0.8965684513092039,0.9466786587352936
7.28427006359782,-30.831104949760398,12.5528909726143,4.6327989200592,0.9466786587352936
7.284875757116899,-16.7028847349167,8.50770298433304,4.0005137638092005,0.9466786587352936
7.285481450635978,13.057627960395799,-7.92213100004196,-1.2685292049408,0.9466786587352936
7.286087144155058,7.09642434711456,0.0101736874580383,-4.7508876033783,0.9466786587352936
7.286692837674138,13.5869272768021,-3.64941615629196,-4.22158828697205,0.9466786587352936
7.287298531193216,15.668199249458299,-9.34237758207321,0.360084076309204,0.9466786587352936
7.287904224712296,-25.257894500541703,7.82033237886429,3.96937850990295,0.9466786587352936
7.288509918231375,-24.7741005552292,13.127695660114298,4.72141464271545,0.9466786587352936
7.2891156117504545,10.1117539369583,-6.36297328519821,0.103816986465454,0.9466786587352936
7.289721305269534,10.691348663520799,-2.78960414457321,-3.90065566978455,0.9466786587352936
7.290326998788613,9.89859719867706,-0.887958636760712,-5.05984512290955,0.9466786587352936
7.290932692307692,18.0704038393021,-9.94113246488571,-1.3020594783783,0.9466786587352936
7.291538385826772,-17.0022621763229,2.77642124605179,4.13223983802795,0.9466786587352936
7.292144079345851,-29.3054775083542,15.9681888241768,5.0183970645904505,0.9466786587352936
7.29274977286493,4.97683206195831,-3.2494478945732097,1.6390245059967001,0.9466786587352936
7.2933554663840106,13.4767563783646,-5.39538539457321,-4.0299867244720495,0.9466786587352936
7.293961159903089,5.69294290180206,0.556238140583038,-6.0777284236908,0.9466786587352936
7.294566853422168,20.0151596986771,-8.79391810941696,-0.253040923690796,0.9466786587352936
7.295172546941248,-7.36470358257294,-0.744257464885712,2.3886656192779503,0.9466786587352936
7.2957782404603275,-33.187804168510404,15.654441265583,4.9393614200592,0.9466786587352936
7.296383933979406,-1.0658022153854398,0.664014019489288,2.9898155216217,0.9466786587352936
7.296989627498486,13.618062530708299,-7.3425362734794595,-3.6731288143158,0.9466786587352936
7.297595321017565,5.65462258930206,1.25558384370804,-5.3017420955658,0.9466786587352936
7.2982010145366445,21.2174595033646,-7.08626918363571,-1.36193496665955,0.2897357801854984
7.298806708055724,-0.764029754447937,-4.85650600004196,1.2965367130279501,0.2897357801854984
7.299412401574803,-33.83445944194791,15.431704449176799,5.3992051700592,0.2897357801854984
7.300018095093883,-8.624483856010439,4.04338657808304,4.2927061466217005,0.2897357801854984
7.300623788612962,14.0611411439896,-7.9484762148857095,-3.1126942440033,0.2897357801854984
7.301229482132041,5.86538430805206,1.46874058198929,-5.1532508846283,0.2897357801854984
7.301835175651121,18.9326108705521,-5.28521449613571,-3.2372352596283,0.2897357801854984
7.3024408691702005,6.81860208148956,-8.36760463285446,1.5408287052154501,0.2897357801854984
7.303046562689279,-31.2837636411667,12.6007913632393,4.41006210365295,0.2897357801854984
7.303652256208359,-16.1903505552292,8.85019077730179,4.2879161075592,0.2897357801854984
7.304257949727438,12.923506866645798,-8.470590472698209,-0.593133697128296,0.2897357801854984
7.3048636432465175,8.87113381977081,0.869985699176788,-4.7460975643158,0.2897357801854984
7.305469336765597,13.0624179994583,-4.06375453519821,-4.5880262752533,0.2897357801854984
7.306075030284676,13.938995147895799,-10.183029437542,0.122977142715454,0.2897357801854984
7.306680723803755,-24.3573671567917,8.45980259370804,4.0867344669342005,0.2897357801854984
7.307286417322835,-24.6136342466354,13.486948589801798,4.6423789981842,0.2897357801854984
7.307892110841914,10.959590851020799,-6.64319057035446,0.9348887638092039,0.2897357801854984
7.308497804360993,10.8590000307083,-2.8638497500419597,-4.55689102134705,0.2897357801854984
7.3091034978800735,7.75984475727081,-1.32385219144821,-4.7029872127533,0.2897357801854984
7.309709191399152,18.2955356752396,-9.33998256254196,-0.315311431503296,0.2897357801854984
7.310314884918231,-16.7316249692917,3.62186314058304,3.8663926700592,0.2897357801854984
7.310920578437311,-29.497079070854202,15.213757671833001,4.6471690372467,0.2897357801854984
7.3115262719563905,5.59714212055206,-3.41470424222946,1.20552597084045,0.2897357801854984
7.312131965475469,12.4612680971146,-5.50795131254196,-3.68989395103455,0.2897357801854984
7.312737658994549,7.19462014789581,0.520312847614288,-5.62027969322205,0.2897357801854984
7.313343352513629,20.9587973939896,-8.19276820707321,-0.696119536972046,0.2897357801854984
7.3139490460327075,-9.90821432476044,-0.00659144926071166,2.64732772865295,0.2897357801854984
7.314554739551787,-34.090726531791695,15.3814090390205,4.93217636146545,0.2897357801854984
7.315160433070866,0.026326690864562997,-0.0904171328544617,2.7694737247467,0.2897357801854984
7.315766126589946,14.125806671333299,-7.5293477969169595,-3.17256973228455,0.2897357801854984
7.316371820109025,5.18280374164581,1.22684360933304,-5.6897352596283,0.2897357801854984
7.316977513628104,21.0138828432083,-6.4444039492607095,-2.0061952205658,0.2897357801854984
7.317583207147184,-1.36757467632294,-5.32592982816696,2.1707188419342,0.2897357801854984
7.3181889006662635,-33.6763881528854,15.501160015583,5.3129844669342,0.2897357801854984
7.318794594185342,-8.27720602397919,3.69850376558304,3.22213241615295,0.2897357801854984
7.319400287704422,14.6335508119583,-8.36281459379196,-2.5546546932220497,0.2897357801854984
7.320005981223501,5.95639505023956,2.70936069917679,-5.0478700252532995,0.2897357801854984
7.3206116747425805,17.5602646791458,-6.38931850004196,-3.1174842830658,0.2897357801854984
7.32121736826166,6.74675149555206,-8.71248744535446,0.784002533340454,0.2897357801854984
7.321823061780739,-30.9963612974167,13.470183453083001,4.1011045841217,0.2897357801854984
7.322428755299818,-15.4383144224167,8.720859722614291,4.62082382240295,0.2897357801854984
7.323034448818898,13.5318418275833,-8.20234828519821,-1.0242372127533,0.2897357801854984
7.323640142337977,8.12867776508331,-0.320339007854462,-4.5209657283783,0.2897357801854984
7.324245835857056,13.0073325502396,-3.73084682035446,-4.10662734947205,0.2897357801854984
7.3248515293761365,12.5858091127396,-8.93522426176071,-0.0901795955657962,0.2897357801854984
7.325457222895215,-24.7812856138229,8.75678501558304,4.3885069278717,0.2897357801854984
7.326062916414294,-22.8413197935104,12.310993999958,4.7525498966217,0.2897357801854984
7.326668609933375,10.9428257143021,-6.770126605510709,0.197222748184204,0.2897357801854984
7.3272743034524535,9.94410256977081,-2.64829799222946,-4.34612930259705,0.2897357801854984
7.327879996971532,9.96326272602081,-1.02686976957321,-4.98320449790955,0.2897357801854984
7.328485690490612,18.3123008119583,-9.09808558988571,0.132557220840454,0.2897357801854984
7.329091384009692,-19.5026625669479,4.52239048433304,4.04601913490295,0.2897357801854984
7.32969707752877,-29.152196258354202,14.8832449765205,4.6591441349029505,0.2897357801854984
7.33030277104785,7.24491555805206,-4.33199672269821,1.3995225528717001,0.2897357801854984
7.330908464566929,11.103292022895799,-4.73675502347946,-4.4299549861908,0.2897357801854984
7.331514158086009,7.15869485492706,0.223330425739288,-5.1053504940033,0.2897357801854984
7.332119851605088,21.698858429145798,-8.52088588285446,-0.923646392440796,0.2897357801854984
7.332725545124167,-10.9117275083542,-0.361054339885712,2.73354843177795,0.2897357801854984
7.333331238643246,-33.3985658872604,15.5993558163643,4.9872618106842,0.2897357801854984
7.3339369321623264,0.079017120552063,-0.600556293010712,2.2713096622467,0.2897357801854984
7.334542625681405,14.6862412416458,-7.13895961332321,-3.01449844322205,0.2897357801854984
7.335148319200485,5.72647317523956,1.42323521089554,-5.4358631893158,0.2897357801854984
7.335754012719564,20.0846152650833,-7.4958175234794595,-2.10918106040955,0.2897357801854984
7.336359706238643,-2.22738668804169,-5.17983363676071,1.79949081459045,0.2897357801854984
7.336965399757723,-33.2955800474167,15.5945657773018,5.21478866615295,0.2897357801854984
7.337571093276802,-7.42936910991669,4.1799026913642905,3.6843711856842,0.2897357801854984
7.338176786795881,14.959273468208298,-8.41790004301071,-2.2816224666595497,0.2897357801854984
7.338782480314961,5.66659768695831,1.8064383358955398,-5.4023329158783,0.2897357801854984
7.33938817383404,16.9471396791458,-6.31986293363571,-2.7175160213470497,0.2897357801854984
7.339993867353119,7.20659524555206,-7.45989223051071,1.40191757240295,0.2897357801854984
7.3405995608721994,-30.4095815122604,13.060635113239298,4.05080917396545,0.2897357801854984
7.341205254391278,-15.1533070981979,7.94966343355179,4.4723326114654505,0.2897357801854984
7.341810947910357,12.8253110658646,-8.01793178129196,-1.3068495174408,0.2897357801854984
7.342416641429438,7.30000100727081,0.0532840390205383,-5.2298915096283,0.2897357801854984
7.343022334948516,15.3281064760208,-3.93681850004196,-3.3426161190032997,0.2897357801854984
7.343628028467595,12.6863999330521,-8.47777553129196,0.216382904434204,0.2897357801854984
7.344233721986675,-26.5104897153854,9.57588169527054,3.9813536075592,0.2897357801854984
7.344839415505755,-22.6353481138229,11.649968609333,4.2974961856842,0.2897357801854984
7.345445109024833,11.3260288393021,-6.89945766019821,-0.138079986190796,0.2897357801854984
7.346050802543913,10.2434800111771,-2.58602748441696,-4.51378066978455,0.2897357801854984
7.346656496062992,10.090198761177101,-1.30948207426071,-5.8142762752533,0.2897357801854984
7.347262189582072,18.2596103822708,-9.45254848051071,0.06789169349670379,0.2897357801854984
7.347867883101151,-19.5816982114792,4.63735142183304,3.8999229434967,0.2897357801854984
7.34847357662023,-29.3964882505417,15.1802273983955,4.7477598575592,0.2897357801854984
7.34907927013931,7.37424661273956,-4.97625697660446,1.8569712833404501,0.2897357801854984
7.349684963658389,12.382232452583299,-4.3224166445732095,-4.6167665096283,0.2897357801854984
7.350290657177468,6.86171243305206,0.539473003864288,-5.3400624080657995,0.2897357801854984
7.350896350696547,20.6713950502396,-9.80222133207321,-0.5619984432220461,0.2897357801854984
7.351502044215627,-11.1368593442917,-0.47601527738571203,2.4772813419342,0.2897357801854984
7.352107737734706,-32.8453163755417,16.2076907773018,5.06150741615295,0.2897357801854984
7.352713431253786,1.2094663393020602,-0.155082660198212,2.61379745521545,0.2897357801854984
7.353319124772865,14.111436554145799,-7.21320521879196,-3.82401504478455,0.2897357801854984
7.3539248182919446,5.20435891742706,0.941836285114288,-5.3256922908783,0.2897357801854984
7.354530511811024,20.2139463197708,-7.40720180082321,-2.2983876033782997,0.2897357801854984
7.355136205330103,-2.4620986021041897,-4.19787562894821,1.98630233802795,0.2897357801854984
7.355741898849182,-33.3865907896042,15.625701031208001,5.3704649356842005,0.2897357801854984
7.356347592368262,-6.58153219585419,3.77035435152054,2.9227549747467,0.2897357801854984
7.356953285887341,14.7676719057083,-8.89929896879196,-1.9918251033782999,0.2897357801854984
7.35755897940642,6.2749326478958105,1.60286167573929,-5.1149305721283,0.2897357801854984
7.358164672925501,18.3817563783646,-5.56782680082321,-3.2851356502533,0.2897357801854984
7.358770366444579,5.1971738588333105,-7.03118373441696,1.44023788490295,0.2897357801854984
7.359376059963658,-32.1866860044479,13.7072903866768,5.0207920841217,0.2897357801854984
7.359981753482738,-14.140213836479202,7.12577671480179,4.2352256778717,0.2897357801854984
7.3605874470018176,14.413209015083298,-8.37239467191696,-1.8553089900970499,0.2897357801854984
7.361193140520896,5.68336282367706,0.937046246051788,-5.1867811580658,0.2897357801854984
7.361798834039976,15.239490753364601,-4.47090785551071,-3.0695838924408,0.2897357801854984
7.362404527559055,13.8384043275833,-9.20107142972946,0.24272811927795399,0.2897357801854984
7.3630102210781345,-27.7846401060104,9.58067173433304,4.4459873966217005,0.2897357801854984
7.363615914597214,-22.0437782896042,11.6260184140205,5.0543223575592,0.2897357801854984
7.364221608116293,11.127242218208298,-6.99525844144821,-0.923646392440796,0.2897357801854984
7.364827301635373,9.92254739398956,-1.9657174258232102,-4.1281825252533,0.2897357801854984
7.365432995154452,11.5487656557083,-1.4915035586357102,-4.75807266197205,0.2897357801854984
7.366038688673531,16.5160361635208,-10.3099654726982,-0.7967103572845461,0.2897357801854984
7.366644382192611,-19.5912782896042,4.5990311093330405,4.19451034584045,0.2897357801854984
7.3672500757116905,-27.6026186216354,15.4772098202705,4.84116561927795,0.2897357801854984
7.367855769230769,6.29169778461456,-4.74633510160446,1.1288853458404502,0.2897357801854984
7.368461462749849,13.0145176088333,-4.85171596097946,-3.7737196346283,0.2897357801854984
7.369067156268928,6.13123147602081,-0.0640719180107117,-6.1495790096283,0.2897357801854984
7.3696728497880075,19.5361557924271,-8.87295375394821,-0.212325591659546,0.2897357801854984
7.370278543307087,-10.2866274106979,0.295181011676788,3.3107481388092,0.2897357801854984
7.370884236826166,-32.1603407896042,15.606540874958,4.77410507240295,0.2897357801854984
7.371489930345245,1.76750589008331,-0.593371234416962,2.9898155216217,0.2897357801854984
7.372095623864325,13.1941440736771,-7.35690639066696,-4.2144032283783,0.2897357801854984
7.372701317383404,5.9420249330520605,1.4040750546455398,-5.81667129478455,0.2897357801854984
7.373307010902483,21.3994809877396,-7.129379535198209,-0.835030669784546,0.2897357801854984
7.3739127044215635,-3.76977926616669,-3.62786098051071,2.3455552677154503,0.2897357801854984
7.374518397940642,-33.9901357114792,15.5346902890205,4.32384140052795,0.2897357801854984
7.375124091459721,-6.01151754741669,3.1572293515205403,3.3634385684967003,0.2897357801854984
7.375729784978801,14.4826645814896,-8.28856898832321,-2.1977967830658,0.2897357801854984
7.3763354784978805,5.86298928852081,1.09751255464554,-5.28976699790955,0.2897357801854984
7.376941172016959,19.3565293275833,-5.22533900785446,-3.6060682674408,0.2897357801854984
7.377546865536039,4.16971047992706,-7.93410609769821,2.2784947208404502,0.2897357801854984
7.378152559055118,-32.4022377622604,14.341970562458,4.87948593177795,0.2897357801854984
7.3787582525741975,-13.8456264341354,7.19283726167679,3.4161289981842002,0.2897357801854984
7.379363946093277,14.3054331361771,-9.03821010160446,-0.813475494003296,0.2897357801854984
7.379969639612356,7.75984475727081,1.90223911714554,-5.0718202205658,0.2897357801854984
7.380575333131436,13.9294150697708,-4.50443812894821,-3.9605311580658,0.2897357801854984
7.381181026650515,11.8241929018021,-10.2524850039482,0.860643158340454,0.2897357801854984
7.381786720169594,-26.8721376646042,10.069255718708,3.80172714271545,0.2897357801854984
7.382392413688674,-21.490528777885398,12.2319583554268,4.3501866153717,0.2897357801854984
7.3829981072077535,11.8577231752396,-7.19165004301071,0.118187103652954,0.2897357801854984
7.383603800726832,9.21122659320831,-1.54898402738571,-5.0143397518157995,0.2897357801854984
7.384209494245912,10.0422983705521,-2.15971400785446,-4.43714004478455,0.2897357801854984
7.384815187764991,17.1315561830521,-9.52679408597946,-0.0901795955657962,0.2897357801854984
7.3854208812840705,-20.2259584653854,5.20018101167679,4.0867344669342005,0.2897357801854984
7.38602657480315,-27.238575652885398,14.818579449176799,4.5082579044342,0.2897357801854984
7.386632268322229,7.44609719867706,-4.69603969144821,0.812742767715454,0.2897357801854984
7.387237961841308,11.5128403627396,-5.03134242582321,-3.85275527915955,0.2897357801854984
7.387843655360388,8.93100930805206,0.09399937105178831,-5.5316639705658,0.2897357801854984
7.388449348879467,19.572081085395798,-8.39155482816696,-0.734439849472046,0.2897357801854984
7.389055042398546,-13.9222670591354,1.8016482968330398,3.3155381778717,0.2897357801854984
7.3896607359176265,-32.2968569028854,15.252077984333,5.6291270450592,0.2897357801854984
7.390266429436705,3.23804788227081,-1.56335414457321,2.64732772865295,0.2897357801854984
7.390872122955784,13.163008819770798,-6.93777797269821,-3.80006484947205,0.2897357801854984
7.391477816474865,5.02712747211456,1.1046976132392898,-6.4369813533783,0.2897357801854984
7.3920835099939435,22.0964316713333,-7.35930141019821,-1.1583583065032999,0.2897357801854984
7.392689203513022,-4.66551657085419,-4.19787562894821,2.5539219669342,0.2897357801854984
7.393294897032102,-34.22245260601041,16.5190433163643,4.6232188419342,0.2897357801854984
7.393900590551182,-5.39839254741669,1.8615237851142898,3.55743515052795,0.2897357801854984
7.3945062840702604,15.160455108833299,-8.57357631254196,-2.67919570884705,0.2897357801854984
7.39511197758934,5.87017434711456,2.47943882417679,-5.4837635799408,0.2897357801854984
7.395717671108419,18.4272617494583,-6.43721889066696,-2.88995742759705,0.2897357801854984
7.396323364627499,3.36498391742706,-7.8886007266044595,1.4977183536529501,0.2897357801854984
7.396929058146578,-31.9232338560104,14.301255230426799,4.6519590763092005,0.2897357801854984
7.397534751665657,-12.063731902885399,7.47784458589554,3.9286631778717003,0.2897357801854984
7.398140445184736,13.685123077583299,-8.66937709379196,-1.5798817440033,0.641059579003575
7.3987461387038165,6.88566262836456,1.26516392183304,-4.72933242759705,0.641059579003575
7.399351832222895,14.312618194770799,-4.75112514066696,-3.6156483455657997,0.641059579003575
7.399957525741975,11.4170395814896,-9.08132045316696,0.513365326309204,0.641059579003575
