Time (s),Accel X (m/s^2),Accel Y (m/s^2),Accel Z (m/s^2),CI Value
4.826625,-0.190325372600555,-0.0155664107322693,-0.0901358116149901,0.7263714390624684
4.827231060606061,-0.0562042788505554,-0.11376221151351901,0.66669036026001,0.7263714390624684
4.827837121212121,0.058756658649444606,-0.18321777791976898,0.20924162979126001,0.7263714390624684
4.828443181818182,0.061151678180694606,-0.044306645107269296,-0.0350503623962401,0.7263714390624684
4.829049242424242,-0.0993146304130554,-0.00359131307601929,0.25474700088501,0.7263714390624684
4.829655303030303,0.0443865414619446,-0.0323315474510193,0.25235198135376,0.7263714390624684
4.830261363636364,-0.214275567913055,0.07783935098648069,0.38886809463501,0.7263714390624684
4.830867424242424,-0.163980157756805,0.0706542923927307,0.34096770401001,0.7263714390624684
4.831473484848485,-0.060994317913055394,-0.149687504482269,0.19247649307251,0.7263714390624684
4.832079545454546,-0.017883966350555402,-0.11376221151351901,-0.0111001670837401,0.7263714390624684
4.832685606060606,-0.0130939272880554,-0.13771240682601898,0.0152450477600099,0.7263714390624684
4.833291666666667,-0.118474786663055,-0.17842773885726898,0.008059989166259942,0.7263714390624684
4.833897727272727,-0.286126153850555,-0.0586767622947693,0.0679354774475099,0.7263714390624684
4.834503787878788,-0.128054864788055,-0.0610717818260193,-0.0398404014587401,0.7263714390624684
4.835109848484849,-0.0873395327568054,-0.0514917037010193,0.10146575088500999,0.7263714390624684
4.835715909090909,0.113842107868195,0.0107788041114807,0.0272201454162599,0.7263714390624684
4.83632196969697,0.101867010211945,-0.0634668013572693,-0.22665192489624,0.7263714390624684
4.836928030303031,-0.266965997600555,-0.25027832479476897,0.11583586807250999,0.7263714390624684
4.837534090909091,-0.0945245913505554,0.0347289994239807,0.30025237197876,0.7263714390624684
4.838140151515152,0.142582342243195,-0.00119629354476929,0.34336272354125996,0.7263714390624684
4.838746212121212,0.0851018734931946,0.046704097080230704,0.30264739151000997,0.7263714390624684
4.839352272727273,-0.116079767131805,-0.0083813521385193,0.25235198135376,0.7263714390624684
4.839958333333334,-0.0945245913505554,-0.0610717818260193,0.25235198135376,0.7263714390624684
4.840564393939394,-0.039439142131805396,-0.17363769979476898,0.23079680557251,0.7263714390624684
4.841170454545455,-0.0657843569755554,-0.0754418990135193,0.0104550086975099,0.7263714390624684
4.8417765151515155,-0.264570978069305,-0.0826269576072693,0.0224301063537599,0.7263714390624684
4.842382575757576,-0.060994317913055394,-0.24788330526351898,0.0583553993225099,0.7263714390624684
4.8429886363636365,-0.0514142397880554,-0.0706518599510193,-0.04463044052124009,0.7263714390624684
4.843594696969697,-0.037044122600555396,-0.305363774013519,0.18529143447876,0.7263714390624684
4.8442007575757575,0.056361639118194605,-0.0299365279197693,-0.049420479583740094,0.7263714390624684
4.8448068181818185,-0.07536443510055539,-0.0706518599510193,0.0272201454162599,0.7263714390624684
4.8454128787878785,0.231198064899445,-0.0898120162010193,0.34815276260376,0.7263714390624684
4.8460189393939395,0.0348064633369446,-0.09699707479476931,-0.0374453819274901,0.7263714390624684
4.8466249999999995,-0.207090509319305,-0.034726566982269294,-0.0925308311462401,0.7263714390624684
4.8472310606060605,0.025226385211944598,0.0586791947364807,0.17092131729126,0.7263714390624684
4.847837121212121,-0.166375177288055,0.0179638627052307,0.10625578994750999,0.7263714390624684
4.8484431818181815,-0.137634942913055,-0.159267582607269,0.18289641494751002,0.7263714390624684
4.849049242424242,0.0827068539619446,-0.106577152919769,0.039195243072509905,0.7263714390624684
4.849655303030303,0.0443865414619446,0.10657958536148099,-0.008705147552490059,0.7263714390624684
4.850261363636363,0.0108562680244446,-0.30057373495101897,0.15894621963501002,0.7263714390624684
4.850867424242424,0.00127618989944461,-0.0802319380760193,0.0104550086975099,0.7263714390624684
4.851473484848484,-0.0490192202568054,0.053889155673980706,0.0894906532287599,0.7263714390624684
4.852079545454545,0.09947199068069461,0.053889155673980706,0.20684661026001,0.7263714390624684
4.852685606060606,0.113842107868195,0.008383784580230699,0.11583586807250999,0.7263714390624684
4.853291666666666,0.0467815609931946,-0.0850219771385193,0.09667571182250989,0.7263714390624684
4.853897727272727,0.025226385211944598,0.0371240189552307,0.19966155166626,0.7263714390624684
4.854503787878788,-0.0514142397880554,-0.013171391201019301,0.11823088760376,0.7263714390624684
4.855109848484848,0.0228313656806946,0.008383784580230699,0.0823055946350099,0.7263714390624684
4.855715909090909,-0.039439142131805396,-0.0610717818260193,0.24277190322876002,0.7263714390624684
4.856321969696969,0.00127618989944461,-0.034726566982269294,0.27151213760376,0.7263714390624684
4.85692803030303,0.133002264118195,-0.0658618208885193,0.26432707901000996,0.7263714390624684
4.857534090909091,0.125817205524445,-0.044306645107269296,0.17810637588501002,0.7263714390624684
4.858140151515151,0.0851018734931946,0.08741942911148069,0.0655404579162599,0.7263714390624684
4.858746212121212,0.09947199068069461,-0.037121586513519295,0.21163664932251,0.7263714390624684
4.859352272727272,-0.104104669475555,-0.23351318807601898,0.0559603797912599,0.7263714390624684
4.859958333333333,-0.113684747600555,-0.314943852138519,0.22840178604126002,0.7263714390624684
4.860564393939394,-0.0945245913505554,-0.00119629354476929,0.0535653602600099,0.7263714390624684
4.861170454545454,-0.199905450725555,-0.317338871669769,0.13739104385376,0.7263714390624684
4.861776515151515,0.214432928180695,-0.235908207607269,0.13739104385376,0.7263714390624684
4.862382575757576,-0.101709649944305,-0.0083813521385193,-0.07576569442749011,0.7263714390624684
4.862988636363636,0.0108562680244446,-0.09699707479476931,0.19247649307251,0.7263714390624684
4.863594696969697,0.161742498493195,0.12334472208023099,0.0559603797912599,0.7263714390624684
4.864200757575758,-0.137634942913055,-0.140107426357269,0.09188567276000989,0.7263714390624684
4.864806818181818,-0.0466242007255554,-0.12094727010726901,0.0224301063537599,0.7263714390624684
4.865412878787879,-0.175955255413055,-0.190402836513519,0.51101409072876,0.7263714390624684
4.866018939393939,-0.259780939006805,-0.29099365682601896,0.19008147354126,0.7263714390624684
4.866625,0.0491765805244446,-0.14250244588851899,0.31701750869751,0.7263714390624684
4.867231060606061,-0.0466242007255554,0.08502440958023069,0.90858733291626,0.7263714390624684
4.867837121212121,-0.266965997600555,0.020358882236480698,0.23558684463501,0.7263714390624684
4.868443181818182,-0.058599298381805394,-0.11615723104476901,0.060750418853759904,0.7263714390624684
4.869049242424242,-0.0514142397880554,0.0107788041114807,-0.0230752647399901,0.7263714390624684
4.869655303030303,0.0204363461494446,-0.0754418990135193,0.11104582901000999,0.7263714390624684
4.870261363636364,0.109052068805695,-0.0514917037010193,0.09907073135375989,0.7263714390624684
4.870867424242424,-0.008303888225555391,-0.044306645107269296,0.21163664932251,0.7263714390624684
4.871473484848485,-0.07775945463180539,-0.09220703573226931,0.5421493446350101,0.7263714390624684
4.872079545454546,0.176112615680695,-0.025146488857269302,0.30504241104126,0.7263714390624684
4.872685606060606,-0.0538092593193054,-0.0850219771385193,0.10386077041625999,0.7263714390624684
4.873291666666667,-0.0011188296318053901,-0.0778369185447693,0.34096770401001,0.7263714390624684
4.873897727272727,0.113842107868195,0.0419140580177307,0.25714202041626,0.7263714390624684
4.874503787878788,-0.123264825725555,-0.00598633260726929,0.24756194229126002,0.7263714390624684
4.875109848484849,-0.008303888225555391,0.00598876504898071,0.27869719619751,0.7263714390624684
4.875715909090909,0.264728338336945,-0.0706518599510193,0.38168303604125997,0.7263714390624684
4.87632196969697,-0.037044122600555396,-0.17842773885726898,0.43437346572875996,0.7263714390624684
4.876928030303031,-0.195115411663055,-0.00359131307601929,-0.0398404014587401,0.7263714390624684
4.877534090909091,0.0851018734931946,-0.144897465419769,0.21642668838501,0.7263714390624684
4.878140151515152,-0.058599298381805394,-0.0610717818260193,0.30025237197876,0.7263714390624684
4.878746212121212,-0.187930353069305,0.0299389603614807,0.19726653213501,0.7263714390624684
4.879352272727273,-0.0442291811943054,-0.166452641201019,0.23319182510376002,0.7263714390624684
4.879958333333334,0.00606622896194461,-0.0323315474510193,0.00566496963500994,0.7263714390624684
4.880564393939394,0.0180413266181946,0.0682592728614807,0.10386077041625999,0.7263714390624684
4.881170454545455,-0.0490192202568054,-0.034726566982269294,0.036800223541259905,0.7263714390624684
4.881776515151516,-0.0945245913505554,0.11376464395523099,0.18289641494751002,0.7263714390624684
4.882382575757576,-0.00590886869430539,-0.180822758388519,0.37689299697876,0.7263714390624684
4.882988636363637,-0.214275567913055,-0.216748051357269,0.041590262603759906,0.7263714390624684
4.883594696969697,0.09947199068069461,-0.0562817427635193,0.034405204010009904,0.7263714390624684
4.884200757575758,-0.0106989077568054,0.10657958536148099,0.09667571182250989,0.7263714390624684
4.8848068181818185,-0.142424981975555,-0.0155664107322693,0.0535653602600099,0.7263714390624684
4.8854128787878786,-0.132844903850555,-0.09220703573226931,0.20684661026001,0.7263714390624684
4.8860189393939395,-0.401087091350555,0.209565425205231,0.35054778213501,0.7263714390624684
4.8866249999999996,-0.207090509319305,0.0395190384864807,0.24277190322876002,0.7263714390624684
4.8872310606060605,0.0372014828681946,-0.0826269576072693,0.23558684463501,0.7263714390624684
4.887837121212121,-0.039439142131805396,0.0227539017677307,0.19487151260376,0.7263714390624684
4.8884431818181815,-0.250200860881805,0.24549071817398102,0.19008147354126,0.7263714390624684
4.889049242424242,-0.209485528850555,-0.0083813521385193,0.11583586807250999,0.7263714390624684
4.889655303030303,0.140187322711945,-0.0610717818260193,0.008059989166259942,0.7263714390624684
4.890261363636363,0.09707697114944461,-0.0490966841697693,0.23798186416626002,0.7263714390624684
4.890867424242424,-0.135239923381805,-0.11376221151351901,0.0583553993225099,0.7263714390624684
4.891473484848484,-0.101709649944305,-0.0682568404197693,-0.17875153427124,0.7263714390624684
4.892079545454545,-0.034649103069305395,-0.041911625576019296,0.0823055946350099,0.7263714390624684
4.892685606060606,0.147372381305695,-0.152082524013519,0.34575774307251,0.7263714390624684
4.893291666666666,-0.262175958538055,-0.13292236776351898,0.14457610244751,0.7263714390624684
4.893897727272727,-0.108894708538055,-0.0898120162010193,-0.0134951866149901,0.7263714390624684
4.894503787878788,-0.0418341616630554,0.0706542923927307,0.15176116104126,0.7263714390624684
4.895109848484848,-0.135239923381805,0.008383784580230699,0.0847006141662599,0.7263714390624684
4.895715909090909,0.111447088336945,-0.0730468794822693,-0.00391510848999006,0.7263714390624684
4.896321969696969,-0.132844903850555,-0.12094727010726901,-0.20509674911498998,0.7263714390624684
4.89692803030303,-0.104104669475555,-0.166452641201019,0.19966155166626,0.7263714390624684
4.897534090909091,0.056361639118194605,-0.044306645107269296,0.69303557510376,0.7263714390624684
4.898140151515151,-0.202300470256805,-0.0155664107322693,0.23558684463501,0.7263714390624684
4.898746212121212,-0.128054864788055,-0.125737309169769,0.10625578994750999,0.7263714390624684
4.899352272727272,-0.017883966350555402,0.0395190384864807,0.0487753211975099,0.7263714390624684
4.899958333333333,-0.0681793765068054,0.13052978067398102,0.09907073135375989,0.7263714390624684
4.900564393939394,-0.08015447416305539,-0.20237793416976899,0.0847006141662599,0.7263714390624684
4.901170454545454,0.0395965023994446,-0.12334228963851901,0.00566496963500994,0.7263714390624684
4.901776515151515,-0.020278985881805402,-0.211958012294769,0.09428069229125989,0.7263714390624684
4.902382575757576,-0.159190118694305,-0.152082524013519,0.0894906532287599,0.7263714390624684
4.902988636363636,-0.0298590640068054,-0.12334228963851901,0.09428069229125989,0.7263714390624684
4.903594696969697,-0.221460626506805,-0.0275415083885193,0.19247649307251,0.7263714390624684
4.904200757575757,-0.032254083538055395,0.0323339798927307,0.034405204010009904,0.7263714390624684
4.904806818181818,0.0659417172431946,-0.044306645107269296,0.36731291885376,0.7263714390624684
4.905412878787879,-0.149610040569305,-0.11855225057601901,0.41281828994750996,0.7263714390624684
4.906018939393939,-0.173560235881805,-0.101787113857269,0.0200350868225099,0.7263714390624684
4.906625,0.116237127399445,0.159270015048981,-0.0182852256774901,0.7263714390624684
4.907231060606061,0.056361639118194605,-0.0874169966697693,0.041590262603759906,0.7263714390624684
4.907837121212121,-0.017883966350555402,-0.0538867232322693,0.14697112197876,0.7263714390624684
4.908443181818182,-0.161585138225555,-0.0299365279197693,-0.12606110458374,0.7263714390624684
4.909049242424242,-0.039439142131805396,-0.161662602138519,0.0487753211975099,0.7263714390624684
4.909655303030303,0.331788885211945,-0.11855225057601901,-0.0374453819274901,0.7263714390624684
4.910261363636364,-0.0681793765068054,-0.135317387294769,-0.36077301864624,0.7263714390624684
4.910867424242424,0.0324114438056946,0.0131738236427307,-0.051815499114990095,0.7263714390624684
4.911473484848485,-0.128054864788055,-0.223933109951019,0.22121672744751,0.7263714390624684
4.912079545454545,-0.360371759319305,-0.0754418990135193,-0.0302603233337401,0.7263714390624684
4.912685606060606,-0.132844903850555,-0.176032719326019,0.0176400672912599,0.7263714390624684
4.913291666666667,0.0204363461494446,-0.245488285732269,0.0511703407287599,0.7263714390624684
4.913897727272727,-0.187930353069305,-0.09699707479476931,0.22121672744751,0.7263714390624684
4.914503787878788,-0.137634942913055,-0.0586767622947693,0.28588225479126,0.7263714390624684
4.915109848484849,-0.0106989077568054,0.07544433145523069,0.00326995010375994,0.7263714390624684
4.915715909090909,-0.233435724163055,-0.19758789510726898,0.0703304969787599,0.7263714390624684
4.91632196969697,0.0204363461494446,-0.295783695888519,-0.0422354209899901,0.7263714390624684
4.91692803030303,-0.037044122600555396,-0.0706518599510193,0.0583553993225099,0.7263714390624684
4.917534090909091,-0.271756036663055,0.16166503458023102,0.35054778213501,0.7263714390624684
4.918140151515152,0.0348064633369446,-0.0083813521385193,0.46790373916626,0.7263714390624684
4.918746212121212,-0.0945245913505554,-0.0730468794822693,0.18529143447876,0.7263714390624684
4.919352272727273,-0.07536443510055539,0.049099116611480705,0.28827727432251,0.7263714390624684
4.919958333333334,0.058756658649444606,-0.09220703573226931,0.31941252822876,0.7263714390624684
4.920564393939394,0.0372014828681946,-0.0514917037010193,0.10386077041625999,0.7263714390624684
4.921170454545455,0.0300164242744446,-0.12334228963851901,0.42000334854126,0.7263714390624684
4.921776515151515,-0.180745294475555,0.00598876504898071,0.0272201454162599,0.7263714390624684
4.922382575757576,-0.161585138225555,-0.09460205526351931,0.10146575088500999,0.7263714390624684
4.922988636363637,0.09947199068069461,-0.11615723104476901,0.10625578994750999,0.7263714390624684
4.923594696969697,0.228803045368195,-0.044306645107269296,-0.25778717880249,0.7263714390624684
4.924200757575758,-0.0993146304130554,-0.140107426357269,0.12541594619751,0.7263714390624684
4.9248068181818185,-0.197510431194305,0.173640132236481,0.0463803016662599,0.7263714390624684
4.925412878787879,-0.120869806194305,0.188010249423981,0.69782561416626,0.7263714390624684
4.9260189393939395,0.0898919125556946,-0.037121586513519295,0.75051604385376,0.7263714390624684
4.926625,0.176112615680695,-0.190402836513519,-0.34640290145874003,0.7263714390624684
4.9272310606060605,0.0827068539619446,0.07304931192398069,0.43437346572875996,0.7263714390624684
4.927837121212121,0.0874968930244446,0.144899897861481,0.19726653213501,0.7263714390624684
4.9284431818181815,0.109052068805695,-0.0275415083885193,-0.0949258506774901,0.7263714390624684
4.929049242424242,-0.0298590640068054,0.0419140580177307,0.30743743057251,0.7263714390624684
4.9296553030303025,-0.0035138491630553902,0.0395190384864807,0.0128500282287599,0.7263714390624684
4.930261363636364,0.0683367367744446,-0.17363769979476898,0.13499602432251,0.7263714390624684
4.9308674242424235,0.178507635211945,-0.0874169966697693,0.0511703407287599,0.7263714390624684
4.931473484848485,0.219222967243195,-0.0538867232322693,0.36731291885376,0.7263714390624684
4.9320795454545445,-0.0250690249443054,-0.14250244588851899,0.10865080947875999,0.7263714390624684
4.932685606060606,-0.0538092593193054,-0.0610717818260193,-0.0661856163024901,0.7263714390624684
4.933291666666667,-0.0106989077568054,-0.106577152919769,0.22121672744751,0.7263714390624684
4.933897727272727,0.200062810993195,-0.12094727010726901,-0.23383698348999,0.7263714390624684
4.934503787878788,-0.195115411663055,0.0706542923927307,-0.049420479583740094,0.7263714390624684
4.935109848484848,-0.223855646038055,0.233515620517731,0.23079680557251,0.7263714390624684
4.935715909090909,-0.0657843569755554,-0.025146488857269302,0.22121672744751,0.7263714390624684
4.93632196969697,-0.0130939272880554,0.10657958536148099,0.15894621963501002,0.7263714390624684
4.93692803030303,0.154557439899445,-0.106577152919769,0.0104550086975099,0.7263714390624684
4.937534090909091,-0.039439142131805396,-0.19758789510726898,0.04398528213500991,0.7263714390624684
4.938140151515152,0.104262029743195,0.056284175205230706,-0.0134951866149901,0.7263714390624684
4.938746212121212,0.0755217953681946,-0.0514917037010193,0.19726653213501,0.7263714390624684
4.939352272727273,0.0156463070869446,-0.159267582607269,0.11104582901000999,0.7263714390624684
4.939958333333333,0.0683367367744446,-0.255068363857269,-0.059000557708740096,0.7263714390624684
4.940564393939394,-0.125659845256805,0.0251489212989807,-0.0901358116149901,0.7263714390624684
4.941170454545455,-0.278941095256805,-0.0514917037010193,0.15894621963501002,0.7263714390624684
4.941776515151515,-0.254990899944305,-0.0107763716697693,0.30504241104126,0.7263714390624684
4.942382575757576,0.0228313656806946,0.10897460489273099,0.00326995010375994,0.7263714390624684
4.942988636363636,-0.178350274944305,-0.0299365279197693,0.24277190322876002,0.7263714390624684
4.943594696969697,-0.178350274944305,-0.11615723104476901,0.27151213760376,0.7263714390624684
4.944200757575758,0.164137518024445,-0.135317387294769,-0.008705147552490059,0.7263714390624684
4.944806818181818,0.0803118344306946,0.08262939004898069,-0.008705147552490059,0.7263714390624684
4.945412878787879,-0.0681793765068054,0.0131738236427307,0.14936614151001001,0.7263714390624684
4.946018939393939,-0.252595880413055,-0.16884766073226898,0.20924162979126001,0.7263714390624684
4.946625,-0.183140314006805,0.0227539017677307,0.13499602432251,0.7263714390624684
4.947231060606061,0.0204363461494446,-0.037121586513519295,0.09428069229125989,0.7263714390624684
4.947837121212121,0.09947199068069461,-0.211958012294769,0.0894906532287599,0.7263714390624684
4.948443181818182,-0.034649103069305395,-0.09220703573226931,-0.008705147552490059,0.7263714390624684
4.949049242424242,-0.0250690249443054,0.0419140580177307,0.0583553993225099,0.7263714390624684
4.949655303030303,0.164137518024445,0.00598876504898071,0.26193205947875997,0.7263714390624684
4.950261363636364,-0.032254083538055395,-0.037121586513519295,0.23558684463501,0.7263714390624684
4.950867424242424,0.053966619586944604,-0.0634668013572693,0.24037688369751,0.7263714390624684
4.951473484848485,0.109052068805695,-0.0682568404197693,0.034405204010009904,0.7263714390624684
4.952079545454545,-0.0514142397880554,0.0586791947364807,-0.0158902061462401,0.7263714390624684
4.952685606060606,-0.0442291811943054,0.0395190384864807,0.20924162979126001,0.7263714390624684
4.953291666666667,-0.199905450725555,0.0969995072364807,0.25953703994751,0.7263714390624684
4.953897727272727,-0.128054864788055,-0.180822758388519,0.19247649307251,0.7263714390624684
4.954503787878788,-0.163980157756805,-0.207167973232269,0.04398528213500991,0.7263714390624684
4.955109848484848,-0.163980157756805,0.10657958536148099,0.0535653602600099,0.7263714390624684
4.955715909090909,-0.039439142131805396,0.13052978067398102,0.10386077041625999,0.7263714390624684
4.95632196969697,-0.0897345522880554,-0.09220703573226931,0.13739104385376,0.7263714390624684
4.95692803030303,-0.0681793765068054,-0.0514917037010193,0.81518157119751,0.7263714390624684
4.957534090909091,-0.116079767131805,0.0011987259864807101,0.32180754776000997,0.7263714390624684
4.958140151515152,-0.015488946819305401,-0.0682568404197693,-0.0206802452087401,0.7263714390624684
4.958746212121212,-0.254990899944305,0.10418456583023099,0.09907073135375989,0.7263714390624684
4.959352272727273,-0.171165216350555,-0.0227514693260193,0.10865080947875999,0.7263714390624684
4.959958333333333,0.147372381305695,-0.0826269576072693,0.32659758682251,0.7263714390624684
4.960564393939394,0.0683367367744446,0.0347289994239807,0.23558684463501,0.7263714390624684
4.961170454545455,-0.0035138491630553902,-0.00119629354476929,0.32180754776000997,0.7263714390624684
4.961776515151515,-0.104104669475555,0.10178954629898099,0.0487753211975099,0.7263714390624684
4.962382575757576,-0.113684747600555,0.0993945267677307,0.16613127822876,0.7263714390624684
4.962988636363636,0.0300164242744446,-0.0682568404197693,0.23319182510376002,0.7263714390624684
4.963594696969697,-0.0106989077568054,0.159270015048981,0.15415618057251002,0.7263714390624684
4.964200757575758,0.09707697114944461,0.0610742142677307,0.13978606338501,0.7263714390624684
4.964806818181818,0.216827947711945,-0.0179614302635193,-0.0206802452087401,0.7263714390624684
4.965412878787879,-0.0130939272880554,-0.180822758388519,-0.047025460052490094,0.7263714390624684
4.966018939393939,-0.015488946819305401,-0.11615723104476901,0.20924162979126001,0.7263714390624684
4.966625,-0.0705743960380554,0.168850093173981,0.0128500282287599,0.7263714390624684
4.967231060606061,0.00127618989944461,-0.125737309169769,0.32420256729125996,0.7263714390624684
4.967837121212121,-0.0705743960380554,-0.00359131307601929,0.24756194229126002,0.7263714390624684
4.968443181818182,-0.08015447416305539,0.00359374551773071,-0.00391510848999006,0.7263714390624684
4.969049242424242,0.051571600055694604,-0.0586767622947693,0.33617766494751,0.7263714390624684
4.969655303030303,0.180902654743195,0.07304931192398069,0.21882170791626002,0.7263714390624684
4.970261363636364,0.104262029743195,-0.0155664107322693,0.16373625869751002,0.7263714390624684
4.970867424242424,0.0300164242744446,-0.23830322713851898,0.15655120010376,0.7263714390624684
4.9714734848484845,-0.113684747600555,-0.166452641201019,0.036800223541259905,0.7263714390624684
4.972079545454545,-0.00590886869430539,0.08023437051773069,-0.0278653038024901,0.7263714390624684
4.972685606060606,0.0707317563056946,-0.0658618208885193,0.16134123916626,0.7263714390624684
4.973291666666667,0.0300164242744446,-0.0898120162010193,0.21403166885376002,0.7263714390624684
4.9738977272727265,0.147372381305695,-0.0514917037010193,0.04398528213500991,0.7263714390624684
4.974503787878788,-0.0562042788505554,-0.044306645107269296,0.12541594619751,0.7263714390624684
4.975109848484848,-0.008303888225555391,-0.0826269576072693,0.31701750869751,0.7263714390624684
4.975715909090909,0.118632146930695,0.0323339798927307,0.24277190322876002,0.7263714390624684
4.97632196969697,-0.0011188296318053901,-0.0898120162010193,0.10146575088500999,0.7263714390624684
4.97692803030303,0.0922869320869446,-0.12813232870101898,0.21882170791626002,0.7263714390624684
4.977534090909091,0.0372014828681946,-0.0107763716697693,0.0272201454162599,0.7263714390624684
4.978140151515152,-0.0849445132255554,-0.0586767622947693,0.10146575088500999,0.7263714390624684
4.978746212121212,-0.08015447416305539,-0.108972172451019,0.12781096572876,0.7263714390624684
4.979352272727273,0.111447088336945,-0.11855225057601901,-0.0134951866149901,0.7263714390624684
4.979958333333333,-0.0298590640068054,-0.20237793416976899,0.19726653213501,0.7263714390624684
4.980564393939394,-0.0945245913505554,-0.180822758388519,0.13260100479126,0.7263714390624684
4.981170454545455,0.051571600055694604,-0.013171391201019301,-0.0709756553649901,0.7263714390624684
4.981776515151515,0.0874968930244446,-0.013171391201019301,0.31462248916625996,0.7263714390624684
4.982382575757576,0.0851018734931946,0.10178954629898099,0.25474700088501,0.7263714390624684
4.982988636363636,-0.243015802288055,0.18082519083023102,-0.054210518646240095,0.7263714390624684
4.983594696969697,-0.132844903850555,-0.044306645107269296,0.29067229385376,0.7263714390624684
4.984200757575758,-0.0250690249443054,-0.0155664107322693,0.20445159072876,0.7263714390624684
4.984806818181818,-0.108894708538055,0.0443090775489807,0.18529143447876,0.7263714390624684
4.985412878787879,-0.0514142397880554,0.0251489212989807,0.47029875869751,0.7263714390624684
4.986018939393939,-0.180745294475555,0.0610742142677307,-0.12127106552124,0.7263714390624684
4.986625,0.168927557086945,-0.00598633260726929,0.48227385635375997,0.7263714390624684
4.987231060606061,0.202457830524445,-0.154477543544769,0.80799651260376,0.7263714390624684
4.987837121212121,-0.0250690249443054,-0.0754418990135193,0.0775155555725099,0.7263714390624684
4.988443181818182,0.0372014828681946,0.07544433145523069,0.24516692276001,0.7263714390624684
4.989049242424242,-0.120869806194305,-0.0514917037010193,0.24516692276001,0.7263714390624684
4.989655303030303,0.0204363461494446,0.0682592728614807,0.43916350479126,0.7263714390624684
4.990261363636364,-0.0298590640068054,-0.0227514693260193,0.18289641494751002,0.7263714390624684
4.990867424242424,-0.039439142131805396,0.0634692337989807,0.10625578994750999,0.7263714390624684
4.991473484848485,-0.0538092593193054,-0.12094727010726901,0.27390715713500996,0.7263714390624684
4.992079545454545,-0.0681793765068054,-0.111367191982269,-0.008705147552490059,0.7263714390624684
4.992685606060606,0.0204363461494446,0.07544433145523069,-0.12366608505249001,0.7263714390624684
4.993291666666667,0.053966619586944604,0.0395190384864807,0.0799105751037599,0.7263714390624684
4.993897727272727,0.166532537555695,0.233515620517731,-0.15959137802124,0.7263714390624684
4.994503787878788,0.133002264118195,-0.147292484951019,0.09428069229125989,0.7263714390624684
4.995109848484848,-0.0130939272880554,-0.171242680263519,0.0128500282287599,0.7263714390624684
4.995715909090909,-0.140029962444305,-0.144897465419769,-0.19312165145874,0.7263714390624684
4.99632196969697,-0.0657843569755554,-0.025146488857269302,-0.0302603233337401,0.7263714390624684
4.99692803030303,-0.0705743960380554,0.10897460489273099,0.14218108291626,0.7263714390624684
4.997534090909091,0.0348064633369446,-0.0514917037010193,0.15894621963501002,0.7263714390624684
4.998140151515152,-0.173560235881805,-0.0898120162010193,0.14697112197876,0.7263714390624684
4.998746212121212,-0.020278985881805402,-0.09699707479476931,0.11104582901000999,0.7263714390624684
4.999352272727273,0.0228313656806946,0.07783935098648069,0.00087493057250994,0.7263714390624684
4.999958333333333,-0.178350274944305,0.049099116611480705,-0.0158902061462401,0.7263714390624684
5.000564393939394,0.0156463070869446,-0.11376221151351901,-0.08534577255249011,0.7263714390624684
5.001170454545455,-0.207090509319305,-0.104182133388519,-0.0949258506774901,0.7263714390624684
5.001776515151515,-0.0106989077568054,0.08262939004898069,0.0152450477600099,0.7263714390624684
5.002382575757576,-0.0633893374443054,0.10178954629898099,0.09907073135375989,0.7263714390624684
5.002988636363636,-0.185535333538055,-0.0802319380760193,0.0296151649475099,0.7263714390624684
5.003594696969697,-0.240620782756805,-0.0467016646385193,0.11104582901000999,0.7263714390624684
5.004200757575758,0.00127618989944461,0.0107788041114807,0.28109221572876,0.7263714390624684
5.004806818181818,0.0874968930244446,0.0155688431739807,0.36731291885376,0.7263714390624684
5.005412878787879,0.0851018734931946,-0.00119629354476929,0.26432707901000996,0.7263714390624684
5.006018939393939,0.166532537555695,0.0443090775489807,0.09667571182250989,0.7263714390624684
5.006625,0.192877752399445,-0.166452641201019,0.0511703407287599,0.7263714390624684
5.007231060606061,0.173717596149445,-0.271833500576019,0.09428069229125989,0.7263714390624684
5.007837121212121,-0.0298590640068054,-0.0874169966697693,0.16852629776001002,0.7263714390624684
5.008443181818182,0.0635466977119446,0.11615966348648099,0.23079680557251,0.7263714390624684
5.009049242424242,-0.104104669475555,-0.159267582607269,0.24516692276001,0.7263714390624684
5.009655303030303,-0.0921295718193054,-0.0634668013572693,0.19008147354126,0.7263714390624684
5.0102613636363635,0.130607244586945,0.132924800205231,0.0679354774475099,0.7263714390624684
5.010867424242424,-0.147215021038055,0.0107788041114807,0.24037688369751,0.7263714390624684
5.0114734848484845,0.130607244586945,0.11855468301773099,0.25953703994751,0.7263714390624684
5.012079545454545,0.0443865414619446,-0.283808598232269,0.23798186416626002,0.7263714390624684
5.0126856060606055,-0.226250665569305,-0.226328129482269,0.060750418853759904,0.7263714390624684
5.013291666666667,0.0156463070869446,-0.106577152919769,0.034405204010009904,0.7263714390624684
5.0138977272727265,-0.0921295718193054,0.0946044877052307,-0.11887604598999,0.7263714390624684
5.014503787878788,0.0276214047431946,0.0371240189552307,0.0296151649475099,0.7263714390624684
5.0151098484848475,-0.0538092593193054,-0.262253422451019,0.32659758682251,0.7263714390624684
5.015715909090909,0.0922869320869446,0.135319819736481,-0.07816071395874011,0.7263714390624684
5.01632196969697,0.0731267758369446,0.046704097080230704,0.11583586807250999,0.7263714390624684
5.01692803030303,-0.0274640444755554,-0.0083813521385193,0.41281828994750996,0.7263714390624684
5.017534090909091,-0.108894708538055,-0.11855225057601901,0.20924162979126001,0.7263714390624684
5.018140151515152,-0.247805841350555,-0.0203564497947693,-0.0350503623962401,0.7263714390624684
5.018746212121212,-0.07296941556930539,0.0610742142677307,0.032010184478759904,0.7263714390624684
5.019352272727273,-0.032254083538055395,-0.164057621669769,0.14218108291626,0.7263714390624684
5.019958333333333,0.09947199068069461,0.0227539017677307,0.16852629776001002,0.7263714390624684
5.020564393939394,-0.0490192202568054,0.08741942911148069,0.23079680557251,0.7263714390624684
5.021170454545455,-0.221460626506805,0.12094970254898099,-0.0158902061462401,0.7263714390624684
5.021776515151515,0.204852850055695,-0.152082524013519,0.13978606338501,0.7263714390624684
5.022382575757576,0.370109197711945,-0.0562817427635193,0.22840178604126002,0.7263714390624684
5.022988636363636,-0.128054864788055,0.00359374551773071,-0.056605538177490096,0.7263714390624684
5.023594696969697,-0.245410821819305,-0.0586767622947693,0.0559603797912599,0.7263714390624684
5.024200757575758,-0.017883966350555402,0.00598876504898071,0.33857268447876,0.7263714390624684
5.024806818181818,-0.149610040569305,-0.0275415083885193,0.27151213760376,0.7263714390624684
5.025412878787879,-0.015488946819305401,-0.00598633260726929,0.23798186416626002,0.7263714390624684
5.026018939393939,-0.231040704631805,0.046704097080230704,0.13739104385376,0.7263714390624684
5.026625,-0.221460626506805,0.0251489212989807,0.0248251258850099,0.7263714390624684
5.027231060606061,-0.08015447416305539,-0.0850219771385193,0.14697112197876,0.7263714390624684
5.027837121212121,0.051571600055694604,-0.101787113857269,0.25714202041626,0.7263714390624684
5.028443181818182,-0.0705743960380554,0.046704097080230704,0.35054778213501,0.7263714390624684
5.029049242424242,-0.259780939006805,-0.0874169966697693,-0.08774079208374011,0.7263714390624684
5.029655303030303,0.0395965023994446,-0.269438481044769,0.11104582901000999,0.7263714390624684
5.030261363636364,-0.0298590640068054,0.0011987259864807101,0.20445159072876,0.7263714390624684
5.030867424242424,-0.144820001506805,0.0898144486427307,-0.0182852256774901,0.7263714390624684
5.031473484848485,-0.07536443510055539,0.008383784580230699,0.21163664932251,0.7263714390624684
5.032079545454545,-0.020278985881805402,-0.09699707479476931,0.22361174697876002,0.7263714390624684
5.032685606060606,0.0659417172431946,-0.11615723104476901,0.13739104385376,0.7263714390624684
5.033291666666667,0.214432928180695,0.0323339798927307,0.0703304969787599,0.7263714390624684
5.033897727272727,0.0348064633369446,-0.0682568404197693,0.21642668838501,0.7263714390624684
5.034503787878788,-0.0035138491630553902,0.10418456583023099,0.11823088760376,0.7263714390624684
5.035109848484848,-0.0011188296318053901,-0.034726566982269294,0.12781096572876,0.7263714390624684
5.035715909090909,-0.0705743960380554,-0.0203564497947693,-0.08295075302124011,0.7263714390624684
5.03632196969697,-0.0226740054130554,0.08262939004898069,0.0487753211975099,0.7263714390624684
5.03692803030303,-0.226250665569305,-0.0898120162010193,0.30983245010376,0.7263714390624684
5.037534090909091,0.0707317563056946,-0.166452641201019,0.15655120010376,0.7263714390624684
5.038140151515152,-0.00590886869430539,-0.125737309169769,-0.008705147552490059,0.7263714390624684
5.038746212121212,0.025226385211944598,0.0179638627052307,-0.054210518646240095,0.7263714390624684
5.039352272727273,0.173717596149445,-0.0898120162010193,0.26911711807251,0.7263714390624684
5.039958333333333,-0.257385919475555,-0.106577152919769,0.18529143447876,0.7263714390624684
5.040564393939394,-0.168770196819305,-0.14250244588851899,0.00566496963500994,0.7263714390624684
5.041170454545455,-0.058599298381805394,-0.0730468794822693,-0.08774079208374011,0.7263714390624684
5.041776515151515,0.164137518024445,-0.039516606044769295,0.0870956336975099,0.7263714390624684
5.042382575757576,0.116237127399445,-0.0155664107322693,0.17331633682251002,0.7263714390624684
5.042988636363636,-0.240620782756805,0.0586791947364807,0.32899260635376,0.7263714390624684
5.043594696969697,-0.168770196819305,0.0299389603614807,0.24516692276001,0.7263714390624684
5.044200757575758,0.125817205524445,-0.0323315474510193,0.17810637588501002,0.7263714390624684
5.044806818181818,0.118632146930695,0.12334472208023099,0.20205657119751,0.7263714390624684
5.045412878787879,-0.137634942913055,-0.0490966841697693,-0.25299713973999,0.7263714390624684
5.046018939393939,-0.156795099163055,-0.24788330526351898,-0.07816071395874011,0.7263714390624684
5.046625,0.104262029743195,0.0227539017677307,0.25235198135376,0.7263714390624684
5.047231060606061,-0.017883966350555402,0.08502440958023069,0.82715666885376,0.7263714390624684
5.047837121212121,0.09947199068069461,0.053889155673980706,0.47029875869751,0.7263714390624684
5.048443181818182,-0.116079767131805,-0.11615723104476901,0.20445159072876,0.7263714390624684
5.049049242424242,-0.07296941556930539,-0.12334228963851901,0.22840178604126002,0.7263714390624684
5.049655303030303,0.00127618989944461,0.0299389603614807,-0.0685806358337401,0.7263714390624684
5.050261363636364,-0.161585138225555,-0.0299365279197693,0.33617766494751,0.7263714390624684
5.050867424242424,-0.0849445132255554,0.0323339798927307,0.060750418853759904,0.7263714390624684
5.051473484848485,-0.08015447416305539,-0.0898120162010193,0.11104582901000999,0.7263714390624684
5.052079545454545,-0.0490192202568054,-0.279018559169769,0.19008147354126,0.7263714390624684
5.052685606060606,0.0324114438056946,-0.11615723104476901,0.00087493057250994,0.7263714390624684
5.0532916666666665,0.056361639118194605,-0.101787113857269,0.27630217666626,0.7263714390624684
5.053897727272727,-0.278941095256805,0.0922094681739807,0.0894906532287599,0.7263714390624684
5.0545037878787875,-0.199905450725555,0.0179638627052307,-0.0422354209899901,0.7263714390624684
5.055109848484848,-0.058599298381805394,-0.0227514693260193,0.38407805557250996,0.7263714390624684
5.0557159090909085,-0.039439142131805396,0.07304931192398069,0.0487753211975099,0.7263714390624684
5.05632196969697,-0.180745294475555,-0.17363769979476898,0.0751205360412599,0.7263714390624684
5.05692803030303,-0.199905450725555,-0.0179614302635193,0.23558684463501,0.7263714390624684
5.057534090909091,-0.106499689006805,0.0227539017677307,0.19487151260376,0.7263714390624684
5.058140151515152,0.013251287555694598,0.12094970254898099,0.42718840713501,0.7263714390624684
5.058746212121212,0.159347478961945,-0.0802319380760193,-0.0350503623962401,0.7263714390624684
5.059352272727273,-0.07775945463180539,-0.135317387294769,0.0655404579162599,0.7263714390624684
5.059958333333333,0.00606622896194461,0.0371240189552307,0.34575774307251,0.7263714390624684
5.060564393939394,-0.07536443510055539,-0.22872314901351898,0.22361174697876002,0.7263714390624684
5.061170454545455,-0.0442291811943054,-0.11615723104476901,0.20684661026001,0.7263714390624684
5.061776515151515,0.0372014828681946,-0.00119629354476929,0.20684661026001,0.7263714390624684
5.062382575757576,-0.197510431194305,-0.101787113857269,0.09428069229125989,0.7263714390624684
5.062988636363636,0.0659417172431946,-0.19279785604476898,0.04398528213500991,0.7263714390624684
5.063594696969697,-0.08015447416305539,-0.199982914638519,0.032010184478759904,0.7263714390624684
5.064200757575758,-0.118474786663055,-0.00119629354476929,-0.0158902061462401,0.7263714390624684
5.064806818181818,-0.0130939272880554,0.159270015048981,0.16373625869751002,0.7263714390624684
5.065412878787879,-0.0250690249443054,-0.0754418990135193,0.14457610244751,0.7263714390624684
5.066018939393939,-0.017883966350555402,-0.0179614302635193,0.21403166885376002,0.7263714390624684
5.066625,-0.0705743960380554,0.0347289994239807,0.34575774307251,0.7263714390624684
5.067231060606061,-0.0106989077568054,-0.0562817427635193,0.21163664932251,0.7263714390624684
5.067837121212121,-0.00590886869430539,-0.0634668013572693,0.30264739151000997,0.7263714390624684
5.068443181818182,-0.020278985881805402,0.008383784580230699,0.31941252822876,0.7263714390624684
5.069049242424242,-0.204695489788055,0.0155688431739807,-0.0997158897399901,0.7263714390624684
5.069655303030303,-0.195115411663055,-0.0227514693260193,-0.0398404014587401,0.7263714390624684
5.070261363636364,-0.07536443510055539,-0.0634668013572693,0.21403166885376002,0.7263714390624684
5.070867424242424,-0.0418341616630554,0.0323339798927307,0.13260100479126,0.7263714390624684
5.071473484848485,-0.0993146304130554,0.046704097080230704,0.23319182510376002,0.7263714390624684
5.072079545454545,-0.037044122600555396,-0.20237793416976899,0.30025237197876,0.7263714390624684
5.072685606060606,0.025226385211944598,-0.111367191982269,0.17331633682251002,0.7263714390624684
5.073291666666667,0.0635466977119446,-0.0826269576072693,-0.12606110458374,0.7263714390624684
5.073897727272727,0.250358221149445,0.12334472208023099,0.0679354774475099,0.7263714390624684
5.074503787878788,-0.0945245913505554,-0.00359131307601929,0.27630217666626,0.7263714390624684
5.075109848484848,-0.0993146304130554,0.07304931192398069,0.04398528213500991,0.7263714390624684
5.075715909090909,-0.0035138491630553902,-0.025146488857269302,-0.23862702255249,0.7263714390624684
5.07632196969697,0.101867010211945,-0.039516606044769295,-0.0901358116149901,0.7263714390624684
5.07692803030303,-0.015488946819305401,0.00359374551773071,0.81278655166626,0.7263714390624684
5.077534090909091,-0.243015802288055,-0.0467016646385193,0.50143401260376,0.7263714390624684
5.078140151515152,-0.101709649944305,0.056284175205230706,0.11583586807250999,0.7263714390624684
5.078746212121212,-0.252595880413055,-0.0490966841697693,0.19726653213501,0.7263714390624684
5.079352272727273,-0.228645685100555,0.0227539017677307,0.0511703407287599,0.7263714390624684
5.079958333333333,-0.0514142397880554,-0.039516606044769295,0.14218108291626,0.7263714390624684
5.080564393939394,0.0779168148994446,-0.0874169966697693,0.10146575088500999,0.7263714390624684
5.081170454545455,-0.032254083538055395,-0.0874169966697693,0.15176116104126,0.7263714390624684
5.081776515151515,-0.034649103069305395,-0.199982914638519,0.13020598526001,0.7263714390624684
5.082382575757576,-0.0226740054130554,0.0131738236427307,0.0751205360412599,0.7263714390624684
5.082988636363636,0.104262029743195,0.00359374551773071,0.20445159072876,0.7263714390624684
5.083594696969697,-0.08254949369430539,-0.0467016646385193,-0.15240631942749,0.7263714390624684
5.084200757575758,-0.252595880413055,-0.23830322713851898,0.04398528213500991,0.7263714390624684
5.084806818181818,-0.161585138225555,-0.00598633260726929,0.24756194229126002,0.7263714390624684
5.085412878787879,-0.417852228069305,0.07304931192398069,0.0870956336975099,0.7263714390624684
5.086018939393939,0.0300164242744446,-0.161662602138519,0.18529143447876,0.7263714390624684
5.086625,0.0228313656806946,-0.00119629354476929,0.17331633682251002,0.7263714390624684
5.087231060606061,-0.118474786663055,-0.0203564497947693,0.10146575088500999,0.7263714390624684
5.087837121212121,0.159347478961945,0.219145503330231,0.039195243072509905,0.7263714390624684
5.088443181818182,-0.07536443510055539,-0.034726566982269294,0.11583586807250999,0.7263714390624684
5.089049242424242,-0.166375177288055,0.08023437051773069,0.10865080947875999,0.7263714390624684
5.089655303030303,-0.219065606975555,0.0922094681739807,0.0799105751037599,0.7263714390624684
5.090261363636364,-0.0226740054130554,-0.0634668013572693,0.19966155166626,0.7263714390624684
5.090867424242424,0.0372014828681946,-0.025146488857269302,0.13978606338501,0.7263714390624684
5.091473484848485,-0.152005060100555,-0.00359131307601929,0.10386077041625999,0.7263714390624684
5.092079545454545,-0.137634942913055,-0.144897465419769,0.0631454383850099,0.7263714390624684
5.092685606060606,-0.204695489788055,-0.0706518599510193,-0.047025460052490094,0.7263714390624684
5.0932916666666666,-0.159190118694305,-0.0634668013572693,0.18289641494751002,0.7263714390624684
5.093897727272727,0.264728338336945,-0.240698246669769,0.20924162979126001,0.7263714390624684
5.0945037878787875,0.135397283649445,-0.0730468794822693,0.21403166885376002,0.7263714390624684
5.095109848484848,-0.243015802288055,-0.11855225057601901,0.34575774307251,0.7263714390624684
5.0957159090909085,-0.0418341616630554,-0.0227514693260193,0.19008147354126,0.7263714390624684
5.0963219696969695,0.267123357868195,-0.0754418990135193,0.10386077041625999,0.7263714390624684
5.0969280303030295,-0.0466242007255554,-0.195192875576019,0.14936614151001001,0.7263714390624684
5.097534090909091,-0.245410821819305,-0.125737309169769,-0.20988678817748999,0.7263714390624684
5.0981401515151505,-0.0873395327568054,0.12094970254898099,-0.056605538177490096,0.7263714390624684
5.0987462121212115,0.0108562680244446,0.020358882236480698,-0.0134951866149901,0.7263714390624684
5.099352272727273,-0.0442291811943054,0.0658642533302307,0.10625578994750999,0.7263714390624684
5.099958333333333,0.118632146930695,0.10178954629898099,0.26193205947875997,0.7263714390624684
5.100564393939394,0.0300164242744446,-0.0706518599510193,0.15415618057251002,0.7263714390624684
5.101170454545455,-0.171165216350555,0.0251489212989807,0.37449797744750996,0.7263714390624684
5.101776515151515,-0.307681329631805,0.0610742142677307,0.21403166885376002,0.7263714390624684
5.102382575757576,-0.214275567913055,-0.09939209432601931,0.32180754776000997,0.7263714390624684
5.102988636363636,0.0755217953681946,-0.00119629354476929,0.0463803016662599,0.7263714390624684
5.103594696969697,-0.202300470256805,-0.11376221151351901,-0.19312165145874,0.7263714390624684
5.104200757575758,-0.161585138225555,-0.11615723104476901,0.0703304969787599,0.7263714390624684
5.104806818181818,-0.00590886869430539,0.0443090775489807,-0.0182852256774901,0.7263714390624684
5.105412878787879,-0.0993146304130554,-0.0874169966697693,-0.26257721786499,0.7263714390624684
5.106018939393939,0.053966619586944604,-0.09939209432601931,-0.18833161239624,0.7263714390624684
5.106625,-0.0298590640068054,0.0443090775489807,0.25714202041626,0.7263714390624684
5.107231060606061,0.00606622896194461,-0.0203564497947693,0.63076506729126,0.7263714390624684
5.107837121212121,0.178507635211945,0.0227539017677307,0.38886809463501,0.7263714390624684
5.108443181818182,0.00367120943069461,-0.00598633260726929,0.0799105751037599,0.7263714390624684
5.109049242424242,-0.00590886869430539,0.0395190384864807,0.12062590713501,0.7263714390624684
5.109655303030303,0.0467815609931946,0.053889155673980706,0.10386077041625999,0.7263714390624684
5.110261363636364,-0.0681793765068054,-0.0586767622947693,0.0823055946350099,0.7263714390624684
5.110867424242424,-0.058599298381805394,-0.0155664107322693,0.15415618057251002,0.7263714390624684
5.111473484848485,0.0946819516181946,-0.101787113857269,0.20684661026001,0.7263714390624684
5.112079545454545,-0.326841485881805,0.0586791947364807,-0.08774079208374011,0.7263714390624684
5.112685606060606,-0.0633893374443054,-0.164057621669769,-0.10211090927124,0.7263714390624684
5.113291666666667,-0.0490192202568054,0.0443090775489807,-0.049420479583740094,0.7263714390624684
5.113897727272727,-0.228645685100555,0.07304931192398069,0.12781096572876,0.7263714390624684
5.114503787878788,0.154557439899445,-0.11615723104476901,0.0296151649475099,0.7263714390624684
5.115109848484849,0.0180413266181946,-0.11376221151351901,0.19966155166626,0.7263714390624684
5.115715909090909,-0.128054864788055,-0.0586767622947693,0.15415618057251002,0.7263714390624684
5.11632196969697,-0.357976739788055,0.07304931192398069,-0.0302603233337401,0.7263714390624684
5.11692803030303,-0.132844903850555,-0.130527348232269,0.38886809463501,0.7263714390624684
5.117534090909091,-0.140029962444305,-0.09220703573226931,0.30743743057251,0.7263714390624684
5.118140151515152,-0.135239923381805,-0.11855225057601901,0.15894621963501002,0.7263714390624684
5.118746212121212,0.329393865680695,-0.135317387294769,-0.04463044052124009,0.7263714390624684
5.119352272727273,0.128212225055695,-0.180822758388519,-0.31287262802124,0.7263714390624684
5.119958333333333,-0.101709649944305,0.053889155673980706,0.0823055946350099,0.7263714390624684
5.120564393939394,-0.034649103069305395,-0.17363769979476898,0.27630217666626,0.7263714390624684
5.121170454545455,-0.0466242007255554,-0.11855225057601901,0.0679354774475099,0.7263714390624684
5.121776515151515,-0.221460626506805,0.0946044877052307,-0.0158902061462401,0.7263714390624684
5.122382575757576,0.025226385211944598,-0.0754418990135193,0.09667571182250989,0.7263714390624684
5.122988636363636,-0.0969196108818054,-0.154477543544769,0.0870956336975099,0.7263714390624684
5.123594696969697,-0.0945245913505554,-0.144897465419769,0.30743743057251,0.7263714390624684
5.124200757575758,-0.00590886869430539,-0.025146488857269302,0.0679354774475099,0.7263714390624684
5.124806818181818,-0.226250665569305,-0.106577152919769,0.0152450477600099,0.7263714390624684
5.125412878787879,0.197667791461945,0.0395190384864807,0.23079680557251,0.7263714390624684
5.126018939393939,-0.0106989077568054,-0.0610717818260193,0.16613127822876,0.7263714390624684
5.126625,-0.108894708538055,-0.0490966841697693,0.26672209854126,1.333977275841702
5.127231060606061,0.140187322711945,-0.16884766073226898,0.23079680557251,1.333977275841702
5.127837121212121,-0.008303888225555391,-0.12094727010726901,0.0631454383850099,1.333977275841702
5.128443181818182,0.0467815609931946,-0.18800781698226898,0.0200350868225099,1.333977275841702
5.129049242424242,0.0228313656806946,-0.279018559169769,0.0272201454162599,1.333977275841702
5.129655303030303,-0.187930353069305,-0.013171391201019301,0.04398528213500991,1.333977275841702
5.130261363636364,-0.171165216350555,-0.0682568404197693,0.20205657119751,1.333977275841702
5.130867424242424,-0.058599298381805394,0.0371240189552307,0.16373625869751002,1.333977275841702
5.131473484848485,-0.132844903850555,0.0107788041114807,0.25474700088501,1.333977275841702
5.132079545454545,0.0779168148994446,-0.0610717818260193,0.15894621963501002,1.333977275841702
5.132685606060606,0.104262029743195,-0.025146488857269302,0.12541594619751,1.333977275841702
5.133291666666667,-0.245410821819305,-0.09699707479476931,0.33857268447876,1.333977275841702
5.133897727272727,-0.0873395327568054,-0.0706518599510193,-0.16917145614624,1.333977275841702
5.134503787878788,-0.113684747600555,-0.235908207607269,0.0200350868225099,1.333977275841702
5.135109848484848,-0.0490192202568054,-0.0898120162010193,0.13978606338501,1.333977275841702
5.135715909090909,0.0659417172431946,-0.0299365279197693,-0.14522126083373998,1.333977275841702
5.13632196969697,-0.0250690249443054,-0.00119629354476929,0.0703304969787599,1.333977275841702
5.13692803030303,0.0276214047431946,-0.0107763716697693,0.66908537979126,1.333977275841702
5.1375340909090905,-0.226250665569305,0.0395190384864807,0.57807463760376,1.333977275841702
5.138140151515152,-0.214275567913055,-0.164057621669769,-0.08295075302124011,1.333977275841702
5.138746212121212,0.0851018734931946,0.0419140580177307,-0.0182852256774901,1.333977275841702
5.139352272727273,0.0300164242744446,0.209565425205231,0.35533782119751,1.333977275841702
5.1399583333333325,-0.0921295718193054,-0.14250244588851899,0.0463803016662599,1.333977275841702
5.140564393939394,-0.111289728069305,0.07304931192398069,-0.42064850692749,1.333977275841702
5.141170454545455,-0.108894708538055,0.10897460489273099,0.29306731338500996,1.333977275841702
5.141776515151515,0.161742498493195,-0.09699707479476931,0.0559603797912599,1.333977275841702
5.142382575757576,0.161742498493195,-0.09460205526351931,-0.0111001670837401,1.333977275841702
5.142988636363636,-0.0657843569755554,0.0179638627052307,0.13739104385376,1.333977275841702
5.143594696969697,-0.197510431194305,-0.034726566982269294,0.29785735244751,1.333977275841702
5.144200757575758,0.267123357868195,-0.0203564497947693,0.16613127822876,1.333977275841702
5.144806818181818,-0.0250690249443054,-0.0299365279197693,-0.0374453819274901,1.333977275841702
5.145412878787879,-0.0873395327568054,0.020358882236480698,0.10146575088500999,1.333977275841702
5.146018939393939,-0.034649103069305395,-0.0586767622947693,0.0727255165100099,1.333977275841702
5.146625,-0.264570978069305,0.0419140580177307,0.18050139541626,1.333977275841702
5.147231060606061,-0.199905450725555,-0.0155664107322693,0.041590262603759906,1.333977275841702
5.147837121212121,-0.0490192202568054,-0.044306645107269296,0.22600676651001,1.333977275841702
5.148443181818182,0.0755217953681946,0.16645507364273102,0.31462248916625996,1.333977275841702
5.149049242424242,-0.135239923381805,-0.214353031826019,0.24516692276001,1.333977275841702
5.149655303030303,-0.0011188296318053901,-0.13771240682601898,0.19247649307251,1.333977275841702
5.150261363636364,0.0324114438056946,-0.0562817427635193,0.21642668838501,1.333977275841702
5.150867424242424,-0.0921295718193054,-0.13292236776351898,0.10865080947875999,1.333977275841702
5.151473484848485,-0.0633893374443054,-0.0562817427635193,-0.04463044052124009,1.333977275841702
5.152079545454545,0.0204363461494446,-0.00598633260726929,0.0128500282287599,1.333977275841702
5.152685606060606,0.0204363461494446,0.0275439408302307,0.32420256729125996,1.333977275841702
5.153291666666667,-0.0274640444755554,0.0395190384864807,0.35054778213501,1.333977275841702
5.153897727272727,-0.245410821819305,-0.00359131307601929,-0.0302603233337401,1.333977275841702
5.154503787878788,-0.07536443510055539,-0.09939209432601931,-0.008705147552490059,1.333977275841702
5.155109848484848,-0.147215021038055,-0.044306645107269296,0.23558684463501,1.333977275841702
5.155715909090909,-0.017883966350555402,-0.0706518599510193,0.060750418853759904,1.333977275841702
5.15632196969697,-0.104104669475555,0.0706542923927307,0.25953703994751,1.333977275841702
5.15692803030303,-0.319656427288055,0.020358882236480698,0.36252287979125997,1.333977275841702
5.157534090909091,0.0324114438056946,-0.09220703573226931,0.13499602432251,1.333977275841702
5.158140151515152,0.113842107868195,-0.0155664107322693,0.26432707901000996,1.333977275841702
5.158746212121212,-0.202300470256805,0.0107788041114807,0.17571135635376,1.333977275841702
5.159352272727273,-0.125659845256805,0.10657958536148099,0.17092131729126,1.333977275841702
5.159958333333333,0.0276214047431946,-0.0850219771385193,0.25235198135376,1.333977275841702
5.160564393939394,-0.0418341616630554,-0.226328129482269,0.17092131729126,1.333977275841702
5.161170454545455,-0.0298590640068054,0.0634692337989807,0.0583553993225099,1.333977275841702
5.161776515151515,-0.288521173381805,0.0586791947364807,0.21642668838501,1.333977275841702
5.162382575757576,-0.271756036663055,0.10657958536148099,0.28827727432251,1.333977275841702
5.162988636363636,-0.0226740054130554,0.00598876504898071,0.24995696182251,1.333977275841702
5.163594696969697,-0.032254083538055395,-0.09460205526351931,-0.0398404014587401,1.333977275841702
5.164200757575758,-0.034649103069305395,0.020358882236480698,-0.056605538177490096,1.333977275841702
5.164806818181818,-0.0466242007255554,-0.013171391201019301,0.20205657119751,1.333977275841702
5.165412878787879,-0.118474786663055,0.0107788041114807,0.38647307510376,1.333977275841702
5.166018939393939,-0.0226740054130554,-0.19758789510726898,0.0583553993225099,1.333977275841702
5.166625,-0.020278985881805402,0.0443090775489807,0.11344084854125999,1.333977275841702
5.167231060606061,0.0467815609931946,0.0155688431739807,0.79841643447876,1.333977275841702
5.167837121212121,0.0348064633369446,-0.0898120162010193,0.14218108291626,1.333977275841702
5.168443181818182,-0.161585138225555,-0.18800781698226898,0.034405204010009904,1.333977275841702
5.169049242424242,-0.118474786663055,-0.00598633260726929,-0.0613955772399901,1.333977275841702
5.169655303030303,0.214432928180695,-0.0514917037010193,0.09428069229125989,1.333977275841702
5.170261363636364,0.147372381305695,-0.12334228963851901,0.32659758682251,1.333977275841702
5.170867424242424,0.0803118344306946,0.051494136142730705,0.0104550086975099,1.333977275841702
5.171473484848485,0.125817205524445,0.0227539017677307,0.17810637588501002,1.333977275841702
5.172079545454545,0.0372014828681946,0.144899897861481,0.13260100479126,1.333977275841702
5.172685606060606,0.0300164242744446,0.13052978067398102,-0.11887604598999,1.333977275841702
5.173291666666667,0.128212225055695,0.00359374551773071,0.00566496963500994,1.333977275841702
5.173897727272727,0.025226385211944598,-0.0706518599510193,0.34096770401001,1.333977275841702
5.174503787878788,-0.032254083538055395,0.11615966348648099,0.21642668838501,1.333977275841702
5.175109848484849,-0.175955255413055,0.10178954629898099,0.19726653213501,1.333977275841702
5.175715909090909,-0.190325372600555,-0.025146488857269302,0.16373625869751002,1.333977275841702
5.17632196969697,-0.0873395327568054,-0.0730468794822693,0.32420256729125996,1.333977275841702
5.17692803030303,0.0228313656806946,-0.0179614302635193,0.32899260635376,1.333977275841702
5.177534090909091,0.051571600055694604,0.0011987259864807101,0.0775155555725099,1.333977275841702
5.1781401515151515,-0.113684747600555,-0.0778369185447693,0.11344084854125999,1.333977275841702
5.178746212121212,-0.0130939272880554,-0.161662602138519,0.21163664932251,1.333977275841702
5.179352272727273,-0.0130939272880554,0.008383784580230699,0.13260100479126,1.333977275841702
5.1799583333333326,0.0755217953681946,0.07304931192398069,0.17571135635376,1.333977275841702
5.1805643939393935,0.0707317563056946,0.00598876504898071,0.13499602432251,1.333977275841702
5.181170454545455,0.09947199068069461,-0.0467016646385193,0.21882170791626002,1.333977275841702
5.181776515151515,0.161742498493195,-0.034726566982269294,0.09428069229125989,1.333977275841702
5.182382575757576,0.118632146930695,-0.0227514693260193,0.13499602432251,1.333977275841702
5.1829886363636355,0.0443865414619446,-0.221538090419769,-0.051815499114990095,1.333977275841702
5.183594696969697,-0.123264825725555,-0.176032719326019,0.00566496963500994,1.333977275841702
5.184200757575758,-0.0562042788505554,0.19040526895523102,0.24995696182251,1.333977275841702
5.184806818181818,0.0467815609931946,0.0658642533302307,0.0511703407287599,1.333977275841702
5.185412878787879,0.0348064633369446,0.0682592728614807,0.26432707901000996,1.333977275841702
5.186018939393939,0.111447088336945,0.16645507364273102,0.0751205360412599,1.333977275841702
5.186625,-0.156795099163055,-0.147292484951019,0.12541594619751,1.333977275841702
5.187231060606061,-0.0897345522880554,-0.271833500576019,0.13499602432251,1.333977275841702
5.187837121212121,-0.032254083538055395,-0.12094727010726901,0.0152450477600099,1.333977275841702
5.188443181818182,0.0443865414619446,0.08262939004898069,0.008059989166259942,1.333977275841702
5.189049242424242,-0.07536443510055539,-0.20237793416976899,0.0799105751037599,1.333977275841702
5.189655303030303,-0.190325372600555,0.0706542923927307,0.17571135635376,1.333977275841702
5.190261363636364,-0.192720392131805,0.15687499551773101,0.0559603797912599,1.333977275841702
5.190867424242424,-0.008303888225555391,-0.0706518599510193,0.12781096572876,1.333977275841702
5.191473484848485,0.0707317563056946,-0.12094727010726901,0.24756194229126002,1.333977275841702
5.192079545454545,-0.106499689006805,-0.13292236776351898,0.13020598526001,1.333977275841702
5.192685606060606,-0.0418341616630554,-0.0682568404197693,-0.049420479583740094,1.333977275841702
5.193291666666667,-0.0633893374443054,-0.226328129482269,0.18529143447876,1.333977275841702
5.193897727272727,-0.015488946819305401,0.0299389603614807,0.18529143447876,1.333977275841702
5.194503787878788,-0.185535333538055,-0.111367191982269,0.16373625869751002,1.333977275841702
5.195109848484848,-0.149610040569305,-0.106577152919769,-0.08055573348999011,1.333977275841702
5.195715909090909,0.0779168148994446,-0.0299365279197693,0.43437346572875996,1.333977275841702
5.19632196969697,0.0827068539619446,-0.0586767622947693,0.13978606338501,1.333977275841702
5.19692803030303,-0.116079767131805,0.00598876504898071,0.39605315322876,1.333977275841702
5.197534090909091,0.0180413266181946,0.0969995072364807,0.8990072547912601,1.333977275841702
5.198140151515152,0.190482732868195,-0.0658618208885193,0.18529143447876,1.333977275841702
5.198746212121212,-0.0298590640068054,-0.0658618208885193,0.0296151649475099,1.333977275841702
5.199352272727273,-0.0849445132255554,-0.0658618208885193,0.0535653602600099,1.333977275841702
5.199958333333333,-0.0562042788505554,-0.0107763716697693,0.34096770401001,1.333977275841702
5.200564393939394,-0.168770196819305,-0.0826269576072693,0.20445159072876,1.333977275841702
5.201170454545455,-0.0490192202568054,-0.12334228963851901,0.16134123916626,1.333977275841702
5.201776515151515,0.053966619586944604,-0.0850219771385193,0.0104550086975099,1.333977275841702
5.202382575757576,-0.185535333538055,-0.0323315474510193,0.0583553993225099,1.333977275841702
5.202988636363636,-0.104104669475555,-0.0586767622947693,-0.08774079208374011,1.333977275841702
5.203594696969697,0.056361639118194605,-0.0634668013572693,0.0655404579162599,1.333977275841702
5.204200757575758,-0.130449884319305,0.020358882236480698,0.11823088760376,1.333977275841702
5.204806818181818,-0.07296941556930539,-0.12813232870101898,0.15176116104126,1.333977275841702
5.205412878787879,-0.135239923381805,0.051494136142730705,0.28827727432251,1.333977275841702
5.206018939393939,-0.0921295718193054,0.144899897861481,0.12781096572876,1.333977275841702
5.206625,-0.293311212444305,0.0131738236427307,0.39365813369750996,1.333977275841702
5.207231060606061,-0.211880548381805,-0.12334228963851901,0.25714202041626,1.333977275841702
5.207837121212121,-0.163980157756805,-0.154477543544769,-0.0230752647399901,1.333977275841702
5.208443181818182,-0.118474786663055,0.00359374551773071,-0.0925308311462401,1.333977275841702
5.209049242424242,0.123422185993195,-0.18321777791976898,0.14936614151001001,1.333977275841702
5.209655303030303,0.231198064899445,-0.034726566982269294,0.13260100479126,1.333977275841702
5.210261363636364,0.180902654743195,-0.0898120162010193,0.31222746963500997,1.333977275841702
5.210867424242424,-0.262175958538055,-0.108972172451019,0.31462248916625996,1.333977275841702
5.211473484848485,-0.233435724163055,-0.0634668013572693,-0.16198639755249,1.333977275841702
5.212079545454545,-0.128054864788055,-0.12813232870101898,0.11583586807250999,1.333977275841702
5.212685606060606,0.164137518024445,-0.17363769979476898,0.11823088760376,1.333977275841702
5.213291666666667,0.159347478961945,-0.29099365682601896,0.09428069229125989,1.333977275841702
5.213897727272727,0.058756658649444606,-0.0610717818260193,-0.12366608505249001,1.333977275841702
5.214503787878788,0.173717596149445,-0.0467016646385193,0.0703304969787599,1.333977275841702
5.215109848484848,0.0276214047431946,-0.0826269576072693,0.16373625869751002,1.333977275841702
5.215715909090909,0.00127618989944461,0.0107788041114807,0.032010184478759904,1.333977275841702
5.21632196969697,0.0324114438056946,-0.0514917037010193,0.16613127822876,1.333977275841702
5.21692803030303,-0.0106989077568054,-0.11376221151351901,0.24277190322876002,1.333977275841702
5.217534090909091,-0.0633893374443054,-0.025146488857269302,0.20205657119751,1.333977275841702
5.2181401515151515,0.051571600055694604,0.0299389603614807,0.25235198135376,1.333977275841702
5.218746212121212,-0.116079767131805,-0.0754418990135193,0.31941252822876,1.333977275841702
5.2193522727272725,0.00846124849319461,-0.106577152919769,0.19487151260376,1.333977275841702
5.219958333333333,0.00127618989944461,-0.0730468794822693,-0.18354157333374,1.333977275841702
5.2205643939393935,0.0180413266181946,-0.130527348232269,0.09667571182250989,1.333977275841702
5.2211704545454545,0.053966619586944604,-0.0706518599510193,0.0775155555725099,1.333977275841702
5.2217765151515145,-0.209485528850555,0.0347289994239807,0.13739104385376,1.333977275841702
5.222382575757576,-0.132844903850555,0.0993945267677307,0.32180754776000997,1.333977275841702
5.2229886363636355,0.0659417172431946,-0.281413578701019,-0.10929596786499,1.333977275841702
5.2235946969696965,0.271913396930695,-0.295783695888519,0.17092131729126,1.333977275841702
5.224200757575758,-0.130449884319305,-0.0610717818260193,0.0272201454162599,1.333977275841702
5.224806818181818,-0.015488946819305401,-0.0490966841697693,0.19247649307251,1.333977275841702
5.225412878787879,-0.060994317913055394,-0.0562817427635193,0.0679354774475099,1.333977275841702
5.226018939393939,-0.0969196108818054,-0.154477543544769,0.53496428604126,0.728103731893549
5.226625,0.0755217953681946,-0.0083813521385193,0.31941252822876,0.728103731893549
5.227231060606061,-0.178350274944305,-0.00359131307601929,0.43197844619750997,0.728103731893549
5.227837121212121,-0.257385919475555,-0.0874169966697693,0.44634856338501,0.728103731893549
5.228443181818182,-0.101709649944305,-0.20237793416976899,-0.13803620223999,0.728103731893549
5.229049242424242,0.29586359224319503,-0.0898120162010193,0.17810637588501002,0.728103731893549
5.229655303030303,0.161742498493195,0.152084956455231,0.28109221572876,0.728103731893549
5.230261363636364,0.116237127399445,0.056284175205230706,0.14457610244751,0.728103731893549
5.230867424242424,0.0683367367744446,-0.0610717818260193,-0.0925308311462401,0.728103731893549
5.231473484848485,-0.0705743960380554,-0.0275415083885193,0.24756194229126002,0.728103731893549
5.232079545454545,-0.113684747600555,0.0419140580177307,0.22121672744751,0.728103731893549
5.232685606060606,-0.130449884319305,-0.221538090419769,-0.0302603233337401,0.728103731893549
5.233291666666667,0.053966619586944604,-0.0538867232322693,0.0152450477600099,0.728103731893549
5.233897727272727,0.0180413266181946,-0.0203564497947693,0.19726653213501,0.728103731893549
5.234503787878788,0.0300164242744446,-0.17842773885726898,0.21163664932251,0.728103731893549
5.235109848484849,0.171322576618195,-0.195192875576019,0.16852629776001002,0.728103731893549
5.235715909090909,0.09947199068069461,-0.0706518599510193,-0.0302603233337401,0.728103731893549
5.23632196969697,-0.171165216350555,0.0922094681739807,-0.0302603233337401,0.728103731893549
5.23692803030303,-0.0466242007255554,-0.12094727010726901,0.48945891494751,0.728103731893549
5.237534090909091,0.09707697114944461,-0.111367191982269,0.19247649307251,0.728103731893549
5.238140151515152,-0.0442291811943054,0.08741942911148069,-0.18114655380248998,0.728103731893549
5.238746212121212,0.109052068805695,-0.00359131307601929,0.15176116104126,0.728103731893549
5.239352272727273,0.185692693805695,0.0251489212989807,0.0727255165100099,0.728103731893549
5.239958333333333,-0.140029962444305,0.164060054111481,0.14936614151001001,0.728103731893549
5.240564393939394,-0.0897345522880554,0.0922094681739807,0.27630217666626,0.728103731893549
5.241170454545455,0.149767400836945,-0.0730468794822693,0.30264739151000997,0.728103731893549
5.241776515151515,0.101867010211945,-0.154477543544769,0.0272201454162599,0.728103731893549
5.242382575757576,-0.128054864788055,0.0131738236427307,0.034405204010009904,0.728103731893549
5.242988636363636,-0.039439142131805396,0.049099116611480705,0.37928801651001,0.728103731893549
5.243594696969697,0.128212225055695,0.049099116611480705,0.24756194229126002,0.728103731893549
5.244200757575758,-0.168770196819305,0.262255854892731,0.11104582901000999,0.728103731893549
5.244806818181818,-0.195115411663055,-0.144897465419769,0.23558684463501,0.728103731893549
5.245412878787879,0.109052068805695,-0.185612797451019,0.26432707901000996,0.728103731893549
5.246018939393939,0.0491765805244446,0.228725581455231,-0.059000557708740096,0.728103731893549
5.246625,0.0204363461494446,0.10657958536148099,0.0799105751037599,0.728103731893549
5.247231060606061,-0.0274640444755554,-0.025146488857269302,0.32420256729125996,0.728103731893549
5.247837121212121,-0.154400079631805,0.0395190384864807,0.034405204010009904,0.728103731893549
5.248443181818182,-0.07775945463180539,-0.185612797451019,0.35533782119751,0.728103731893549
5.249049242424242,0.200062810993195,0.0371240189552307,0.0463803016662599,0.728103731893549
5.249655303030303,-0.116079767131805,-0.171242680263519,0.0751205360412599,0.728103731893549
5.250261363636364,0.0659417172431946,0.23112060098648102,0.29306731338500996,0.728103731893549
5.250867424242424,0.0228313656806946,-0.0538867232322693,-0.0230752647399901,0.728103731893549
5.251473484848485,0.0851018734931946,-0.415534672451019,0.39605315322876,0.728103731893549
5.252079545454545,-0.0490192202568054,-0.0682568404197693,-0.047025460052490094,0.728103731893549
5.252685606060606,-0.0130939272880554,0.262255854892731,0.28588225479126,0.728103731893549
5.253291666666667,-0.266965997600555,-0.336499027919769,0.39844817276001,0.728103731893549
5.253897727272727,0.121027166461945,0.0706542923927307,-0.19791169052124,0.728103731893549
5.254503787878788,-0.060994317913055394,0.0658642533302307,0.20684661026001,0.728103731893549
5.255109848484848,-0.118474786663055,-0.271833500576019,0.13499602432251,0.728103731893549
5.255715909090909,0.137792303180695,0.0706542923927307,-0.26736725692749,0.728103731893549
5.25632196969697,0.178507635211945,0.08741942911148069,0.22121672744751,0.728103731893549
5.25692803030303,-0.250200860881805,-0.195192875576019,0.44155852432250997,0.728103731893549
5.257534090909091,-0.276546075725555,-0.195192875576019,0.0894906532287599,0.728103731893549
5.258140151515152,0.370109197711945,0.16645507364273102,0.39844817276001,0.728103731893549
5.258746212121212,-0.334026544475555,-0.13771240682601898,0.041590262603759906,0.728103731893549
5.259352272727273,0.212037908649445,0.137714839267731,-0.054210518646240095,0.728103731893549
5.259958333333333,0.216827947711945,-0.0586767622947693,0.28109221572876,0.728103731893549
5.260564393939394,-0.128054864788055,-0.0155664107322693,-0.10450592880249,0.728103731893549
5.261170454545455,-0.372346856975555,-0.135317387294769,0.19247649307251,0.728103731893549
5.261776515151515,0.283888494586945,0.23112060098648102,0.33857268447876,0.728103731893549
5.2623825757575755,0.202457830524445,-0.12094727010726901,-0.0206802452087401,0.728103731893549
5.262988636363636,0.0898919125556946,0.0706542923927307,0.0559603797912599,0.728103731893549
5.263594696969697,-0.187930353069305,0.008383784580230699,0.25235198135376,0.728103731893549
5.264200757575758,0.0779168148994446,-0.00598633260726929,0.47748381729126,0.728103731893549
5.2648068181818175,-0.0106989077568054,-0.176032719326019,0.24516692276001,0.728103731893549
5.265412878787879,0.0491765805244446,-0.0490966841697693,-0.20509674911498998,0.728103731893549
5.266018939393939,0.00846124849319461,-0.11376221151351901,0.29306731338500996,0.728103731893549
5.266625,-0.008303888225555391,-0.204772953701019,0.034405204010009904,0.728103731893549
5.267231060606061,0.185692693805695,-0.346079106044769,0.00566496963500994,0.728103731893549
5.267837121212121,-0.355581720256805,0.053889155673980706,-0.0997158897399901,0.728103731893549
5.268443181818182,0.240778143024445,0.178430171298981,-0.0158902061462401,0.728103731893549
5.269049242424242,-0.0274640444755554,-0.0634668013572693,0.46790373916626,0.728103731893549
5.269655303030303,0.0180413266181946,0.020358882236480698,0.24037688369751,0.728103731893549
5.270261363636364,0.420404607868195,-0.31015381307601897,0.09188567276000989,0.728103731893549
5.270867424242424,-0.0011188296318053901,-0.19758789510726898,0.18289641494751002,0.728103731893549
5.271473484848485,0.444354803180695,0.415537104892731,-0.08295075302124011,0.728103731893549
5.272079545454545,-0.281336114788055,-0.271833500576019,-0.27694733505249003,0.728103731893549
5.272685606060606,0.279098455524445,0.604743647861481,0.47508879776001,0.728103731893549
5.273291666666667,-0.0897345522880554,-0.298178715419769,-0.10211090927124,0.728103731893549
5.273897727272727,0.013251287555694598,-0.465830082607269,0.13260100479126,0.728103731893549
5.274503787878788,-0.08015447416305539,0.15687499551773101,0.13020598526001,0.728103731893549
5.275109848484848,-0.266965997600555,0.286206050205231,0.0751205360412599,0.728103731893549
5.275715909090909,-0.346001642131805,-0.31973389120101897,0.68824553604126,0.728103731893549
5.27632196969697,-0.190325372600555,-0.312548832607269,-0.37035309677124,0.728103731893549
5.27692803030303,0.298258611774445,0.451462397861481,-0.10211090927124,0.728103731893549
5.277534090909091,-0.226250665569305,-0.362844242763519,-0.08295075302124011,0.728103731893549
5.278140151515152,-0.0298590640068054,0.144899897861481,0.008059989166259942,0.728103731893549
5.278746212121212,0.212037908649445,-0.09939209432601931,0.20445159072876,0.728103731893549
5.279352272727273,-0.0657843569755554,-0.18321777791976898,-0.58590485458374,0.728103731893549
5.279958333333333,-0.789080255413055,-0.623901371669769,0.47029875869751,0.728103731893549
5.280564393939394,0.226408025836945,0.875380854892731,0.0823055946350099,0.728103731893549
5.281170454545455,0.152162420368195,-0.09939209432601931,-0.29850251083374,0.728103731893549
5.281776515151515,0.0419915219306946,-0.0706518599510193,-0.14282624130249,0.728103731893549
5.282382575757576,-0.611848810100555,-0.0898120162010193,-0.54997956161499,0.728103731893549
5.282988636363636,0.161742498493195,-0.482595219326019,0.65232024307251,0.728103731893549
5.283594696969697,-0.125659845256805,0.238305659580231,0.55651946182251,0.728103731893549
5.284200757575758,0.240778143024445,0.607138667392731,-0.36077301864624,0.728103731893549
5.284806818181818,0.197667791461945,0.00598876504898071,0.83673674697876,0.728103731893549
5.285412878787879,0.377294256305695,-0.0610717818260193,-0.58590485458374,0.728103731893549
5.286018939393939,-0.178350274944305,-1.03344971151352,0.41521330947876,0.728103731893549
5.286625,-0.460962579631805,0.21675048379898101,0.30025237197876,0.728103731893549
5.287231060606061,-0.039439142131805396,-0.317338871669769,-0.37753815536499,0.728103731893549
5.287837121212121,0.286283514118195,1.0741674759864799,1.18880461807251,0.728103731893549
5.288443181818182,-0.187930353069305,-0.09699707479476931,-0.04463044052124009,0.728103731893549
5.289049242424242,0.5928460141181949,-0.952019047451019,0.61399993057251,0.728103731893549
5.289655303030303,0.0156463070869446,-0.0203564497947693,0.10865080947875999,0.728103731893549
5.290261363636364,-0.195115411663055,0.140109858798981,-0.63141022567749,0.728103731893549
5.290867424242424,-0.381926935100555,-0.41074463338851896,0.10865080947875999,0.728103731893549
5.291473484848485,-0.00590886869430539,0.549658198642731,0.6211849891662601,0.728103731893549
5.292079545454545,0.286283514118195,0.393981929111481,-0.36077301864624,0.728103731893549
5.292685606060606,-0.343606622600555,-1.19631103963852,0.20684661026001,0.728103731893549
5.293291666666667,0.7341521664619449,0.631088862705231,-0.10929596786499,0.728103731893549
5.293897727272727,0.501835271930695,0.736469722080231,0.26193205947875997,0.728103731893549
5.294503787878788,-1.18665349760056,-0.908908695888519,0.15655120010376,0.728103731893549
5.295109848484849,-0.437012384319305,-0.966389164638519,-0.9571328819274899,0.728103731893549
5.295715909090909,1.10538019380569,1.59867675333023,0.74572600479126,0.728103731893549
5.29632196969697,-0.343606622600555,-0.736467289638519,-0.9954531944274899,0.728103731893549
5.29692803030303,0.583265935993195,0.511337886142731,-0.16198639755249,0.728103731893549
5.297534090909091,0.159347478961945,1.04542724161148,-0.17875153427124,0.728103731893549
5.298140151515151,-1.2489240054130601,-2.14713379354477,-0.5164492881774899,0.728103731893549
5.298746212121212,-0.7579450015068051,-0.872983402919769,1.2726303016662601,0.728103731893549
5.299352272727273,0.683856756305695,2.47046386270523,-0.31526764755249004,0.728103731893549
5.299958333333333,0.250358221149445,-0.762812504482269,-0.0613955772399901,0.728103731893549
5.300564393939394,1.25147638521194,0.734074702548981,-0.30089753036499,0.728103731893549
5.3011704545454545,-1.09324773588181,-0.916093754482269,-0.49728913192749,0.728103731893549
5.301776515151515,0.307838689899445,-0.530495609951019,0.0870956336975099,0.728103731893549
5.3023825757575755,-0.7004645327568051,-0.09220703573226931,0.44395354385375996,0.728103731893549
5.302988636363636,-0.0705743960380554,1.29690429239273,0.19966155166626,0.728103731893549
5.3035946969696965,0.286283514118195,0.250280757236481,0.8846371376037601,0.728103731893549
5.304200757575758,0.8730632992744449,-0.669406742763519,-0.23383698348999,0.728103731893549
5.3048068181818175,-0.252595880413055,-0.597556156826019,-0.19551667098998998,0.728103731893549
5.3054128787878785,-0.6597492007255551,0.12334472208023099,0.21642668838501,0.728103731893549
5.3060189393939385,-0.360371759319305,-0.0730468794822693,-0.80864167098999,0.728103731893549
5.306625,-0.017883966350555402,1.17954833536148,1.08581877822876,0.728103731893549
5.307231060606061,0.408429510211945,0.362846675205231,-0.25778717880249,0.728103731893549
5.3078371212121205,-0.108894708538055,-1.79746094198227,0.13499602432251,0.728103731893549
5.308443181818182,0.925753728961945,0.925676265048981,0.35294280166625996,0.728103731893549
5.309049242424242,0.391664373493195,1.14601806192398,0.0152450477600099,0.728103731893549
5.309655303030303,-1.21539373197556,-1.23223633260727,0.032010184478759904,0.728103731893549
5.310261363636364,-0.247805841350555,0.204775386142731,-0.74876618270874,0.728103731893549
5.310867424242424,0.394059393024445,1.05979735879898,0.33378264541625996,0.728103731893549
5.311473484848485,-0.5663434390068051,-1.7399804732322701,-0.45657379989624003,0.728103731893549
5.312079545454545,1.02155451021194,0.978366694736481,-0.34879792098999,0.728103731893549
5.312685606060606,1.1293303891181898,2.19743163614273,0.71698577041626,0.728103731893549
5.313291666666667,-1.68002752103806,-3.00934082479477,-0.13085114364623998,0.728103731893549
5.313897727272727,-0.729204767131805,-1.48610840291977,-0.62662018661499,0.728103731893549
5.314503787878788,0.686251775836945,3.10274901895523,0.64753020401001,0.728103731893549
5.315109848484848,-0.5615533999443051,-1.45257812948227,-0.7367910850524899,0.728103731893549
5.315715909090909,1.50774347505569,1.19152343301773,-0.12366608505249001,0.728103731893549
5.31632196969697,-0.42264226713180497,0.10657958536148099,0.18050139541626,0.728103731893549
5.31692803030303,-0.386716974163055,-1.6801049849510201,-0.49968415145874,0.728103731893549
5.317534090909091,-1.31119451322556,-0.961599125576019,0.35773284072876,0.728103731893549
5.318140151515152,0.7748674984931949,3.02131835489273,0.0559603797912599,0.728103731893549
5.318746212121212,-0.245410821819305,-0.432299809169769,0.9397225868225101,0.728103731893549
5.319352272727273,1.27063654146194,0.30776122598648104,-0.7535562217712399,0.728103731893549
5.319958333333333,-0.535208185100555,-1.22505127401352,-0.07816071395874011,0.728103731893549
5.320564393939394,-0.0035138491630553902,-0.355659184169769,-0.28892243270874,0.728103731893549
5.321170454545455,-0.489702814006805,0.11615966348648099,0.57567961807251,0.728103731893549
5.321776515151515,-0.353186700725555,1.53880126504898,0.83194670791626,0.728103731893549
5.322382575757576,0.341368963336945,0.537683100986481,0.10386077041625999,0.728103731893549
5.322988636363636,0.312628728961945,-1.72321533651352,0.19247649307251,0.728103731893549
5.323594696969697,0.743732244586945,-0.24309326620101898,-0.22665192489624,0.728103731893549
5.324200757575758,-0.415457208538055,1.13883300333023,-0.63859528427124,0.728103731893549
5.324806818181818,-0.7579450015068051,-0.750837406826019,-0.0422354209899901,0.728103731893549
5.325412878787879,0.286283514118195,0.39877196817398103,0.8032064735412601,0.728103731893549
5.326018939393939,-0.08015447416305539,0.896936030673981,-0.7535562217712399,1.5907702185889478
5.326625,-0.207090509319305,-2.15910889120102,0.6451351844787601,1.5907702185889478
5.327231060606061,1.37122736177444,0.676594233798981,1.02594328994751,1.5907702185889478
5.327837121212121,0.8562981625556949,3.05005858926773,-0.32963776473999,1.5907702185889478
5.328443181818182,-2.30512761869431,-2.88719482870102,-0.31287262802124,1.5907702185889478
5.329049242424242,-0.6573541811943051,-0.525705570888519,0.0487753211975099,1.5907702185889478
5.329655303030303,0.137792303180695,2.47285888223648,0.23319182510376002,1.5907702185889478
5.330261363636364,-0.130449884319305,-2.89198486776352,0.09667571182250989,1.5907702185889478
5.330867424242424,1.3855974789619399,1.70645263223648,-0.45417878036499004,1.5907702185889478
5.331473484848485,0.367714178180695,1.45497558145523,0.0559603797912599,1.5907702185889478
5.332079545454545,-0.616638849163055,-2.69559326620102,-0.31287262802124,1.5907702185889478
5.332685606060606,-1.80696355619431,-1.36875244588852,0.37689299697876,1.5907702185889478
5.333291666666667,1.37362238130569,3.80448974161148,0.41760832901001,1.5907702185889478
5.333897727272727,-0.386716974163055,-1.80704102010727,-0.7727163780212399,1.5907702185889478
5.334503787878788,1.51492853364944,1.31606444864273,-0.45178376083374,1.5907702185889478
5.335109848484849,-0.472937677288055,-0.444274906826019,-0.15959137802124,1.5907702185889478
5.335715909090909,-0.0897345522880554,-1.60106934041977,-0.31047760848999,1.5907702185889478
5.33632196969697,-0.9998419741630551,-0.508940434169769,0.039195243072509905,1.5907702185889478
5.33692803030303,0.0395965023994446,2.81295165567398,0.6235800086975101,1.5907702185889478
5.337534090909091,0.09707697114944461,-0.293388676357269,0.5062240516662599,1.5907702185889478
5.338140151515151,0.568895818805695,-1.04542480916977,-0.38232819442749,1.5907702185889478
5.338746212121212,0.00846124849319461,-0.362844242763519,-0.34161286239624,1.5907702185889478
5.339352272727273,0.0156463070869446,-0.09220703573226931,-0.27934235458374,1.5907702185889478
5.339958333333333,-0.5376032046318051,-0.24309326620101898,0.71698577041626,1.5907702185889478
5.340564393939394,-0.0705743960380554,1.75914306192398,0.51101409072876,1.5907702185889478
5.341170454545455,-0.386716974163055,0.11615966348648099,-0.0709756553649901,1.5907702185889478
5.341776515151515,0.432379705524445,-2.00103760213852,0.0224301063537599,1.5907702185889478
5.342382575757576,0.5928460141181949,-0.211958012294769,-0.0973208702087401,1.5907702185889478
5.342988636363636,0.358134100055695,2.06810058145523,0.22121672744751,1.5907702185889478
5.343594696969697,-1.47405584135056,-2.40100586385727,-0.86372712020874,1.5907702185889478
5.3442007575757575,-0.0705743960380554,0.760419917392731,-0.47812897567749,1.5907702185889478
5.344806818181818,-0.137634942913055,2.06331054239273,0.82955168838501,1.5907702185889478
5.345412878787879,-0.0226740054130554,-3.19136230916977,-0.20509674911498998,1.5907702185889478
5.346018939393939,1.8598113461494399,0.856220698642731,0.41521330947876,1.5907702185889478
5.3466249999999995,0.123422185993195,1.91960937051773,-0.44699372177124,1.5907702185889478
5.347231060606061,-1.16988836088181,-2.60458252401352,-0.19791169052124,1.5907702185889478
5.347837121212121,-1.21299871244431,-0.106577152919769,1.8330648719787601,1.5907702185889478
5.3484431818181815,0.923358709430695,3.64881347208023,-0.22425690536499,1.5907702185889478
5.3490492424242415,-0.6669342593193051,-3.24884277791977,0.19247649307251,1.5907702185889478
5.349655303030303,1.79514581880569,1.86931396036148,-0.00152008895874006,1.5907702185889478
5.350261363636364,-0.140029962444305,0.0658642533302307,-0.73918610458374,1.5907702185889478
5.3508674242424235,-0.5471832827568051,-2.00103760213852,0.0679354774475099,1.5907702185889478
5.351473484848485,-1.16030828275681,-0.403559574794769,0.69303557510376,1.5907702185889478
5.352079545454546,0.647931463336945,3.02610839395523,0.36970793838501,1.5907702185889478
5.352685606060606,-0.444197442913055,-1.52442871541977,-0.22425690536499,1.5907702185889478
5.353291666666667,1.00718439302444,-0.355659184169769,-0.64338532333374,1.5907702185889478
5.353897727272727,0.5928460141181949,0.264650874423981,-0.13085114364623998,1.5907702185889478
5.354503787878788,-1.08845769681931,-0.916093754482269,-0.43501862411499004,1.5907702185889478
5.355109848484848,-1.23455388822556,-0.520915531826019,-0.32963776473999,1.5907702185889478
5.355715909090909,0.7341521664619449,3.16022948770523,1.43788664932251,1.5907702185889478
5.35632196969697,-0.6381940249443051,-0.856218266201019,-0.36077301864624,1.5907702185889478
5.35692803030303,1.14849054536819,-1.31845703573227,0.0727255165100099,1.5907702185889478
5.357534090909091,0.901803533649445,0.444277339267731,-0.0973208702087401,1.5907702185889478
5.358140151515151,-0.674119317913055,0.446672358798981,-1.01940338973999,1.5907702185889478
5.358746212121212,-1.56267156400681,-2.42016602010727,1.26305022354126,1.5907702185889478
5.359352272727273,0.365319158649445,3.0907739212989798,0.54693938369751,1.5907702185889478
5.359958333333333,-0.6597492007255551,0.827480464267731,0.0296151649475099,1.5907702185889478
5.360564393939394,1.08382501802444,-2.32915527791977,-0.059000557708740096,1.5907702185889478
5.361170454545455,-0.020278985881805402,0.259860835361481,0.0224301063537599,1.5907702185889478
5.361776515151515,0.6503264828681949,1.26097899942398,0.36252287979125997,1.5907702185889478
5.362382575757576,-1.10522283353806,-2.06809814901352,-0.36556305770874004,1.5907702185889478
5.362988636363636,-1.35909490385056,0.566423335361481,-0.15240631942749,1.5907702185889478
5.363594696969697,0.8539031430244449,3.15543944864273,1.10258391494751,1.5907702185889478
5.364200757575758,-0.5591583804130551,-3.47876465291977,-0.6769155967712399,1.5907702185889478
5.364806818181818,1.66581476411819,1.33522460489273,-0.39190827255249,1.5907702185889478
5.365412878787879,-0.7579450015068051,0.552053218173981,-0.08774079208374011,1.5907702185889478
5.366018939393939,-0.192720392131805,-1.69926514120102,-0.84696198348999,1.5907702185889478
5.366625,-1.1938385561943101,0.350871577548981,1.3492709266662601,1.5907702185889478
5.367231060606061,0.374899236774445,3.20094481973648,-0.16438141708374,1.5907702185889478
5.367837121212121,-0.336421564006805,-2.77462891073227,0.41281828994750996,1.5907702185889478
5.368443181818182,1.00239435396194,0.868195796298981,-0.5547696006774899,1.5907702185889478
5.369049242424242,0.741337225055695,0.609533686923981,0.0224301063537599,1.5907702185889478
5.369655303030303,-1.31598455228806,-2.08965332479477,0.0463803016662599,1.5907702185889478
5.370261363636364,-0.932781427288055,-0.130527348232269,-0.69128571395874,1.5907702185889478
5.370867424242424,0.767682439899445,3.08598388223648,0.9037972938537601,1.5907702185889478
5.371473484848485,-1.14114812650681,-1.67052490682602,-0.11169098739624,1.5907702185889478
5.372079545454545,1.51253351411819,-0.17842773885726898,-0.35598297958374003,1.5907702185889478
5.372685606060606,1.02155451021194,1.56993651895523,0.79123137588501,1.5907702185889478
5.373291666666667,-1.65368230619431,-1.96032227010727,-0.5547696006774899,1.5907702185889478
5.373897727272727,-1.18186345853806,-2.78420898885727,-1.30920075302124,1.5907702185889478
5.374503787878788,1.11975031099319,5.33251220254898,1.77558440322876,1.5907702185889478
5.375109848484848,-1.2537140444755601,-0.999919438076019,-0.70326081161499,1.5907702185889478
5.375715909090909,2.03464777193069,-1.50526855916977,0.39605315322876,1.5907702185889478
5.37632196969697,0.130607244586945,0.647853999423981,0.19966155166626,1.5907702185889478
5.37692803030303,-0.228645685100555,-0.293388676357269,-1.29243561630249,1.5907702185889478
5.377534090909091,-1.41897039213181,-2.42495605916977,1.03073332901001,1.5907702185889478
5.378140151515152,0.154557439899445,2.98299804239273,0.16373625869751002,1.5907702185889478
5.378746212121212,0.667091619586945,1.52443114786148,0.5828646766662601,1.5907702185889478
5.379352272727273,0.101867010211945,-2.98299560995102,-0.41346344833374,1.5907702185889478
5.379958333333333,0.7724724789619449,0.441882319736481,-0.0733706748962401,1.5907702185889478
5.380564393939394,0.384479314899445,0.23112060098648102,-0.50686921005249,1.5907702185889478
5.381170454545455,-0.6645392397880551,-1.39030762166977,-0.15719635848999,1.5907702185889478
5.381776515151515,-0.9423615054130551,0.595163569736481,0.40563323135376,1.5907702185889478
5.382382575757576,0.647931463336945,3.30872069864273,0.29546233291626,1.5907702185889478
5.382988636363636,-0.432222345256805,-3.52666504354477,-0.6553604209899899,1.5907702185889478
5.383594696969697,1.6801848813056899,0.12334472208023099,-0.36077301864624,1.5907702185889478
5.384200757575758,-0.415457208538055,1.65855224161148,-0.79906159286499,1.5907702185889478
5.384806818181818,-1.0525324038505601,-1.93158203573227,-0.39909333114624,1.5907702185889478
5.3854128787878786,-0.254990899944305,-0.23830322713851898,1.5288973915100101,1.5907702185889478
5.386018939393939,0.216827947711945,2.62853515176773,-0.8517520225524899,1.5907702185889478
5.386625,-0.731599786663055,-2.83929443807602,0.70980071182251,1.5907702185889478
5.3872310606060605,1.82867609224319,0.549658198642731,0.0655404579162599,1.5907702185889478
5.3878371212121206,0.7700774594306949,2.39861327676773,-0.70565583114624,1.5907702185889478
5.388443181818182,-1.88360418119431,-2.91114502401352,-0.32724274520874,1.5907702185889478
5.389049242424242,-0.250200860881805,-0.963994145107269,-0.52602936630249,1.5907702185889478
5.3896553030303025,0.281493475055695,5.06906005411148,0.6451351844787601,1.5907702185889478
5.390261363636364,-1.13875310697556,-2.43693115682602,0.6595053016662601,1.5907702185889478
5.390867424242424,2.18313898286819,0.0155688431739807,-0.39669831161499003,1.5907702185889478
5.391473484848485,-0.0514142397880554,1.36875487833023,0.41281828994750996,1.5907702185889478
5.3920795454545445,-0.6381940249443051,-1.91481689901352,-0.5116592491149901,1.5907702185889478
5.392685606060606,-1.6512872866630601,-2.56865723104477,-0.72002594833374,1.5907702185889478
5.393291666666667,1.09819513521194,5.33251220254898,1.7133138954162601,1.5907702185889478
5.393897727272727,-0.796265314006805,-0.568815922451019,-0.6960757530212399,1.5907702185889478
5.394503787878788,0.9377288266181949,-1.81901611776352,-0.22186188583374,1.5907702185889478
5.395109848484848,0.6359563656806949,0.827480464267731,0.0775155555725099,1.5907702185889478
5.395715909090909,-0.104104669475555,-0.904118656826019,-0.5547696006774899,1.5907702185889478
5.39632196969697,-1.29682439603806,-1.59148926229477,0.29067229385376,1.5907702185889478
5.39692803030303,-0.314866388225555,2.48483397989273,0.13499602432251,1.5907702185889478
5.397534090909091,0.429984685993195,1.99864501504898,0.63795012588501,1.5907702185889478
5.398140151515152,-0.178350274944305,-2.86563965291977,-0.9571328819274899,1.5907702185889478
5.398746212121212,0.861088201618195,0.374821772861481,-0.65057038192749,1.5907702185889478
5.399352272727273,0.0731267758369446,1.39749511270523,-0.14761628036499,1.5907702185889478
5.399958333333333,-0.769920099163055,-1.64178467245102,0.53496428604126,1.5907702185889478
5.400564393939394,-0.6621442202568051,0.470622554111481,0.36252287979125997,1.5907702185889478
5.401170454545455,0.0635466977119446,2.86085204629898,0.36731291885376,1.5907702185889478
5.401776515151515,-0.420247247600555,-3.00694580526352,0.039195243072509905,1.5907702185889478
5.402382575757576,1.43349786958694,0.504152827548981,-0.70805085067749,1.5907702185889478
5.402988636363636,0.0372014828681946,2.68841064004898,-0.20030671005248998,1.5907702185889478
5.403594696969697,-1.17946843900681,-3.50271484823227,-0.64578034286499,1.5907702185889478
5.404200757575758,-0.0106989077568054,0.0586791947364807,0.6044198524475101,1.5907702185889478
5.404806818181818,-0.0873395327568054,4.71220214395523,0.69064055557251,1.5907702185889478
5.405412878787879,-0.377136896038055,-3.40451904745102,0.78883635635376,1.5907702185889478
5.406018939393939,2.19032404146194,0.336501460361481,0.41760832901001,1.5907702185889478
5.406625,-0.535208185100555,1.4932958939552299,-0.00631012802124006,1.5907702185889478
5.407231060606061,-0.848955743694305,-2.99497070760727,-0.22665192489624,1.5907702185889478
5.407837121212121,-1.39741521635056,-0.465830082607269,-0.34879792098999,1.5907702185889478
5.408443181818182,0.7317571469306949,5.44268310098648,0.9636727821350101,1.5907702185889478
5.409049242424242,-0.808240411663055,-3.00934082479477,0.55651946182251,1.5907702185889478
5.409655303030303,1.53648370943069,-0.307758793544769,-0.23862702255249,1.5907702185889478
5.410261363636364,0.319813787555695,0.798740229892731,-0.29610749130249003,1.5907702185889478
5.410867424242424,-0.652564142131805,-1.44778809041977,-0.57153473739624,1.5907702185889478
5.411473484848485,-1.24652898588181,-1.62980957479477,0.63076506729126,1.5907702185889478
5.412079545454545,0.252753240680695,3.64162841348648,0.9421176063537601,1.5907702185889478
5.412685606060606,-0.401087091350555,0.0586791947364807,-0.36316803817749,1.5907702185889478
5.413291666666667,0.350949041461945,-2.66685303182602,-0.46854889755249,1.5907702185889478
5.413897727272727,1.1628606625556899,0.916096186923981,-0.20509674911498998,1.5907702185889478
5.414503787878788,-0.460962579631805,0.41793212442398103,-0.21467682723999,1.5907702185889478
5.415109848484848,-1.18186345853806,-2.31957519979477,0.0727255165100099,1.5907702185889478
5.415715909090909,0.00367120943069461,1.81422851114273,1.00678313369751,1.5907702185889478
5.41632196969697,-0.403482110881805,1.9124243119239799,-0.00152008895874006,1.5907702185889478
5.41692803030303,0.214432928180695,-2.64529785604477,-0.64817536239624,1.5907702185889478
5.417534090909091,1.62988947114944,0.700544429111481,-0.0709756553649901,1.5907702185889478
5.418140151515152,-0.437012384319305,2.12558105020523,-1.00503327255249,1.5907702185889478
5.418746212121212,-1.44771062650681,-4.33139160604477,0.5205941688537601,1.5907702185889478
5.419352272727273,0.0946819516181946,1.18912841348648,0.83673674697876,1.5907702185889478
5.419958333333333,-0.465752618694305,4.28349364786148,0.39605315322876,1.5907702185889478
5.420564393939394,0.861088201618195,-3.27518799276352,0.36731291885376,1.5907702185889478
5.421170454545455,1.12214533052444,0.571213374423981,-1.11280915145874,1.5907702185889478
5.421776515151515,-0.377136896038055,0.765209956455231,-0.21946686630249,1.5907702185889478
5.422382575757576,-0.5423932436943051,-3.26800293416977,-0.67931061630249,1.5907702185889478
5.422988636363636,-1.3519098452568101,0.0155688431739807,0.31222746963500997,1.5907702185889478
5.423594696969697,0.7916326352119449,5.31814208536148,1.4307015907287601,1.5907702185889478
5.424200757575758,-0.551973321819305,-3.56738037557602,-0.051815499114990095,1.5907702185889478
5.424806818181818,2.0250676938056897,0.11855468301773099,-0.10450592880249,1.5907702185889478
5.425412878787879,-0.729204767131805,0.518522944736481,0.11104582901000999,1.5907702185889478
5.426018939393939,0.310233709430695,-1.94834717245102,-0.60985504989624,0.5429247902498299
5.426625,-0.6813043765068051,-0.044306645107269296,0.060750418853759904,0.5429247902498299
5.427231060606061,0.142582342243195,4.19487792520523,0.77686125869751,0.5429247902498299
5.427837121212121,-0.463357599163055,-1.95792725057602,0.21163664932251,0.5429247902498299
5.4284431818181815,0.6191912289619449,-1.46455322713852,-0.62183014755249,0.5429247902498299
5.429049242424242,1.73048029146194,1.20828856973648,0.0224301063537599,0.5429247902498299
5.429655303030303,-0.484912774944305,-0.573605961513519,0.16134123916626,0.5429247902498299
5.4302613636363635,-1.46447576322556,-1.72561035604477,-0.71044587020874,0.5429247902498299
5.4308674242424235,0.7988176938056949,2.47525390176773,0.47748381729126,0.5429247902498299
5.431473484848485,-1.03576726713181,0.379611811923981,-0.08295075302124011,0.5429247902498299
5.432079545454545,0.5186004086494449,-2.19263916463852,-0.90683747177124,0.5429247902498299
5.4326856060606055,1.83346613130569,1.82859862833023,0.97325286026001,0.5429247902498299
5.433291666666667,-1.36148992338181,0.578398433017731,-0.5763247764587399,0.5429247902498299
5.433897727272727,-1.0261871890068102,-5.24868408651352,-1.02179840927124,0.5429247902498299
5.434503787878788,0.602426092243195,2.82971679239273,1.77558440322876,0.5429247902498299
5.435109848484849,-1.14114812650681,2.96383788614273,-0.25060212020874,0.5429247902498299
5.435715909090909,1.65144464693069,-2.82013428182602,-0.47812897567749,0.5429247902498299
5.43632196969697,1.12214533052444,0.997526850986481,-0.28892243270874,0.5429247902498299
5.43692803030303,-1.28963933744431,0.587978511142731,-1.89598053817749,0.5429247902498299
5.437534090909091,-0.609453790569305,-4.02003906698227,1.02115325088501,0.5429247902498299
5.438140151515152,-0.590293634319305,1.47653075723648,1.2295199501037601,0.5429247902498299
5.438746212121212,0.389269353961945,4.31462890176773,0.34336272354125996,0.5429247902498299
5.439352272727273,0.235988103961945,-3.64402100057602,0.32420256729125996,0.5429247902498299
5.439958333333333,0.887433416461945,0.360451655673981,-0.98108307723999,0.5429247902498299
5.440564393939394,0.0443865414619446,-0.312548832607269,-0.35358796005249,0.5429247902498299
5.441170454545455,-0.0106989077568054,-1.84775635213852,-0.0709756553649901,0.5429247902498299
5.441776515151515,-1.30640447416306,0.916096186923981,0.16613127822876,0.5429247902498299
5.442382575757576,0.544945623493195,4.62837646036148,1.09060881729126,0.5429247902498299
5.442988636363636,-0.530418146038055,-2.88719482870102,-0.36077301864624,0.5429247902498299
5.443594696969697,1.23710626802444,-1.68250000448227,0.16134123916626,0.5429247902498299
5.444200757575758,0.662301580524445,1.77590819864273,-0.52123932723999,0.5429247902498299
5.444806818181818,-1.04295232572556,-1.05021484823227,-0.82540680770874,0.5429247902498299
5.445412878787879,-0.7028595522880551,-1.16517578573227,1.33490080947876,0.5429247902498299
5.446018939393939,0.784447576618195,3.25842528848648,-0.58350983505249,0.5429247902498299
5.446625,-1.2872443179130602,-1.68250000448227,0.15415618057251002,0.5429247902498299
5.447231060606061,1.18202081880569,-1.60585937948227,0.24995696182251,0.5429247902498299
5.447837121212121,1.3472771664619398,3.11711913614273,-0.28652741317749003,0.5429247902498299
5.448443181818182,-1.1938385561943101,-0.408349613857269,-0.0685806358337401,0.5429247902498299
5.449049242424242,-1.08366765775681,-4.26912109823227,-0.28652741317749003,0.5429247902498299
5.449655303030303,0.470700018024445,3.33267089395523,0.38168303604125997,0.5429247902498299
5.450261363636364,-1.48363591947556,1.12925292520523,0.7624911415100101,0.5429247902498299
5.450867424242424,1.73766535005569,-2.34113037557602,-0.70326081161499,0.5429247902498299
5.451473484848485,1.18681085786819,2.23575194864273,0.16852629776001002,0.5429247902498299
5.452079545454545,-1.5267462710380602,-0.152082524013519,-0.6936807334899899,0.5429247902498299
5.452685606060606,-0.5807135561943051,-4.53736328573227,-1.3020156944274899,0.5429247902498299
5.453291666666667,-0.243015802288055,3.37817626504898,2.01987639541626,0.5429247902498299
5.453897727272727,-0.405877130413055,2.94467772989273,-0.25060212020874,0.5429247902498299
5.454503787878788,0.8562981625556949,-2.89437988729477,0.0751205360412599,0.5429247902498299
5.455109848484849,0.841928045368195,1.0741674759864799,-0.6529654014587399,0.5429247902498299
5.455715909090909,-0.870510919475555,-1.02386963338852,-1.0625137413024899,0.5429247902498299
5.45632196969697,-0.08254949369430539,-2.80097412557602,0.44395354385375996,0.5429247902498299
5.45692803030303,-0.448987481975555,2.03936034708023,0.27869719619751,0.5429247902498299
5.457534090909091,0.231198064899445,3.83083495645523,0.93253752822876,0.5429247902498299
5.458140151515151,-0.195115411663055,-3.04526611776352,-0.20988678817748999,0.5429247902498299
5.458746212121212,0.6335613461494449,-0.952019047451019,-0.6745205772399899,0.5429247902498299
5.459352272727273,0.35573908052444503,1.15559814004898,0.11344084854125999,0.5429247902498299
5.459958333333333,-0.5974786929130551,-0.932858891201019,-0.33203278427124,0.5429247902498299
5.460564393939394,-0.290916192913055,-0.281413578701019,-0.11648102645874,0.5429247902498299
5.461170454545455,0.5952410336494449,3.68713378458023,1.36364104385376,0.5429247902498299
5.461776515151515,-1.34232976713181,-2.71235840291977,-0.78229645614624,0.5429247902498299
5.462382575757576,1.16046564302444,-1.59627930135727,0.17810637588501002,0.5429247902498299
5.462988636363636,1.07903497896194,3.00934325723648,0.25714202041626,0.5429247902498299
5.463594696969697,-1.1339630679130601,-1.32324707479477,-1.4648770225524899,0.5429247902498299
5.464200757575758,-0.848955743694305,-2.56626221151352,0.59723479385376,0.5429247902498299
5.464806818181818,0.257543279743195,4.43437987833023,-0.19551667098998998,0.5429247902498299
5.465412878787879,-1.13156804838181,-0.978364262294769,0.7816512977600101,0.5429247902498299
5.466018939393939,2.18313898286819,-2.20940430135727,0.67148039932251,0.5429247902498299
5.466625,0.645536443805695,2.7913964798927298,0.00087493057250994,0.5429247902498299
5.467231060606061,-1.14833318510056,-1.27534668416977,-0.0398404014587401,0.5429247902498299
5.467837121212121,-0.5663434390068051,-3.05005615682602,-0.53081940536499,0.5429247902498299
5.468443181818182,-0.142424981975555,3.59851806192398,1.22472991104126,0.5429247902498299
5.469049242424242,-0.441802423381805,1.0142919877052299,1.00438811416626,0.5429247902498299
5.469655303030303,1.15088556489944,-2.14952881307602,-0.6170401084899899,0.5429247902498299
5.470261363636364,1.03831964693069,2.03936034708023,-0.30568756942749004,0.5429247902498299
5.470867424242424,-1.35669988431931,-1.34001221151352,-0.9930581748962399,0.5429247902498299
5.4714734848484845,0.180902654743195,-2.85845459432602,-0.23144196395873998,0.5429247902498299
5.472079545454546,-0.034649103069305395,3.30153564004898,1.59835295791626,0.5429247902498299
5.472685606060606,-0.573528497600555,2.21659179239273,-0.28892243270874,0.5429247902498299
5.473291666666666,0.5593157406806949,-3.04526611776352,0.49664397354126,0.5429247902498299
5.4738977272727265,1.13412042818069,0.16645507364273102,-0.86133210067749,0.5429247902498299
5.474503787878788,-0.216670587444305,0.247885737705231,-0.48052399520874,0.5429247902498299
5.475109848484848,-0.710044610881805,-2.32915527791977,0.45592864151001,0.5429247902498299
5.475715909090909,0.152162420368195,1.78788329629898,-0.12366608505249001,0.5429247902498299
5.47632196969697,-0.195115411663055,2.98539306192398,1.2079647743225101,0.5429247902498299
5.47692803030303,-0.417852228069305,-2.70517334432602,-0.41825348739624,0.5429247902498299
5.477534090909091,1.29458673677444,-1.07895508260727,-0.22904694442749,0.5429247902498299
5.478140151515151,0.6335613461494449,2.20461669473648,-0.0422354209899901,0.5429247902498299
5.478746212121212,-1.50279607572556,-2.22137939901352,-0.6745205772399899,0.5429247902498299
5.479352272727273,0.00606622896194461,-0.865798344326019,0.38647307510376,0.5429247902498299
5.479958333333333,-0.039439142131805396,5.40915282754898,1.44507170791626,0.5429247902498299
5.480564393939394,-0.669329278850555,-2.71475342245102,-0.48052399520874,0.5429247902498299
5.481170454545455,1.76401056489944,-2.00103760213852,-0.13085114364623998,0.5429247902498299
5.481776515151515,-0.0035138491630553902,2.25491210489273,0.42239836807250997,0.5429247902498299
5.482382575757576,0.171322576618195,-1.45257812948227,-1.44092682723999,0.5429247902498299
5.482988636363636,-1.08845769681931,-2.19024414510727,0.82715666885376,0.5429247902498299
5.483594696969697,0.259938299274445,4.42000976114273,0.80799651260376,0.5429247902498299
5.484200757575758,-0.381926935100555,-0.628691410732269,0.5062240516662599,0.5429247902498299
5.484806818181818,1.11256525239944,-2.13036865682602,-0.25778717880249,0.5429247902498299
5.485412878787879,0.0731267758369446,2.04654540567398,-0.74397614364624,0.5429247902498299
5.486018939393939,-0.508862970256805,-1.74237549276352,-0.28892243270874,0.5429247902498299
5.486625,0.274308416461945,-1.61064941854477,0.0799105751037599,0.5429247902498299
5.487231060606061,-0.6789093569755551,3.3901513627052298,0.7433309852600101,0.5429247902498299
5.487837121212121,-0.8058453921318051,0.693359370517731,0.59723479385376,0.5429247902498299
5.488443181818182,0.281493475055695,-2.03456787557602,-0.30808258895874,0.5429247902498299
5.489049242424242,1.4454729672431899,1.52922118692398,-0.21228180770874,0.5429247902498299
5.489655303030303,-0.7795001772880551,-0.621506352138519,-0.0733706748962401,0.5429247902498299
5.490261363636364,-1.03337224760056,-2.77941894979477,-0.90204743270874,0.5429247902498299
5.490867424242424,0.585660955524445,2.75068114786148,1.01396819229126,0.5429247902498299
5.491473484848485,-1.10522283353806,1.85494384317398,-0.17396149520874,0.5429247902498299
5.492079545454545,-0.195115411663055,-2.19982422323227,-0.10211090927124,0.5429247902498299
5.492685606060606,2.03464777193069,1.0741674759864799,0.62597502822876,0.5429247902498299
5.493291666666667,-0.8824860171318051,0.23112060098648102,-0.46615387802124003,0.5429247902498299
5.493897727272727,-1.32795964994431,-4.27391113729477,-0.90683747177124,0.5429247902498299
5.494503787878788,0.9712591000556949,1.58191161661148,0.00326995010375994,0.5429247902498299
5.495109848484848,-0.774710138225555,5.06906005411148,1.31334563369751,0.5429247902498299
5.495715909090909,-0.0681793765068054,-2.39142578573227,0.28827727432251,0.5429247902498299
5.49632196969697,1.52450861177444,-1.27055664510727,0.18289641494751002,0.5429247902498299
5.49692803030303,-0.707649591350555,1.28253417520523,-0.90683747177124,0.5429247902498299
5.497534090909091,-0.6836993960380551,-2.46567139120102,0.51101409072876,0.5429247902498299
5.498140151515152,-0.712439630413055,-0.518520512294769,0.64992522354126,0.5429247902498299
5.498746212121212,0.0946819516181946,4.95888915567398,0.72656584854126,0.5429247902498299
5.499352272727273,-0.0562042788505554,-1.59388428182602,0.37210295791625997,0.5429247902498299
5.499958333333333,0.477885076618195,-2.07528320760727,-0.86612213973999,0.5429247902498299
5.500564393939394,0.264728338336945,1.29690429239273,-0.25060212020874,0.5429247902498299
5.501170454545455,-0.0442291811943054,-1.28732178182602,-0.80385163192749,0.5429247902498299
5.501776515151515,-0.587898614788055,-1.03823975057602,0.59723479385376,0.5429247902498299
5.502382575757576,0.204852850055695,3.54343261270523,0.93014250869751,0.5429247902498299
5.502988636363636,-0.8010553530693051,-0.530495609951019,0.17571135635376,0.5429247902498299
5.503594696969697,0.667091619586945,-2.68361816854477,-0.04463044052124009,0.5429247902498299
5.504200757575758,1.17244074068069,2.09444579629898,-0.72002594833374,0.5429247902498299
5.504806818181818,-1.44771062650681,-0.461040043544769,-0.7343960655212399,0.5429247902498299
5.505412878787879,-0.108894708538055,-2.33394531698227,0.81039153213501,0.5429247902498299
5.506018939393939,0.8371380063056949,2.29802245645523,0.50382903213501,0.5429247902498299
5.506625,-1.42615545072556,0.33889647989273103,0.17092131729126,0.5429247902498299
5.507231060606061,0.9784441586494449,-1.82620117635727,0.42000334854126,0.5429247902498299
5.507837121212121,1.95321710786819,2.93988769083023,-0.72960602645874,0.5429247902498299
5.508443181818182,-1.88839422025681,-0.705332035732269,-0.34161286239624,0.5429247902498299
5.509049242424242,-0.587898614788055,-4.79123535604477,-0.34640290145874003,0.5429247902498299
5.509655303030303,1.0119744320869402,2.56865966348648,-0.0973208702087401,0.5429247902498299
5.5102613636363635,-1.44292058744431,3.48355712442398,0.40802825088501,0.5429247902498299
5.510867424242424,1.1245403500556899,-2.05133301229477,0.19008147354126,0.5429247902498299
5.511473484848485,1.45505304536819,0.849035640048981,0.33857268447876,0.5429247902498299
5.512079545454545,-1.5267462710380602,-0.453854984951019,-0.16917145614624,0.5429247902498299
5.5126856060606055,-0.480122735881805,-4.17332031698227,-1.15591950302124,0.5429247902498299
5.513291666666667,0.0300164242744446,2.15671630411148,0.69064055557251,0.5429247902498299
5.513897727272727,-0.432222345256805,4.24756835489273,1.41154143447876,0.5429247902498299
5.5145037878787875,0.245568182086945,-2.01540771932602,-0.38951325302124,0.5429247902498299
5.5151098484848475,0.425194646930695,-1.22026123495102,-0.22665192489624,0.5429247902498299
5.515715909090909,0.0635466977119446,-0.0203564497947693,-0.5954849327087399,0.5429247902498299
5.51632196969697,0.0803118344306946,-2.03456787557602,-0.0278653038024901,0.5429247902498299
5.5169280303030295,-0.456172540569305,0.817900386142731,0.8391317665100101,0.5429247902498299
5.517534090909091,-0.034649103069305395,3.56259276895523,0.6211849891662601,0.5429247902498299
5.518140151515152,-0.377136896038055,-0.928068852138519,-0.008705147552490059,0.5429247902498299
5.518746212121212,-0.293311212444305,-2.19742920370102,-1.0673037803649899,0.5429247902498299
5.519352272727273,1.14370050630569,1.56275146036148,0.37449797744750996,0.5429247902498299
5.519958333333333,-0.312471368694305,-0.0778369185447693,-0.44938874130249,0.5429247902498299
5.520564393939394,0.209642889118195,-1.29450684041977,-0.14043122177123998,0.5429247902498299
5.521170454545455,0.231198064899445,2.23814696817398,1.94084075088501,0.5429247902498299
5.521776515151515,-0.992656915569305,-0.11855225057601901,-0.25060212020874,0.5429247902498299
5.522382575757576,1.0814299984931899,-2.44411621541977,0.0200350868225099,0.5429247902498299
5.522988636363636,0.904198553180695,3.15543944864273,0.039195243072509905,0.5429247902498299
5.523594696969697,-1.2321588686943101,-0.31015381307601897,-1.55349274520874,0.5429247902498299
5.524200757575758,0.243173162555695,-4.21403564901352,0.11583586807250999,0.5429247902498299
5.524806818181818,0.5162053891181949,3.12190917520523,1.07863371963501,0.5429247902498299
5.525412878787879,-1.42376043119431,1.25858397989273,0.35533782119751,0.5429247902498299
5.526018939393939,1.55803888521194,-2.18066406698227,0.63076506729126,0.9815894192852092
5.526625,1.36643732271194,2.29802245645523,-0.44699372177124,0.9815894192852092
5.527231060606061,-2.13747625150681,-1.31127197713852,-0.36795807723999,0.9815894192852092
5.527837121212121,-0.144820001506805,-3.71587158651352,0.30025237197876,0.9815894192852092
5.528443181818182,0.861088201618195,2.82013671426773,0.15415618057251002,0.9815894192852092
5.529049242424242,-0.9854718569755551,2.80337157754898,1.0546835243225101,0.9815894192852092
5.529655303030303,0.7700774594306949,-1.81422607870102,-0.08055573348999011,0.9815894192852092
5.530261363636364,0.808397771930695,0.0347289994239807,-0.0326553428649901,0.9815894192852092
5.530867424242424,-0.870510919475555,-0.949624027919769,-0.36795807723999,0.9815894192852092
5.531473484848485,0.0898919125556946,-2.84887451620102,-0.37753815536499,0.9815894192852092
5.532079545454545,0.200062810993195,2.16390136270523,0.8822421180725101,0.9815894192852092
5.532685606060606,-0.367556817913055,2.77463134317398,0.28588225479126,0.9815894192852092
5.533291666666667,-0.163980157756805,-2.06570312948227,0.0152450477600099,0.9815894192852092
5.533897727272727,0.6000310727119449,-1.35677734823227,-0.42064850692749,0.9815894192852092
5.534503787878788,0.458724920368195,1.18194335489273,-0.43022858505249,0.9815894192852092
5.535109848484848,-0.494492853069305,-1.43820801229477,0.29785735244751,0.9815894192852092
5.535715909090909,0.528180486774445,0.413142085361481,0.37928801651001,0.9815894192852092
5.53632196969697,-0.214275567913055,2.34592284708023,0.36970793838501,0.9815894192852092
5.53692803030303,-0.528023126506805,-0.676591801357269,0.21642668838501,0.9815894192852092
5.537534090909091,0.449144842243195,-1.89326172323227,-0.5930899131774899,0.9815894192852092
5.538140151515152,1.0263445492744399,2.55428954629898,0.036800223541259905,0.9815894192852092
5.538746212121212,-1.72553289213181,-0.805922856044769,-0.45896881942749,0.9815894192852092
5.539352272727273,0.053966619586944604,-2.98299560995102,-0.5164492881774899,0.9815894192852092
5.539958333333333,0.336578924274445,3.61049315958023,1.6103280555725101,0.9815894192852092
5.540564393939394,-0.9040411929130551,0.633483882236481,-0.24102204208373998,0.9815894192852092
5.541170454545455,1.2490813656806898,-2.46806641073227,-0.16917145614624,0.9815894192852092
5.541776515151515,0.7197820492744449,2.52794433145523,-0.00391510848999006,0.9815894192852092
5.542382575757576,-1.55069646635056,-1.17475586385727,-1.60378815536499,0.9815894192852092
5.542988636363636,0.231198064899445,-3.25363281698227,0.48706389541626,0.9815894192852092
5.543594696969697,0.7389422055244449,3.28477050333023,0.7026156532287601,0.9815894192852092
5.544200757575758,-1.04055730619431,1.39749511270523,0.35294280166625996,0.9815894192852092
5.544806818181818,1.22992120943069,-1.90044678182602,0.61160491104126,0.9815894192852092
5.545412878787879,0.437169744586945,0.918491206455231,-0.57871979598999,0.9815894192852092
5.546018939393939,-0.8369806460380551,-1.34959228963852,-0.57153473739624,0.9815894192852092
5.546625,0.520995428180695,-2.24053955526352,-0.32724274520874,0.9815894192852092
5.547231060606061,0.259938299274445,2.85845702676773,-0.22186188583374,0.9815894192852092
5.547837121212121,-0.851350763225555,1.87170897989273,1.46662688369751,0.9815894192852092
5.548443181818182,0.0755217953681946,-1.79267090291977,-0.47094391708374,0.9815894192852092
5.549049242424242,0.904198553180695,-0.276623539638519,-0.04463044052124009,0.9815894192852092
5.549655303030303,-0.219065606975555,0.08502440958023069,0.22840178604126002,0.9815894192852092
5.550261363636364,-0.468147638225555,-1.81183105916977,-0.77032135848999,0.9815894192852092
5.550867424242424,0.645536443805695,1.48132079629898,0.9014022743225101,0.9815894192852092
5.551473484848485,-0.374741876506805,2.01541015176773,-0.37035309677124,0.9815894192852092
5.552079545454545,-0.353186700725555,-1.03105469198227,-0.00152008895874006,0.9815894192852092
5.552685606060606,1.1844158383369399,-0.216748051357269,0.57088957901001,0.9815894192852092
5.5532916666666665,-0.5783185366630551,0.520917964267731,-0.0302603233337401,0.9815894192852092
5.553897727272727,-0.851350763225555,-2.34352539510727,-0.78469147567749,0.9815894192852092
5.554503787878788,0.906593572711945,-0.432299809169769,0.57088957901001,0.9815894192852092
5.5551098484848485,-0.403482110881805,2.8512719681739798,0.48466887588501,0.9815894192852092
5.5557159090909085,-0.137634942913055,0.904121089267731,0.29785735244751,0.9815894192852092
5.55632196969697,0.789237615680695,-2.37705566854477,-0.047025460052490094,0.9815894192852092
5.55692803030303,0.235988103961945,2.21659179239273,-1.0673037803649899,0.9815894192852092
5.5575340909090905,-1.91952947416306,-1.53879883260727,0.22361174697876002,0.9815894192852092
5.558140151515152,0.9952092953681949,-2.1782690474510202,-0.29131745223999,0.9815894192852092
5.558746212121212,0.0395965023994446,3.52666747598648,1.53608245010376,0.9815894192852092
5.559352272727273,-0.690884454631805,0.906516108798981,0.24756194229126002,0.9815894192852092
5.5599583333333324,0.307838689899445,-2.34592041463852,-0.051815499114990095,0.9815894192852092
5.560564393939394,0.667091619586945,1.42623534708023,-0.21946686630249,0.9815894192852092
5.561170454545455,-0.9567316226005551,-1.5004785201072701,-1.19902985458374,0.9815894192852092
5.561776515151515,0.293468572711945,-1.94595215291977,0.44874358291626,0.9815894192852092
5.562382575757576,0.640746404743195,3.2105248978614798,0.7624911415100101,0.9815894192852092
5.562988636363636,-1.37107000150681,0.784370112705231,0.24516692276001,0.9815894192852092
5.563594696969697,0.621586248493195,-2.27406982870102,0.39365813369750996,0.9815894192852092
5.564200757575758,0.9520989438056949,0.786765132236481,-0.7559512413024899,0.9815894192852092
5.564806818181818,-1.16270330228806,-0.468225102138519,-0.87809723739624,0.9815894192852092
5.565412878787879,-0.113684747600555,-1.69687012166977,0.66908537979126,0.9815894192852092
5.566018939393939,1.08861505708694,1.83099364786148,-0.32484772567749004,0.9815894192852092
5.566625,-1.18665349760056,0.631088862705231,0.84871184463501,0.9815894192852092
5.567231060606061,-0.0849445132255554,-1.05260986776352,0.039195243072509905,0.9815894192852092
5.567837121212121,1.25147638521194,1.17954833536148,-0.37993317489624,0.9815894192852092
5.568443181818182,-1.05732244291306,-0.382004399013519,0.20924162979126001,0.9815894192852092
5.569049242424242,-0.456172540569305,-2.76025879354477,-0.72242096786499,0.9815894192852092
5.569655303030303,0.6383513852119449,0.314946284580231,0.17092131729126,0.9815894192852092
5.570261363636364,-0.9040411929130551,2.26449218301773,0.20684661026001,0.9815894192852092
5.570867424242424,0.212037908649445,0.147294917392731,0.19247649307251,0.9815894192852092
5.571473484848485,0.9137786313056949,-1.10769531698227,0.21163664932251,0.9815894192852092
5.572079545454545,-0.532813165569305,0.911306147861481,-0.08295075302124011,0.9815894192852092
5.572685606060606,-0.848955743694305,-2.59979248495102,-1.13196930770874,0.9815894192852092
5.573291666666667,1.2011809750556899,0.228725581455231,0.29306731338500996,0.9815894192852092
5.573897727272727,-0.386716974163055,2.76505126504898,1.2295199501037601,0.9815894192852092
5.574503787878788,-0.0011188296318053901,0.700544429111481,0.15176116104126,0.9815894192852092
5.575109848484849,0.271913396930695,-2.20700928182602,-0.00631012802124006,0.9815894192852092
5.575715909090909,0.267123357868195,0.9017260697364811,-0.82301178817749,0.9815894192852092
5.57632196969697,-1.24413396635056,-1.62980957479477,-0.58350983505249,0.9815894192852092
5.57692803030303,1.60593927583694,-0.837058109951019,0.31222746963500997,0.9815894192852092
5.577534090909091,0.0443865414619446,2.98060302286148,1.38280120010376,0.9815894192852092
5.578140151515151,-0.887276056194305,0.396376948642731,-0.0661856163024901,0.9815894192852092
5.578746212121212,-0.0250690249443054,-2.72433350057602,0.30983245010376,0.9815894192852092
5.579352272727273,0.41561456880569503,1.42144530801773,-0.39669831161499003,0.9815894192852092
5.579958333333333,-0.329236505413055,-0.331708988857269,-0.90683747177124,0.9815894192852092
5.580564393939394,0.485070135211945,-1.98187744588852,0.21882170791626002,0.9815894192852092
5.581170454545455,0.8323479672431949,2.57823974161148,-0.20988678817748999,0.9815894192852092
5.581776515151515,-1.32077459135056,0.39877196817398103,0.56609953994751,0.9815894192852092
5.582382575757576,0.255148260211945,-2.06809814901352,0.62597502822876,0.9815894192852092
5.582988636363636,0.9161736508369449,2.23335692911148,0.0104550086975099,0.9815894192852092
5.583594696969697,-0.829795587444305,-0.724492191982269,-1.16310456161499,0.9815894192852092
5.584200757575758,0.212037908649445,-2.36987060995102,-0.39909333114624,0.9815894192852092
5.584806818181818,0.470700018024445,1.54359130411148,0.34575774307251,0.9815894192852092
5.585412878787879,-0.516048028850555,1.98427489786148,1.04510344619751,0.9815894192852092
5.586018939393939,0.338973943805695,-1.19152100057602,0.7050106727600101,0.9815894192852092
5.586625,1.43110285005569,0.233515620517731,-0.54279450302124,0.9815894192852092
5.587231060606061,-1.3519098452568101,-0.281413578701019,-0.11169098739624,0.9815894192852092
5.587837121212121,-0.417852228069305,-2.91114502401352,-0.14522126083373998,0.9815894192852092
5.588443181818182,1.5005584164619399,1.10530272989273,0.14936614151001001,0.9815894192852092
5.589049242424242,-1.23694890775681,1.99864501504898,0.34575774307251,0.9815894192852092
5.589655303030303,0.235988103961945,0.6430639603614811,0.15415618057251002,0.9815894192852092
5.590261363636364,0.190482732868195,-1.51484863729477,0.0463803016662599,0.9815894192852092
5.590867424242424,-0.223855646038055,0.056284175205230706,-0.44220368270874,0.9815894192852092
5.591473484848485,-0.5232330874443051,-2.42495605916977,-0.88767731552124,0.9815894192852092
5.592079545454545,1.50295343599319,1.11488280801773,0.48706389541626,0.9815894192852092
5.592685606060606,-0.556763360881805,2.04894042520523,0.66908537979126,0.9815894192852092
5.593291666666667,-0.7866852358818051,0.0227539017677307,-0.20030671005248998,0.9815894192852092
5.593897727272727,0.269518377399445,-2.1782690474510202,-0.00391510848999006,0.9815894192852092
5.5945037878787875,0.384479314899445,1.37833495645523,-0.9140225303649899,0.9815894192852092
5.595109848484848,-1.18665349760056,-1.03823975057602,0.27869719619751,0.9815894192852092
5.595715909090909,1.15807062349319,-0.413139652919769,0.10865080947875999,0.9815894192852092
5.5963219696969695,0.418009588336945,2.38663817911148,0.21163664932251,0.9815894192852092
5.5969280303030295,-0.992656915569305,0.0658642533302307,-0.0134951866149901,0.9815894192852092
5.597534090909091,-0.0681793765068054,-1.93158203573227,0.0272201454162599,0.9815894192852092
5.598140151515151,0.9904192563056949,1.82141356973648,0.43916350479126,0.9815894192852092
5.5987462121212115,-1.30161443510056,-1.12446045370102,-0.32484772567749004,0.9815894192852092
5.599352272727273,0.427589666461945,-2.56147217245102,-1.0026382530212399,0.9815894192852092
5.599958333333333,0.846718084430695,2.59979491739273,0.19247649307251,0.9815894192852092
5.600564393939394,-0.9782867983818051,2.36268798379898,0.97085784072876,0.9815894192852092
5.601170454545455,0.00127618989944461,-2.31718018026352,0.12541594619751,0.9815894192852092
5.601776515151515,0.7389422055244449,0.772395015048981,0.51819914932251,0.9815894192852092
5.602382575757576,-1.37107000150681,-0.705332035732269,-1.11520417098999,0.9815894192852092
5.602988636363636,0.255148260211945,-2.47285644979477,-0.12845612411499,0.9815894192852092
