Time (s),Accel X (m/s^2),Accel Y (m/s^2),Accel Z (m/s^2),CI Value
4.7055,-9.712304720878599,1.31672307901382,1.3009111787796,0.2115324672401714
4.7061056935190795,-2.00752688884735,1.9514032547950702,2.2158086397171,0.2115324672401714
4.706711387038158,-2.51527102947235,1.64484075479507,-0.504933547782898,0.2115324672401714
4.707317080557238,1.5299169588089,-3.30566461629868,-2.5502802274703997,0.2115324672401714
4.707922774076317,12.0847680330276,-2.97515192098618,-0.413922805595398,0.2115324672401714
4.7085284675953964,0.6174145174026491,1.8364423172950701,-0.0714350126266476,0.2115324672401714
4.709134161114476,-9.3961621427536,1.7023212235450702,1.5116728975296,0.2115324672401714
4.709739854633555,-2.29492923259735,1.3191180985450701,1.31767631549835,0.2115324672401714
4.710345548152635,-3.91875247478485,0.559896907138824,-0.018744582939147603,0.2115324672401714
4.710951241671714,2.0855614900589,-1.60520074911118,-2.1574970243454,0.2115324672401714
4.711556935190793,11.2321410799026,-3.8804693037986797,-1.25457466106415,0.2115324672401714
4.712162628709873,1.7694189119339,3.1417279618263203,0.18483207721710201,0.2115324672401714
4.712768322228952,-8.3998340177536,1.0748261063575701,0.649465866279602,0.2115324672401714
4.713374015748031,-3.17629642009735,-0.359790592861176,2.5463213350296,0.2115324672401714
4.713979709267111,-3.77505130290985,1.9514032547950702,-0.21992622356414798,0.2115324672401714
4.71458540278619,1.5778173494339,-0.592107487392426,-1.2761298368454,0.2115324672401714
4.7151910963052694,9.775969204902651,-3.59546197957993,-1.3479804227829,0.2115324672401714
4.715796789824349,3.6111889314651497,0.8329291337013239,-0.689350051689148,0.2115324672401714
4.716402483343428,-6.0622949552536,1.09398626260757,1.3344414522171,0.2115324672401714
4.717008176862508,-6.14133059978485,-0.113103581142426,2.5654814912796002,0.2115324672401714
4.717613870381586,-2.6134668302536004,2.57410833292007,1.2194805147171,0.2115324672401714
4.718219563900666,1.6305077791214,0.679647883701324,-0.921666946220398,0.2115324672401714
4.718825257419746,7.5174657869339,-5.21689020223618,-2.04014106731415,0.2115324672401714
4.719430950938825,6.5690380525589,-1.61717584676743,-1.23541450481415,0.2115324672401714
4.720036644457904,-5.38450442790985,3.70934759073257,1.4446123506546,0.2115324672401714
4.720642337976983,-7.468171420097351,0.0545477860450745,1.3727617647171,0.2115324672401714
4.721248031496063,-0.994433627128601,1.6568158524513201,1.17397514362335,0.2115324672401714
4.7218537250151424,-1.15489993572235,1.8699725907325702,-1.1276386259078999,0.2115324672401714
4.722459418534221,4.8446239900589,-5.78929987020493,-2.89276802043915,0.2115324672401714
4.723065112053301,10.0178661775589,-2.1440801436424297,-0.047484817314147595,0.2115324672401714
4.723670805572381,-2.98948489665985,4.27217718057632,0.8410674287796019,0.2115324672401714
4.724276499091459,-8.9602685880661,0.907174739170074,1.3536016084671,0.2115324672401714
4.724882192610539,-1.5740283536911,0.998185481357574,1.3871318819046001,0.2115324672401714
4.725487886129618,-2.42426028728485,0.9143597977638239,-0.878556594657898,0.2115324672401714
4.726093579648698,4.6937377595901495,-3.66731256551743,-2.13594184856415,0.2115324672401714
4.726699273167777,10.223837857246401,-3.04460748739243,-0.639054641532898,0.2115324672401714
4.727304966686856,-2.04584720134735,4.34881780557632,1.0063237764358501,0.2115324672401714
4.727910660205936,-8.359118685722349,0.332370051670074,1.70566947956085,0.2115324672401714
4.7285163537250146,-1.26507083415985,-0.44361627645492596,0.991953659248352,0.2115324672401714
4.729122047244094,-3.29604739665985,1.9633783524513202,-0.667794875907898,0.2115324672401714
4.729727740763174,2.9381884431839,-1.6075957686424298,-1.9443402860641499,0.2115324672401714
4.730333434282253,10.7435570955276,-3.52600641317368,-0.928852004814148,0.2115324672401714
4.730939127801332,0.162360806465149,2.40406194620132,0.694971237373352,0.2115324672401714
4.731544821320412,-8.0262109708786,1.3263031571388202,0.673416061592102,0.2115324672401714
4.732150514839491,-3.65530032634735,-1.02800104207993,2.1798833467483503,0.2115324672401714
4.732756208358571,-2.1272778654098503,2.34897649698257,0.0842412569046024,0.2115324672401714
4.733361901877649,2.66755123615265,-0.117893620204926,-2.2053974149704,0.2115324672401714
4.733967595396729,9.835844693183901,-5.44681207723618,-1.20188423137665,0.2115324672401714
4.734573288915809,2.5693554353713997,0.880829524326324,-0.42829292278289804,0.2115324672401714
4.7351789824348876,-8.636940951347349,3.87939397745132,1.57154838581085,0.2115324672401714
4.735784675953967,-4.24447513103485,-1.04476617879868,1.4877227022171,0.2115324672401714
4.736390369473046,-1.0327539396285998,1.52029973917007,0.326138229560852,0.2115324672401714
4.736996062992126,0.672499966621399,1.8915277665138202,-1.8269843290329,0.2115324672401714
4.737601756511205,8.489843716621401,-6.67545709676743,-2.02098091106415,0.2115324672401714
4.738207450030284,5.2924926424026495,-1.51898004598618,0.00520561237335244,0.2115324672401714
4.738813143549364,-7.01311770915985,6.43727483682632,1.2338506319046,0.2115324672401714
4.739418837068444,-6.031159701347351,-1.03997613973618,1.7176445772171,0.2115324672401714
4.740024530587522,-1.0926294279098498,1.09877630167007,0.000415573310852443,0.2115324672401714
4.740630224106602,-0.893842806816101,1.58017522745132,-1.1324286649703998,0.2115324672401714
4.741235917625681,8.0156298494339,-6.33775934286118,-1.9419452665329,0.2115324672401714
4.7418416111447605,6.0517138338089,-1.3417486006736798,-0.251061477470398,0.2115324672401714
4.74244730466384,-5.3964795255661,6.28399358682632,1.4877227022171,0.2115324672401714
4.743052998182919,-6.5963843107223505,-1.08308649129868,1.81584037799835,0.2115324672401714
4.743658691701999,-1.0088037443161,0.0976581376075745,0.386013717842102,0.2115324672401714
4.7442643852210775,-1.0902344083786,1.4556342118263201,-1.1467987821579,0.2115324672401714
4.744870078740157,5.6206103181839,-4.21816705770493,-2.0114008329391497,0.2115324672401714
4.745475772259237,8.69342037677765,-2.28538629598618,-0.296566848564148,0.2115324672401714
4.746081465778316,-3.1595312833786,4.53562932901382,1.49490776081085,0.2115324672401714
4.746687159297395,-8.28726809978485,0.420985774326324,0.977583542060852,0.2115324672401714
4.747292852816475,-2.07937747478485,-0.719043522548676,1.83500053424835,0.2115324672401714
4.747898546335554,-0.611230502128601,1.9561932938575701,-0.643844680595398,0.2115324672401714
4.7485042398546335,4.3368798494339,-2.38597711629868,-2.3874188993453997,0.2115324672401714
4.749109933373712,9.1077587556839,-4.61574029989243,-1.0222577665329,0.2115324672401714
4.749715626892792,-0.845942416191101,3.80275335245132,0.812327194404602,0.2115324672401714
4.750321320411872,-9.73385989665985,2.93336126260757,1.6314238740921,0.2115324672401714
4.7509270139309505,-1.5500781583785999,-2.11294488973618,1.5619683076858502,0.2115324672401714
4.75153270745003,-0.927373080253601,2.24599065713882,-0.32051704387664803,0.2115324672401714
4.752138400969109,1.4293261384964,0.6533026688575739,-2.72032661418915,0.2115324672401714
4.752744094488189,10.4585497713089,-7.03231500692368,-0.909691848564148,0.2115324672401714
4.753349788007268,0.880866665840149,1.10117132120132,0.273447799873352,0.2115324672401714
4.753955481526347,-8.936318392753599,6.36542425088882,1.6362139131546,0.2115324672401714
4.754561175045427,-2.99427493572235,-3.23381403036118,1.2194805147171,0.2115324672401714
4.7551668685645065,-0.972878451347351,1.8651825516700702,-0.325307082939148,0.2115324672401714
4.755772562083585,0.969482388496399,0.981420344638824,-2.09762153606415,0.2115324672401714
4.756378255602665,9.857399868965151,-7.13051080770493,-1.6593329618454,0.2115324672401714
4.756983949121744,1.9825756502151501,0.531156672763824,1.1691851045608501,0.2115324672401714
4.7575896426408235,-7.8154492521286,6.35584417276382,1.2434307100296,0.2115324672401714
4.758195336159903,-3.50201907634735,-2.72846490926743,1.70087944049835,0.2115324672401714
4.758801029678982,-1.54768313884735,1.0580609696388201,-0.425897903251648,0.2115324672401714
4.759406723198062,-0.311853060722351,1.25684759073257,-1.3503754423141499,0.2115324672401714
4.7600124167171405,9.33049557209015,-5.8252251631736796,-1.3767206571579,0.2115324672401714
4.76061811023622,4.1883886384963995,-0.728623600673676,-0.751620559501648,0.2115324672401714
4.7612238037553,-6.63949466228485,5.82175481729507,1.9140361787796,0.2115324672401714
4.761829497274379,-5.77249759197235,-0.8603496748924261,2.11282279987335,0.2115324672401714
4.762435190793458,-1.2004053068161,-0.08675836629867549,-0.17442085247039799,0.2115324672401714
4.763040884312538,0.7395605134963991,1.48197942667007,-1.0462079618453999,0.2115324672401714
4.763646577831617,7.1917431306839,-4.81213190145493,-2.1574970243454,0.2115324672401714
4.7642522713506965,6.14511959552765,-2.48177789754868,-0.9528022001266481,0.2115324672401714
4.764857964869775,-5.3581592130661,6.70551702432632,2.40022514362335,0.2115324672401714
4.765463658388855,-7.8633496427536,-0.0580181319236755,1.05901420612335,0.2115324672401714
4.766069351907935,-0.532194857597351,-2.1943755537986798,1.2051103975296,0.2115324672401714
4.7666750454270135,-0.16096683025360098,2.61961370401382,-0.5743891141891481,0.2115324672401714
4.767280738946093,4.8158837556839,-2.6997246748924297,-2.7370917509079,0.2115324672401714
4.767886432465172,8.60240963459015,-5.65757379598618,-0.162445754814148,0.2115324672401714
4.768492125984252,-2.8793139982223503,5.25653020792007,1.12128471393585,0.2115324672401714
4.769097819503331,-9.1039697599411,3.81233343057632,1.6601641084671,0.2115324672401714
4.76970351302241,-1.6841992521286,-3.6577324873924297,0.6638359834671019,0.2115324672401714
4.77030920654149,-0.675896029472351,2.82079534463882,-0.433082961845398,0.2115324672401714
4.7709149000605695,3.3788720369339,-1.0256060225486798,-2.1143866727829,0.2115324672401714
4.771520593579648,9.258644986152651,-6.12699762411118,-1.55634712200165,0.2115324672401714
4.772126287098728,-1.8231103849411,2.95012639932632,1.4494023897171,0.2115324672401714
4.772731980617807,-8.3040332365036,5.7978046219825705,1.78710014362335,0.2115324672401714
4.7733376741368865,-1.90693606853485,-4.07925592489243,0.915313034248352,0.2115324672401714
4.773943367655966,-0.534589877128601,2.6124286454200703,-1.17793403606415,0.2115324672401714
4.774549061175045,1.0269628572464,0.586242121982574,-2.1383368680954,0.2115324672401714
4.775154754694125,10.343588833808901,-6.62516168661118,-0.684560012626648,0.2115324672401714
4.7757604482132034,0.550353970527649,1.24008245401382,1.0805693819046,0.2115324672401714
4.776366141732283,-8.299243197441099,5.82893987588882,0.908127975654602,0.2115324672401714
4.776971835251363,-3.4038232755661,-2.30215143270493,2.2110186006546,0.2115324672401714
4.777577528770442,-0.989643588066101,0.8353241532325739,-0.21992622356414798,0.2115324672401714
4.778183222289521,1.57542232990265,1.1682318680763202,-2.2006073759079,0.2115324672401714
4.778788915808601,9.117338833808901,-6.5700762373924295,-1.2617597196579,0.2115324672401714
4.77939460932768,3.0124340486526497,0.047362727451324506,-0.00437446575164756,0.2115324672401714
4.7800003028467595,-8.162727084159851,7.2946918290138205,2.42417533893585,0.2115324672401714
4.780605996365838,-4.3378808927536,-2.01953912801743,1.39431694049835,0.2115324672401714
4.781211689884918,-0.589675326347351,-0.891484928798676,-0.162445754814148,0.2115324672401714
4.781817383403998,-0.141806674003601,2.18851018838882,-1.3384003446579,0.2115324672401714
4.782423076923076,9.088598599433901,-5.05642389364243,-1.7455536649704,0.2115324672401714
4.783028770442156,4.4231005525589,-3.74155817098618,-1.2090692899703999,0.2115324672401714
4.783634463961236,-6.08864017009735,7.99403753213882,2.26131401081085,0.2115324672401714
4.784240157480315,-6.2922168302536,0.662882746982574,2.26131401081085,0.2115324672401714
4.784845850999394,-0.7190063810348509,-2.93204156942368,-0.243876418876648,0.2115324672401714
4.785451544518473,0.7539306306838991,2.5094428055763203,-0.809101028251648,0.2115324672401714
4.786057238037553,5.8696923494339,-3.20267877645493,-1.9227851102829,0.2115324672401714
4.7866629315566325,6.5402978181839,-4.2085869795799296,-0.286986770439148,0.2115324672401714
4.787268625075711,-5.0228564786911,5.27808538370132,1.27456596393585,0.2115324672401714
4.787874318594791,-6.47184329509735,3.3908099930763203,1.7607549287796,0.2115324672401714
4.788480012113871,-1.4542773771286,-4.03854059286118,0.323743210029602,0.2115324672401714
4.789085705632949,0.0210546541213989,2.75373479776382,-0.991122512626648,0.2115324672401714
4.789691399152029,4.46381588459015,-1.8854180342674298,-2.2509027860641497,0.2115324672401714
4.790297092671108,7.85037350177765,-5.34143121786118,-0.696535110282898,0.2115324672401714
4.790902786190188,-2.5967016935348504,3.47942571573257,1.83500053424835,0.2115324672401714
4.791508479709267,-8.0980615568161,4.51167913370132,1.35599662799835,0.2115324672401714
4.792114173228346,-2.3883349943161,-2.75241510457993,1.4446123506546,0.2115324672401714
4.792719866747426,0.430602993965149,1.83404729776382,-1.1324286649703998,0.2115324672401714
4.793325560266505,3.72135982990265,-0.8435845381736761,-1.9754755399704,0.2115324672401714
4.793931253785584,8.683840298652651,-6.28746393270493,-1.40306587200165,0.2115324672401714
4.794536947304664,-0.783671908378601,3.1848383133888203,0.520134811592102,0.2115324672401714
4.795142640823743,-8.6249658536911,6.23848821573257,2.52955619831085,0.2115324672401714
4.795748334342822,-2.2134985685348503,-3.20267877645493,1.2434307100296,0.2115324672401714
4.796354027861902,-0.144201693534851,0.9526801102638239,-0.433082961845398,0.2115324672401714
4.796959721380981,0.842546353340149,1.06764104776382,-2.2389276884079,0.2115324672401714
4.797565414900061,9.229904751777651,-6.54612604207993,-1.77668891887665,0.2115324672401714
4.798171108419139,1.55626217365265,-0.893879948329926,1.26019584674835,0.2115324672401714
4.798776801938219,-7.1616089200973505,9.00952581338883,1.73440971393585,0.2115324672401714
4.799382495457299,-4.4815820646286,-2.22551080770493,1.0853594209671,0.2115324672401714
4.799988188976378,-0.0364258146286011,-1.09266656942368,0.285422897529602,0.2115324672401714
4.800593882495457,1.07725826740265,1.7238763993263202,-1.8676996610641499,0.2115324672401714
4.801199576014536,8.8969970369339,-5.13545953817368,-1.49886665325165,0.2115324672401714
4.801805269533616,2.4543944978714,-1.33456354207993,-0.181605911064148,0.2115324672401714
4.802410963052695,-7.4418262052536,6.45883001260757,1.6649541475296001,0.2115324672401714
4.803016656571774,-3.5642895841598503,0.279679621982574,2.1583281709671,0.2115324672401714
4.803622350090854,-1.9260962247848499,-2.94401666707993,-0.964777297782898,0.2115324672401714
4.804228043609934,1.12036861896515,2.27952093057632,-1.41264595012665,0.2115324672401714
4.804833737129012,7.8767187166214,-3.61222711629868,-1.3767206571579,0.2115324672401714
4.805439430648092,4.2314989900589,-3.0254473311424297,-1.22104438762665,0.2115324672401714
4.806045124167171,-5.9473340177536,4.82303167276382,1.8996660615921,0.2115324672401714
4.806650817686251,-5.9233838224411,2.48788762979507,1.9212212373733502,0.2115324672401714
4.807256511205329,-2.05542727947235,-2.70211969442368,0.371643600654602,0.2115324672401714
4.807862204724409,1.5586571931839002,1.7981220047950701,-0.785150832939148,0.2115324672401714
4.808467898243489,6.4061767244339,-2.59434381551743,-2.5263300321579,0.2115324672401714
4.8090735917625675,5.8577172517776495,-4.72351617879868,-0.667794875907898,0.2115324672401714
4.809679285281646,-4.14867434978485,5.68523870401382,2.2205986787796,0.2115324672401714
4.810284978800727,-6.689790072441101,3.19202337198257,1.5236479951858501,0.2115324672401714
4.810890672319806,-1.6937793302536,-3.3847002608299297,1.0374590303421,0.2115324672401714
4.811496365838885,0.0593749666213989,2.05917913370132,-1.2186493680954,0.2115324672401714
4.812102059357965,4.6242821931839,-1.82314752645493,-2.0425360868454,0.2115324672401714
4.812707752877044,7.1151025056838995,-6.2108233077049295,-1.14440376262665,0.2115324672401714
4.813313446396124,-2.1679931974411,3.09861761026382,0.568035202217102,0.2115324672401714
4.813919139915202,-6.9101318693161,7.31864202432632,2.9486846162796,0.2115324672401714
4.814524833434282,-3.3678979825973503,-3.39428033895493,0.699761276435852,0.2115324672401714
4.815130526953362,1.1850341463089,0.478466243076324,-0.797125930595398,0.2115324672401714
4.8157362204724405,2.3633837556838997,-0.975310612392426,-1.5970624540329,0.2115324672401714
4.81634191399152,8.4227831697464,-4.69477594442368,-1.4916815946578998,0.2115324672401714
4.8169476075106,-0.685476107597351,0.7538934891700739,0.649465866279602,0.2115324672401714
4.817553301029679,-7.38195071697235,6.73665227823257,2.2972393037796,0.2115324672401714
4.8181589945487575,-2.54401126384735,-1.27947809286118,1.53801811237335,0.2115324672401714
4.818764688067838,-1.3321313810348498,-1.8375176436424299,-0.610314407157898,0.2115324672401714
4.819370381586917,2.2627929353714,1.6089154618263202,-2.0377460477829,0.2115324672401714
4.819976075105996,8.17130611896515,-4.24211725301743,-0.818681106376648,0.2115324672401714
4.820581768625075,1.7406786775589,-1.3513286787986798,0.450679245185852,0.2115324672401714
4.821187462144155,-7.2645947599411,5.23737005167007,0.996743698310852,0.2115324672401714
4.821793155663234,-4.16304446697235,0.950285090732574,2.2397588350296003,0.2115324672401714
4.8223988491823135,-1.78239505290985,-2.24467096395493,-0.6342646024703981,0.2115324672401714
4.823004542701393,1.61374264240265,1.76938177042007,-2.24611274700165,0.2115324672401714
4.823610236220472,8.465893521308901,-4.23972223348618,-1.39827583293915,0.2115324672401714
4.824215929739552,3.2279858064651497,-2.49614801473618,-0.21513618450164798,0.2115324672401714
4.8248216232586305,-7.05622806072235,5.83372991495132,2.6253569795608502,0.2115324672401714
4.82542731677771,-4.0313183927536,1.46042425088882,1.67692924518585,0.2115324672401714
4.82603301029679,-1.70096438884735,-2.61589899129868,-0.342072219657898,0.2115324672401714
4.826638703815869,0.531193814277649,2.49986272745132,-1.5300019071578999,0.2115324672401714
4.827244397334948,8.02760494709015,-2.8793511397361797,-2.0329560087204,0.2115324672401714
4.827850090854028,3.3549218416213997,-5.95695123739243,-0.847421340751648,0.2115324672401714
4.828455784373107,-4.8504150724411,5.80019964151382,1.0230889131546002,0.2115324672401714
4.8290614778921865,-4.8001196622848505,4.91404241495132,2.5606914522171,0.2115324672401714
4.829667171411266,-3.2409619474411,-3.2553692061424297,0.872202682685852,0.2115324672401714
4.830272864930345,2.4663695955276497,1.23529241495132,-1.55634712200165,0.2115324672401714
4.830878558449425,5.1272362947464,-3.22902399129868,-1.9371552274704,0.2115324672401714
4.8314842519685035,4.926054654121399,-3.64815240926743,-1.29289497356415,0.2115324672401714
4.832089945487583,-3.21940677165985,2.87109075479507,1.4853276826858501,0.2115324672401714
4.832695639006663,-6.0000244474411,5.50082220010757,2.33795463581085,0.2115324672401714
4.833301332525742,-2.8793139982223503,-1.6028057295799298,0.496184616279602,0.2115324672401714
4.8339070260448205,0.787460904121399,-1.2219976241111798,-0.698930129814148,0.2115324672401714
4.834512719563901,4.5380614900589,-0.769338932704926,-2.2820380399704,0.2115324672401714
4.83511841308298,6.34151119709015,-3.8373589522361797,-1.17314399700165,0.2115324672401714
4.835724106602059,-0.7429565763473509,1.12272649698257,0.917708053779602,0.2115324672401714
4.836329800121139,-7.73162356853485,5.34275091104507,1.7751250459671,0.2115324672401714
4.836935493640218,-3.6169800138473502,0.437750911045074,1.7559648897171,0.2115324672401714
4.837541187159297,-0.22563235759735098,-2.21353571004868,-0.7348554227828981,0.2115324672401714
4.8381468806783765,3.7237548494338997,0.0641278641700745,-2.3251483915329,0.2115324672401714
4.838752574197456,7.81684322834015,-3.82538385457993,-1.27852485637665,0.2115324672401714
4.839358267716535,0.13362057209014902,-0.515466862392426,0.898547897529602,0.2115324672401714
4.839963961235615,-7.8920898771286,5.29006048135757,2.35232475299835,0.2115324672401714
4.8405696547546935,-2.5607764005661,0.044967707920074505,1.15002494831085,0.2115324672401714
4.841175348273773,-1.2866260099411,-1.37767389364243,-0.682164993095398,0.2115324672401714
4.841781041792853,1.56105221271515,1.7382465165138201,-2.30359321575165,0.2115324672401714
4.842386735311932,8.8203564119339,-3.88765436239243,-1.70004829387665,0.2115324672401714
4.842992428831012,0.46892330646514896,-3.72000299520493,0.170461960029602,0.2115324672401714
4.843598122350091,-6.2970068693161005,5.72595403604507,1.91164115924835,0.2115324672401714
4.84420381586917,-3.2697021818161,2.6890692704200703,1.5499932100296,0.2115324672401714
4.8448095093882495,-2.31887942790985,-1.88781305379868,0.24949760456085202,0.2115324672401714
4.845415202907329,2.99327389240265,1.21373723917007,-2.0137958524704,0.2115324672401714
4.846020896426408,6.80135494709015,-4.46006403036118,-1.77189887981415,0.2115324672401714
4.846626589945488,1.3622655916214002,-2.3237066084861797,-0.231901321220398,0.2115324672401714
4.8472322834645665,-4.96777102947235,3.65905218057632,1.1907402803421,0.2115324672401714
4.847837976983646,-3.4445386075973503,4.36558294229507,2.8768340303421,0.2115324672401714
4.848443670502726,-3.18108645915985,-1.7489019209861798,-0.162445754814148,0.2115324672401714
4.849049364021805,2.5525902986526496,-0.7621538741111761,-1.0988983915329,0.2115324672401714
4.849655057540883,6.19781002521515,-2.47459283895493,-1.33121528606415,0.2115324672401714
4.850260751059964,3.50580807209015,-2.5536284834861798,-1.3096601102829,0.2115324672401714
4.850866444579043,-3.14276614665985,2.63877386026382,1.4158721162796,0.2115324672401714
4.851472138098122,-6.2036011075973505,4.11171087198257,2.3259795381546002,0.2115324672401714
4.852077831617202,-2.5032959318161003,-0.261594792079926,0.39798881549835197,0.2115324672401714
4.852683525136281,1.28322994709015,-2.1009697920799297,-1.30247505168915,0.2115324672401714
4.85328921865536,5.79544674396515,-1.57406549520493,-1.8940448759079,0.2115324672401714
4.8538949121744395,5.464934048652649,-2.75720514364243,-0.880951614189148,0.2115324672401714
4.854500605693519,-2.7092676115036003,2.9453363602638203,1.3057012178421001,0.2115324672401714
4.855106299212598,-6.7041601896286,2.84714055948257,1.69129936237335,0.2115324672401714
4.855711992731678,-1.78718509197235,-0.20890436239242602,0.630305710029602,0.2115324672401714
4.856317686250756,-0.913002963066101,-1.21960260457993,-1.3815106962204,0.2115324672401714
4.856923379769836,4.267424283027649,-0.678328190517426,-1.9563153837204,0.2115324672401714
4.857529073288916,7.36657955646515,-2.61829401082993,-1.2713397977829,0.2115324672401714
4.858134766807995,-2.2254736661911,-1.93331842489243,0.273447799873352,0.2115324672401714
4.858740460327075,-5.8563232755661,4.98828802042007,2.7331328584671,0.2115324672401714
4.859346153846154,-3.1834814786911,1.76459173135757,1.29851615924835,0.2115324672401714
4.859951847365233,-0.771696810722351,-1.3848589522361798,-0.38997261028289804,0.2115324672401714
4.8605575408843125,4.2889794588089,-0.44361627645492596,-2.33233345012665,0.2115324672401714
4.861163234403392,5.90561764240265,-3.41344049520493,-1.8365644071579,0.2115324672401714
4.861768927922471,-0.297482943534851,-1.23636774129868,0.342903366279602,0.2115324672401714
4.862374621441551,-5.29828372478485,3.57522649698257,1.8517656709671,0.2115324672401714
4.862980314960629,-2.82183352947235,3.47224065713882,2.1104277803421,0.2115324672401714
4.863586008479709,-2.1919433927536,-1.83272760457993,0.0842412569046024,0.2115324672401714
4.864191701998789,3.4076122713088997,-0.20411432332992602,-2.0712763212203997,0.2115324672401714
4.864797395517868,6.0852441072464,-3.25776422567368,-1.4629413602829,0.2115324672401714
4.865403089036946,1.6544579744339,-1.99798395223618,0.460259323310852,0.2115324672401714
4.866008782556027,-4.3570410490036,3.51535100870132,1.2625908662796002,0.2115324672401714
4.866614476075106,-4.5869629240036005,3.8865790360450703,2.4888408662796,0.2115324672401714
4.867220169594185,-2.1296728849411,-0.867534733486176,0.333323288154602,0.2115324672401714
4.867825863113265,1.8628246736526501,-1.63154596395493,-1.41743598918915,0.2115324672401714
4.868431556632344,6.87320553302765,-2.99191705770493,-1.3886957548141499,0.2115324672401714
4.869037250151423,3.65908932209015,-1.20762750692368,-0.413922805595398,0.2115324672401714
4.869642943670502,-4.9797461271286005,3.9727997391700702,1.36078666706085,0.2115324672401714
4.870248637189582,-4.1558594083786,2.28431096963882,1.7224346162796,0.2115324672401714
4.870854330708661,-2.0051318693161,-0.618452702236176,0.156091842842102,0.2115324672401714
4.871460024227741,-0.457949252128601,-1.09985162801743,-1.5108417509079,0.2115324672401714
4.872065717746819,7.7090673494339,-1.51898004598618,-1.2904999540328999,0.2115324672401714
4.872671411265899,3.85548092365265,-1.38246393270493,-1.5395819852829,0.2115324672401714
4.873277104784979,-5.1809277677536,1.24008245401382,1.34641654987335,0.2115324672401714
4.873882798304058,-3.4134033536911,2.29868108682632,2.7570830537796,0.2115324672401714
4.874488491823136,-3.0421753263473503,1.3646234696388202,0.333323288154602,0.2115324672401714
4.875094185342217,0.20307613849639902,-1.2267876631736798,-1.1108734891891499,0.2115324672401714
4.875699878861296,6.6097533845901495,-1.90936822957993,-2.05930122356415,0.2115324672401714
4.876305572380375,2.7896972322463998,-1.66986627645493,-1.0294428251266499,0.2115324672401714
4.876911265899455,-1.91651614665985,-0.146633854579926,0.311768112373352,0.2115324672401714
4.877516959418534,-4.7689844083786,2.40406194620132,1.9260112764358501,0.2115324672401714
4.878122652937614,-3.3319726896286004,3.43152532510757,1.4158721162796,0.2115324672401714
4.878728346456692,-0.046005892753601105,-2.23509088582993,-0.313331985282898,0.2115324672401714
4.879334039975772,5.1847167634964,-1.8470977217674298,-1.92518012981415,0.2115324672401714
4.879939733494852,4.0686376619338995,-2.33568170614243,-1.6210126493454,0.2115324672401714
4.880545427013931,-0.208867220878601,-0.757363835048676,0.49857963581085196,0.2115324672401714
4.881151120533009,-4.62767825603485,3.00042180948257,1.7128545381546,0.2115324672401714
4.88175681405209,-4.0169482755661,3.97519475870132,1.73440971393585,0.2115324672401714
4.882362507571169,-0.764511752128601,-1.3369585616111799,-0.550438918876648,0.2115324672401714
4.8829682010902475,3.9393066072464,-2.77157526082993,-1.87727973918915,0.2115324672401714
4.883573894609328,6.3582763338089,-2.72367487020493,-1.5156317899704,0.2115324672401714
4.884179588128407,0.33959225177764896,0.116818293857574,0.43870414752960196,0.2115324672401714
4.884785281647486,-5.66232669353485,3.87699895792007,1.8852959444046,0.2115324672401714
4.885390975166565,-2.4027051115036,1.3909686844825702,1.2865410615921,0.2115324672401714
4.885996668685645,-2.22786868572235,-0.247224674892426,-0.550438918876648,0.2115324672401714
4.886602362204724,0.45694820880889897,-0.798079167079926,-2.0760663602829,0.2115324672401714
4.887208055723804,8.54492916584015,-2.6733794600486798,-0.588759231376648,0.2115324672401714
4.887813749242882,1.3838207674026501,-0.235249577236176,-0.22471626262664798,0.2115324672401714
4.888419442761962,-5.39408450603485,1.41012884073257,0.757241745185852,0.2115324672401714
4.889025136281042,-2.43863040447235,1.70950628213882,1.94038139362335,0.2115324672401714
4.8896308298001205,-3.35352786540985,1.7885419266700702,0.34769340534210197,0.2115324672401714
4.8902365233192,2.11190670490265,-2.29496637411118,-1.57071723918915,0.2115324672401714
4.89084221683828,7.0576220369339,-2.70930475301743,-1.49886665325165,0.2115324672401714
4.891447910357359,0.641364712715149,0.650907649326324,-1.25457466106415,0.2115324672401714
4.892053603876438,-3.5547095060348504,0.310814875888824,1.0518291475296,0.2115324672401714
4.892659297395518,-3.1068408536911,1.52508977823257,2.7666631319046,0.2115324672401714
4.893264990914597,-3.1499512052536,3.63270696573257,0.16806694049835202,0.2115324672401714
4.893870684433677,0.969482388496399,-2.65421930379868,-0.682164993095398,0.2115324672401714
4.894476377952755,7.0576220369339,-1.6962114912986799,-2.1814472196579,0.2115324672401714
4.895082071471835,1.6784081697464002,-1.3968340498924299,-1.58029731731415,0.2115324672401714
4.895687764990915,-1.34171145915985,0.0761029618263245,1.2051103975296,0.2115324672401714
4.8962934585099935,-4.83843997478485,2.53818303995132,2.43854545612335,0.2115324672401714
4.896899152029073,-3.81816165447235,3.47703069620132,1.9044561006546001,0.2115324672401714
4.897504845548153,0.991037564277649,-2.23030084676743,0.0219707490921024,0.2115324672401714
4.898110539067232,5.04820065021515,-2.9559917647361797,-2.0377460477829,0.2115324672401714
4.8987162325863105,4.5572216463089,-1.6147808272361799,-0.828261184501648,0.2115324672401714
4.899321926105391,-1.10220950603485,1.96577337198257,1.21708549518585,0.2115324672401714
4.89992761962447,-5.1282373380661,2.29149602823257,1.23624565143585,0.2115324672401714
4.900533313143549,-2.4601855802536003,1.6735809891700701,1.13086479206085,0.2115324672401714
4.901139006662628,-1.7680249357223499,-0.769338932704926,-0.457033157157898,0.2115324672401714
4.901744700181708,3.3908471345901496,-2.65182428426743,-1.85811958293915,0.2115324672401714
4.902350393700787,7.2348534822463995,-1.8470977217674298,-1.43659614543915,0.2115324672401714
4.9029560872198665,-1.0183838224411002,0.6964130204200739,0.374038620185852,0.2115324672401714
4.903561780738946,-5.252778353691101,0.890409602451324,1.5595732881546,0.2115324672401714
4.904167474258025,-1.90693606853485,2.27473089151382,1.50927787799835,0.2115324672401714
4.904773167777105,-2.58712161540985,1.23529241495132,-0.116940383720398,0.2115324672401714
4.9053788612961835,3.1393700838089,-3.04939752645493,-2.0233759305954,0.2115324672401714
4.905984554815263,6.73429440021515,-2.0842046553611797,-0.907296829032898,0.2115324672401714
4.906590248334343,-0.675896029472351,0.9933954422950739,-0.255851516532898,0.2115324672401714
4.907195941853422,-3.9929980802536003,0.0689179032325745,1.0614092256546,0.2115324672401714
4.907801635372502,-2.6613672208786,1.21852727823257,2.4696807100296,0.2115324672401714
4.908407328891581,-2.74519290447235,3.55846136026382,0.0339458467483524,0.2115324672401714
4.90901302241066,2.0735863924026496,-3.6313872725486798,-1.9108100126266498,0.2115324672401714
4.9096187159297395,6.9330810213089,-1.9572686202049299,-1.2761298368454,0.2115324672401714
4.910224409448819,0.14320065021514902,-0.211299381923676,-0.600734329032898,0.2115324672401714
4.910830102967898,-2.05542727947235,0.183878840732574,0.462654342842102,0.2115324672401714
4.911435796486978,-3.8971972990036003,2.1334247391700703,2.55829643268585,0.2115324672401714
4.9120414900060565,-3.5571045255661002,3.4674506180763203,0.637490768623352,0.2115324672401714
4.912647183525136,1.4293261384964,-3.09490289754868,-0.921666946220398,0.2115324672401714
4.913252877044216,6.3918066072464,-3.82777887411118,-2.1191767118454,0.2115324672401714
4.913858570563295,2.56217037677765,-0.175374088954926,-0.957592239189148,0.2115324672401714
4.9144642640823735,-3.6864355802536,2.37771673135757,1.03985404987335,0.2115324672401714
4.915069957601454,-3.0062500333786,1.47000432901382,2.0194170381546,0.2115324672401714
4.915675651120533,-2.2039184904098503,1.93942815713882,1.3631816865921,0.2115324672401714
4.916281344639612,-1.5979785490036,-1.61717584676743,-1.45096626262665,0.2115324672401714
4.916887038158692,6.63849361896515,-2.87695612020493,-0.857001418876648,0.2115324672401714
4.917492731677771,4.0159472322464,-1.03518610067368,-0.809101028251648,0.2115324672401714
4.91809842519685,-3.4660937833786,1.8651825516700702,0.07226615924835239,0.2115324672401714
4.9187041187159295,-3.2361719083786,-0.16339899129867602,1.2434307100296,0.2115324672401714
4.919309812235009,-1.8997510099411,3.47703069620132,1.1476299287796001,0.2115324672401714
4.919915505754088,-1.4399072599411,0.0066473954200744695,-0.263036575126648,0.2115324672401714
4.920521199273168,5.7882616853714,-4.68280084676743,-1.53718696575165,0.2115324672401714
4.9211268927922465,3.56328854084015,-0.814844303798676,-0.36841743450164804,0.2115324672401714
4.921732586311326,-2.35240970134735,2.27233587198257,0.031550827217102395,0.2115324672401714
4.922338279830406,-2.9559546232223504,-0.913040104579926,1.3727617647171,0.2115324672401714
4.922943973349485,-2.9200293302536,2.37053167276382,1.17397514362335,0.2115324672401714
4.923549666868565,-1.36087161540985,2.6723041337013203,-0.315727004814148,0.2115324672401714
4.924155360387644,4.00397213459015,-4.83129205770493,-1.4701264188766499,0.2115324672401714
4.924761053906723,5.6780907869338995,-0.817239323329926,-1.5084467313766499,0.2115324672401714
4.9253667474258025,-1.1333447599411,0.5527118485450739,-0.30854194622039804,0.2115324672401714
4.925972440944882,-2.7930932950973504,0.5718720047950739,1.19792533893585,0.2115324672401714
4.926578134463961,-3.4660937833786,2.2100653641700703,2.49602592487335,0.2115324672401714
4.927183827983041,-1.8231103849411,2.89743596963882,-0.23429634075164799,0.2115324672401714
4.9277895215021195,2.6100707674026498,-3.55714166707993,-1.4916815946578998,0.2115324672401714
4.928395215021199,6.3965966463088995,-3.1188530928611797,-1.4054608915328999,0.2115324672401714
4.929000908540279,0.370727505683899,1.04129583292007,0.22794242877960202,0.2115324672401714
4.929606602059358,-3.7343359708786004,2.1166596024513202,1.1380498506546,0.2115324672401714
4.930212295578436,-1.38961184978485,0.332370051670074,1.3104912569046,0.2115324672401714
4.930817989097517,-2.8122534513473503,2.59805852823257,0.5824053194046019,0.2115324672401714
4.931423682616596,-0.465134310722351,-1.4998198897361799,-1.45096626262665,0.2115324672401714
4.932029376135675,7.9294091463089,-3.49966119832993,-1.1515888212204,0.2115324672401714
4.932635069654755,1.3335253572464,-0.0580181319236755,-0.337282180595398,0.2115324672401714
4.933240763173834,-4.98214114665985,1.65442083292007,0.112981491279602,0.2115324672401714
4.933846456692913,-1.3393164396286,-0.936990299892426,1.63381889362335,0.2115324672401714
4.9344521502119925,-2.0386621427536,4.79668645792007,0.726106491279602,0.2115324672401714
4.935057843731072,-0.8794726896286009,-1.3154033858299299,-1.6928632352829,0.2115324672401714
4.935663537250151,7.39052975177765,-4.90074762411118,-0.581574172782898,0.2115324672401714
4.936269230769231,1.0413329744339002,0.861669368076324,-0.411527786064148,0.2115324672401714
4.936874924288309,-3.22419681072235,1.85560247354507,0.455469284248352,0.2115324672401714
4.937480617807389,-1.49978274822235,-0.9609404952049261,0.927288131904602,0.2115324672401714
4.938086311326469,-3.4660937833786,3.75964300088882,0.766821823310852,0.2115324672401714
4.938692004845548,-0.304668002128601,0.744313411045074,0.00760063190460244,0.2115324672401714
4.939297698364626,5.4290087556839,-5.52105768270493,-1.9491303251266499,0.2115324672401714
4.939903391883707,2.4663695955276497,0.286864680576324,-0.564809036064148,0.2115324672401714
4.940509085402786,-2.0266870450973498,1.7023212235450702,-0.265431594657898,0.2115324672401714
4.9411147789218655,-2.5416162443161,-0.503491764736176,1.72003959674835,0.2115324672401714
4.941720472440945,-3.2385669279098503,2.63398382120132,1.8062602998733501,0.2115324672401714
4.942326165960024,-0.7022412443161009,2.00648870401382,-0.519303664970398,0.2115324672401714
4.942931859479104,3.9201464509963997,-5.39651666707993,-1.5347919462204,0.2115324672401714
4.943537552998182,4.5284814119339,-1.7105816084861798,-1.4102509305953999,0.2115324672401714
4.944143246517262,-1.70575442790985,3.07227239542007,0.500974655342102,0.2115324672401714
4.944748940036342,-3.0158301115036004,0.171903743076324,1.48053764362335,0.2115324672401714
4.945354633555421,-1.2051953458786,0.650907649326324,1.48053764362335,0.2115324672401714
4.945960327074499,-2.5847265958786,2.4064569657325703,-0.49056343059539803,0.2115324672401714
4.94656602059358,1.8508495759964,-3.13322321004868,-1.2378095243454,0.2115324672401714
4.947171714112659,6.9714013338089,-1.8686528975486798,-1.5108417509079,0.2115324672401714
4.947777407631738,-1.2147754240036,1.81967718057632,0.232732467842102,0.2115324672401714
4.948383101150818,-4.594147982597351,-0.041252995204925494,0.8410674287796019,0.2115324672401714
4.948988794669897,-0.278322787284851,-0.551392155361176,0.876992721748352,0.2115324672401714
4.949594488188976,-2.16559817790985,5.34035589151382,0.876992721748352,0.2115324672401714
4.950200181708055,0.607834439277649,-2.67098444051743,-1.3671405790328999,0.2115324672401714
4.950805875227135,7.8144482088089,-3.7774834639549297,-1.0030976102829,0.2115324672401714
4.951411568746214,-1.24112063884735,1.2975629227638201,0.136931686592102,0.2115324672401714
4.952017262265294,-3.1978515958786002,1.12033147745132,-0.176815872001648,0.2115324672401714
4.952622955784372,-1.1620849943161,-1.27229303426743,1.31288627643585,0.2115324672401714
4.953228649303452,-2.86494388103485,5.33077581338882,1.01111381549835,0.2115324672401714
4.953834342822532,0.253371548652649,-0.968125553798676,-1.13003364543915,0.2115324672401714
4.954440036341611,6.0181835603714,-5.90905084676743,-1.0174677274704,0.2115324672401714
4.955045729860689,0.732375454902649,1.08201116495132,-0.406737747001648,0.2115324672401714
4.95565142337977,-2.9439795255661,1.5705951493263202,0.7237114717483519,0.2115324672401714
4.956257116898849,-1.07346927165985,-0.798079167079926,1.99786186237335,0.2115324672401714
4.956862810417928,-3.1307910490036,3.18723333292007,0.5440850069046019,0.2115324672401714
4.957468503937008,0.102485318183899,0.478466243076324,-0.306146926689148,0.2115324672401714
4.958074197456087,5.25417232990265,-6.28027887411118,-1.97308052043915,0.2115324672401714
4.958679890975167,2.6196508455276497,0.30602483682632403,-0.861791457939148,0.2115324672401714
4.959285584494245,-3.7487060880661,4.10213079385757,1.00153373737335,0.2115324672401714
4.959891278013325,-1.2554907560348498,-0.958545475673676,1.5739434053421,0.2115324672401714
4.960496971532405,-1.43272220134735,0.29644475870132403,1.59070854206085,0.2115324672401714
4.961102665051484,-2.33803958415985,2.0136737626075703,-1.1755390165329,0.2115324672401714
4.961708358570563,4.9883251619339,-4.29001764364243,-0.763595657157898,0.2115324672401714
4.962314052089643,4.1788085603714,-1.0375811202049299,-0.679769973564148,0.2115324672401714
4.962919745608722,-3.3271826505661,4.1739813797950704,0.07466117877960239,0.2115324672401714
4.9635254391278005,-3.1930615568161,-2.75002008504868,0.632700729560852,0.2115324672401714
4.964131132646881,-0.208867220878601,0.37308538370132405,0.400383835029602,0.2115324672401714
4.96473682616596,-2.1009326505661003,4.87093206338882,0.546480026435852,0.2115324672401714
4.965342519685039,3.1968505525589,-4.63490045614243,-0.25345649700164796,0.2115324672401714
4.965948213204118,5.8050268220901495,-1.7608770186424298,-1.50365669231415,0.2115324672401714
4.966553906723198,-4.0816138029098505,2.24599065713882,0.0459209444046024,0.2115324672401714
4.967159600242277,-2.2254736661911,-1.01123590536118,0.560850143623352,0.2115324672401714
4.967765293761357,-0.647155795097351,-0.891484928798676,0.651860885810852,0.2115324672401714
4.968370987280435,-2.3021142911911,6.14508245401382,1.1332598115921,0.2115324672401714
4.968976680799515,1.5107568025589,-2.95838678426743,-1.39348579387665,0.2115324672401714
4.969582374318595,5.70922604084015,-4.56544488973618,-1.27852485637665,0.2115324672401714
4.9701880678376735,-1.7129394865035998,1.5705951493263202,0.156091842842102,0.2115324672401714
4.970793761356752,-2.76435306072235,0.409010676670074,0.455469284248352,0.2115324672401714
4.971399454875833,-0.592070345878601,-0.350210514736176,1.2673809053421001,0.2115324672401714
4.972005148394912,-2.8864990568161,4.39911321573257,0.7835869600296019,0.2115324672401714
4.972610841913991,0.746745572090149,-0.7405986983299261,-1.30247505168915,0.2115324672401714
4.973216535433071,5.6014501619339,-6.48146051473618,-1.5108417509079,0.2115324672401714
4.97382222895215,0.363542447090149,1.86757757120132,0.275842819404602,0.2115324672401714
4.97442792247123,-3.8804321622848503,3.5704364579200703,0.630305710029602,0.2115324672401714
4.975033615990309,0.6581298494338991,-2.2374859053611797,1.0230889131546002,0.2115324672401714
4.975639309509388,-2.2901391935348503,1.97056341104507,-0.021139602470397603,0.2115324672401714
4.976245003028468,-1.80155520915985,1.4077338212013202,-1.29768501262665,0.2115324672401714
4.9768506965475465,6.0229735994339,-5.8252251631736796,-1.03902290325165,0.2115324672401714
4.977456390066626,1.8221093416214,1.1730219071388202,0.08184623737335239,0.2115324672401714
4.978062083585706,-4.6300732755661,4.41587835245132,0.19920219440460202,0.2115324672401714
4.978667777104785,-1.3967969083786,-4.55586481161118,0.345298385810852,0.2115324672401714
4.9792734706238635,-0.7022412443161009,1.52029973917007,1.3392314912796,0.2115324672401714
4.979879164142944,-1.5931885099410998,3.7835931962013203,-0.586364211845398,0.2115324672401714
4.980484857662023,5.62300533771515,-5.65517877645493,-0.8330512235641481,0.2115324672401714
4.981090551181102,2.91663326740265,0.308419856357574,-0.959987258720398,0.2115324672401714
4.981696244700181,-5.5449707365036005,3.72611272745132,-0.0738300321578976,0.2115324672401714
4.982301938219261,-0.125041537284851,-3.15717340536118,0.845857467842102,0.2115324672401714
4.98290763173834,-0.654340853691101,0.15034856729507398,0.560850143623352,0.2115324672401714
4.9835133252574195,-1.6937793302536,5.80019964151382,0.529714889717102,0.2115324672401714
4.984119018776498,3.76447018146515,-4.99894342489243,-0.521698684501648,0.2115324672401714
4.984724712295578,3.9967870759963997,-2.55841852254868,-0.722880325126648,0.2115324672401714
4.985330405814658,-3.4421435880661,2.78726507120132,-0.0426947782516476,0.2115324672401714
4.9859360993337365,-1.54289309978485,-1.26271295614243,0.340508346748352,0.2115324672401714
4.986541792852816,-0.587280306816101,0.382665461826324,0.486604538154602,0.2115324672401714
4.987147486371896,-2.03626712322235,4.57873968057632,1.1667900850296,0.2115324672401714
4.987753179890975,2.78730221271515,-3.08292779989243,-0.730065383720398,0.2115324672401714
4.988358873410055,4.0782177400589,-5.16180475301743,-1.24499458293915,0.2115324672401714
4.988964566929134,-1.1740600919723498,4.02309514932632,0.402778854560852,0.2115324672401714
4.989570260448213,-3.30083743572235,1.7071112626075702,0.6015654756546019,0.2115324672401714
4.9901759539672925,0.241396450996399,-2.15845026082993,1.15481498737335,0.2115324672401714
4.990781647486372,-1.7656299161911,2.99084173135757,0.247102585029602,0.2115324672401714
4.991387341005451,-0.0268457365036011,-0.407690983486176,-1.8988349149704,0.2115324672401714
4.991993034524531,5.7978417634963995,-4.85284723348618,-0.912086868095398,0.2115324672401714
4.9925987280436095,-0.292692904472351,2.74175970010757,0.855437545967102,0.2115324672401714
4.993204421562689,-4.0480835294723505,3.66623723917007,0.31895317096710196,0.2115324672401714
4.993810115081769,-0.422023959159851,-5.28155572957993,0.637490768623352,0.2115324672401714
4.994415808600848,-0.666315951347351,3.2016034501075703,0.22794242877960202,0.2115324672401714
4.9950215021199265,-1.14052981853485,2.6291937821388203,-0.6558197782516481,0.2115324672401714
4.995627195639007,6.2002050447464,-5.69349908895493,-0.526488723564148,0.2115324672401714
4.996232889158086,0.950322232246399,1.81967718057632,-0.0283246610641476,0.2115324672401714
4.996838582677165,-5.8371631193161,3.29500921182632,-0.672584914970398,0.2115324672401714
4.997444276196245,0.7802758455276491,-4.11278619832993,0.40756889362335197,0.2115324672401714
4.998049969715324,-1.42793216228485,1.51311468057632,1.02548393268585,0.2115324672401714
4.998655663234403,-1.0088037443161,4.61466497354507,-0.263036575126648,0.2115324672401714
4.9992613567534825,5.47451412677765,-6.03598688192368,-0.377997512626648,0.2115324672401714
4.999867050272562,1.9658105134964001,0.08328802042007451,-1.4389911649704,0.2115324672401714
5.000472743791641,-4.9126855802536005,2.70104436807632,0.306978073310852,0.2115324672401714
5.001078437310721,0.27732174396514897,-2.40513727254868,1.2530107881546,0.2115324672401714
5.0016841308297995,-0.9824585294723509,1.1562567704200701,0.532109909248352,0.2115324672401714
5.002289824348879,-1.56205325603485,3.91771428995132,0.29979301471710196,0.2115324672401714
5.002895517867959,4.3799902009964,-5.03007867879868,-1.69525825481415,0.2115324672401714
5.003501211387038,2.4831347322463997,-2.72846490926743,-0.406737747001648,0.2115324672401714
5.004106904906118,-2.8242285490036,5.67326360635757,1.1188896944046,0.2115324672401714
5.004712598425197,-1.4159570646286,-0.953755436611176,0.8027471162796019,0.2115324672401714
5.005318291944276,-0.050795931816101106,-1.31300836629868,0.306978073310852,1.3500125099601512
5.0059239854633555,-2.4937158536911004,3.2542938797950702,-0.291776809501648,1.3500125099601512
5.006529678982435,2.46157955646515,-2.6566143233299297,-1.3288202665328999,1.3500125099601512
5.007135372501514,3.9464916658401497,-3.47092096395493,-0.804310989189148,1.3500125099601512
5.007741066020594,-2.08895755290985,4.54999944620132,1.26498588581085,1.3500125099601512
5.0083467595396725,-2.78351321697235,1.5658051102638202,-0.231901321220398,1.3500125099601512
5.008952453058752,-0.292692904472351,-4.9270928389549296,0.570430221748352,1.3500125099601512
5.009558146577832,-0.287902865409851,3.8530487626075702,0.136931686592102,1.3500125099601512
5.010163840096911,0.0617699861526489,0.22938421182632399,-1.1132685087204,1.3500125099601512
5.010769533615989,5.7379662752151495,-4.93427789754868,-0.00437446575164756,1.3500125099601512
5.01137522713507,-1.0471240568161,3.17046819620132,-0.20555610637664798,1.3500125099601512
5.011980920654149,-4.8216748380661,1.9729584305763201,0.283027877998352,1.3500125099601512
5.012586614173228,1.2520946931839,-4.11757623739243,0.0866362764358524,1.3500125099601512
5.013192307692308,-1.66743411540985,2.6124286454200703,0.6829961397171019,1.3500125099601512
5.013798001211387,-0.0819311857223511,3.1417279618263203,-0.8953217313766481,1.3500125099601512
5.014403694730466,5.1176562166214,-5.8180401045799295,-0.725275344657898,1.3500125099601512
5.0150093882495455,0.30845699787139896,0.928729914951324,0.251892624092102,1.3500125099601512
5.015615081768625,-4.9557959318161,2.38729680948257,-0.447453079032898,1.3500125099601512
5.016220775287704,1.3766357088089,-3.05179254598618,0.999138717842102,1.3500125099601512
5.016826468806784,-0.889052767753601,1.9897235672950702,0.975188522529602,1.3500125099601512
5.017432162325862,-1.63869388103485,3.53211614542007,-0.42829292278289804,1.3500125099601512
5.018037855844942,5.33081295490265,-6.9293291670799295,-0.00437446575164756,1.3500125099601512
5.018643549364022,0.9143969392776491,-0.192139225673676,-0.33967720012664804,1.3500125099601512
5.019249242883101,-4.594147982597351,4.86853704385757,-0.0666449735641476,1.3500125099601512
5.019854936402179,1.1994042634964002,-2.45303766317368,1.4637725069046001,1.3500125099601512
5.02046062992126,-0.46034427165985103,0.5335516922950739,-0.435477981376648,1.3500125099601512
5.021066323440339,-2.3404346036911003,2.77049993448257,-0.758805618095398,1.3500125099601512
5.0216720169594184,4.2362890291214,-4.40976862020493,-1.0893183134078999,1.3500125099601512
5.022277710478498,1.9322802400589,-1.63394098348618,-0.231901321220398,1.3500125099601512
5.022883403997577,-3.10923587322235,5.18228460245132,0.728501510810852,1.3500125099601512
5.023489097516657,-1.43751224040985,-1.3633037764549298,0.323743210029602,1.3500125099601512
5.024094791035735,-0.228027377128601,-2.94641168661118,0.24949760456085202,1.3500125099601512
5.024700484554815,-0.5369848966598509,4.13805608682632,0.07466117877960239,1.3500125099601512
5.025306178073895,2.3394335603714,-1.88781305379868,-0.258246536064148,1.3500125099601512
5.025911871592974,3.47227779865265,-3.1787285811424297,-0.799520950126648,1.3500125099601512
5.026517565112052,-3.2553320646286004,4.0015399735450705,0.934473190498352,1.3500125099601512
5.027123258631133,-2.4338403654098504,0.34434514932632404,-0.17442085247039799,1.3500125099601512
5.027728952150212,0.583884243965149,-3.34877496786118,0.115376510810852,1.3500125099601512
5.028334645669291,-0.8627075529098509,3.09861761026382,0.673416061592102,1.3500125099601512
5.028940339188371,1.24969967365265,1.27361272745132,-0.8330512235641481,1.3500125099601512
5.02954603270745,3.77884029865265,-5.18096490926743,-0.0810150907516476,1.3500125099601512
5.030151726226529,-0.8004370450973509,2.5429730790138203,-0.445058059501648,1.3500125099601512
5.030757419745608,-4.6133081388473505,0.9143597977638239,0.0171807100296024,1.3500125099601512
5.031363113264688,1.7382836580276502,-2.61829401082993,0.659045944404602,1.3500125099601512
5.031968806783767,-1.0519140958786,2.6459589188575703,0.608750534248352,1.3500125099601512
5.032574500302847,0.205471158027649,1.25205755167007,-0.7755707548141481,1.3500125099601512
5.033180193821925,4.3847802400589,-6.04796197957993,-0.366022414970398,1.3500125099601512
5.033785887341005,-0.9968286466598509,2.35376653604507,0.0531060029983524,1.3500125099601512
5.034391580860085,-3.86606204509735,2.85432561807632,0.671021042060852,1.3500125099601512
5.034997274379164,1.8676147127151501,-3.16675348348618,0.7811919404983519,1.3500125099601512
5.035602967898244,-1.03993899822235,2.08073430948257,-0.207951125907898,1.3500125099601512
5.036208661417323,-1.2051953458786,1.81967718057632,-0.562414016532898,1.3500125099601512
5.036814354936402,4.77516842365265,-5.04205377645493,-0.557623977470398,1.3500125099601512
5.037420048455481,-0.49866458415985104,0.9335199540138239,1.0278789522171001,1.3500125099601512
5.038025741974561,-3.70320071697235,4.13566106729507,0.740476608467102,1.3500125099601512
5.03863143549364,0.401862759590149,-3.37991022176743,-0.0331147001266476,1.3500125099601512
5.03923712901272,-0.35975345134735104,-0.501096745204926,-0.670189895439148,1.3500125099601512
5.039842822531798,-0.412443881034851,3.67581731729507,0.0219707490921024,1.3500125099601512
5.040448516050878,3.16571529865265,-3.48529108114243,-0.212741164970398,1.3500125099601512
5.041054209569958,1.2233544588089,-1.16451715536118,-0.38997261028289804,1.3500125099601512
5.0416599030890366,-3.6433252286911,3.43631536417007,0.577615280342102,1.3500125099601512
5.042265596608116,-1.0183838224411002,-1.3896489912986798,0.304583053779602,1.3500125099601512
5.042871290127196,0.353962368965149,-1.89978815145493,0.421939010810852,1.3500125099601512
5.043476983646275,-0.41962893962860104,3.09861761026382,-0.267826614189148,1.3500125099601512
5.0440826771653535,2.3059032869339,-0.6615630537986761,-0.497748489189148,1.3500125099601512
5.044688370684434,1.7071484041214,-3.52600641317368,-0.591154250907898,1.3500125099601512
5.045294064203513,-2.5224560880661,3.48900579385757,0.330928268623352,1.3500125099601512
5.045899757722592,-2.7811181974411,-0.30470514364242596,0.0195757295608524,1.3500125099601512
5.046505451241671,1.57542232990265,-1.7991973311424299,0.546480026435852,1.3500125099601512
5.047111144760751,-0.589675326347351,2.28191595010757,1.98349174518585,1.3500125099601512
5.04771683827983,1.3047851228714,-0.457986393642426,-1.70004829387665,1.3500125099601512
5.0483225317989096,3.0818896150588997,-4.31875787801743,-0.507328567314148,1.3500125099601512
5.048928225317988,-2.3212744474411,4.59789983682632,0.891362838935852,1.3500125099601512
5.049533918837068,-2.7164526700973504,0.686832942295074,0.043525924873352405,1.3500125099601512
5.050139612356148,2.2699779939651497,-2.68774957723618,0.450679245185852,1.3500125099601512
5.0507453058752265,-1.7225195646286,2.44477727823257,-0.591154250907898,1.3500125099601512
5.051350999394306,1.1179735994339,0.157533625888824,-0.660609817314148,1.3500125099601512
5.051956692913386,3.5273632478713997,-3.9906402022361798,-0.107360305595398,1.3500125099601512
5.052562386432465,-1.9620215177536,3.13933294229507,0.283027877998352,1.3500125099601512
5.053168079951544,-2.9248193693161,2.2531757157325703,0.536899948310852,1.3500125099601512
5.053773773470624,0.24858150959014902,-4.1487114912986796,-0.583969192314148,1.3500125099601512
5.054379466989703,0.23421139240264902,1.2448724930763202,-0.138495559501648,1.3500125099601512
5.0549851605087825,0.6988451814651491,2.6028485672950703,-0.16963081340789798,1.3500125099601512
5.055590854027862,2.9573485994339,-3.56193170614243,-0.588759231376648,1.3500125099601512
5.056196547546941,-0.6974512052536009,0.222199153232574,0.824302292060852,1.3500125099601512
5.056802241066021,-4.1271191740036,2.61961370401382,0.362063522529602,1.3500125099601512
5.0574079345850995,0.164755825996399,-2.5200982100486797,-0.045089797782897595,1.3500125099601512
5.058013628104179,0.19828609943389902,-0.47475153036117596,-0.0283246610641476,1.3500125099601512
5.058619321623259,-0.10827640056610101,3.39799505167007,-0.265431594657898,1.3500125099601512
5.059225015142338,2.95974361896515,-2.29017633504868,-0.17442085247039799,1.3500125099601512
5.0598307086614165,0.13362057209014902,-2.04588434286118,0.0555010225296024,1.3500125099601512
5.060436402180497,-3.2649121427536003,3.1081976883888203,0.06987113971710239,1.3500125099601512
5.061042095699576,-0.774091830253601,-1.15254205770493,0.376433639717102,1.3500125099601512
5.061647789218655,0.880866665840149,-0.635217838954926,0.192017135810852,1.3500125099601512
5.062253482737734,-0.527404818534851,2.45196233682632,-0.900111770439148,1.3500125099601512
5.062859176256814,2.7657470369338997,-2.67816949911118,-0.0570648954391476,1.3500125099601512
5.063464869775893,1.5299169588089,-2.26862115926743,0.326138229560852,1.3500125099601512
5.0640705632949725,-3.7582861661911,4.78471136026382,0.122561569404602,1.3500125099601512
5.064676256814052,-0.630390658378601,-0.7453887373924261,0.735686569404602,1.3500125099601512
5.065281950333131,1.5826073884964,-1.51179498739243,-0.0522748563766476,1.3500125099601512
5.065887643852211,-1.1189746427536,1.87236761026382,-0.227111282157898,1.3500125099601512
5.0664933373712895,2.90705318927765,-1.4231792647361798,-0.718090286064148,1.3500125099601512
5.067099030890369,0.670104947090149,-2.54404840536118,0.14411674518585202,1.3500125099601512
5.067704724409449,-2.8338086271286,4.90446233682632,0.946448288154602,1.3500125099601512
5.068310417928528,-1.8853808927536,-0.429246159267426,-0.0355097196578976,1.3500125099601512
5.0689161114476065,0.612624478340149,-3.83975397176743,-0.148075637626648,1.3500125099601512
5.069521804966687,1.0796532869339002,1.59933538370132,-0.5336737821578981,1.3500125099601512
5.070127498485766,1.52752193927765,1.5322748368263202,-0.126520461845398,1.3500125099601512
5.0707331920048455,1.5299169588089,-2.26862115926743,0.172856979560852,1.3500125099601512
5.071338885523925,-1.2866260099411,1.9561932938575701,0.105796432685852,1.3500125099601512
5.071944579043004,-3.20024661540985,0.329975032138824,0.613540573310852,1.3500125099601512
5.072550272562084,0.629389615058899,-2.60392389364243,-0.406737747001648,1.3500125099601512
5.0731559660811625,0.725190396308899,0.442540950107574,-0.38039253215789803,1.3500125099601512
5.073761659600242,1.2760448884964,2.89743596963882,0.041130905342102404,1.3500125099601512
5.074367353119322,1.5969775056839,-2.50572809286118,-0.267826614189148,1.3500125099601512
5.074973046638401,-0.513034701347351,-0.927410221767426,0.141721725654602,1.3500125099601512
5.0755787401574795,-3.2146167325973503,2.16455999307632,0.745266647529602,1.3500125099601512
5.07618443367656,0.0114745759963989,-1.7010015303611798,-0.0355097196578976,1.3500125099601512
5.076790127195639,1.6352978181839,0.0329926102638245,0.311768112373352,1.3500125099601512
5.077395820714718,0.155175747871399,1.67118596963882,0.390803756904602,1.3500125099601512
5.078001514233798,2.46157955646515,-3.05179254598618,-0.509723586845398,1.3500125099601512
5.078607207752877,-0.848337435722351,-0.407690983486176,0.362063522529602,1.3500125099601512
5.079212901271956,-3.46369876384735,3.34051458292007,0.888967819404602,1.3500125099601512
5.0798185947910355,1.0125927400588999,-1.5165850264549299,-0.222321243095398,1.3500125099601512
5.080424288310115,0.727585415840149,-0.014907780361175502,-0.483378372001648,1.3500125099601512
5.081029981829194,-1.07346927165985,1.26163762979507,-0.318122024345398,1.3500125099601512
5.081635675348274,2.94058346271515,-2.47938287801743,-0.43068794231414803,1.3500125099601512
5.0822413688673524,-0.424418978691101,-0.7405986983299261,0.527319870185852,1.3500125099601512
5.082847062386432,-3.3655029630661,4.66256536417007,0.101006393623352,1.3500125099601512
5.083452755905512,-0.7381665372848509,-1.30582330770493,-0.00676948528289756,1.3500125099601512
5.084058449424591,1.21137936115265,-3.02065729207993,-0.382787551689148,1.3500125099601512
5.084664142943671,0.832966275215149,1.16583684854507,-0.476193313407898,1.3500125099601512
5.08526983646275,1.7861840486526501,0.7754486649513239,-0.00676948528289756,1.3500125099601512
5.085875529981829,0.030634732246398903,-1.26750299520493,0.644675827217102,1.3500125099601512
5.0864812235009085,-2.1368579435348503,2.72499456338882,0.618330612373352,1.3500125099601512
5.087086917019988,-2.08895755290985,-1.0519512373924298,-0.0283246610641476,1.3500125099601512
5.087692610539067,0.9551122713088991,-2.27580621786118,-0.7731757352828981,1.3500125099601512
5.088298304058147,0.801831021308899,0.7970038407325739,0.0363408662796024,1.3500125099601512
5.0889039975772254,1.7813940095901502,2.28431096963882,0.196807174873352,1.3500125099601512
5.089509691096305,0.545563931465149,-2.3141265303611798,-0.284591750907898,1.3500125099601512
5.090115384615385,-1.7249145841598499,0.619772395420074,0.424334030342102,1.3500125099601512
5.090721078134464,-2.67813235759735,0.888014582920074,0.0890312959671024,1.3500125099601512
5.091326771653542,1.1946142244339,-1.72974176473618,-0.334887161064148,1.3500125099601512
5.091932465172623,1.3886108064651501,0.808978938388824,-0.677374954032898,1.3500125099601512
5.092538158691702,0.265346646308899,0.43296087198257405,-0.31093696575164803,1.3500125099601512
5.093143852210781,1.4053759431839001,-2.27820123739243,0.196807174873352,1.3500125099601512
5.093749545729861,-1.6913843107223498,1.8699725907325702,0.426729049873352,1.3500125099601512
5.09435523924894,-2.00273684978485,1.35983343057632,0.584800338935852,1.3500125099601512
5.094960932768019,1.37424068927765,-1.75369196004868,0.196807174873352,1.3500125099601512
5.095566626287098,0.626994595527649,0.452121028232574,-0.20555610637664798,1.3500125099601512
5.096172319806178,0.852126431465149,0.49283636026382405,-0.845026321220398,1.3500125099601512
5.096778013325257,1.47483150959015,-1.8758379561424299,-0.207951125907898,1.3500125099601512
5.097383706844337,-1.3632666349411,0.9335199540138239,0.984768600654602,1.3500125099601512
5.097989400363415,-3.1499512052536,3.07227239542007,0.330928268623352,1.3500125099601512
5.098595093882495,0.047399868965148896,-1.3465386397361798,-0.7947309110641481,1.3500125099601512
5.099200787401575,1.31676022052765,-2.35963190145493,-0.6151044462203981,1.3500125099601512
5.099806480920654,0.830571255683899,1.0700360672950702,-0.217531204032898,1.3500125099601512
5.100412174439732,1.6161376619339,0.6964130204200739,0.0195757295608524,1.3500125099601512
5.101017867958813,-0.5369848966598509,-1.21241754598618,0.6231206514358519,1.3500125099601512
5.101623561477892,-2.1967334318161003,2.92378118448257,0.16806694049835202,1.3500125099601512
5.102229254996971,-2.2302637052536003,-0.996865788173676,-0.186395950126648,1.3500125099601512
5.102834948516051,2.4639745759964,-2.0746245772361798,-0.6342646024703981,1.3500125099601512
5.10344064203513,1.2209594392776502,0.842509211826324,-0.442663039970398,1.3500125099601512
5.10404633555421,1.20179928302765,1.98253850870132,0.41954399127960196,1.3500125099601512
5.104652029073288,-0.163361849784851,-2.33568170614243,0.196807174873352,1.3500125099601512
5.105257722592368,-2.5511963224411,1.56101507120132,-0.0690399930953976,2.0338652898681184
5.105863416111448,-1.81592532634735,-0.09154840536117549,0.35727348346710197,2.0338652898681184
5.106469109630527,1.7047533845901501,-1.57167047567368,-0.382787551689148,2.0338652898681184
5.107074803149605,0.667709927558899,1.38138860635757,0.393198776435852,2.0338652898681184
5.107680496668686,1.3383153963089,-0.838794499111176,0.225547409248352,2.0338652898681184
5.108286190187765,1.0748632478714,-1.57167047567368,-0.315727004814148,2.0338652898681184
5.1088918837068436,-3.47327884197235,2.44477727823257,0.594380417060852,2.0338652898681184
5.109497577225924,-0.8603125333786009,0.30362981729507404,0.7213164522171019,2.0338652898681184
5.110103270745003,1.5442870759964,-1.3417486006736798,-0.36841743450164804,2.0338652898681184
5.110708964264082,-0.0220556974411011,0.511996516513824,-0.823471145439148,2.0338652898681184
5.111314657783161,2.4998998689651497,-0.850769596767426,-0.267826614189148,2.0338652898681184
5.111920351302241,0.126435513496399,-1.4279693037986798,-0.217531204032898,2.0338652898681184
5.11252604482132,-2.6565771818161004,2.7321796219825703,0.706946335029602,2.0338652898681184
5.1131317383404,-1.66743411540985,0.401825618076324,0.757241745185852,2.0338652898681184
5.113737431859478,0.200681118965149,-0.786104069423676,-0.708510207939148,2.0338652898681184
5.114343125378558,1.1898241853714,-2.47938287801743,-0.413922805595398,2.0338652898681184
5.114948818897638,2.4208642244339,0.107238215732574,-0.186395950126648,2.0338652898681184
5.1155545124167165,0.100090298652649,0.9526801102638239,-0.172025832939148,2.0338652898681184
5.116160205935795,-0.932163119316101,-0.34542047567367595,1.0829644014358502,2.0338652898681184
5.116765899454876,-2.5416162443161,2.09749944620132,0.07226615924835239,2.0338652898681184
5.117371592973955,-1.8470605802536,-1.05674127645493,-0.900111770439148,2.0338652898681184
5.117977286493034,3.5704735994338996,-1.83272760457993,-0.543253860282898,2.0338652898681184
5.118582980012114,1.0413329744339002,0.583847102451324,-0.143285598564148,2.0338652898681184
5.119188673531193,0.265346646308899,1.8268622391700702,-0.009164504814147559,2.0338652898681184
5.119794367050273,-0.8962378263473509,-2.6733794600486798,1.14044487018585,2.0338652898681184
5.120400060569352,-2.53443118572235,1.97056341104507,0.06508110065460239,2.0338652898681184
5.121005754088431,-1.79676517009735,-0.359790592861176,-0.500143508720398,2.0338652898681184
5.121611447607511,2.44241940021515,-1.4351543623924299,-0.0594599149703976,2.0338652898681184
5.1222171411265895,1.44130123615265,1.36701848917007,-0.471403274345398,2.0338652898681184
5.122822834645669,1.0628881502151502,-0.877114811611176,0.024365768623352397,2.0338652898681184
5.123428528164749,-0.0915112638473511,-0.48433160848617596,0.24949760456085202,2.0338652898681184
5.124034221683828,-3.9331225919723503,1.8747626297950701,0.671021042060852,2.0338652898681184
5.1246399152029065,0.16954586505889901,-0.927410221767426,0.32853324909210196,2.0338652898681184
5.125245608721987,1.99694576740265,-0.5849224287986761,-0.679769973564148,2.0338652898681184
5.125851302241066,0.140805630683899,0.7323383133888239,-1.14440376262665,2.0338652898681184
5.126456995760145,2.5525902986526496,-1.44233942098618,0.108191452217102,2.0338652898681184
5.127062689279224,-1.02556888103485,-0.278359928798676,0.7237114717483519,2.0338652898681184
5.127668382798304,-3.1619263029098503,2.99323675088882,0.225547409248352,2.0338652898681184
5.128274076317383,-0.843547396659851,-0.477146549892426,0.486604538154602,2.0338652898681184
5.1288797698364625,0.6006493806838991,-0.0652031905174255,-0.639054641532898,2.0338652898681184
5.129485463355541,1.04372799396515,-2.25904108114243,-0.765990676689148,2.0338652898681184
5.130091156874621,2.8926830720901497,0.387455500888824,-0.658214797782898,2.0338652898681184
5.130696850393701,-1.9189111661911,1.04608587198257,0.285422897529602,2.0338652898681184
5.1313025439127795,-1.2459106779098499,0.279679621982574,1.2242705537796001,2.0338652898681184
5.131908237431859,-1.4734375333785998,0.8353241532325739,0.110586471748352,2.0338652898681184
5.132513930950939,-0.750141634941101,-0.810054264736176,-0.677374954032898,2.0338652898681184
5.133119624470018,3.0315942049026496,-1.77285211629868,-0.751620559501648,2.0338652898681184
5.133725317989098,1.1802441072464,0.43296087198257405,0.572825241279602,2.0338652898681184
5.134331011508177,0.432998013496399,1.3646234696388202,0.47702446002960197,2.0338652898681184
5.134936705027256,-1.4063769865036,-1.37288385457993,-0.10017524700164801,2.0338652898681184
5.1355423985463355,-2.63023196697235,1.93703313760757,0.165671920967102,2.0338652898681184
5.136148092065415,-1.18364017009735,-1.10464166707993,-0.40913276653289804,2.0338652898681184
5.136753785584494,3.71177975177765,-1.39204401082993,-0.38039253215789803,2.0338652898681184
5.137359479103574,1.15868893146515,0.409010676670074,-0.107360305595398,2.0338652898681184
5.1379651726226525,0.23900143146514902,0.14555852823257398,0.5440850069046019,2.0338652898681184
5.138570866141732,-0.9369531583786009,0.868854426670074,1.7272246553421,2.0338652898681184
5.139176559660812,-3.0876806974411,0.9910004227638239,0.232732467842102,2.0338652898681184
5.139782253179891,0.8138061189651491,-0.7453887373924261,-0.39955268840789804,2.0338652898681184
5.1403879466989695,1.3862157869339,-0.256804753017426,-0.375602493095398,2.0338652898681184
5.14099364021805,1.2952050447464,0.38506048135757404,-1.02465278606415,2.0338652898681184
5.141599333737129,1.6640380525589,-0.968125553798676,0.0507109834671024,2.0338652898681184
5.142205027256208,-1.9716015958786,0.428170832920074,0.26865776081085196,2.0338652898681184
5.142810720775287,-3.1116308927536003,1.8579974930763201,0.807537155342102,2.0338652898681184
5.143416414294367,-0.194497103691101,-0.6424028975486761,0.441099167060852,2.0338652898681184
5.144022107813446,1.9131200838089,-0.608872624111176,-1.2282294462204,2.0338652898681184
5.1446278013325255,1.4484862947464001,-2.04588434286118,-1.24499458293915,2.0338652898681184
5.145233494851605,1.71912350177765,1.5442499344825702,-0.0283246610641476,2.0338652898681184
5.145839188370684,-2.12248782634735,0.133583430576324,1.03985404987335,2.0338652898681184
5.146444881889764,-1.38003177165985,0.540736750888824,-0.21513618450164798,2.0338652898681184
5.1470505754088425,-2.1009326505661003,-0.00772272176742553,0.47941947956085196,2.0338652898681184
5.147656268927922,0.5407738924026491,-0.13465875692367602,-1.1875141141891499,2.0338652898681184
5.148261962447002,2.6986864900589,-2.3668169600486797,-0.37081245403289803,2.0338652898681184
5.148867655966081,1.76702389240265,0.768263606357574,0.18962211627960202,2.0338652898681184
5.1494733494851594,-1.06388919353485,1.74782659463882,-0.629474563407898,2.0338652898681184
5.15007904300424,-2.3739648771286004,-1.2818731123924298,1.4398223115921,2.0338652898681184
5.150684736523319,-1.0950244474411,1.67118596963882,-0.272616653251648,2.0338652898681184
5.1512904300423985,-0.232817416191101,-1.20762750692368,-0.531278762626648,2.0338652898681184
5.151896123561478,3.3046264314651497,-0.970520573329926,-0.627079543876648,2.0338652898681184
5.152501817080557,0.6150194978713991,-0.6232427412986761,-0.255851516532898,2.0338652898681184
5.153107510599637,-0.029240756034851097,0.409010676670074,0.520134811592102,2.0338652898681184
5.1537132041187155,-1.9260962247848499,1.1778119462013201,0.975188522529602,2.0338652898681184
5.154318897637795,-2.1632031583786,0.6556976883888239,0.383618698310852,2.0338652898681184
5.154924591156875,0.947927212715149,-0.812449284267426,-0.356442336845398,2.0338652898681184
5.155530284675954,1.9801806306839,-0.6855132491111761,-0.34925727825164804,2.0338652898681184
5.156135978195032,2.2364477205276496,-0.0580181319236755,-0.758805618095398,2.0338652898681184
5.156741671714113,-0.412443881034851,-0.192139225673676,0.19441215534210202,2.0338652898681184
5.157347365233192,-2.0769824552536003,1.70950628213882,0.879387741279602,2.0338652898681184
5.157953058752271,-2.2542139005661004,0.770658625888824,0.728501510810852,2.0338652898681184
5.158558752271351,0.0186596345901489,-0.6855132491111761,-0.397157668876648,2.0338652898681184
5.15916444579043,1.8125292634964,-0.996865788173676,-1.3455854032516499,2.0338652898681184
5.159770139309509,1.9945507478714,-1.8159624678611799,-0.837841262626648,2.0338652898681184
5.1603758328285885,0.662919888496399,2.37053167276382,0.35008842487335196,2.0338652898681184
5.160981526347668,-2.80746341228485,0.488046321201324,0.977583542060852,2.0338652898681184
5.161587219866747,-1.2339355802535998,0.43535589151382403,0.16806694049835202,2.0338652898681184
5.162192913385827,-1.70096438884735,-0.309495182704926,-0.207951125907898,2.0338652898681184
5.162798606904905,2.1717821931839,-0.505886784267426,-1.0462079618453999,2.0338652898681184
5.163404300423985,2.44720943927765,-1.72974176473618,-0.804310989189148,2.0338652898681184
5.164009993943065,0.571909146308899,1.4340790360450701,0.0459209444046024,2.0338652898681184
5.164615687462144,-1.54768313884735,0.6317474930763239,0.414753952217102,2.0338652898681184
5.165221380981224,-1.9524414396285998,-0.395715885829926,0.29979301471710196,2.0338652898681184
5.165827074500303,-1.12136966228485,1.25205755167007,0.333323288154602,2.0338652898681184
5.166432768019382,1.0269628572464,-1.15972711629868,-0.627079543876648,2.0338652898681184
5.1670384615384615,3.46269772052765,-0.630427799892426,-0.413922805595398,2.0338652898681184
5.167644155057541,0.631784634590149,-1.15972711629868,0.390803756904602,2.0338652898681184
5.16824984857662,-0.7573266935348509,0.7514984696388239,0.261472702217102,2.0338652898681184
5.1688555420957,-2.5943066740036,1.28558782510757,0.867412643623352,2.0338652898681184
5.169461235614778,-1.07346927165985,0.198248957920074,0.0602910615921024,2.0338652898681184
5.170066929133858,1.2664648103714,-0.850769596767426,-0.406737747001648,2.0338652898681184
5.170672622652938,2.0472411775589,-0.0604131514549255,-1.0030976102829,2.0338652898681184
5.171278316172017,1.5730273103714,-0.371765690517426,-0.564809036064148,2.0338652898681184
5.171884009691095,-1.04472903728485,0.09047307901382451,0.615935592842102,2.0338652898681184
5.172489703210176,-2.6829223966598503,1.77896184854507,1.12128471393585,2.0338652898681184
5.173095396729255,-1.46625247478485,0.30362981729507404,0.520134811592102,2.0338652898681184
5.173701090248334,0.48808346271514896,-0.786104069423676,-0.435477981376648,2.0338652898681184
5.174306783767414,2.0640063142776497,-2.02672418661118,-1.26415473918915,2.0338652898681184
5.174912477286493,2.71066158771515,-1.11661676473618,-0.677374954032898,2.0338652898681184
5.175518170805572,-1.0998144865036,2.73457464151382,0.37882865924835196,2.0338652898681184
5.176123864324651,-2.62065188884735,0.648512629795074,1.1045195772171001,2.0338652898681184
5.176729557843731,-0.5633301115036009,-0.105918522548676,0.8027471162796019,2.0338652898681184
5.17733525136281,-1.4518823575973498,-0.8819048506736761,-0.46900825481414804,2.0338652898681184
5.17794094488189,3.0483593416213997,-0.874719792079926,-0.890531692314148,2.0338652898681184
5.178546638400968,2.4759496736526496,-1.20762750692368,-0.706115188407898,2.0338652898681184
5.179152331920048,-0.984853549003601,2.13102971963882,0.172856979560852,2.0338652898681184
5.179758025439128,-2.40510013103485,0.301234797763824,0.735686569404602,2.0338652898681184
5.180363718958207,-1.4973877286911,-0.184954167079926,0.40996391315460196,2.0338652898681184
5.180969412477285,-0.608835482597351,0.452121028232574,-0.394762649345398,2.0338652898681184
5.181575105996366,2.15980709552765,-1.2387627608299299,-0.751620559501648,2.0338652898681184
5.182180799515445,2.7394018220901497,-0.450801335048676,-0.509723586845398,2.0338652898681184
5.182786493034524,-0.433999056816101,-0.714253483486176,0.39798881549835197,2.0338652898681184
5.183392186553604,-1.2051953458786,1.67118596963882,0.639885788154602,2.0338652898681184
5.183997880072683,-2.93679446697235,0.897594661045074,0.49857963581085196,2.0338652898681184
5.184603573591763,0.246186490058899,-0.228064518642426,-0.0594599149703976,2.0338652898681184
5.185209267110841,2.1047216463089,-0.786104069423676,-0.945617141532898,2.0338652898681184
5.185814960629921,2.1622021150589,-0.14902887411117602,-0.7156952665328981,2.0338652898681184
5.186420654149001,0.926372036933899,-0.673538151454926,0.041130905342102404,2.0338652898681184
5.18702634766808,-2.1200928068161002,0.387455500888824,0.699761276435852,2.0338652898681184
5.187632041187159,-2.62544192790985,2.15497991495132,0.908127975654602,2.0338652898681184
5.188237734706239,-0.663920931816101,-0.395715885829926,0.146511764717102,2.0338652898681184
5.188843428225318,1.27364986896515,-0.369370670986176,-1.15398384075165,2.0338652898681184
5.1894491217443965,2.2699779939651497,-2.15126520223618,-0.857001418876648,2.0338652898681184
5.190054815263477,2.3442235994339,-0.647192936611176,-0.0882001493453976,2.0338652898681184
5.190660508782556,-2.9248193693161,3.1513080399513203,0.778796920967102,2.0338652898681184
5.191266202301635,-2.2254736661911,0.7970038407325739,1.05901420612335,2.0338652898681184
5.191871895820714,-0.0795361661911011,-0.307100163173676,0.16806694049835202,2.0338652898681184
5.192477589339794,-0.6399707365036009,-1.0854815108299298,-0.5360688016891481,2.0338652898681184
5.193083282858873,3.8435058259963997,-1.66507623739243,-1.2425995634079,2.0338652898681184
5.193688976377953,1.33113033771515,-0.692698307704926,-0.797125930595398,2.0338652898681184
5.194294669897031,-2.2829541349411,2.56213323526382,1.17876518268585,2.0338652898681184
5.194900363416111,-2.2637939786911003,-0.000537663173675531,0.987163620185852,2.0338652898681184
5.195506056935191,-1.2147754240036,-0.000537663173675531,-0.179210891532898,2.0338652898681184
5.1961117504542695,-0.0939062833786011,-0.398110905361176,-0.14089057903289798,2.0338652898681184
5.196717443973348,3.6662743806839,-1.60041071004868,-1.0366278837204,2.0338652898681184
5.197323137492429,2.3202734041213997,-0.747783756923676,-0.22471626262664798,2.0338652898681184
5.197928831011508,-1.90214602947235,0.5742670243263239,0.647070846748352,2.0338652898681184
5.1985345245305865,-2.2685840177536,2.26515081338882,0.898547897529602,2.0338652898681184
5.199140218049667,-1.9859717130660999,0.143163508701324,0.817117233467102,2.0338652898681184
5.199745911568746,1.3526855134964,-0.6424028975486761,-0.684560012626648,2.0338652898681184
5.200351605087826,2.5358251619338996,-0.9824956709861761,-1.3000800321579,2.0338652898681184
5.200957298606905,2.7226366853713997,-0.311890202236176,-0.385182571220398,2.0338652898681184
5.201562992125984,-0.992038607597351,-0.359790592861176,0.460259323310852,2.0338652898681184
5.202168685645064,-4.0504785490036,2.02804387979507,0.891362838935852,2.0338652898681184
5.2027743791641425,-1.5404980802536,1.91068792276382,0.565640182685852,2.0338652898681184
5.203380072683222,0.490478482246399,-0.915435124111176,-0.725275344657898,2.0338652898681184
5.203985766202302,2.7561669588088997,-0.42206110067367597,-1.4389911649704,2.0338652898681184
5.204591459721381,3.6878295564651498,-3.30566461629868,-1.3719306180953998,2.0338652898681184
5.2051971532404595,1.15389889240265,1.0436908524513202,0.08184623737335239,0.8065809970648415
5.20580284675954,-8.162727084159851,2.83037542276382,2.11761283893585,0.8065809970648415
5.206408540278619,-1.04472903728485,1.7621967118263202,1.26498588581085,0.8065809970648415
5.207014233797698,3.4147973299026497,-1.20283746786118,-0.25345649700164796,0.8065809970648415
5.207619927316777,-0.050795931816101106,-1.7225567061424298,-1.71441841106415,0.8065809970648415
5.208225620835857,5.51762447834015,-1.6507061202049298,-1.45575630168915,0.8065809970648415
5.208831314354936,2.36098873615265,-0.36218561239242597,0.556060104560852,0.8065809970648415
5.2094370078740155,-8.869257845878598,2.56452825479507,1.24103569049835,0.8065809970648415
5.210042701393094,-4.59893802165985,1.1849970047950702,1.3296514131546,0.8065809970648415
5.210648394912174,4.6434423494339,1.5107196610450702,-0.128915481376648,0.8065809970648415
5.211254088431254,-0.043610873222351104,-3.07813776082993,-1.6641230009079,0.8065809970648415
5.2118597819503325,7.1749779939651495,-1.37288385457993,-1.9084149930954,0.8065809970648415
5.212465475469413,3.1681103181838997,-1.48065973348618,0.0171807100296024,0.8065809970648415
5.213071168988492,-10.3421948575974,1.69274114542007,0.965608444404602,0.8065809970648415
5.213676862507571,-5.55694583415985,3.38362493448257,2.0577373506546,0.8065809970648415
5.2142825560266495,4.16683346271515,1.8148871415138201,0.898547897529602,0.8065809970648415
5.21488824954573,1.7167284822464,-2.80989557332993,-2.1383368680954,0.8065809970648415
5.215493943064809,6.26487057209015,-2.97036188192368,-1.99224067668915,0.8065809970648415
5.2160996365838885,4.7679833650589,-0.7238335616111761,-0.217531204032898,0.8065809970648415
5.216705330102968,-8.7063965177536,0.8951996415138239,1.71045951862335,0.8065809970648415
5.217311023622047,-8.76627200603485,2.8519305985450703,2.06971244831085,0.8065809970648415
5.217916717141127,2.0185009431839003,2.91420110635757,0.5632451631546019,0.8065809970648415
5.2185224106602055,3.8267406892776497,-2.36921197957993,-1.75273872356415,0.8065809970648415
5.219128104179285,5.3906884431839,-3.31763971395493,-2.89755805950165,0.8065809970648415
5.219733797698365,6.74387447834015,-2.0842046553611797,-0.821076125907898,0.8065809970648415
5.220339491217444,-5.78686770915985,1.8651825516700702,1.67213920612335,0.8065809970648415
5.2209451847365225,-12.993481478691098,3.61833684854507,2.16551322956085,0.8065809970648415
5.221550878255603,1.00540768146515,1.75980169229507,1.70566947956085,0.8065809970648415
5.222156571774682,6.0277636384964,0.15992864542007398,-1.92997016887665,0.8065809970648415
5.222762265293761,3.0387792634963997,-4.47922418661118,-4.1190180204391496,0.8065809970648415
5.22336795881284,9.878955044746402,-2.15366022176743,-0.737250442314148,0.8065809970648415
5.22397365233192,-5.03483157634735,-0.201719303798676,1.6817192842483502,0.8065809970648415
5.224579345850999,-13.527570834159901,5.21820989542007,2.3403496553421,0.8065809970648415
5.2251850393700785,-1.04472903728485,1.18020696573257,2.1631182100296003,0.8065809970648415
5.225790732889157,4.7799584627151495,0.959865168857574,-0.988727493095398,0.8065809970648415
5.226396426408237,4.626677212715149,-3.6409673506736797,-3.0532343290329,0.8065809970648415
5.227002119927317,11.2273510408401,-5.15461969442368,-1.4246210477829,0.8065809970648415
5.2276078134463955,-3.49243899822235,0.241359309482574,0.8410674287796019,0.8065809970648415
5.228213506965475,-14.6676001310349,4.96912786417007,2.54871635456085,0.8065809970648415
5.228819200484555,-2.6733423185348504,3.06748235635757,2.39064506549835,0.8065809970648415
5.229424894003634,3.6758544588089,0.921544856357574,-0.828261184501648,0.8065809970648415
5.230030587522714,5.99183834552765,-2.9823369795799297,-2.95024848918915,0.8065809970648415
5.230636281041793,10.010681118965099,-5.89707574911118,-1.7790839384079,0.8065809970648415
5.231241974560872,-0.5609350919723509,0.10005315713882401,0.35966850299835196,0.8065809970648415
5.231847668079951,-12.4450220060349,5.41699651651382,2.5846416475296,0.8065809970648415
5.232453361599031,-7.7292285490036,2.38250677042007,2.7762432100296,0.8065809970648415
5.23305905511811,3.2615160799026497,0.959865168857574,-0.377997512626648,0.8065809970648415
5.23366474863719,7.4144799470901495,-1.2315777022361798,-3.29034126262665,0.8065809970648415
5.2342704421562685,8.817961392402651,-6.89340387411118,-3.59211372356415,0.8065809970648415
5.234876135675348,2.8615478181839,-1.2818731123924298,0.551270065498352,0.8065809970648415
5.235481829194428,-11.6714306974411,5.91276555948257,3.0732256319046,0.8065809970648415
5.236087522713507,-10.9409497404099,2.9118060868263203,2.0816875459671,0.8065809970648415
5.236693216232585,1.91551510334015,0.686832942295074,0.951238327217102,0.8065809970648415
5.237298909751666,7.5078857088088995,0.729943293857574,-2.71553657512665,0.8065809970648415
5.237904603270745,7.8288183259964,-6.39284479207993,-3.3023163602828998,0.8065809970648415
5.238510296789824,7.65877193927765,-2.52488824911118,-0.950407180595398,0.8065809970648415
5.239115990308904,-10.8882593107224,3.25189886026382,2.63972709674835,0.8065809970648415
5.239721683827983,-14.0401050138474,5.40023137979507,2.9414995576858503,0.8065809970648415
5.240327377347062,0.864101529121399,0.0689179032325745,1.4398223115921,0.8065809970648415
5.2409330708661415,6.8324902009964,0.909569758701324,-1.4653363798141499,0.8065809970648415
5.241538764385221,7.51507076740265,-5.20491510457993,-4.6147870634079,0.8065809970648415
5.2421444579043,9.237089810371401,-5.47315729207993,-0.749225539970398,0.8065809970648415
5.24275015142338,-7.9399902677536005,2.95970647745132,1.99307182331085,0.8065809970648415
5.243355844942458,-14.5047388029099,6.35823919229507,2.8720439912796,0.8065809970648415
5.243961538461538,-1.1333447599411,0.866459407138824,1.8805059053421,0.8065809970648415
5.244567231980618,4.7392431306839,0.322789973545074,-1.6784931180954,0.8065809970648415
5.245172925499697,8.518583950996401,-3.60504205770493,-3.71665473918915,0.8065809970648415
5.245778619018775,10.597460904121402,-6.50062067098618,-1.74315864543915,0.8065809970648415
5.246384312537856,-5.93535892009735,2.50225774698257,1.45179740924835,0.8065809970648415
5.246990006056935,-14.0784253263474,6.64324651651382,3.6911406709671,0.8065809970648415
5.2475956995760145,-4.3953613615036,0.42338079385757404,2.04576225299835,0.8065809970648415
5.248201393095094,3.1633202791214,0.0258075516700745,-2.18384223918915,0.8065809970648415
5.248807086614173,9.2706200838089,-1.33216852254868,-3.0101239774704,0.8065809970648415
5.249412780133253,11.009404263496402,-7.90170709676743,-2.3107782743453997,0.8065809970648415
5.250018473652331,-2.5224560880661,0.43296087198257405,0.7428716279983519,0.8065809970648415
5.250624167171411,-14.938237338066099,7.38570257120132,2.96544975299835,0.8065809970648415
5.251229860690491,-6.9221069669723505,1.09877630167007,2.66367729206085,0.8065809970648415
5.25183555420957,2.4975048494339,-0.489121647548676,-0.121730422782898,0.8065809970648415
5.252441247728649,9.265830044746401,0.861669368076324,-3.80287544231415,0.8065809970648415
5.253046941247729,10.8968383455276,-7.37719781942368,-2.3395185087204,0.8065809970648415
5.253652634766808,0.6150194978713991,-1.94768854207993,-0.6151044462203981,0.8065809970648415
5.254258328285887,-14.167041049003599,5.3714911454200704,3.4947490694046,0.8065809970648415
5.254864021804967,-9.451247591972349,4.01591009073257,2.87922904987335,0.8065809970648415
5.255469715324046,1.3910058259964,-0.889089909267426,-0.404342727470398,0.8065809970648415
5.256075408843125,8.8682568025589,1.5059296219825702,-1.52281684856415,0.8065809970648415
5.256681102362204,10.2573681306839,-6.92453912801743,-3.42446235637665,0.8065809970648415
5.257286795881284,4.0159472322464,-4.72591119832993,0.620725631904602,0.8065809970648415
5.257892489400363,-11.9324878263474,5.01702825479507,3.9498027803421,0.8065809970648415
5.258498182919443,-11.0846509122849,6.19298284463882,3.1881865694046,0.8065809970648415
5.259103876438521,-0.496269564628601,-0.671143131923676,0.37882865924835196,0.8065809970648415
5.259709569957601,7.2300634431839,0.16950872354507399,-2.1910272977828997,0.8065809970648415
5.260315263476681,11.1626855134964,-4.99654840536118,-3.5466083524704,0.8065809970648415
5.26092095699576,5.3236278963089,-6.26111871786118,-1.28331489543915,0.8065809970648415
5.261526650514838,-8.866862826347349,5.17988958292007,2.80737846393585,0.8065809970648415
5.262132344033919,-11.5947900724411,6.5690009110450704,3.1307061006546,0.8065809970648415
5.262738037552998,-3.3511328458786003,-0.529836979579926,1.0039287569046,0.8065809970648415
5.263343731072077,4.9691650056839,-0.592107487392426,-2.1862372587204,0.8065809970648415
5.263949424591157,12.4631811189651,-2.90330133504868,-3.0532343290329,0.8065809970648415
5.264555118110236,7.2779638338089,-7.42030817098618,-2.35149360637665,0.8065809970648415
5.265160811629316,-6.7089502286911005,3.97758977823257,1.13086479206085,0.8065809970648415
5.265766505148395,-13.1539477872849,6.85640325479507,4.2132549287796,0.8065809970648415
5.266372198667474,-5.24080325603485,-0.09154840536117549,1.7703350069046,0.8065809970648415
5.266977892186554,4.4422607088089,-0.869929753017426,-1.4198310087204,0.8065809970648415
5.267583585705633,10.609436001777599,-0.987285710048676,-3.38135200481415,0.8065809970648415
5.268189279224712,8.810776333808901,-6.16771295614243,-1.9802655790329,0.8065809970648415
5.268794972743792,-2.8290185880661003,0.0138324540138245,1.0829644014358502,0.8065809970648415
5.269400666262871,-13.0797021818161,5.36191106729507,3.8971123506546,0.8065809970648415
5.2700063597819495,-7.28614993572235,2.63158880167007,1.4206621553421,0.8065809970648415
5.27061205330103,2.0520312166214,-1.07829645223618,-0.698930129814148,0.8065809970648415
5.271217746820109,10.7076318025589,0.346740168857574,-2.4041840360641498,0.8065809970648415
5.271823440339188,9.550837368965151,-6.29225397176743,-3.3550067899704,0.8065809970648415
5.272429133858267,-0.644760775566101,-3.12843317098618,0.728501510810852,0.8065809970648415
5.273034827377347,-11.9540430021286,5.66368352823257,3.1642363740921002,0.8065809970648415
5.273640520896426,-8.447734408378599,5.1319891922950704,2.9534746553421,0.8065809970648415
5.274246214415506,0.686870083808899,-1.81835748739243,-0.25345649700164796,0.8065809970648415
5.274851907934584,9.050278286933901,-0.37416071004867596,-3.3286615751266497,0.8065809970648415
5.275457601453664,11.272856411933901,-4.81692194051743,-2.1287567899704,0.8065809970648415
5.276063294972744,0.464133267402649,-4.1415264327049295,-0.643844680595398,0.8065809970648415
5.2766689884918225,-10.4643408536911,5.95587591104507,2.03618217487335,0.8065809970648415
5.277274682010901,-7.9926806974411,5.10085393838882,3.7797563936233503,0.8065809970648415
5.277880375529982,-3.0517554044723503,-1.21960260457993,-0.677374954032898,0.8065809970648415
5.278486069049061,6.9091308259963995,-1.08787653036118,-2.63410591106415,0.8065809970648415
5.2790917625681395,13.8666625642776,-3.48529108114243,-2.18384223918915,0.8065809970648415
5.27969745608722,0.8784716463088991,-5.66715387411118,-1.8461444852828999,0.8065809970648415
5.280303149606299,-8.478869662284849,5.16072942667007,1.91643119831085,0.8065809970648415
5.280908843125379,-8.79501224040985,5.88881536417007,3.22890190143585,0.8065809970648415
5.281514536644458,-5.11626224040985,-0.917830143642426,0.31895317096710196,0.8065809970648415
5.282120230163537,6.74866451740265,-1.6075957686424298,-2.0473261259079,0.8065809970648415
5.282725923682617,12.7457934236526,-1.78482721395493,-2.91192817668915,0.8065809970648415
5.2833316172016955,2.6651562166214,-4.40497858114243,-1.2306244657516499,0.8065809970648415
5.283937310720775,-5.5785010099411005,1.37180852823257,1.5308330537796,0.8065809970648415
5.284543004239855,-10.3757251310349,5.01702825479507,3.09478080768585,0.8065809970648415
5.285148697758934,-7.27656985759735,2.06157415323257,0.340508346748352,0.8065809970648415
5.2857543912780125,5.5870800447464,-1.8590728194236799,-1.11566352825165,0.8065809970648415
5.286360084797093,12.829619107246401,-1.0256060225486798,-1.6162226102829,0.8065809970648415
5.286965778316172,4.5907519197464,-4.47682916707993,-2.56225532512665,0.8065809970648415
5.287571471835251,-4.1893896818161,-1.19325738973618,1.5452031709671001,0.8065809970648415
5.28817716535433,-10.4571557950974,4.87811712198257,3.9785430147171,0.8065809970648415
5.28878285887341,-6.73050540447235,4.78231634073257,1.8948760225296,0.8065809970648415
5.289388552392489,3.1417651033401497,-2.67577447957993,-1.3815106962204,0.8065809970648415
5.2899942459115685,11.0357494783401,-1.7489019209861798,-3.3621918485641498,0.8065809970648415
5.290599939430647,7.3354443025589,-3.56672174520493,-1.88206977825165,0.8065809970648415
5.291205632949727,-3.2146167325973503,-2.0147490889549298,0.41954399127960196,0.8065809970648415
5.291811326468807,-9.123129916191099,4.97631292276382,2.95107963581085,0.8065809970648415
5.2924170199878855,-6.7951709318161,5.32838079385757,2.5702715303421,0.8065809970648415
5.293022713506965,-1.1764551115036,-2.48177789754868,-1.3000800321579,0.8065809970648415
5.293628407026045,9.77117916584015,-2.87695612020493,-2.75385688762665,0.8065809970648415
5.294234100545124,10.726791958808901,-2.05546442098618,-2.1048065946578998,0.8065809970648415
5.2948397940642025,-3.2744922208786003,-4.07207086629868,-0.557623977470398,0.8065809970648415
5.295445487583283,-8.14835696697235,5.57027776651382,2.2493389131546,0.8065809970648415
5.296051181102362,-7.52565188884735,5.29485052042007,2.6421221162796003,0.8065809970648415
5.2966568746214415,-2.82183352947235,-2.1345000655174298,-0.275011672782898,0.8065809970648415
5.297262568140521,8.9401073884964,-2.42429742879868,-2.3443085477828998,0.8065809970648415
5.2978682616596,11.5770238924026,-0.994470768642426,-1.92039009075165,0.8065809970648415
5.29847395517868,-1.3249463224411,-3.44697076864243,0.160881881904602,0.8065809970648415
5.2990796486977585,-6.5365088224411005,2.26275579385757,1.37515678424835,0.8065809970648415
5.299685342216838,-8.2226025724411,4.09494573526382,3.2360869600296,0.8065809970648415
5.300291035735918,-5.43719485759735,0.6772528641700739,-0.0259296415328976,0.8065809970648415
5.300896729254997,7.9341991853714,-2.38597711629868,-2.78259712200165,0.8065809970648415
5.3015024227740755,12.8511742830276,-1.23397272176743,-1.07734321575165,0.8065809970648415
5.302108116293156,-0.812412142753601,-2.9559917647361797,-1.6305927274704,0.8065809970648415
5.302713809812235,-6.04073977947235,-0.132263737392426,1.63381889362335,0.8065809970648415
5.303319503331314,-7.02269778728485,4.73920598917007,3.22890190143585,0.8065809970648415
5.303925196850393,-6.629914584159851,3.48661077432632,0.0219707490921024,0.8065809970648415
5.304530890369473,5.6589306306839,-3.84454401082993,-1.5779022977829,0.8065809970648415
5.305136583888552,13.2463525056839,-1.74650690145493,-2.3634687040329,2.100206378482218
5.3057422774076315,1.5035717439651501,-2.06504449911118,-1.47970649700165,2.100206378482218
5.306347970926711,-5.6910669279098505,-0.616057682704926,1.4877227022171,2.100206378482218
5.30695366444579,-6.9771924161911,4.37516302042007,3.0253252412796,2.100206378482218
5.30755935796487,-5.77249759197235,4.52604925088882,1.31288627643585,2.100206378482218
5.3081650514839485,1.9442553377151501,-3.33919488973618,-1.84374946575165,2.100206378482218
5.308770745003028,12.4224657869339,-3.18830865926743,-3.0388642118454,2.100206378482218
5.309376438522108,5.36913326740265,-0.766943913173676,-1.1659589384078999,2.100206378482218
5.309982132041187,-6.2538965177536,-2.39076715536118,0.620725631904602,2.100206378482218
5.310587825560267,-5.6695117521286,4.77752630167007,2.07929252643585,2.100206378482218
5.311193519079346,-7.1256836271286,4.97391790323257,1.62902885456085,2.100206378482218
5.311799212598425,0.28929684162139896,-3.15956842489243,-0.928852004814148,2.100206378482218
5.312404906117504,10.8106176424026,-3.96669000692368,-1.9323651884079,2.100206378482218
5.313010599636584,7.96533443927765,0.8137689774513239,-1.72399848918915,2.100206378482218
5.313616293155663,-4.4432617521286,-1.89260309286118,0.120166549873352,2.100206378482218
5.314221986674743,-6.21797122478485,2.35855657510757,2.12719291706085,2.100206378482218
5.3148276801938215,-7.0729931974411,4.70807073526382,2.4313603975296,2.100206378482218
5.315433373712901,-2.9248193693161,-1.4495244795799298,-1.05818305950165,2.100206378482218
5.316039067231981,10.5232152986526,-3.66731256551743,-2.3299384305954,2.100206378482218
5.31664476075106,9.35923580646515,-0.0795733077049255,-0.610314407157898,2.100206378482218
5.317250454270138,-3.57865970134735,-1.66986627645493,-0.897716750907898,2.100206378482218
5.317856147789219,-5.2575683927536,-0.429246159267426,2.0385771944046,2.100206378482218
5.318461841308298,-6.3832275724411005,4.81345159463882,2.6804424287796,2.100206378482218
5.319067534827377,-4.7162939786911,2.09989446573257,-0.799520950126648,2.100206378482218
5.319673228346457,7.800078091621399,-4.77860162801743,-2.4041840360641498,2.100206378482218
5.320278921865536,11.9961523103714,-0.556182194423676,-1.54197700481415,2.100206378482218
5.320884615384615,-2.7954883146286003,-0.711858463954926,-0.885741653251648,2.100206378482218
5.3214903089036945,-6.2443164396286,-0.366975651454926,1.6817192842483502,2.100206378482218
5.322096002422774,-4.9845361661911,3.3476996415138203,2.9822148897171,2.100206378482218
5.322701695941853,-5.33660403728485,4.06860052042007,-0.382787551689148,2.100206378482218
5.323307389460933,4.70331783771515,-4.92948785848618,-1.87727973918915,2.100206378482218
5.323913082980011,13.1912670564651,-2.26622613973618,-1.81021919231415,2.100206378482218
5.324518776499091,-0.223237338066101,0.607797297763824,-1.21146430950165,2.100206378482218
5.325124470018171,-7.5472070646286005,-1.8207525069236798,0.819512252998352,2.100206378482218
5.32573016353725,-3.45890872478485,4.57155462198257,3.1402861787796,2.100206378482218
5.326335857056328,-6.2036011075973505,4.2673871415138205,0.433914108467102,2.100206378482218
5.326941550575409,2.83041256427765,-4.06009576864243,-2.10241157512665,2.100206378482218
5.327547244094488,12.561376919746401,-4.5007793623924295,-1.1899091337204,2.100206378482218
5.3281529376135675,2.5837255525589,2.7824750321388203,-1.49407661418915,2.100206378482218
5.328758631132647,-6.8143310880661,-1.75848199911118,0.730896530342102,2.100206378482218
5.329364324651726,-2.78351321697235,1.75740667276382,1.8134453584671,2.100206378482218
5.329970018170806,-7.5951074552536,5.43376165323257,0.771611862373352,2.100206378482218
5.330575711689884,-0.144201693534851,-3.24339410848618,-1.5108417509079,2.100206378482218
5.331181405208964,13.4882494783401,-5.15222467489243,-1.68567817668915,2.100206378482218
5.331787098728044,3.9057763338089,2.0304388993263203,-0.742040481376648,2.100206378482218
5.332392792247123,-6.1820459318161,-0.726228581142426,0.48899955768585196,2.100206378482218
5.332998485766202,-3.3367627286911,-0.551392155361176,2.24694389362335,2.100206378482218
5.333604179285282,-6.3640674161911,5.73553411417007,1.3919219209671,2.100206378482218
5.334209872804361,-1.6410889005661,0.36350530557632404,-0.9935175321578981,2.100206378482218
5.33481556632344,10.995034146308901,-6.51978082723618,-2.57662544231415,2.100206378482218
5.33542125984252,7.4312450838089,1.20176214151382,-0.588759231376648,2.100206378482218
5.336026953361599,-5.38929446697235,1.05566595010757,0.136931686592102,2.100206378482218
5.336632646880678,-4.80969974040985,-1.49263483114243,2.1726982881546,2.100206378482218
5.337238340399757,-4.3738061857223505,3.91771428995132,2.15114311237335,2.100206378482218
5.337844033918837,-3.2816772794723503,2.97886663370132,-1.1515888212204,2.100206378482218
5.338449727437916,6.59538326740265,-6.35212946004868,-2.2006073759079,2.100206378482218
5.339055420956996,10.8537279939651,-1.2315777022361798,-1.0701581571579,2.100206378482218
5.339661114476074,-3.9570727872848503,2.04480901651382,-0.303751907157898,2.100206378482218
5.340266807995154,-6.85504642009735,-2.13929010457993,1.0470391084671,2.100206378482218
5.340872501514234,-2.75477298259735,4.22188177042007,2.35232475299835,2.100206378482218
5.341478195033313,-5.09710208415985,3.7668280594825703,-0.0570648954391476,2.100206378482218
5.342083888552391,6.3367211580276495,-6.38805475301743,-2.4927997587204,2.100206378482218
5.342689582071472,10.9495287752151,-3.35356500692368,-1.2904999540328999,2.100206378482218
5.343295275590551,-2.82662356853485,4.5404193680763205,-0.09778022747039761,2.100206378482218
5.34390096910963,-6.8047510099411,-2.27341119832993,0.752451706123352,2.100206378482218
5.34450666262871,-1.2866260099411,1.94900823526382,1.8996660615921,2.100206378482218
5.345112356147789,-6.7329004240036,4.7128607743263204,0.0602910615921024,2.100206378482218
5.345718049666869,3.45311764240265,-4.82650201864243,-2.1095966337204,2.100206378482218
5.346323743185948,13.5960253572464,-4.05770074911118,-0.454638137626648,2.100206378482218
5.346929436705027,-1.04472903728485,3.63510198526382,0.024365768623352397,2.100206378482218
5.347535130224107,-6.90773684978485,-1.4112041670799298,1.61465873737335,2.100206378482218
5.348140823743186,-0.963298373222351,-0.673538151454926,2.84569877643585,2.100206378482218
5.348746517262265,-6.2443164396286,5.8504950516700704,0.510554733467102,2.100206378482218
5.349352210781345,1.0221728181839,-2.13689508504868,-2.1646820829391498,2.100206378482218
5.349957904300424,13.0116405916214,-5.94018610067368,-1.5204218290329,2.100206378482218
5.3505635978195025,1.6281127595901501,3.82909856729507,-0.0858051298141476,2.100206378482218
5.351169291338583,-7.83700442790985,1.2975629227638201,0.41714897174835197,2.100206378482218
5.351774984857662,-1.38003177165985,-2.97754694051743,2.3882500459671,2.100206378482218
5.352380678376741,-4.9845361661911,5.0194232743263205,0.754846725654602,2.100206378482218
5.35298637189582,-1.5213379240036,1.23529241495132,-1.24978462200165,2.100206378482218
5.3535920654149,11.5866039705276,-7.86817682332993,-1.7838739774704,2.100206378482218
5.354197758933979,5.2182470369339,1.3742035477638201,-0.8354462430953981,2.100206378482218
5.3548034524530586,-8.03339602947235,2.65074895792007,0.539294967842102,2.100206378482218
5.355409145972137,-3.3894531583786,-2.7332549483299298,1.0709893037796,2.100206378482218
5.356014839491217,-2.52485110759735,4.78231634073257,1.6362139131546,2.100206378482218
5.356620533010297,-2.7715381193161,3.44350042276382,-1.04860298137665,2.100206378482218
5.3572262265293755,8.2216015291214,-8.88366510457992,-2.5981806180954,2.100206378482218
5.357831920048454,7.3019140291213995,-1.43275934286118,-0.0235346220016476,2.100206378482218
5.358437613567535,-6.00720950603485,6.93304387979507,-0.327702102470398,2.100206378482218
5.359043307086614,-4.9366357755661,-4.06009576864243,1.69608940143585,2.100206378482218
5.3596490006056925,-0.9609033536911009,2.46154241495132,1.9667266084671,2.100206378482218
5.360254694124773,-6.2155762052536,4.96433782510757,-1.40785591106415,2.100206378482218
5.360860387643852,7.3593944978714,-8.10767877645493,-1.2809198759079,2.100206378482218
5.3614660811629316,10.5064501619339,-2.82187067098618,-1.0078876493453999,2.100206378482218
5.362071774682011,-5.9760742521286,6.70072698526382,0.453074264717102,2.100206378482218
5.36267746820109,-5.2910986661911,-2.59913385457993,1.9092461397171,2.100206378482218
5.36328316172017,0.270136685371399,-0.8052642256736761,0.865017624092102,2.100206378482218
5.3638888552392485,-5.9808642911911,5.80738470010757,0.175251999092102,2.100206378482218
5.364494548758328,3.8626659822464,-4.95822809286118,-2.1527069852829,2.100206378482218
5.365100242277408,12.5973022127151,-5.39412164754868,-1.5874823759079,2.100206378482218
5.365705935796487,-3.2170117521286,6.5690009110450704,1.07338432331085,2.100206378482218
5.3663116293155655,-7.6190576505661,0.339555110263824,0.7213164522171019,2.100206378482218
5.366917322834646,0.864101529121399,-3.10927301473618,2.2828691865921003,2.100206378482218
5.367523016353725,-4.7665893888473505,5.65170843057632,0.306978073310852,2.100206378482218
5.368128709872804,0.746745572090149,-1.59322565145493,-2.48082466106415,2.100206378482218
5.368734403391883,12.7338183259964,-7.18080621786118,-1.3192401884079,2.100206378482218
5.369340096910963,-0.0963013029098511,4.57155462198257,-0.313331985282898,2.100206378482218
5.369945790430042,-9.183005404472349,1.97056341104507,0.5824053194046019,2.100206378482218
5.3705514839491215,0.423417935371399,-4.01219537801743,1.99307182331085,2.100206378482218
5.3711571774682,-3.86127200603485,5.69960882120132,0.381223678779602,2.100206378482218
5.37176287098728,-1.2339355802535998,1.9298480790138202,-2.20300239543915,2.100206378482218
5.37236856450636,11.5171484041214,-9.786587467861171,-1.4629413602829,2.100206378482218
5.3729742580254385,2.2005224275588997,1.49155950479507,-0.284591750907898,2.100206378482218
5.373579951544518,-8.612990756034849,6.2696234696388204,1.35120658893585,2.100206378482218
5.374185645063598,-0.9201880216598509,-5.49950250692368,0.893757858467102,2.100206378482218
5.374791338582677,-2.0482422208786,3.9033441727638203,0.833882370185852,2.100206378482218
5.3753970321017555,-4.1319092130661,3.6901874344825703,-1.0988983915329,2.100206378482218
5.376002725620836,11.0141943025589,-9.70755182332992,-1.6258026884079,2.100206378482218
5.376608419139915,4.98114010334015,-0.692698307704926,0.117771530342102,2.100206378482218
5.377214112658994,-8.965058627128599,8.11618352823257,0.0962163545608524,2.100206378482218
5.377819806178074,-2.3236694669723503,-5.04444879598618,2.6517021944046,2.100206378482218
5.378425499697153,0.512033658027649,0.8568793290138239,0.869807663154602,2.100206378482218
5.379031193216233,-4.92466067790985,6.14747747354507,-1.2042792509079,2.100206378482218
5.3796368867353115,7.09833736896515,-8.39029108114242,-1.87248970012665,2.100206378482218
5.380242580254391,9.48856686115265,-3.5116362959861798,-0.425897903251648,2.100206378482218
5.380848273773471,-7.5615771818161,9.148436946201329,1.4925127412796,2.100206378482218
5.38145396729255,-5.2575683927536,-1.51419000692368,0.956028366279602,2.100206378482218
5.3820596608116285,1.6736181306839,-2.71888483114243,1.2625908662796002,2.100206378482218
5.382665354330709,-5.4539599943161,6.14508245401382,-0.557623977470398,2.100206378482218
5.383271047849788,4.2219189119339,-4.40497858114243,-2.10720161418915,2.100206378482218
5.383876741368867,11.1123901033401,-6.27548883504868,-0.9528022001266481,2.100206378482218
5.384482434887946,-4.8599951505661005,8.08504827432632,1.23145561237335,2.100206378482218
5.385088128407026,-7.4035058927536,-0.28314996786117597,0.795562057685852,2.100206378482218
5.385693821926105,2.6531811189651497,-4.46245904989243,1.36078666706085,2.100206378482218
5.3862995154451845,-4.41212649822235,7.12464544229507,0.20878227252960202,2.100206378482218
5.386905208964264,1.7358886384964,-1.34893365926743,-2.4161591337204,2.100206378482218
5.387510902483343,12.405700650215099,-9.156697331142421,-1.0941083524704,2.100206378482218
5.388116596002423,-3.3223926115036,5.09845891885757,0.354878463935852,2.100206378482218
5.3887222895215015,-8.69921145915985,5.08408880167007,1.2769609834671,2.100206378482218
5.389327983040581,1.79097408771515,-6.97962457723618,0.685391159248352,2.100206378482218
5.389933676559661,-3.07091556072235,5.83612493448257,0.263867721748352,2.100206378482218
5.39053937007874,-1.50936282634735,1.7334564774513201,-2.1335468290329,2.100206378482218
5.39114506359782,12.8559643220901,-10.3015166670799,-1.32642524700165,2.100206378482218
5.391750757116899,-0.144201693534851,2.25796575479507,1.0470391084671,2.100206378482218
5.392356450635978,-9.982941927909849,7.45994817667007,0.26865776081085196,2.100206378482218
5.3929621441550575,1.3071801424026501,-6.74730768270493,1.46137748737335,2.100206378482218
5.393567837674137,-1.2387256193161,3.23513372354507,0.402778854560852,2.100206378482218
5.394173531193216,-3.71278079509735,4.94996770792007,-1.61861762981415,2.100206378482218
5.394779224712296,12.0272875642776,-10.9122466475487,-1.5204218290329,2.100206378482218
5.3953849182313744,3.4507226228713996,-0.235249577236176,-0.167235793876648,2.100206378482218
5.395990611750454,-10.7493481779099,10.6117938797951,1.31767631549835,2.100206378482218
5.396596305269534,-0.5417749357223509,-4.99894342489243,1.6170537569046,2.100206378482218
5.397201998788613,0.907211880683899,-1.08787653036118,-0.10017524700164801,2.100206378482218
5.397807692307691,-4.6348633146286,6.3366840165138205,-1.08692329387665,2.100206378482218
5.398413385826772,8.518583950996401,-8.258565006923671,-2.14073188762665,2.100206378482218
5.399019079345851,7.04085690021515,-3.63617731161118,-0.600734329032898,2.100206378482218
5.39962477286493,-9.20216556072235,11.086007746982599,1.59070854206085,2.100206378482218
5.40023046638401,-3.92833255290985,-3.46613092489243,0.575220260810852,2.100206378482218
5.400836159903089,2.7178466463089,-3.66731256551743,0.958423385810852,2.100206378482218
5.401441853422168,-5.1234472990036,7.9197919266700705,-0.871371536064148,2.100206378482218
5.4020475469412474,6.10679928302765,-5.12587946004868,-1.69046821575165,2.100206378482218
5.402653240460327,9.7735741853714,-7.51610895223618,-1.0988983915329,2.100206378482218
5.403258933979406,-7.83700442790985,9.51966497354508,0.9009429170608519,2.100206378482218
5.403864627498486,-5.67669681072235,1.24247747354507,1.53801811237335,2.100206378482218
5.404470321017564,2.8471777009964,-7.03950006551743,0.07945121784210239,2.100206378482218
5.405076014536644,-3.6864355802536,7.78806585245132,-0.0355097196578976,1.8281650748882536
5.405681708055724,2.2005224275588997,-1.76806207723618,-2.39460395793915,1.8281650748882536
5.406287401574803,11.9171166658401,-9.57343072957992,-0.926456985282898,1.8281650748882536
5.406893095093881,-5.3294189786911,5.7906195633888204,1.62902885456085,1.8281650748882536
5.407498788612962,-8.486054720878599,5.38586126260757,1.59549858112335,1.8281650748882536
5.408104482132041,3.7429150056839,-8.48130182332992,0.908127975654602,1.8281650748882536
5.4087101756511204,-2.5535913419723504,6.14747747354507,-0.248666457939148,1.8281650748882536
5.4093158691702,-1.47583255290985,2.33460637979507,-2.5311200712204,1.8281650748882536
5.409921562689279,13.4355590486526,-12.0235357100487,-0.404342727470398,1.8281650748882536
5.410527256208359,-1.3824267911911,3.85783880167007,0.924893112373352,1.8281650748882536
5.411132949727437,-10.837963900566098,9.57235540323258,0.709341354560852,1.8281650748882536
5.411738643246517,2.56217037677765,-7.57358942098618,2.2661040498733502,1.8281650748882536
5.412344336765597,-0.565725131034851,2.02085882120132,-0.957592239189148,1.8281650748882536
5.412950030284676,-3.2936523771286,4.62185003213882,-1.95871040325165,1.8281650748882536
5.413555723803755,11.3207568025589,-10.2943316084862,-1.5252118680953999,1.8281650748882536
5.414161417322835,1.5921874666214,0.442540950107574,0.323743210029602,1.8281650748882536
5.414767110841914,-10.957714877128598,11.0213422196388,1.69608940143585,1.8281650748882536
5.4153728043609926,0.524008755683899,-5.87552057332993,0.694971237373352,1.8281650748882536
5.415978497880073,1.3670556306839001,-1.21481256551743,0.371643600654602,1.8281650748882536
5.416584191399152,-4.55103763103485,6.88514348917007,-1.4629413602829,1.8281650748882536
5.417189884918231,9.747228970527651,-8.20347955770492,-1.9754755399704,1.8281650748882536
5.41779557843731,4.71289791584015,-3.97866510457993,-0.375602493095398,1.8281650748882536
5.41840127195639,-11.2666723966599,12.1470013993263,1.4350322725296,1.8281650748882536
5.419006965475469,-1.6698291349410999,-2.78355035848618,1.10691459674835,1.8281650748882536
5.419612658994549,3.0747045564651496,-5.8515703780174295,0.06747612018585239,1.8281650748882536
5.420218352513627,-4.0816138029098505,7.78567083292007,-0.770780715751648,1.8281650748882536
5.420824046032707,7.141447720527649,-5.25042047567368,-1.7934540555954,1.8281650748882536
5.421429739551787,7.83121334552765,-6.79041803426743,-0.524093704032898,1.8281650748882536
5.4220354330708656,-10.0691626310349,9.63462591104508,1.33204643268585,1.8281650748882536
5.422641126589944,-4.6157031583786,0.9143597977638239,1.4470073701858501,1.8281650748882536
5.423246820109025,3.8674560213088998,-7.76519098348618,0.251892624092102,1.8281650748882536
5.423852513628104,-2.8984741544723502,8.06828313760757,-0.696535110282898,1.8281650748882536
5.424458207147183,3.2615160799026497,-2.16324029989243,-2.0137958524704,1.8281650748882536
5.425063900666263,10.1376171541214,-10.2009258467674,-0.385182571220398,1.8281650748882536
5.425669594185342,-7.28614993572235,8.33173528604508,1.5667583467483501,1.8281650748882536
5.426275287704422,-6.8478613615036,5.24216009073257,0.872202682685852,1.8281650748882536
5.426880981223501,4.06624264240265,-8.28491022176742,0.7021562959671019,1.8281650748882536
5.42748667474258,-2.57754153728485,5.98940618448257,-1.2689447782516499,1.8281650748882536
5.42809236826166,0.423417935371399,0.440145930576324,-2.22216255168915,1.8281650748882536
5.4286980617807385,10.609436001777599,-10.5769439131737,-1.10129341106415,1.8281650748882536
5.429303755299818,-3.6193750333786,5.00265813760757,1.1859502412796001,1.8281650748882536
5.429909448818898,-8.816567416191099,8.14731878213882,1.72003959674835,1.8281650748882536
5.430515142337977,3.2615160799026497,-7.24068170614243,0.790772018623352,1.8281650748882536
5.4311208358570555,-0.0723511075973511,2.8351654618263202,-0.282196731376648,1.8281650748882536
5.431726529376136,-2.1584131193161,2.93575628213882,-1.88685981731415,1.8281650748882536
5.432332222895215,10.755532193183901,-9.815327702236171,-1.1132685087204,1.8281650748882536
5.432937916414294,-1.64348392009735,1.16104680948257,0.740476608467102,1.8281650748882536
5.433543609933373,-9.96378177165985,10.7483099930763,1.49011772174835,1.8281650748882536
5.434149303452453,1.76223385334015,-5.84917535848618,1.2721709444046,1.8281650748882536
5.434754996971532,0.365937466621399,-1.86625787801743,-0.26064155559539803,1.8281650748882536
5.4353606904906115,-2.31887942790985,5.63015325479507,-2.4544794462204,1.8281650748882536
5.43596638400969,9.759204068183902,-8.05259332723618,-0.5360688016891481,1.8281650748882536
5.43657207752877,2.2436327791213997,-1.7489019209861798,0.22315238971710202,1.8281650748882536
5.43717777104785,-11.173266634941099,9.989088801670079,1.24103569049835,1.8281650748882536
5.4377834645669285,0.157570767402649,-3.29608453817368,2.14156303424835,1.8281650748882536
5.438389158086007,1.95862545490265,-4.46245904989243,-0.545648879814148,1.8281650748882536
5.438994851605088,-2.7859082365036003,7.20368108682632,-1.2809198759079,1.8281650748882536
5.439600545124167,8.06113522052765,-5.43004694051743,-1.41264595012665,1.8281650748882536
5.4402062386432455,4.1285131502151495,-5.20491510457993,-0.184000930595398,1.8281650748882536
5.440811932162326,-9.570998568534849,9.39512395792008,1.9475664522171001,1.8281650748882536
5.441417625681405,-1.91172610759735,0.864064387607574,1.09733451862335,1.8281650748882536
5.4420233192004845,1.9418603181839,-5.82043512411118,-0.275011672782898,1.8281650748882536
5.442629012719564,-1.7608398771286,6.70072698526382,-1.3048700712204,1.8281650748882536
5.443234706238643,5.4816991853714,-3.57390680379868,-1.7790839384079,1.8281650748882536
5.443840399757723,6.00620846271515,-7.49934381551743,-0.452243118095398,1.8281650748882536
5.4444460932768015,-7.6909082365036,8.22635442667008,1.2434307100296,1.8281650748882536
5.445051786795881,-4.6492334318161,2.82319036417007,1.4206621553421,1.8281650748882536
5.445657480314961,2.6938964509964,-5.90665582723618,0.486604538154602,1.8281650748882536
5.44626317383404,-0.951323275566101,5.54872259073257,-0.797125930595398,1.8281650748882536
5.4468688673531185,2.15501705646515,-1.82793756551743,-1.57071723918915,1.8281650748882536
5.447474560872199,8.28147701740265,-8.19629449911117,-1.5204218290329,1.8281650748882536
5.448080254391278,-5.4874902677536,5.06013860635757,1.0614092256546,1.8281650748882536
5.448685947910357,-6.41915286540985,7.29708684854507,2.19425346393585,1.8281650748882536
5.449291641429436,2.2699779939651497,-6.35452447957993,0.364458542060852,1.8281650748882536
5.449897334948516,-0.570515170097351,0.919149836826324,-0.567204055595398,1.8281650748882536
5.450503028467595,0.686870083808899,1.20415716104507,-1.92997016887665,1.8281650748882536
5.4511087219866745,8.6048046541214,-7.48497369832993,-0.948012161064148,1.8281650748882536
5.451714415505753,-2.2015234708786,2.27952093057632,1.31767631549835,1.8281650748882536
5.452320109024833,-8.823752474784849,7.69226507120132,0.939263229560852,1.8281650748882536
5.452925802543913,2.0472411775589,-4.64208551473618,0.814722213935852,1.8281650748882536
5.4535314960629915,0.45694820880889897,-1.2603179366111799,-0.40913276653289804,1.8281650748882536
5.454137189582071,-0.867497591972351,4.61945501260757,-2.17426216106415,1.8281650748882536
5.454742883101151,8.78443111896515,-6.9892046553611795,-0.387577590751648,1.8281650748882536
5.45534857662023,-0.407653841972351,-0.977705631923676,0.371643600654602,1.8281650748882536
5.45595427013931,-9.894326205253599,8.365265559482578,1.70566947956085,1.8281650748882536
5.456559963658389,1.4197460603714,-1.8542827803611799,1.53322807331085,1.8281650748882536
5.457165657177468,0.610229458808899,-3.2817144209861797,-1.47491645793915,1.8281650748882536
5.457771350696547,-0.8004370450973509,5.07690374307632,-1.96829048137665,1.8281650748882536
5.458377044215627,8.1114306306839,-5.33185113973618,-0.9336420438766481,1.8281650748882536
5.458982737734706,1.0413329744339002,-3.7343731123924297,-0.00197944622039756,1.8281650748882536
5.459588431253786,-9.43208743572235,8.520941829013829,1.00153373737335,1.8281650748882536
5.4601941247728645,-0.752536654472351,-0.599292545986176,1.1332598115921,1.8281650748882536
5.460799818291944,1.9059350252151501,-3.69365778036118,0.321348190498352,1.8281650748882536
5.461405511811024,-0.654340853691101,5.57027776651382,-1.5874823759079,1.8281650748882536
5.462011205330103,5.8361620759964,-4.88877252645493,-1.2378095243454,1.8281650748882536
5.4626168988491814,3.0435693025589,-4.9534380537986795,-0.641449661064148,1.8281650748882536
5.463222592368262,-8.263317904472348,7.02884466104507,0.994348678779602,1.8281650748882536
5.463828285887341,-2.4027051115036,3.59199163370132,2.2637090303421,1.8281650748882536
5.46443397940642,1.1227636384964002,-4.76423151082993,-0.471403274345398,1.8281650748882536
5.465039672925499,0.00428951740264893,2.66990911417007,-1.1491938016891499,1.8281650748882536
5.465645366444579,4.11414303302765,-2.77876031942368,-1.1515888212204,1.8281650748882536
5.466251059963658,5.4769091463089,-5.30071588582993,-0.789940872001648,1.8281650748882536
5.4668567534827375,-5.8754834318161,5.26132024698257,1.6936943819046,1.8281650748882536
5.467462447001817,-5.7796826505661,4.57873968057632,1.7990752412796,1.8281650748882536
5.468068140520896,2.0424511384964,-4.40737360067368,0.239917526435852,1.8281650748882536
5.468673834039976,-0.0843262052536011,0.6365375321388239,-0.629474563407898,1.8281650748882536
5.469279527559054,3.0579394197464,0.684437922763824,-1.6066425321578999,1.8281650748882536
5.469885221078134,6.44689205646515,-5.78450983114243,-0.29896186809539804,1.8281650748882536
5.470490914597214,-4.27800540447235,2.79684514932632,1.31767631549835,1.8281650748882536
5.471096608116293,-6.6826050138473505,5.76666936807632,1.05422416706085,1.8281650748882536
5.471702301635373,2.0951415681839,-2.4171123702049297,0.939263229560852,1.8281650748882536
5.472307995154452,-0.18012698650360098,-1.1669121748924298,-0.629474563407898,1.8281650748882536
5.472913688673531,1.7885790681839,1.9418231766700702,-2.06888130168915,1.8281650748882536
5.4735193821926105,7.2420385408401495,-4.84326715536118,-0.912086868095398,1.8281650748882536
5.47412507571169,-2.3452246427536,0.0521527665138245,0.898547897529602,1.8281650748882536
5.474730769230769,-8.397438998222349,6.1834027665138205,1.85895072956085,1.8281650748882536
5.475336462749849,1.5059667634964,-1.72974176473618,0.8434624483108519,1.8281650748882536
5.475942156268927,1.08683834552765,-1.89499811239243,-0.768385696220398,1.8281650748882536
5.476547849788007,0.346777310371399,3.63989202432632,-2.0856464384079,1.8281650748882536
5.477153543307087,7.3450243806839,-5.49710748739243,-0.718090286064148,1.8281650748882536
5.477759236826166,-1.29860110759735,-2.2638311202049297,0.0890312959671024,1.8281650748882536
5.478364930345244,-8.390253939628598,6.77497259073257,1.2099004365921,1.8281650748882536
5.478970623864325,0.6341796541213991,0.902384700107574,1.60986869831085,1.8281650748882536
5.479576317383404,0.607834439277649,-2.99431207723618,-0.33009712200164804,1.8281650748882536
5.480182010902483,0.7970409822463991,2.42561712198257,-1.81979927043915,1.8281650748882536
5.480787704421563,5.7164110994339,-5.07079401082993,-1.23541450481415,1.8281650748882536
5.481393397940642,1.72391354084015,-2.21353571004868,-0.248666457939148,1.8281650748882536
5.481999091459721,-7.8681396818161,6.33428899698257,1.17876518268585,1.8281650748882536
5.4826047849788,-1.5548681974410998,1.59933538370132,1.8900859834671,1.8281650748882536
5.48321047849788,1.29760006427765,-3.71281793661118,-0.770780715751648,1.8281650748882536
5.483816172016959,0.227026333808899,1.5705951493263202,-0.857001418876648,1.8281650748882536
5.484421865536039,5.943937954902649,-1.92134332723618,-0.864186477470398,1.8281650748882536
5.485027559055117,2.7753271150588996,-4.00501031942368,-0.579179153251648,1.8281650748882536
5.485633252574197,-6.1676758146286,4.34642278604507,1.5404131319046,1.8281650748882536
5.486238946093277,-3.7008056974411003,3.84107366495132,1.0039287569046,1.8281650748882536
5.486844639612356,0.912001919746399,-2.2638311202049297,-0.009164504814147559,1.8281650748882536
5.487450333131434,0.444973111152649,-0.548997135829926,-1.3527704618454,1.8281650748882536
5.488056026650515,4.2602392244339,-0.48193658895492597,-1.68088813762665,1.8281650748882536
5.488661720169594,4.68415768146515,-3.32003473348618,-0.543253860282898,1.8281650748882536
5.489267413688673,-5.5976611661911,2.4328021805763203,0.714131393623352,1.8281650748882536
5.489873107207753,-6.1293555021286,3.36685979776382,1.6984844209671,1.8281650748882536
5.490478800726832,2.80167232990265,-1.2818731123924298,0.364458542060852,1.8281650748882536
5.491084494245912,0.171940884590149,-0.656773014736176,-1.2330194852829,1.8281650748882536
5.491690187764991,2.3011132478714,0.9526801102638239,-1.9515253446579,1.8281650748882536
5.49229588128407,5.5727099275589,-4.45527399129868,-0.9551972196578981,1.8281650748882536
5.49290157480315,-3.5906347990036003,-0.460381413173676,1.1643950654983501,1.8281650748882536
5.493507268322229,-7.228669466972351,5.48166204385757,0.908127975654602,1.8281650748882536
5.494112961841308,1.35029049396515,0.15034856729507398,1.15002494831085,1.8281650748882536
5.494718655360388,0.7371654939651491,-1.9069732100486798,-0.0402997587203976,1.8281650748882536
5.495324348879467,2.1909423494338998,1.0436908524513202,-2.6604511259079,1.8281650748882536
5.4959300423985455,6.0229735994339,-5.40849176473618,-0.452243118095398,1.8281650748882536
5.496535735917626,-1.8925659513473498,0.468886164951324,0.596775436592102,1.8281650748882536
5.497141429436705,-7.47296145915985,5.01702825479507,1.4973027803421,1.8281650748882536
5.497747122955784,1.2209594392776502,-0.122683659267426,2.0912676240921,1.8281650748882536
5.498352816474863,0.564724087715149,-1.9237383467674298,-0.42110786418914803,1.8281650748882536
5.498958509993943,0.6772900056838991,1.21373723917007,-1.6784931180954,1.8281650748882536
5.499564203513022,6.2505004549026495,-3.9307647139549298,-0.306146926689148,1.8281650748882536
5.500169897032102,0.0833251619338989,-0.6016875655174261,0.112981491279602,1.8281650748882536
