Time (s),Accel X (m/s^2),Accel Y (m/s^2),Accel Z (m/s^2),CI Value
6.38175,-4.71906462335587,1.9378693362236,0.662992581081391,1.4507702308644062
6.382356060606061,-3.48083952569962,1.83967353544235,0.828248928737641,1.4507702308644062
6.382962121212121,1.28285432195663,-0.6391716794013981,0.648622463893891,1.4507702308644062
6.383568181818182,2.80848176336288,-0.617616503620148,-0.898560153293609,1.4507702308644062
6.384174242424242,3.42400178289413,-0.531395800495148,-1.07818661813736,1.4507702308644062
6.384780303030303,1.37626008367538,-1.0080046872139,0.351640042018891,1.4507702308644062
6.385386363636364,-4.17060515069962,1.8755988284111,0.722868069362641,1.4507702308644062
6.385992424242424,-5.15256315851212,0.8768756838798519,0.821063870143891,1.4507702308644062
6.386598484848485,0.743974927425385,-0.550555956745148,0.15764345998764098,1.4507702308644062
6.387204545454546,2.5138943610191298,-0.7014421872138981,-1.32008359079361,1.4507702308644062
6.387810606060606,3.55572785711288,1.8803888674736,-0.225559665012359,1.4507702308644062
6.388416666666667,2.56179475164413,-2.2965251950264003,-0.292620211887359,1.4507702308644062
6.389022727272727,-2.88208464288712,-0.567321093463898,0.303739651393891,1.4507702308644062
6.389628787878788,-6.47461393976212,1.18822822294235,1.05817080373764,1.4507702308644062
6.390234848484849,0.662544263362885,0.448167187786102,-0.43392636423110903,1.4507702308644062
6.390840909090909,1.44092561101913,-1.2091863278389001,-0.0387481415748594,1.4507702308644062
6.39144696969697,3.84073518133163,2.4408234377861,-0.0363531220436094,1.4507702308644062
6.392053030303031,2.73423615789413,-1.6259197262764,-0.522542086887359,1.4507702308644062
6.392659090909091,-3.06650114679337,-2.2007244137764,0.12411318655014099,1.4507702308644062
6.393265151515152,-5.18369841241837,1.98337470731735,0.461810940456391,1.4507702308644062
6.393871212121212,-0.31462370538711504,1.22175849637985,0.413910549831391,1.4507702308644062
6.394477272727273,1.71874787664413,-0.794847948932648,0.22230898733139098,1.4507702308644062
6.395083333333334,2.89949250555038,0.486487500286102,-1.32966366891861,1.4507702308644062
6.395689393939394,3.84073518133163,-0.8619084958076481,0.119323147487641,1.4507702308644062
6.396295454545455,-2.48451140069962,-2.4689666012764,-0.08664853219985941,1.4507702308644062
6.396901515151516,-5.27231413507462,1.9618195315361,0.164828518581391,1.4507702308644062
6.397507575757576,-1.56482390069962,2.6036847659110998,0.737238186550141,1.4507702308644062
6.398113636363637,1.18944856023788,-1.7360906247139,-0.879399997043609,1.4507702308644062
6.398719696969697,3.51022248601913,-0.687072070026398,-0.163289157199859,1.4507702308644062
6.399325757575758,3.8910305914878798,-0.155377734088898,-0.649478122043609,1.4507702308644062
6.399931818181819,-1.21036101007462,-2.0330730465889,-0.00282284860610944,1.4507702308644062
6.400537878787879,-5.28428923273087,1.6097516604423499,0.672572659206391,1.4507702308644062
6.40114393939394,-2.94675017023087,1.6217267580986,0.662992581081391,1.4507702308644062
6.40175,0.796665357112885,-1.7935710934639,-0.479431735324859,1.4507702308644062
6.402356060606061,3.71858918523788,-0.07155205049514769,-1.18117245798111,1.4507702308644062
6.402962121212122,3.56530793523788,0.862505566692352,-0.795574313449859,1.4507702308644062
6.403568181818182,0.720024732112885,-2.03546806612015,0.646227444362641,1.4507702308644062
6.404174242424243,-3.67962614679337,0.965491406536102,0.569586819362641,1.4507702308644062
6.404780303030304,-5.33937468194962,0.905615918254852,0.215123928737641,1.4507702308644062
6.405386363636364,1.47445588445663,0.120049512004852,-0.007612887668609441,1.4507702308644062
6.405992424242425,2.48515412664413,-0.749342577838898,-0.690193454074859,1.4507702308644062
6.406598484848485,3.42639680242538,1.62891181669235,0.315714749050141,1.4507702308644062
6.407204545454546,1.65887238836288,-2.01151787080765,-0.661453219699859,1.4507702308644062
6.407810606060607,-3.74908171319962,-0.5218157223701481,0.296554592800141,1.4507702308644062
6.408416666666667,-4.92743132257462,1.3271393557548499,1.40544863576889,1.4507702308644062
6.409022727272728,0.945156568050385,1.1906232424735999,0.107348049831391,1.4507702308644062
6.4096287878787885,1.64929231023788,-1.0247698239326501,-0.194424411106109,1.4507702308644062
6.410234848484849,2.97134309148788,0.503252637004852,-1.01352109079361,1.4507702308644062
6.4108409090909095,3.30185578680038,-0.524210741901398,-0.388420993137359,1.4507702308644062
6.41144696969697,-3.49760466241837,-2.1336638669014,0.21272890920639098,1.4507702308644062
6.4120530303030305,-5.02802214288712,2.35699775419235,0.727658108425141,1.4507702308644062
6.4126590909090915,0.157195142269135,1.7606378909111,0.603117092800141,1.4507702308644062
6.4132651515151515,1.64689729070663,-2.1911443356514,-0.11299374704360901,1.4507702308644062
6.4138712121212125,3.31143586492538,0.335601269817352,-0.302200290012359,1.4507702308644062
6.4144772727272725,3.58207307195663,0.16794990262985202,-0.285435153293609,1.4507702308644062
6.4150833333333335,-2.83418425226212,-1.8558416012764,-0.0267730439186094,1.4507702308644062
6.415689393939394,-5.41122526788712,1.65765205106735,0.789928616237641,1.4507702308644062
6.4162954545454545,-1.4139376702308701,1.8492536135673499,0.279789456081391,1.4507702308644062
6.416901515151515,0.813430493831635,-3.1012517575264003,-0.7380938446998591,1.4507702308644062
6.417507575757576,4.00359650945663,0.862505566692352,-0.608762790012359,1.4507702308644062
6.418113636363636,3.96527619695663,1.1906232424735999,0.160038479518891,1.4507702308644062
6.418719696969697,-0.9876241936683651,-2.37077080049515,0.696522854518891,1.4507702308644062
6.419325757575758,-5.39206511163712,1.19301826200485,0.08339785451889059,1.4507702308644062
6.419931818181818,-3.22936247491837,1.0133917971611,1.27851260061264,1.4507702308644062
6.420537878787879,1.32835969305038,-1.0032146481514,-0.807549411106109,1.4507702308644062
6.421143939393939,3.32341096258163,-0.392484667682648,-0.551282321262359,1.4507702308644062
6.42175,3.51740754461288,1.4444953127861,0.313319729518891,1.4507702308644062
6.422356060606061,-0.623581224918365,-2.29413017549515,0.696522854518891,1.4507702308644062
6.422962121212121,-4.03169401788712,0.429007031536102,1.19229189748764,1.4507702308644062
6.423568181818182,-4.01732390069962,1.4876056643486,0.234284084987641,1.4507702308644062
6.424174242424242,1.54630647039413,0.29249091825485196,0.500131252956391,1.4507702308644062
6.424780303030303,2.6767556891441298,-0.572111132526398,-0.627922946262359,1.4507702308644062
6.425386363636364,2.46599397039413,0.400266797161102,-0.448296481418609,1.4507702308644062
6.425992424242424,1.75227815008163,-0.9385491208076481,-0.603972750949859,1.4507702308644062
6.426598484848485,-3.80177214288712,-0.289498827838898,0.301344631862641,1.4507702308644062
6.427204545454546,-4.64002897882462,1.91631416044235,1.26414248342514,1.4507702308644062
6.427810606060606,1.02179719305038,1.2768439455986,0.385170315456391,1.4507702308644062
6.428416666666667,1.41218537664413,-2.3061052731514002,-0.968015719699859,1.4507702308644062
6.429022727272727,3.17491975164413,0.0170636721611023,-0.884190036106109,1.4507702308644062
6.429628787878788,2.82045686101913,0.692459179973602,0.109743069362641,1.4507702308644062
6.430234848484849,-3.73950163507462,-1.3864177731514,-0.0124029267311094,1.4507702308644062
6.430840909090909,-4.95617155694962,2.01690498075485,0.983925198268891,1.4507702308644062
6.43144696969697,0.0757644782066345,1.7750080080986,-0.144129000949859,1.4507702308644062
6.432053030303031,1.11041291570663,-4.0017791012764,-0.687798434543609,1.4507702308644062
6.432659090909091,4.05389191961288,0.922381054973602,0.131298245143891,1.4507702308644062
6.433265151515152,3.22761018133163,1.4684455080985999,-0.299805270481109,1.4507702308644062
6.433871212121212,-2.84376433038712,-2.43304130830765,0.512106350612641,1.4507702308644062
6.434477272727273,-5.47349577569962,1.7797980471611,0.037892483425140594,1.4507702308644062
6.435083333333334,-2.18034392023087,1.5067658205985999,-0.283040133762359,1.4507702308644062
6.435689393939394,2.13308625555038,-2.15521904268265,-0.017192965793609398,1.4507702308644062
6.436295454545455,3.83834016180038,0.5367829104423519,-0.683008395481109,1.4507702308644062
6.436901515151516,3.6347635016441298,1.29839912137985,-0.220769625949859,1.4507702308644062
6.437507575757576,-2.10849333429337,-2.5695574215889,0.0738177763938906,1.4507702308644062
6.438113636363637,-4.93701140069962,0.840950390911102,0.188778713893891,1.4507702308644062
6.438719696969697,-2.16836882257462,1.3750397463798498,1.11565127248764,1.4507702308644062
6.439325757575758,1.81694367742538,-0.469125292682648,-0.673428317356109,1.4507702308644062
6.439931818181819,3.05995881414413,-0.0404167965888977,-0.733303805637359,1.4507702308644062
6.440537878787879,2.97852815008163,0.0960993166923523,-0.050723239231109406,1.4507702308644062
6.44114393939394,0.161985181331635,-1.7863860348701501,-0.220769625949859,1.4507702308644062
6.44175,-4.74780485773087,0.479302441692352,1.46292910451889,1.4507702308644062
6.442356060606061,-3.51676481866837,2.3785529299736,0.849804104518891,1.4507702308644062
6.442962121212122,1.90076936101913,0.476907422161102,0.160038479518891,1.4507702308644062
6.443568181818182,2.82045686101913,-1.8175212887764,-0.635108004856109,1.4507702308644062
6.444174242424243,3.85750031805038,-0.655936816120148,-1.18835751657486,1.4507702308644062
6.444780303030304,0.976291821956635,0.105679394817352,-0.19202939157485902,1.4507702308644062
6.445386363636364,-5.37050993585587,-0.047601855182647694,0.540846584987641,1.4507702308644062
6.445992424242425,-4.20174040460587,1.90194404325485,1.21384707326889,1.4507702308644062
6.446598484848485,0.9882669196128849,1.6049616213798499,0.236679104518891,1.4507702308644062
6.447204545454546,2.09716096258163,-3.5898357419014,-1.35361386423111,1.4507702308644062
6.447810606060607,3.97485627508163,0.0889142580986023,-0.994360934543609,1.4507702308644062
6.448416666666667,2.01573029851913,1.2528937502861,0.397145413112641,1.4507702308644062
6.449022727272728,-3.58143034601212,-1.57562431612015,0.0618426787376406,1.4507702308644062
6.449628787878789,-5.24357390069962,2.2827521487236,1.10128115530014,1.4507702308644062
6.450234848484849,-0.388869310855865,1.7295026370048499,-0.180054293918609,1.4507702308644062
6.45084090909091,2.59772004461288,-3.33835869112015,-0.934485446262359,1.4507702308644062
6.45144696969697,3.75930451726913,1.0469220705986,0.763583401393891,1.4507702308644062
6.452053030303031,2.29834260320663,1.1570929690361,0.037892483425140594,1.4507702308644062
6.4526590909090915,-2.86052946710587,-3.06053642549515,0.756398342800141,1.4507702308644062
6.453265151515152,-4.94898649835587,2.38573798856735,0.009152249050140551,1.4507702308644062
6.4538712121212125,-1.80911589288712,1.2528937502861,-0.0124029267311094,1.4507702308644062
6.454477272727273,2.51628938055038,-1.76722587862015,0.160038479518891,1.4507702308644062
6.4550833333333335,3.2324002203941298,0.5559430666923519,-1.14045712594986,1.4507702308644062
6.4556893939393944,3.69224397039413,0.630188672161102,-0.0100079071998594,1.4507702308644062
6.4562954545454545,-2.61144743585587,-2.19353935518265,0.574376858425141,1.4507702308644062
6.4569015151515154,-5.72018278741837,0.687669140911102,0.416305569362641,1.4507702308644062
6.457507575757576,-1.28460661554337,2.1007306643486,1.11086123342514,1.4507702308644062
6.4581136363636364,1.39781525945663,-0.737367480182648,-0.826709567356109,1.4507702308644062
6.458719696969697,3.4719021735191298,-0.5385808590888981,-1.28176327829361,1.4507702308644062
6.459325757575757,4.43230500555038,0.41224189481735196,0.310924709987641,1.4507702308644062
6.459931818181818,-1.61272429132462,-1.3792327145576502,-0.601577731418609,1.4507702308644062
6.460537878787879,-5.94770964288712,0.0553839846611023,0.909679592800141,1.4507702308644062
6.461143939393939,-2.25698454523087,2.2396417971611,1.31443789358139,1.4507702308644062
6.46175,1.0577224860191299,-0.119452441120148,-0.608762790012359,1.4507702308644062
6.462356060606061,3.75930451726913,-2.62464287080765,-0.19202939157485902,1.4507702308644062
6.462962121212121,3.58446809148788,0.685274121379852,-2.03140439157486,1.4507702308644062
6.463568181818182,-0.44395476007461504,-0.38769462862014803,-0.151314059543609,1.4507702308644062
6.464174242424242,-4.24485075616837,-0.653541796588898,1.65213564748764,1.4507702308644062
6.464780303030303,-5.29626433038712,2.33304755887985,0.112138088893891,1.4507702308644062
6.465386363636364,1.39063020086288,1.1738581057548498,0.696522854518891,1.4507702308644062
6.465992424242424,3.29467072820663,-3.0629314450264,-0.704563571262359,1.4507702308644062
6.466598484848485,3.43358186101913,0.246985547161102,-1.1069268525123601,1.4507702308644062
6.467204545454545,1.42416047430038,0.802630078411102,-0.448296481418609,1.4507702308644062
6.467810606060606,-4.62565886163712,-1.31696220674515,0.739633206081391,1.4507702308644062
6.468416666666667,-4.69511442804337,2.2875421877860997,1.24019228811264,1.4507702308644062
6.469022727272727,-0.0559615960121155,0.800235058879852,-0.362075778293609,1.4507702308644062
6.469628787878788,3.37610139226913,-1.8654216794014,-0.639898043918609,1.4507702308644062
6.470234848484849,2.57137482976913,-0.179327929401398,-0.215979586887359,1.4507702308644062
6.470840909090909,3.05037873601913,0.9942316409111019,-0.041143161106109404,1.4507702308644062
6.47144696969697,-3.84009245538712,-2.04504814424515,0.6989178740501409,1.4507702308644062
6.47205303030303,-5.52618620538712,2.1941364260673497,-0.0195879853248594,1.4507702308644062
6.472659090909091,0.130849927425385,0.7164093752861019,0.581561917018891,1.4507702308644062
6.473265151515152,1.23016389226913,-2.3540056637764,-0.479431735324859,1.4507702308644062
6.473871212121212,3.90061066961288,0.5152277346611019,-1.65538632516861,1.4507702308644062
6.474477272727273,4.50176057195663,1.3151642580985998,0.440255764675141,1.4507702308644062
6.475083333333334,-3.75626677179337,-1.5253289059639001,0.586351956081391,1.4507702308644062
6.475689393939394,-5.74173796319962,0.347576367473602,1.06296084280014,1.4507702308644062
6.476295454545455,-0.496645189762115,2.0049298830985998,0.624672268581391,1.4507702308644062
6.476901515151515,0.427832349300385,-1.69058525362015,-1.4829449189186101,1.4507702308644062
6.477507575757576,3.4120266852378798,-0.26554863252639804,-1.64101620798111,1.4507702308644062
6.478113636363637,5.01908479070663,1.78698310575485,1.64974062795639,1.4507702308644062
6.478719696969697,-1.8163009514808701,-2.06420830049515,0.0570526396751406,1.4507702308644062
6.479325757575758,-5.39685515069962,-0.440385058307648,-0.045933200168609405,1.4507702308644062
6.479931818181819,-3.06650114679337,2.23724677762985,2.0784491240501404,1.4507702308644062
6.480537878787879,1.47924592351913,0.620608594036102,-1.5428204071998601,1.4507702308644062
6.48114393939394,3.8143899664878798,-2.43304130830765,-0.402791110324859,1.4507702308644062
6.48175,3.38807648992538,0.828975293254852,-0.893770114231109,1.4507702308644062
6.482356060606061,-0.5277804436683651,-0.574506152057648,0.138483303737641,1.4507702308644062
6.482962121212121,-4.67834929132462,-1.3959978512764,1.3312030303001399,1.4507702308644062
6.483568181818182,-3.74668669366837,3.0299982424736,0.104953030300141,1.4507702308644062
6.484174242424242,0.952341626644135,0.498462597942352,0.722868069362641,1.4507702308644062
6.484780303030303,4.14011262273788,-1.72890556612015,-0.848264743137359,1.4507702308644062
6.485386363636365,2.05165559148788,-0.8403533200263981,-0.975200778293609,1.4507702308644062
6.485992424242424,1.58941682195663,1.2624738284111,-0.438716403293609,1.4507702308644062
6.486598484848486,-4.49872282648087,-0.9816594723701481,1.11325625295639,1.4507702308644062
6.487204545454545,-5.07831755304337,2.2971222659111,0.734843167018891,1.4507702308644062
6.487810606060607,0.660149243831635,1.0876374026298499,0.0235223662376406,1.4507702308644062
6.488416666666668,2.58095490789413,-2.9575505856514,-0.441111422824859,1.4507702308644062
6.489022727272728,3.81678498601913,0.5391779299736019,-0.565652438449859,1.4507702308644062
6.489628787878789,2.50910432195663,0.560733105754852,0.241469143581391,1.4507702308644062
6.490234848484849,-3.81614226007462,-1.3193572262764002,0.742028225612641,1.4507702308644062
6.49084090909091,-5.56450651788712,2.16539619169235,0.492946194362641,1.4507702308644062
6.4914469696969705,-0.319413744449615,1.00620673856735,-0.00521786813735944,1.4507702308644062
6.492053030303031,1.51517121648788,-3.28566826143265,-0.242324801731109,1.4507702308644062
6.4926590909090915,5.22505647039413,0.354761426067352,-1.15243222360611,1.4507702308644062
6.4932651515151525,3.96767121648788,2.3474176760673497,-0.477036715793609,1.4507702308644062
6.4938712121212125,-4.68074431085587,-2.73960380830765,0.962370022487641,1.4507702308644062
6.4944772727272735,-5.25075895929337,0.821790234661102,1.04380068655014,1.4507702308644062
6.4950833333333335,-2.08214811944962,1.54748115262985,-0.0291680634498594,1.4507702308644062
6.4956893939393945,2.15703645086288,-1.1421257809639,-0.956040622043609,1.4507702308644062
6.496295454545455,3.38807648992538,-0.876278612995148,-1.22907284860611,1.4507702308644062
6.4969015151515155,4.02036164617538,1.3774347659111,1.42700381155014,1.4507702308644062
6.497507575757576,-2.46056120538712,-1.4343181637764,0.00675722951889056,1.4507702308644062
6.4981136363636365,-5.76808317804337,-0.893043749713898,-0.11059872751235901,1.4507702308644062
6.498719696969697,-1.58158903741837,2.8695319338798497,1.94193301076889,1.4507702308644062
6.499325757575758,1.34751984930038,-0.0739470700263977,-1.48533993844986,1.4507702308644062
6.499931818181818,4.13053254461288,-1.7839910153389,-0.702168551731109,1.4507702308644062
6.500537878787879,3.12701936101913,-0.9577092770576481,-0.750068942356109,1.4507702308644062
6.501143939393939,0.231440747737885,0.6756940432548519,-0.421951266574859,1.4507702308644062
6.50175,-5.75131804132462,-0.7206023434638981,1.36473330373764,1.4507702308644062
6.502356060606061,-3.29163298273087,2.83121162137985,0.667782620143891,1.4507702308644062
6.502962121212121,0.8469607672691349,0.642163769817352,-0.335730563449859,1.4507702308644062
6.503568181818182,3.66110871648788,-2.5216570309639,-1.03986630563736,1.4507702308644062
6.504174242424242,4.10658234930038,-1.39839287080765,-0.144129000949859,1.4507702308644062
6.504780303030303,0.957131665706635,0.9175910159111019,-0.177659274387359,1.4507702308644062
6.505386363636364,-5.18609343194962,-0.172142870807648,1.35515322561264,1.4507702308644062
6.505992424242424,-4.55380827569962,1.61933173856735,0.504921292018891,1.4507702308644062
6.506598484848485,0.200305493831635,1.95463447294235,-0.565652438449859,1.4507702308644062
6.507204545454545,2.89230744695663,-4.07602470674515,-0.594392672824859,1.4507702308644062
6.507810606060606,5.22266145086288,0.587078320598602,-0.462666598606109,1.4507702308644062
6.508416666666667,1.20142365789413,1.2624738284111,-0.0650933564186094,1.4507702308644062
6.509022727272727,-2.99225554132462,-1.8558416012764,0.296554592800141,1.4507702308644062
6.509628787878788,-5.72497282648087,2.0648053713798498,0.682152737331391,1.4507702308644062
6.510234848484848,-0.997204271793365,0.680484082317352,0.21751894826889098,1.4507702308644062
6.510840909090909,3.44555695867538,-2.26059990205765,-0.551282321262359,1.4507702308644062
6.51144696969697,3.66350373601913,-0.160167773151398,-1.11171689157486,1.4507702308644062
6.51205303030303,3.67547883367538,2.4408234377861,0.713287991237641,1.4507702308644062
6.512659090909091,-4.53704313898087,-3.0629314450264,0.694127834987641,1.4507702308644062
6.513265151515152,-4.85797575616837,1.4468903323173499,1.07972597951889,1.4507702308644062
6.513871212121212,-0.379289232730865,1.26965888700485,0.703707913112641,1.4507702308644062
6.514477272727273,1.87681916570663,-1.0415349606514002,-0.900955172824859,1.4507702308644062
6.515083333333333,3.21324006414413,-0.378114550495148,-1.30092343454361,1.4507702308644062
6.515689393939394,4.14969270086288,-0.37571953096389804,0.674967678737641,1.4507702308644062
6.516295454545455,-2.25219450616837,-0.524210741901398,0.33487490530014097,1.4507702308644062
6.516901515151515,-6.89134733819962,-0.514630663776398,-0.08904355173110941,1.4507702308644062
6.517507575757576,-0.762492357730865,3.09945380887985,1.79104678030014,1.4507702308644062
6.518113636363636,1.21339875555038,-0.46433525362014805,-1.01112607126236,1.4507702308644062
6.518719696969697,4.58798127508163,-1.96840751924515,-1.00154599313736,1.4507702308644062
6.519325757575758,4.44907014226913,-0.212858202838898,-0.340520602512359,1.4507702308644062
6.519931818181818,-2.18034392023087,0.5751032229423519,-0.249509860324859,1.4507702308644062
6.520537878787879,-6.09620085382462,-0.6391716794013981,1.14439150686264,1.4507702308644062
6.521143939393939,-2.6952731194496202,2.57254951200485,0.435465725612641,1.4507702308644062
6.52175,0.6098538336753849,1.03494697294235,-0.6183428681373591,1.4507702308644062
6.522356060606061,4.16406281805038,-3.9155583981514,-0.927300387668609,1.4507702308644062
6.522962121212121,4.92807404851913,0.366736523723602,-0.841079684543609,1.4507702308644062
6.523568181818182,-0.671481615543365,0.826580273723602,0.145668362331391,1.4507702308644062
6.524174242424242,-4.29514616632462,-0.675096972370148,2.1814349638938904,1.4507702308644062
6.524780303030303,-5.37529997491837,2.2923322268486,-0.295015231418609,1.4507702308644062
6.525386363636365,-0.515805346012115,0.627793652629852,-0.0315630829811094,1.4507702308644062
6.525992424242424,4.80592805242538,-2.8473796872139,-0.345310641574859,1.4507702308644062
6.526598484848485,3.23958527898788,-0.950524218463898,-1.10453183298111,1.4507702308644062
6.527204545454545,1.99178010320663,2.27556709012985,0.471391018581391,1.4507702308644062
6.527810606060607,-4.27119597101212,-2.61027275362015,0.08818789358139059,1.4507702308644062
6.528416666666668,-5.10945280694962,2.4983039065361,1.02703554983139,1.4507702308644062
6.529022727272727,-0.563705736637115,1.31276923856735,0.298949612331391,1.4507702308644062
6.529628787878789,3.05756379461288,-2.31808037080765,-0.697378512668609,1.4507702308644062
6.530234848484849,3.77606965398788,-0.270338671588898,-0.910535250949859,1.4507702308644062
6.53084090909091,3.14138947820663,1.35108955106735,-0.572837497043609,1.4507702308644062
6.531446969696971,-3.9694235100746202,-1.40318290987015,0.835433987331391,1.4507702308644062
6.532053030303031,-6.32612272882462,1.06847724637985,1.38868349905014,1.4507702308644062
6.532659090909092,0.33442658758163496,1.4947907229423498,0.401935452175141,1.4507702308644062
6.5332651515151525,1.70916779851913,-1.6019695309639002,-0.934485446262359,1.4507702308644062
6.533871212121213,3.85031525945663,-0.402064745807648,-1.43504452829361,1.4507702308644062
6.5344772727272735,5.36875764226913,0.16315986356735201,0.12411318655014099,1.4507702308644062
6.535083333333334,-3.41138395929337,-0.0188616208076477,0.179198635768891,1.4507702308644062
6.5356893939393945,-6.61352507257462,-0.452360155963898,0.401935452175141,1.4507702308644062
6.5362954545454555,-0.733752123355865,2.0719904299736,2.02336367483139,1.4507702308644062
6.5369015151515155,0.7487649664878849,0.594263379192352,-1.70807675485611,1.4507702308644062
6.5375075757575765,4.59516633367538,-3.5946257809639,-1.26020810251236,1.4507702308644062
6.5381136363636365,4.89693879461288,0.587078320598602,0.533661526393891,1.4507702308644062
6.5387196969696975,-2.94196013116837,1.1858332034110999,-0.697378512668609,1.4507702308644062
6.539325757575758,-5.36332487726212,-1.36007255830765,1.58268008108139,1.4507702308644062
6.5399318181818185,-3.15751188898087,3.2886603518485997,1.0701459013938899,1.4507702308644062
6.540537878787879,0.00630891180038451,-0.0188616208076477,-0.690193454074859,1.4507702308644062
6.5411439393939395,5.70406037664413,-3.18986748018265,-0.769229098606109,1.4507702308644062
6.54175,3.59644318914413,0.246985547161102,-0.378840915012359,1.4507702308644062
6.542356060606061,-0.257143236637115,0.989441601848602,0.282184475612641,1.4507702308644062
6.542962121212121,-4.84839567804337,-1.0798552731514002,1.75272646780014,1.4507702308644062
6.543568181818182,-4.38376188898087,2.9964679690361,0.0546576201438906,1.4507702308644062
6.544174242424242,0.0278640875816345,-0.18172294893264798,0.181593655300141,1.4507702308644062
6.544780303030303,4.44907014226913,-2.1624041012764,-1.11411191110611,1.4507702308644062
6.545386363636364,2.72944611883163,-1.3025920895576502,-1.53084530954361,1.4507702308644062
6.545992424242424,2.03968049383163,1.3486945315360999,0.660597561550141,1.4507702308644062
6.546598484848485,-4.38376188898087,-0.318239062213898,0.0307074248313906,1.4507702308644062
6.547204545454545,-5.63396208429337,1.2457086916923499,1.83655215139389,1.4507702308644062
6.547810606060606,0.993056958675385,1.41815009794235,0.0546576201438906,1.4507702308644062
6.548416666666667,1.71874787664413,-2.4545964840889,-1.10453183298111,1.4507702308644062
6.549022727272727,4.60714143133163,-0.876278612995148,-0.623132907199859,1.4507702308644062
6.549628787878788,4.22633332586288,1.3534845705985998,-0.407581149387359,1.4507702308644062
6.550234848484848,-5.17651335382462,-0.828378222370148,1.06056582326889,1.4507702308644062
6.550840909090909,-6.37162809991837,1.0852423830986,0.909679592800141,1.4507702308644062
6.55144696969697,-0.0320114006996155,1.7295026370048499,0.662992581081391,1.4507702308644062
6.55205303030303,1.47924592351913,-1.0511150387764001,-1.09974179391861,1.4507702308644062
6.552659090909091,3.99641145086288,-2.13605888643265,-1.60509091501236,1.4507702308644062
6.553265151515152,5.28253693914413,0.840950390911102,-0.0770684540748594,1.4507702308644062
6.553871212121212,-3.99097868585587,-0.0619719723701477,0.801903713893891,1.4507702308644062
6.554477272727273,-5.86867399835587,-0.363744433307648,0.236679104518891,1.4507702308644062
6.555083333333333,-1.60793425226212,2.5893146487236,1.13960146780014,1.4507702308644062
6.555689393939394,1.0792776618003799,-0.323029101276398,-1.26739316110611,1.4507702308644062
6.556295454545455,5.69208527898788,-2.8234294919014,-1.27936825876236,1.4507702308644062
6.556901515151515,3.8910305914878798,-0.00209648408889771,0.399540432643891,1.4507702308644062
6.557507575757576,-2.26895964288712,1.3822248049736,-0.944065524387359,1.4507702308644062
6.558113636363636,-6.13691618585587,-1.4271331051826501,1.95390810842514,1.4507702308644062
6.558719696969697,-2.42703093194962,3.6191730471611,0.459415920925141,1.4507702308644062
6.559325757575758,0.133244946956635,-0.567321093463898,-0.939275485324859,1.4507702308644062
6.559931818181818,5.81183625555038,-2.64380302705765,-0.0219830048561094,1.4507702308644062
6.560537878787879,3.3521511969566298,-1.1325457028389,-1.54761044626236,1.4507702308644062
6.561143939393939,-0.07991179132461551,1.3151642580985998,-0.0818584931373594,1.4507702308644062
6.56175,-5.40404020929337,0.136814648723602,2.31555605764389,1.4507702308644062
6.562356060606061,-4.59931364679337,2.17018623075485,0.459415920925141,1.4507702308644062
6.562962121212121,1.30201447820663,0.30207099637985196,0.164828518581391,1.4507702308644062
6.563568181818182,3.63715852117538,-2.24143974580765,-1.29373837594986,1.4507702308644062
6.564174242424242,4.39877473211288,-0.974474413776398,-1.60030087594986,1.4507702308644062
6.564780303030303,1.7977835211753799,1.4684455080985999,0.912074612331391,1.4507702308644062
6.565386363636364,-5.84711882257462,-0.057181933307647696,0.751608303737641,1.4507702308644062
6.565992424242424,-5.03760222101212,1.0373419924736,1.45813906545639,1.4507702308644062
6.566598484848485,0.885281079769135,1.5594562502861,0.423490627956391,1.4507702308644062
6.567204545454545,2.26960236883163,-1.93008720674515,-1.57156064157486,1.4507702308644062
6.567810606060606,4.59756135320663,-1.7432756833076501,-0.745278903293609,1.4507702308644062
6.568416666666668,3.83594514226913,1.6265167971610999,0.08100283498764059,1.4507702308644062
6.569022727272727,-5.09029265069962,-1.48940361299515,0.500131252956391,1.4507702308644062
6.569628787878789,-5.66509733819962,1.2504987307548499,1.26653750295639,1.4507702308644062
6.570234848484848,-0.8894283928871151,1.66244209012985,0.430675686550141,1.4507702308644062
6.57084090909091,2.1977517828941298,-1.01518974580765,-1.1236919892311101,1.4507702308644062
6.571446969696971,4.94244416570663,-1.71932548799515,-0.6782183564186091,1.4507702308644062
6.572053030303031,3.81678498601913,-0.0332317379951477,0.263024319362641,1.4507702308644062
6.572659090909092,-3.81374724054337,0.28291084012985196,1.41742373342514,1.4507702308644062
6.573265151515153,-6.06506559991837,-0.009281542682647711,0.598327053737641,1.4507702308644062
6.573871212121213,-1.14090544366837,2.8575568362236,0.45462588186264097,1.4507702308644062
6.574477272727274,0.902046216487885,-1.2522966794014,-0.735698825168609,1.4507702308644062
6.575083333333334,5.67771516180038,-1.5013787106514,-1.1668023407936101,1.4507702308644062
6.5756893939393946,3.92216584539413,-1.32175224580765,0.6390423857688909,1.4507702308644062
6.5762954545454555,-2.40547575616837,1.38461982450485,-0.687798434543609,1.4507702308644062
6.5769015151515156,-6.60394499444962,-0.512235644245148,1.90600771780014,1.4507702308644062
6.5775075757575765,-2.30248991632462,2.71146064481735,0.852199124050141,1.4507702308644062
6.5781136363636366,0.538003247737885,-0.725392382526398,-1.0039410126686101,1.4507702308644062
6.5787196969696975,5.09093537664413,-1.8294963864326501,-1.13087704782486,1.4507702308644062
6.579325757575758,4.75323762273788,-0.703837206745148,-0.807549411106109,1.4507702308644062
6.5799318181818185,-0.839132982730865,1.0660822268485999,0.473786038112641,1.4507702308644062
6.580537878787879,-6.93924772882462,0.44098212919235197,1.46532412405014,1.4507702308644062
6.5811439393939395,-3.87362272882462,1.2289435549735999,1.02943056936264,1.4507702308644062
6.58175,0.674519361019135,0.704434277629852,-0.503381930637359,1.4507702308644062
6.582356060606061,3.65631867742538,-2.29892021455765,-1.44701962594986,1.4507702308644062
6.582962121212121,5.86931672430038,-1.0271648434639,-1.35840390329361,1.4507702308644062
6.583568181818182,0.763135083675385,1.6265167971610999,1.01745547170639,1.4507702308644062
6.584174242424242,-5.60043181085587,-0.854723437213898,0.497736233425141,1.4507702308644062
6.584780303030303,-4.92264128351212,1.1714630862236,0.703707913112641,1.4507702308644062
6.585386363636364,-0.573285814762115,1.2864240237236,0.382775295925141,1.4507702308644062
6.585992424242424,4.11616242742538,-0.9409441403388981,-1.37277402048111,1.4507702308644062
6.586598484848485,4.04910188055038,-1.9827776364326501,-1.05902646188736,1.4507702308644062
6.587204545454545,2.5570047125816298,0.850530469036102,-0.08664853219985941,1.4507702308644062
6.587810606060606,-4.98491179132462,-0.646356737995148,0.492946194362641,1.4507702308644062
6.588416666666667,-5.76089811944962,1.8660187502860999,1.28330263967514,1.4507702308644062
6.589022727272727,-0.00327116632461549,1.93547431669235,0.746818264675141,1.4507702308644062
6.589628787878788,2.44204377508163,-1.5971794919014,-1.26978818063736,1.4507702308644062
6.590234848484848,4.40356477117538,-1.43671318330765,-1.47815487985611,1.4507702308644062
6.590840909090909,3.98204133367538,-0.493075487995148,-0.00521786813735944,1.4507702308644062
6.59144696969697,-3.72034147882462,0.960701367473602,1.10367617483139,1.4507702308644062
6.59205303030303,-6.94164274835587,0.335601269817352,0.586351956081391,1.4507702308644062
6.592659090909091,-0.400844408512115,2.0145099612235997,0.461810940456391,1.4507702308644062
6.593265151515152,0.612248853206635,-1.2427166012764002,-0.683008395481109,1.4507702308644062
6.593871212121212,5.49808869695663,-1.16847099580765,-1.07579159860611,1.4507702308644062
6.594477272727273,5.61783967351913,-0.7996379879951481,-0.199214450168609,1.4507702308644062
6.595083333333333,-3.38503874444962,0.929566113567352,-0.08664853219985941,1.4507702308644062
6.595689393939394,-7.40627653741837,-0.121847460651398,1.39347353811264,1.4507702308644062
6.596295454545455,-1.58637907648087,1.70076240262985,0.612697170925141,1.4507702308644062
6.596901515151515,0.279341138362885,-0.047601855182647694,-0.886585055637359,1.4507702308644062
6.597507575757576,5.12925568914413,-2.78271415987015,-0.690193454074859,1.4507702308644062
6.598113636363636,6.24293977117538,-0.26794365205764803,-0.869819918918609,1.4507702308644062
6.598719696969697,-2.24979948663712,2.24203681669235,-0.510566989231109,1.4507702308644062
6.599325757575758,-6.17284147882462,-0.459545214557648,2.3371112334251403,1.4507702308644062
6.599931818181818,-3.89517790460587,1.2624738284111,1.14678652639389,1.4507702308644062
6.600537878787879,-0.350548998355865,-0.0116765622138977,-0.457876559543609,1.4507702308644062
6.601143939393939,6.09444856023788,-1.2379265622139,-0.733303805637359,1.4507702308644062
6.60175,4.25507356023788,-1.2618767575264,-1.5045000946998601,1.4507702308644062
6.602356060606061,0.583508618831635,1.09721748075485,0.588746975612641,1.4507702308644062
6.602962121212121,-5.52379118585587,-0.893043749713898,1.42221377248764,1.4507702308644062
6.603568181818182,-5.52139616632462,1.87320380887985,0.571981838893891,1.4507702308644062
6.604174242424242,0.538003247737885,0.8768756838798519,0.236679104518891,1.4507702308644062
6.604780303030303,4.29339387273788,-0.8786736325263981,-1.41827939157486,1.4507702308644062
6.605386363636364,3.64434357976913,-2.04983818330765,-1.46857480173111,1.4507702308644062
6.605992424242424,3.09348908758163,-0.133822558307648,0.0187323271751406,1.4507702308644062
6.606598484848485,-4.86276579523087,1.15469794950485,0.667782620143891,1.4507702308644062
6.607204545454545,-6.85063200616837,1.05889716825485,1.43658388967514,1.4507702308644062
6.607810606060606,0.573928540706635,0.852925488567352,0.552821682643891,1.4507702308644062
6.608416666666667,1.72832795476913,-1.0750652340889,-1.77034726266861,1.4507702308644062
6.609022727272727,5.18194611883163,-1.2043962887764001,-1.06142148141861,1.4507702308644062
6.609628787878788,4.71252229070663,-0.823588183307648,0.442650784206391,1.4507702308644062
6.610234848484848,-4.64002897882462,1.31755927762985,0.548031643581391,1.4507702308644062
6.610840909090909,-6.37162809991837,1.19780830106735,1.45813906545639,1.4507702308644062
6.611446969696971,-1.24149626398087,0.702039258098602,-0.129758883762359,1.4507702308644062
6.612053030303031,0.0110989508628845,-0.670306933307648,-1.32008359079361,1.4507702308644062
6.612659090909092,6.33634553289413,-1.80554619112015,-0.769229098606109,1.4507702308644062
6.613265151515153,5.88847688055038,-1.24990165987015,-0.431531344699859,1.4507702308644062
6.613871212121213,-3.94786833429337,2.17497626981735,0.749213284206391,1.4507702308644062
6.614477272727274,-6.30935759210587,0.445772168254852,1.3695233428001399,1.4507702308644062
6.615083333333334,-2.21866423273087,1.6863922854423499,0.789928616237641,1.4507702308644062
6.615689393939395,-0.714591967105865,-1.59957451143265,-0.510566989231109,1.4507702308644062
6.6162954545454555,6.61416779851913,-0.972079394245148,-1.15003720407486,1.4507702308644062
6.616901515151516,5.05261506414413,-1.5899944333076501,-0.589602633762359,1.4507702308644062
6.6175075757575765,-1.36124724054337,1.6600470705986,-0.508171969699859,1.4507702308644062
6.618113636363637,-6.52730436944962,-0.6391716794013981,1.93953799123764,1.4507702308644062
6.6187196969696975,-3.45928434991837,2.7425958987236,1.1898968779563899,1.4507702308644062
6.6193257575757585,-0.441559740543365,-1.0606951169014,-0.556072360324859,1.4507702308644062
6.6199318181818185,5.76872590398788,-0.816403124713898,-0.984780856418609,1.4507702308644062
6.6205378787878795,4.47541535711288,-1.4917986325264,-1.87812314157486,1.4507702308644062
6.6211439393939395,0.751159986019135,-0.29668388643264804,0.840224026393891,1.4507702308644062
6.6217500000000005,-5.30823942804337,1.9570294924736,1.21384707326889,1.4507702308644062
6.622356060606061,-5.19088347101212,2.4599835940361,0.722868069362641,1.4507702308644062
6.6229621212121215,-0.451139818668365,-0.902623827838898,0.246259182643891,1.4507702308644062
6.623568181818182,3.41442170476913,-1.52293388643265,-1.35840390329361,1.4507702308644062
6.6241742424242425,6.17587922430038,-0.34458427705764805,-1.04465634469986,1.4507702308644062
6.624780303030303,2.53305451726913,-2.2438347653389,-0.242324801731109,1.4507702308644062
6.625386363636364,-4.64002897882462,2.3737628909110997,0.607907131862641,1.4507702308644062
6.625992424242424,-6.20158171319962,2.82163154325485,1.89163760061264,1.4507702308644062
6.626598484848485,-1.60793425226212,-1.7600408200264002,0.725263088893891,1.4507702308644062
6.627204545454545,1.42416047430038,-0.952919237995148,-1.77513730173111,1.4507702308644062
6.627810606060606,6.36029572820663,0.965491406536102,-0.572837497043609,1.4507702308644062
6.628416666666667,3.9509060797691298,-3.15633720674515,0.0977679717063906,1.4507702308644062
6.629022727272727,-3.40180388116837,1.83967353544235,-0.18723935251235901,1.4507702308644062
6.629628787878788,-6.34767790460587,2.1677912112235997,1.52040957326889,1.4507702308644062
6.630234848484848,-2.47732634210587,-1.01997978487015,-0.045933200168609405,1.4507702308644062
6.630840909090909,-0.958883959293365,-0.7780828122138981,-1.43025448923111,1.4507702308644062
6.63144696969697,7.31590852117538,1.6600470705986,0.298949612331391,1.4507702308644062
6.63205303030303,6.18066926336288,-2.56716240205765,0.46420595998764097,1.4507702308644062
6.632659090909091,-2.40068571710587,1.1091925784110999,-0.503381930637359,1.4507702308644062
6.633265151515152,-6.18481657648087,-0.313449023151398,1.07972597951889,1.4507702308644062
6.633871212121212,-3.62454069757462,0.5966583987236019,0.533661526393891,1.4507702308644062
6.634477272727273,-0.875058275699615,-1.5732292965889,-0.165684176731109,1.4507702308644062
6.635083333333333,7.52188020086288,1.75824287137985,-0.5584673798561091,1.4507702308644062
6.635689393939394,4.25267854070663,-1.8630266598701501,-1.05902646188736,1.4507702308644062
6.636295454545455,-0.36252409601211505,-0.28470878877639805,-0.10101864938735901,1.4507702308644062
6.636901515151515,-6.43150358819962,-0.543370898151398,2.04491885061264,1.4507702308644062
6.637507575757576,-4.20892546319962,3.00365302762985,0.746818264675141,1.4507702308644062
6.638113636363636,-1.10498015069962,-1.5444890622139,-1.41588437204361,1.4507702308644062
6.638719696969697,5.10291047430038,1.67202216825485,0.526476467800141,1.4507702308644062
6.639325757575758,5.72561555242538,0.0290387698173523,-0.972805758762359,1.4507702308644062
6.639931818181818,0.892466138362885,-5.0651677731514,-0.10101864938735901,1.4507702308644062
6.640537878787879,-4.84600065851212,2.75457099637985,2.09281924123764,1.4507702308644062
6.641143939393939,-6.36923308038712,3.51618720731735,-0.165684176731109,1.4507702308644062
6.64175,-1.77798063898087,-3.21381767549515,0.46420595998764097,1.4507702308644062
6.642356060606061,3.6347635016441298,1.3007941409111,-0.381235934543609,1.4507702308644062
6.642962121212121,6.92791535711288,0.235010449504852,-1.92602353219986,1.4507702308644062
6.643568181818182,2.42288361883163,-5.82917900362015,-0.007612887668609441,1.4507702308644062
6.644174242424242,-4.00534880304337,3.6215680666923498,0.595932034206391,1.4507702308644062
6.644780303030303,-5.40164518976212,3.4132013674736,1.25695742483139,1.4507702308644062
6.645386363636364,-3.49520964288712,-3.2928533200264,0.253444241237641,1.4507702308644062
6.645992424242424,0.815825513362885,-0.10508232393264799,-1.10453183298111,1.4507702308644062
6.646598484848485,7.82125764226913,2.85516181669235,-0.824314547824859,1.4507702308644062
6.647204545454545,3.35454621648788,-5.26874443330765,-0.776414157199859,1.4507702308644062
6.647810606060606,-2.23542936944962,1.8827838870048499,-0.390816012668609,1.4507702308644062
6.648416666666667,-6.91290251398087,3.0204181643486,2.3011859404563904,1.4507702308644062
6.649022727272727,-3.51676481866837,-1.7360906247139,0.277394436550141,1.4507702308644062
6.649628787878788,-0.26432829523086504,-1.52293388643265,-1.04226132516861,1.4507702308644062
6.650234848484848,7.40212922430038,3.9448957034111,-0.11059872751235901,1.4507702308644062
6.650840909090909,4.99273957586288,-4.1167400387764,-0.553677340793609,1.4507702308644062
6.65144696969697,-1.06905485773087,-0.0404167965888977,-0.172869235324859,1.4507702308644062
6.65205303030303,-6.05069548273087,1.31755927762985,1.23779726858139,1.4507702308644062
6.652659090909092,-4.76217497491837,-0.239203417682648,0.787533596706391,1.4507702308644062
6.653265151515151,-1.53847868585587,-2.0426531247139,-0.632712985324859,1.4507702308644062
6.653871212121212,7.58415070867538,4.57957587919235,0.354035061550141,1.4507702308644062
6.654477272727274,6.06810334539413,-1.6187346676826502,-0.800364352512359,1.4507702308644062
6.655083333333334,0.27455109930038496,-3.0413762692451503,-0.929695407199859,1.4507702308644062
6.655689393939395,-7.18114470148087,1.6480719729423499,0.952789944362641,1.4507702308644062
6.656295454545456,-5.86388395929337,1.8660187502860999,1.61381533498764,1.4507702308644062
6.656901515151516,-1.35885222101212,-3.5658855465889,-0.0195879853248594,1.4507702308644062
6.657507575757577,5.85734162664413,4.0646466799736,-0.0722784150123594,1.4507702308644062
6.658113636363637,6.65967316961288,-0.361349413776398,-1.16440732126236,1.4507702308644062
6.658719696969698,1.26129914617538,-5.97767021455765,-1.75358212594986,1.4507702308644062
6.6593257575757585,-4.99209684991837,3.6191730471611,1.79344179983139,1.4507702308644062
6.659931818181819,-6.62071013116837,2.5533893557548497,1.1084662138938899,1.4507702308644062
6.6605378787878795,-2.96112028741837,-3.4652947262764,0.684547756862641,1.4507702308644062
6.66114393939394,3.67787385320663,2.6946955080986,-0.290225192356109,1.4507702308644062
6.6617500000000005,7.29914338445663,1.6648371096610999,-1.1069268525123601,1.4507702308644062
6.6623560606060614,2.90188752508163,-7.5368279294014,0.303739651393891,1.4507702308644062
6.6629621212121215,-3.14553679132462,3.0635285159111,0.248654202175141,1.4507702308644062
6.6635681818181824,-7.72960417413712,3.5425324221611,1.0102704131126399,1.4507702308644062
6.6641742424242425,-2.97309538507462,-2.5887175778389,0.514501370143891,1.4507702308644062
6.664780303030303,1.66605744695663,0.831370312786102,-0.582417575168609,1.4507702308644062
6.665386363636364,6.84169465398788,2.6946955080986,-1.15722226266861,1.4507702308644062
6.665992424242424,4.97597443914413,-6.0375457028389,-0.49380185251235903,1.4507702308644062
6.666598484848485,-2.17794890069962,1.5355060549736,0.09297793264389059,1.4507702308644062
6.667204545454545,-6.97756804132462,3.52576728544235,2.11916445608139,1.4507702308644062
6.667810606060606,-5.07113249444962,-2.4210662106514,-0.10341366891860901,1.4507702308644062
6.668416666666667,0.288921216487885,-0.948129198932648,-0.546492282199859,1.4507702308644062
6.669022727272727,8.508628247737882,5.5208185549736,-0.256694918918609,1.4507702308644062
6.669628787878788,4.94004914617538,-4.45443779268265,-1.58114071969986,1.4507702308644062
6.670234848484849,-0.0990719475746155,-0.988844530963898,1.00069033498764,1.4507702308644062
6.670840909090909,-6.84823698663712,3.5808527346611,1.47969424123764,1.4507702308644062
6.67144696969697,-5.98602995538712,-0.950524218463898,0.342059963893891,1.4507702308644062
6.67205303030303,-1.6965499749183701,-2.90725517549515,-0.702168551731109,1.4507702308644062
6.672659090909091,8.18290559148788,5.96868720731735,-0.285435153293609,1.4507702308644062
6.673265151515152,6.28844514226913,-3.86526298799515,-1.64101620798111,1.4507702308644062
6.673871212121212,1.3570999274253799,-3.00784599580765,-0.821919528293609,1.4507702308644062
6.674477272727273,-6.51532927179337,4.1508673830986,1.55393984670639,1.4507702308644062
6.675083333333333,-7.35358610773087,0.508042676067352,1.04619570608139,1.4507702308644062
6.675689393939394,-2.55636198663712,-4.1694304684639,-0.017192965793609398,1.4507702308644062
6.676295454545455,6.62374787664413,4.94840888700485,0.195963772487641,1.4507702308644062
6.676901515151515,7.28716828680038,-0.363744433307648,-1.03028622751236,1.4507702308644062
6.677507575757576,1.77862336492538,-6.6746208981514,-2.28527646188736,1.4507702308644062
6.678113636363636,-4.36699675226212,4.2993585940361,1.64495058889389,1.4507702308644062
6.678719696969697,-8.43852995538712,1.8420685549736,0.780348538112641,1.4507702308644062
6.679325757575758,-2.73119841241837,-2.92641533174515,-0.402791110324859,1.4507702308644062
6.679931818181818,4.21435822820663,3.4132013674736,0.526476467800141,1.4507702308644062
6.680537878787879,7.58415070867538,0.702039258098602,-1.29852841501236,1.4507702308644062
6.681143939393939,4.35805940008163,-6.4159587887764005,-0.601577731418609,1.4507702308644062
6.68175,-3.46407438898087,2.5509943362236,0.356430081081391,1.3568225561084104
6.682356060606061,-8.651686693668369,3.23357490262985,1.3312030303001399,1.3568225561084104
6.682962121212121,-4.46519255304337,-2.89767509737015,0.713287991237641,1.3568225561084104
6.683568181818182,3.1725247321128798,1.33671943387985,-0.242324801731109,1.3568225561084104
6.684174242424242,8.269126294612882,3.64072822294235,-1.0254961884498601,1.3568225561084104
6.684780303030303,4.91609895086288,-6.2626775387764,-1.23865292673111,1.3568225561084104
6.685386363636364,-1.48578825616837,0.692459179973602,-0.000427829074859445,1.3568225561084104
6.685992424242424,-8.584626146793369,3.3653009768485997,2.4400970732688902,1.3568225561084104
6.686598484848485,-5.78724333429337,-1.8223113278389,0.478576077175141,1.3568225561084104
6.687204545454545,-0.0200363030433655,0.187110058879852,-0.625527926731109,1.3568225561084104
6.687810606060606,7.93142854070663,5.2597614260673495,-0.675823336887359,1.3568225561084104
6.688416666666667,6.79858430242538,-7.03626884737015,-1.55479550485611,1.3568225561084104
6.689022727272727,0.26497102117538496,-1.2690618161201501,0.552821682643891,1.3568225561084104
6.689628787878788,-8.58941618585587,5.3675373049736,1.16115664358139,1.3568225561084104
6.690234848484848,-6.23750700616837,-1.29301201143265,1.44855898733139,1.3568225561084104
6.690840909090909,-0.875058275699615,-2.4019060544014,-0.0219830048561094,1.3568225561084104
6.691446969696971,7.02132111883163,5.8992316409111,-0.795574313449859,1.3568225561084104
6.69205303030303,6.90636018133163,-4.2460710934639,-1.67933652048111,1.3568225561084104
6.692659090909091,1.14154816961288,-4.5143132809639,-0.996755954074859,1.3568225561084104
6.693265151515153,-5.74173796319962,5.37472236356735,1.74314638967514,1.3568225561084104
6.693871212121213,-8.436134935855868,0.611028515911102,0.883334377956391,1.3568225561084104
6.694477272727274,-1.97916227960587,-2.88330498018265,-0.24711484079360901,1.3568225561084104
6.695083333333333,6.97342072820663,4.0406964846611,-0.302200290012359,1.3568225561084104
6.695689393939395,7.01892609930038,-2.2150945309639,-1.33684872751236,1.3568225561084104
6.696295454545456,2.89709748601913,-5.1801287106514,-1.85177792673111,1.3568225561084104
6.696901515151516,-4.81965544366837,4.5963410159111,2.0640790068626402,1.3568225561084104
6.697507575757577,-9.59053434991837,2.3306525393485997,0.765978420925141,1.3568225561084104
6.698113636363637,-3.36108854913712,-4.1742205075264005,-0.280645114231109,1.3568225561084104
6.698719696969698,5.75914582586288,3.8203546877861,0.16243349905014098,1.3568225561084104
6.6993257575757585,7.45481965398788,1.2145734377861,-2.08888486032486,1.3568225561084104
6.699931818181819,4.92328400945663,-6.6315105465889,0.0498675810813906,1.3568225561084104
6.7005378787878795,-2.34320524835587,3.03718330106735,0.308529690456391,1.3568225561084104
6.70114393939394,-10.5389620842934,1.9761896487236,1.35036318655014,1.3568225561084104
6.7017500000000005,-6.06267058038712,-2.8809099606514,0.169618557643891,1.3568225561084104
6.7023560606060615,4.29339387273788,3.2168097659111,-0.326150485324859,1.3568225561084104
6.7029621212121215,9.332514966487881,2.7138556643486,-0.960830661106109,1.3568225561084104
6.7035681818181825,5.73519563055038,-7.2877458981514005,-2.31162167673111,1.3568225561084104
6.7041742424242425,-0.855898119449615,0.6182135745048519,1.02224551076889,1.3568225561084104
6.7047803030303035,-10.8455245842934,3.48265693387985,2.5598480498313902,1.3568225561084104
6.705386363636364,-5.94770964288712,-1.7456707028389,0.801903713893891,1.3568225561084104
6.7059924242424245,1.74030305242538,0.699644238567352,-0.19202939157485902,1.3568225561084104
6.706598484848485,6.98539582586288,5.1711457034111,-0.924905368137359,1.3568225561084104
6.7072045454545455,8.10147492742538,-6.21717216768265,-2.4026324189186097,1.3568225561084104
6.707810606060606,0.255390943050385,-4.1119499997139,-0.0794634736061094,1.3568225561084104
6.708416666666667,-9.60729948663712,5.90641669950485,1.92037783498764,1.3568225561084104
6.709022727272727,-7.46136198663712,0.000298535442352294,1.36233828420639,1.3568225561084104
6.709628787878788,0.957131665706635,-1.1445208004951501,0.342059963893891,1.3568225561084104
6.710234848484848,6.23096467351913,4.39755439481735,-1.20991269235611,1.3568225561084104
6.710840909090909,8.12782014226913,-4.6771746090889,-1.23865292673111,1.3568225561084104
6.71144696969697,1.42655549383163,-5.0268474606514,-1.07339657907486,1.3568225561084104
6.71205303030303,-7.97629118585587,5.54237373075485,0.924049709987641,1.3568225561084104
6.712659090909091,-8.18465788507462,1.46126044950485,1.39586855764389,1.3568225561084104
6.713265151515152,-2.13004851007462,-2.92641533174515,0.104953030300141,1.3568225561084104
6.713871212121212,7.32548859930038,4.34486396512985,-0.359680758762359,1.3568225561084104
6.714477272727273,8.884646314144131,-1.9564324215889,-1.21709775094986,1.3568225561084104
6.715083333333333,2.49233918523788,-5.14420341768265,-1.31050351266861,1.3568225561084104
6.715689393939394,-5.66030729913712,4.87655830106735,0.952789944362641,1.3568225561084104
6.716295454545455,-10.9413253655434,1.0541071291923498,2.21017519826889,1.3568225561084104
6.716901515151515,-4.08198942804337,-2.9336003903389,-0.10101864938735901,1.3568225561084104
6.717507575757576,6.96623566961288,4.2897785159111,-0.639898043918609,1.3568225561084104
6.718113636363636,8.66430451726913,-0.009281542682647711,-1.73921200876236,1.3568225561084104
6.718719696969697,5.08375031805038,-7.0195037106514,-1.2051226532936101,1.3568225561084104
6.719325757575758,-2.69287809991837,3.82274970731735,1.03901064748764,1.3568225561084104
6.719931818181818,-12.9004513421059,1.6121466799736,1.78146670217514,1.3568225561084104
6.720537878787879,-5.01604704523087,-2.76834404268265,-0.20160946969985902,1.3568225561084104
6.721143939393939,5.53880402898788,3.5233722659111,-0.455481540012359,1.3568225561084104
6.72175,7.58175568914413,1.9043390627860999,-0.939275485324859,1.3568225561084104
6.722356060606061,7.50511506414413,-6.4542791012764,-1.59072079782486,1.3568225561084104
6.722962121212121,-1.26305143976212,-0.782872851276398,1.38149844045639,1.3568225561084104
6.723568181818182,-12.404682299137098,4.3472589846611,1.83176211233139,1.3568225561084104
6.724174242424242,-6.85781706476212,-0.907413866901398,1.3312030303001399,1.3568225561084104
6.724780303030303,4.58079621648788,1.4876056643486,-0.158499118137359,1.3568225561084104
6.725386363636364,6.54710725164413,2.07917548856735,-1.18596249704361,1.3568225561084104
6.725992424242424,8.84393098211288,-4.51191826143265,-2.31401669626236,1.3568225561084104
6.726598484848485,-0.123022142887115,-3.13238701143265,-0.215979586887359,1.3568225561084104
6.727204545454545,-11.379613939762098,4.5292804690361,2.19341006155014,1.3568225561084104
6.727810606060606,-7.21467497491837,0.644558789348602,1.29048769826889,1.3568225561084104
6.728416666666667,0.813430493831635,-1.4223430661201502,0.210333889675141,1.3568225561084104
6.729022727272727,7.39973420476913,3.3892511721611,-1.61946103219986,1.3568225561084104
6.729628787878788,9.346885083675382,-2.30371025362015,-1.79669247751236,1.3568225561084104
6.730234848484849,1.4385305914878799,-5.33580498018265,-0.613552829074859,1.3568225561084104
6.730840909090909,-7.98587126398087,4.67058662137985,1.3479681670188899,1.3568225561084104
6.73144696969697,-10.330595385074599,1.4900006838798499,0.971950100612641,1.3568225561084104
6.73205303030303,-2.26656462335587,-1.9061370114326501,0.696522854518891,1.3568225561084104
6.732659090909091,8.73855012273788,3.8299347659111,-0.560862399387359,1.3568225561084104
6.733265151515152,10.3982986578941,-2.80666435518265,-2.4265826142311098,1.3568225561084104
6.733871212121212,2.6168802008628798,-5.46992607393265,-0.491406832981109,1.3568225561084104
6.734477272727274,-6.84823698663712,5.08732001981735,1.19468691701889,1.3568225561084104
6.735083333333333,-12.342411791324599,0.922381054973602,2.20538515920639,1.3568225561084104
6.735689393939394,-2.47972136163712,-1.97319755830765,0.435465725612641,1.3568225561084104
6.736295454545456,7.23447785711288,3.55929755887985,-1.11650693063736,1.3568225561084104
6.736901515151516,8.479888013362881,-0.212858202838898,-1.1452471650123601,1.3568225561084104
6.737507575757577,5.90045197820663,-6.44230400362015,-1.55240048532486,1.3568225561084104
6.738113636363636,-4.26161589288712,1.94505439481735,0.607907131862641,1.3568225561084104
6.738719696969698,-13.008227221012099,2.87432197294235,2.58140322561264,1.3568225561084104
6.739325757575759,-4.21371550226212,-0.663121874713898,0.483366116237641,1.3568225561084104
6.739931818181819,6.68122834539413,2.50069892606735,-1.32966366891861,1.3568225561084104
6.74053787878788,6.95426057195663,-1.1229656247139002,-1.86614804391861,1.3568225561084104
6.74114393939394,7.28237824773788,-3.9778289059639,-1.69370663766861,1.3568225561084104
6.741750000000001,-2.39829069757462,0.182320019817352,1.05338076467514,1.3568225561084104
6.7423560606060615,-12.9315865960121,3.21441474637985,1.98504336233139,1.3568225561084104
6.742962121212122,-6.32851774835587,0.5966583987236019,1.34078310842514,1.3568225561084104
6.7435681818181825,4.42751496648788,-0.31584404268264804,-0.184844332981109,1.3568225561084104
6.744174242424243,8.05357453680038,0.27093574247360197,-2.3068316376686098,1.3568225561084104
6.7447803030303035,8.757710278987881,-2.16479912080765,-1.69849667673111,1.3568225561084104
6.7453863636363645,-0.07272673273086551,-1.6738201169014,0.0187323271751406,1.3568225561084104
6.7459924242424245,-12.2681661858559,2.9485675784111,2.17903994436264,1.3568225561084104
6.7465984848484855,-9.834826342105869,1.7079474612235999,1.22103213186264,1.3568225561084104
6.7472045454545455,3.02642854070663,-0.5816912106513981,-0.0794634736061094,1.3568225561084104
6.7478106060606065,8.01285920476913,0.8146051760673519,-1.32726864938736,1.3568225561084104
6.748416666666667,9.80672883367538,-1.7313005856514,-2.21821591501236,1.3568225561084104
6.7490227272727275,1.78580842351913,-4.58376884737015,-0.0555132782936094,1.3568225561084104
6.749628787878788,-10.637157885074599,5.32203193387985,1.06056582326889,1.3568225561084104
6.7502348484848484,-11.8777780022621,0.6948541995048519,2.15029970998764,1.3568225561084104
6.750840909090909,0.815825513362885,-0.775687792682648,0.708497952175141,1.3568225561084104
6.75144696969697,8.194880689144131,2.3498126955986,-1.27936825876236,1.3568225561084104
6.75205303030303,10.2186721930504,-1.3480974606514,-2.7259600556373598,1.3568225561084104
6.752659090909091,3.02163850164413,-5.6112322262764005,-0.896165133762359,1.3568225561084104
6.753265151515152,-8.479245287418369,3.0108380862236,1.56112490530014,1.3568225561084104
6.753871212121212,-12.1005148186684,2.9198273440361,2.62211855764389,1.3568225561084104
6.754477272727273,-1.82588102960587,-0.423619921588898,0.310924709987641,1.3568225561084104
6.755083333333333,7.90508332586288,2.1773712893486,-1.7056817353248601,1.3568225561084104
6.755689393939394,8.97086701726913,-2.1719841794014,-0.821919528293609,1.3568225561084104
6.756295454545455,5.28493195867538,-4.22930595674515,-1.43504452829361,1.3568225561084104
6.756901515151515,-6.65663542413712,1.1307477541923499,1.11565127248764,1.3568225561084104
6.757507575757576,-12.0765646233559,3.2024396487235998,2.8568304717063904,1.3568225561084104
6.758113636363636,-3.97181852960587,1.4109650393486,0.229494045925141,1.3568225561084104
6.758719696969697,6.68601838445663,0.275725781536102,-1.17877743844986,1.3568225561084104
6.759325757575758,9.98156525945663,-1.52293388643265,-1.46138974313736,1.3568225561084104
6.759931818181818,5.69208527898788,-3.3215935544014,-1.23386288766861,1.3568225561084104
6.760537878787879,-3.29881804132462,-0.0284416989326477,0.516896389675141,1.3568225561084104
6.761143939393939,-13.616562181949599,2.6324250002861,2.45207217092514,1.3568225561084104
6.76175,-7.63140837335587,3.54013740262985,1.2713275420188899,1.3568225561084104
6.762356060606061,6.65488313055038,-1.1828411129951502,-0.477036715793609,1.3568225561084104
6.762962121212121,9.48819123601913,-3.1347820309639003,-2.0769097626686097,1.3568225561084104
6.763568181818182,8.575688794612882,-0.9385491208076481,-2.1727105439186096,1.3568225561084104
6.764174242424242,-1.26065642023087,-1.9085320309639,0.892914456081391,1.3568225561084104
6.764780303030303,-13.8392989983559,4.2179279299736,2.15987978811264,1.3568225561084104
6.765386363636364,-9.56179411554337,1.35587959012985,1.37910342092514,1.3568225561084104
6.765992424242424,5.55556916570663,-0.399669726276398,-0.290225192356109,1.3568225561084104
6.766598484848485,6.82013947820663,0.0218537112236023,-2.16792050485611,1.3568225561084104
6.767204545454545,9.945639966487882,-1.43192314424515,-1.58114071969986,1.3568225561084104
6.767810606060606,2.32947785711288,-4.5717937497139,0.809088772487641,1.3568225561084104
6.768416666666667,-12.749565111637098,4.0359064455986,1.12523135061264,1.3568225561084104
6.769022727272727,-11.1353219475746,1.92110419950485,2.29879092092514,1.3568225561084104
6.769628787878788,2.86356721258163,-0.19609306612014799,0.440255764675141,1.3568225561084104
6.770234848484848,8.420012525081631,0.031433789348602297,-2.10085995798111,1.3568225561084104
6.770840909090909,10.453384107112901,-1.28822197237015,-1.68173154001236,1.3568225561084104
6.77144696969697,2.36061311101913,-3.5946257809639,-0.364470797824859,1.3568225561084104
6.77205303030303,-11.1856173577309,1.2528937502861,1.25456240530014,1.3568225561084104
6.772659090909091,-11.6957565178871,3.2790802737236,2.74905459280014,1.3568225561084104
6.773265151515152,-0.10625700616836499,0.682879101848602,-0.048328219699859405,1.3568225561084104
6.773871212121212,8.64993440008163,-0.06676201143264769,-2.3786822236061096,1.3568225561084104
6.774477272727273,11.4616873297691,-0.32781914033889803,-1.06621152048111,1.3568225561084104
6.775083333333333,3.00008332586288,-4.1550603512764,-1.42546445016861,1.3568225561084104
6.775689393939394,-8.500800463199619,-0.648751757526398,1.74075137014389,1.3568225561084104
6.776295454545455,-12.965116869449599,3.72215888700485,2.84725039358139,1.3568225561084104
6.776901515151515,-4.23527067804337,2.9246173830986,0.200753811550141,1.3568225561084104
6.777507575757577,8.85830109930038,-1.01518974580765,-0.987175875949859,1.3568225561084104
6.778113636363636,11.2844558844566,-2.4761516598701503,-2.5391485321998597,1.3568225561084104
6.778719696969697,5.63699982976913,-2.73960380830765,-1.62185605173111,1.3568225561084104
6.779325757575759,-5.61959196710587,-0.7421575192451481,0.552821682643891,1.3568225561084104
6.779931818181819,-14.4667941155434,3.93292060575485,2.5502679717063903,1.3568225561084104
6.78053787878788,-5.91178434991837,2.9198273440361,1.36473330373764,1.3568225561084104
6.78114393939394,7.22010773992538,-0.952919237995148,-1.71286679391861,1.3696311615800418
6.781750000000001,8.84393098211288,-3.1539421872139,-1.71047177438736,1.3696311615800418
6.7823560606060616,9.02834748601913,-0.9792644528388981,-0.774019137668609,1.3696311615800418
6.782962121212122,-2.50127653741837,-2.5024968747139003,-0.10101864938735901,1.3696311615800418
6.7835681818181826,-14.4212887444496,4.20116279325485,2.3874066435813903,1.3696311615800418
6.784174242424243,-8.76904265069962,3.51618720731735,1.41742373342514,1.3696311615800418
6.7847803030303035,7.07640656805038,-1.2235564450264,-0.541702243137359,1.3696311615800418
6.7853863636363645,7.96016877508163,-2.4258562497139002,-1.90686337594986,1.3696311615800418
6.7859924242424245,9.581596997737881,0.0194586916923523,-2.53675351266861,1.3696311615800418
6.7865984848484855,0.801455396175385,-2.45699150362015,1.67129580373764,1.3696311615800418
6.7872045454545455,-14.148256517887098,2.20371650419235,1.4293988310813899,1.3696311615800418
6.7878106060606065,-9.705495287418369,2.57733955106735,1.95630312795639,1.3696311615800418
6.788416666666667,3.34017609930038,-0.270338671588898,-0.230349704074859,1.3696311615800418
6.7890227272727275,9.09061799383163,-1.16368095674515,-3.21214902048111,1.3696311615800418
6.789628787878788,12.0053567633629,0.690064160442352,-1.01591611032486,1.3696311615800418
6.790234848484849,1.85286897039413,-2.5168669919014,0.389960354518891,1.3696311615800418
6.790840909090909,-12.6537643303871,-0.653541796588898,1.05817080373764,1.3696311615800418
6.79144696969697,-12.9555367913246,3.03718330106735,2.69157412405014,1.3696311615800418
6.79205303030303,0.602668775081635,2.77852119169235,0.442650784206391,1.3696311615800418
6.792659090909091,9.34449006414413,-2.78271415987015,-3.4803912079811097,1.3696311615800418
6.793265151515152,12.848403638362901,-0.40445976533889805,-1.29852841501236,1.3696311615800418
6.793871212121212,3.36652131414413,-2.93599540987015,-1.62904111032486,1.3696311615800418
6.794477272727273,-10.7545138421059,-0.651146777057648,1.90121767873764,1.3696311615800418
6.795083333333333,-14.349438158512099,4.2322980471611,3.7118524443626404,1.3696311615800418
6.795689393939394,-1.75403044366837,3.35811591825485,-0.587207614231109,1.3696311615800418
6.796295454545455,9.22473908758163,-2.2366497067451503,-0.498591891574859,1.3696311615800418
6.796901515151515,11.253320630550402,-2.30371025362015,-3.04210263376236,1.3696311615800418
6.797507575757576,6.26209992742538,-2.0426531247139,-1.33684872751236,1.3696311615800418
6.798113636363636,-8.02898161554337,-2.33245048799515,1.70243105764389,1.3696311615800418
6.798719696969697,-14.8787374749184,5.95431709012985,2.00659853811264,1.3696311615800418
6.799325757575758,-4.47956267023087,3.16172431669235,1.57549502248764,1.3696311615800418
6.799931818181818,8.73136506414413,-1.6738201169014,-1.95476376657486,1.3696311615800418
6.800537878787879,8.796030591487881,-4.7921355465889,-2.38826230173111,1.3696311615800418
6.801143939393939,8.899016431331631,-0.148192675495148,-1.07818661813736,1.3696311615800418
6.80175,-4.45561247491837,-1.1996062497139002,0.691732815456391,1.3696311615800418
6.802356060606061,-15.987631517887099,3.5425324221611,2.7706097685813904,1.3696311615800418
6.802962121212121,-6.96559294366837,4.33528388700485,1.57310000295639,1.3696311615800418
6.803568181818182,6.23575471258163,-2.5743474606514,-1.22188779001236,1.3696311615800418
6.804174242424242,10.1061062750816,-3.52517021455765,-2.30204159860611,1.3696311615800418
6.804780303030303,10.721626294612902,0.9583063479423519,-1.72484189157486,1.3696311615800418
6.805386363636364,-2.10609831476212,-1.43192314424515,0.749213284206391,1.3696311615800418
6.805992424242424,-14.7709615960121,1.4037799807548499,2.38501162405014,1.3696311615800418
6.806598484848485,-10.1270187249184,3.8443048830985997,2.1311395537376403,1.3696311615800418
6.807204545454545,3.78325471258163,-0.121847460651398,-1.17398739938736,1.3696311615800418
6.807810606060606,9.61991731023788,-3.61618095674515,-3.45165097360611,1.3696311615800418
6.808416666666667,12.6112967047691,-0.155377734088898,-1.46138974313736,1.3696311615800418
6.809022727272727,1.40739533758163,-1.6834001950264001,0.943209866237641,1.3696311615800418
6.809628787878788,-14.3326730217934,0.464932324504852,1.39347353811264,1.3696311615800418
6.810234848484848,-12.807045580387099,3.0012580080986,2.48560244436264,1.3696311615800418
6.810840909090909,2.39174836492538,2.57733955106735,0.933629788112641,1.3696311615800418
6.81144696969697,9.504956372737881,-3.9347185544014,-1.81345761423111,1.3696311615800418
6.81205303030303,12.5897415289879,-0.912203905963898,-2.26132626657486,1.3696311615800418
6.812659090909091,3.17970979070663,-0.986449511432648,-0.9177203095436091,1.3696311615800418
6.813265151515152,-13.108818041324598,-1.47982353487015,2.29879092092514,1.3696311615800418
6.813871212121212,-13.4992062249184,4.9987042971611,2.88796572561264,1.3696311615800418
6.814477272727273,-0.0990719475746155,3.33416572294235,0.308529690456391,1.3696311615800418
6.815083333333333,9.47861115789413,-3.51080009737015,-2.3499419892311098,1.3696311615800418
6.815689393939394,11.0473489508629,-3.7479070309639,-2.58465390329361,1.3696311615800418
6.816295454545456,6.74349885320663,0.112864453411102,0.15764345998764098,1.3696311615800418
6.816901515151515,-10.6994283928871,-2.0330730465889,1.45334902639389,1.3696311615800418
6.817507575757576,-14.9410079827309,5.0034943362236,2.36585146780014,1.3696311615800418
6.818113636363636,-2.43421599054337,4.92924873075485,0.921654690456391,1.3696311615800418
6.818719696969698,8.271521314144131,-4.03770439424515,-1.91883847360611,1.3696311615800418
6.819325757575759,12.0005667243004,-3.91795341768265,-2.76428036813736,1.3696311615800418
6.819931818181818,7.89550324773788,0.570313183879852,-1.38953915719986,1.3696311615800418
6.82053787878788,-7.29131559991837,-1.2043962887764001,1.84134219045639,1.3696311615800418
6.82114393939394,-15.585268236637098,2.7761261721611,2.3874066435813903,1.3696311615800418
6.821750000000001,-6.61113005304337,5.32203193387985,1.73356631155014,1.3696311615800418
6.822356060606062,6.54231721258163,-1.8079412106514001,-1.81585263376236,1.3696311615800418
6.822962121212122,11.7538797125816,-5.3908904294014,-3.0373125946998596,1.3696311615800418
6.823568181818183,11.368281568050401,0.349971387004852,-1.40869931344986,1.3696311615800418
6.824174242424243,-3.79698210382462,-1.0080046872139,0.813878811550141,1.3696311615800418
6.824780303030304,-17.163586107730897,1.8947589846611,3.2088983428001403,1.3696311615800418
6.8253863636363645,-9.19535612726212,4.07662177762985,2.60774844045639,1.3696311615800418
6.825992424242425,5.71364045476913,0.5583380862236019,-1.71047177438736,1.3696311615800418
6.8265984848484855,9.62710236883163,-4.3035515622139,-3.8755694306373596,1.3696311615800418
6.827204545454546,12.2424636969566,-0.512235644245148,-1.0853716767311101,1.3696311615800418
6.8278106060606065,0.15480012273788502,-1.5636492184639001,0.605512112331391,1.3696311615800418
6.8284166666666675,-15.374506517887099,0.337996289348602,1.88205752248764,1.3696311615800418
6.8290227272727275,-11.2670480217934,5.08732001981735,2.84485537405014,1.3696311615800418
6.8296287878787885,3.62518342351913,2.2204816409111,-0.156104098606109,1.3696311615800418
6.8302348484848485,10.1372415289879,-4.97176201143265,-2.65410946969986,1.3696311615800418
6.8308409090909095,12.6831472907066,-2.5503972653389,-2.25414120798111,1.3696311615800418
6.83144696969697,2.53305451726913,0.783469922161102,-0.608762790012359,1.3696311615800418
6.8320530303030305,-15.6331686272621,-1.59478447237015,2.56224306936264,1.3696311615800418
6.832659090909091,-12.4358175530434,5.5639289065361,2.7538446318626404,1.3696311615800418
6.833265151515152,1.64929231023788,4.05746162137985,-0.151314059543609,1.3696311615800418
6.833871212121212,8.951706861019131,-5.69026787080765,-3.3103448212623596,1.3696311615800418
6.834477272727273,13.7177957282066,-2.8330095700264,-1.92123349313736,1.3696311615800418
6.835083333333333,5.45258332586288,0.927171094036102,0.543241604518891,1.3696311615800418
6.835689393939394,-13.6405123772621,-1.5828093747139,1.10367617483139,1.3696311615800418
6.836295454545455,-14.6775558342934,4.33528388700485,2.95742129201889,1.3696311615800418
6.836901515151515,-1.85222624444962,5.3483771487236,0.725263088893891,1.3696311615800418
6.837507575757576,8.30984162664413,-4.35863701143265,-2.9486968720436098,1.3696311615800418
6.838113636363636,13.820781568050402,-4.80890068330765,-2.66368954782486,1.3696311615800418
6.838719696969697,8.73136506414413,0.802630078411102,-1.01831112985611,1.3696311615800418
6.839325757575758,-10.2755099358559,-0.272733691120148,2.12874453420639,1.3696311615800418
6.839931818181818,-16.8737887444496,2.77852119169235,3.24003359670639,1.3696311615800418
6.840537878787879,-4.43645231866837,4.79991767606735,1.08691103811264,1.3696311615800418
6.841143939393939,7.28716828680038,-2.3108953122139,-2.2230059540748597,1.3696311615800418
6.84175,11.8832107672691,-5.0603777340889,-3.59535214548111,1.3696311615800418
6.842356060606061,11.8353103766441,0.146394726848602,-1.1069268525123601,1.3696311615800418
6.842962121212121,-6.23511198663712,-1.1517058590889,1.86050234670639,1.3696311615800418
6.843568181818182,-17.297707201480897,2.4216632815361,3.02687685842514,1.3696311615800418
6.844174242424242,-6.99912321710587,4.79033759794235,2.4472821318626403,1.3696311615800418
6.844780303030303,5.82860139226913,0.546362988567352,-1.35361386423111,1.3696311615800418
6.845386363636364,10.9874734625816,-5.7118230465889,-3.9593951142311097,1.3696311615800418
6.845992424242424,12.822058423519099,-1.59478447237015,-1.34403378610611,1.3696311615800418
6.846598484848485,-2.78149382257462,0.211060254192352,0.794718655300141,1.3696311615800418
6.847204545454545,-18.0952487053871,0.251775586223602,2.05928896780014,1.3696311615800418
6.847810606060606,-8.563070971012118,5.4537580080986,3.36696963186264,1.3696311615800418
6.848416666666667,3.88145051336288,2.1534210940361,-0.534517184543609,1.3696311615800418
6.849022727272727,9.892949536800382,-6.4111687497139,-3.52589657907486,1.3696311615800418
6.849628787878788,15.1260672125816,-2.33245048799515,-1.75118710641861,1.3696311615800418
6.850234848484849,0.870910962581635,2.12707587919235,-0.048328219699859405,1.3696311615800418
6.850840909090909,-18.1623092522621,-1.85344658174515,2.66522890920639,1.3696311615800418
6.85144696969697,-11.0131759514809,5.7842707034111,3.06519717092514,1.3696311615800418
6.85205303030303,1.1391531500816299,4.31612373075485,-0.534517184543609,1.3696311615800418
6.852659090909091,9.23910920476913,-6.88298759737015,-3.0852129853248598,1.3696311615800418
6.853265151515151,16.1966409430504,-3.6616863278389,-2.4361626923561097,1.3696311615800418
6.853871212121212,4.51852570867538,1.87799384794235,-0.38363095407485903,1.3696311615800418
6.854477272727273,-15.934941088199599,0.488882519817352,2.62211855764389,1.3696311615800418
6.855083333333333,-15.0990792717934,3.7197638674736,2.93826113576889,1.3696311615800418
6.855689393939394,0.29371125555038496,4.6442414065361,0.375590237331391,1.3696311615800418
6.856295454545455,8.33379182195663,-5.1274382809639,-2.7786504853248597,1.3696311615800418
6.856901515151515,14.682988599300401,-4.86638115205765,-3.29836972360611,1.3696311615800418
6.857507575757576,8.45354279851913,1.0876374026298499,-0.225559665012359,1.3696311615800418
6.858113636363636,-12.9339816155434,-0.0380217770576477,2.14311465139389,1.3696311615800418
6.858719696969697,-16.5121407952309,2.95575263700485,3.15141787405014,1.3696311615800418
6.859325757575759,-2.89405974054337,4.34965400419235,1.87966250295639,1.3696311615800418
6.859931818181818,7.36620393133163,-2.01630790987015,-2.8648711884498597,1.3696311615800418
6.860537878787879,12.5849514899254,-6.5836101559639,-3.70073300485611,1.3696311615800418
6.861143939393939,12.6711721930504,0.831370312786102,-1.16919736032486,1.3696311615800418
6.861750000000001,-9.85398649835587,0.725989453411102,1.55393984670639,1.3696311615800418
6.862356060606062,-18.7993844475746,1.4301251955985999,3.8004681670188902,1.3696311615800418
6.862962121212121,-3.83530241632462,5.4202277346611,2.29639590139389,1.3696311615800418
6.863568181818183,4.64546174383163,-0.222438280963898,-2.30204159860611,1.3696311615800418
6.864174242424243,13.178916333675401,-6.67222587862015,-3.73426327829361,1.3696311615800418
6.864780303030304,15.1260672125816,-1.3816277340889,-1.06621152048111,1.3696311615800418
6.865386363636365,-6.82907683038712,1.83488349637985,0.289369534206391,1.3696311615800418
6.865992424242425,-19.3646090569496,0.215850293254852,2.75144961233139,1.3696311615800418
6.866598484848486,-7.31287077569962,5.4106476565361,3.17776308889389,1.3696311615800418
6.867204545454546,4.05868195867538,2.24203681669235,-1.06142148141861,1.3696311615800418
6.867810606060607,11.277270825862901,-7.0434539059639,-4.7234063446998595,1.3696311615800418
6.8684166666666675,15.6433914313316,-4.46880790987015,-1.86135800485611,1.3696311615800418
6.869022727272728,-0.721777025699615,3.0347882815361,1.24737734670639,1.3696311615800418
6.8696287878787885,-19.8675631585121,0.946331250286102,2.46165224905014,1.3696311615800418
6.8702348484848486,-9.954577318668369,4.2801984377861,3.2951190459251403,1.3696311615800418
6.8708409090909095,2.68394074773788,4.0838068362236,-0.754858981418609,1.3696311615800418
6.87144696969697,8.89422639226913,-6.88298759737015,-3.08042294626236,1.3696311615800418
6.8720530303030305,16.8864065680504,-4.7586052731514,-1.32247861032486,1.3696311615800418
6.872659090909091,2.84201203680038,2.2396417971611,-0.225559665012359,1.3696311615800418
6.873265151515152,-18.0976437249184,0.369131543254852,3.00053164358139,1.3696311615800418
6.873871212121212,-12.936376635074598,4.0406964846611,3.2328485381126404,1.3696311615800418
6.874477272727273,0.5308181891441349,4.3951593752861,-0.364470797824859,1.3696311615800418
6.875083333333333,8.458332837581631,-4.9885271481514,-2.9510918915748596,1.3696311615800418
6.875689393939394,15.0781668219566,-6.5093645504951505,-3.4300957978248596,1.3696311615800418
6.876295454545455,8.47030793523788,2.6707453127861,0.461810940456391,1.3696311615800418
6.876901515151515,-15.863090502262098,0.888850781536102,2.7035492217063903,1.3696311615800418
6.877507575757576,-16.425920092105898,2.28035712919235,3.36696963186264,1.3696311615800418
6.878113636363636,-0.0583566155433655,5.6357794924736,1.69764101858139,1.3696311615800418
6.878719696969697,6.45370148992538,-3.3551238278389,-3.16903866891861,1.3696311615800418
6.879325757575758,15.391914380550402,-6.96441826143265,-4.29469784860611,1.3696311615800418
6.879931818181818,12.369399732112901,1.2481037112236,-0.24711484079360901,1.3696311615800418
6.880537878787879,-14.1051461663246,1.87799384794235,2.37303652639389,1.3696311615800418
6.881143939393939,-19.1825875725746,0.828975293254852,3.1418377959251402,0.4136986496530975
6.88175,-1.75163542413712,5.6501496096611,2.52871279592514,0.4136986496530975
6.882356060606061,4.72210236883163,0.23261542997360202,-2.6852447236061097,0.4136986496530975
6.882962121212121,13.447158521175401,-7.8529705075264005,-4.02645566110611,0.4136986496530975
6.883568181818182,16.2996267828941,-3.1156218747139,-1.18596249704361,0.4136986496530975
6.884174242424242,-8.848078295230868,3.5185822268486,1.18031679983139,0.4136986496530975
6.884780303030303,-21.4003756585121,1.2504987307548499,3.69269228811264,0.4136986496530975
6.885386363636364,-4.74540983819962,4.63705634794235,2.88796572561264,0.4136986496530975
6.885992424242424,3.67068879461288,2.5174640627861,-1.76795224313736,0.4136986496530975
6.886598484848485,11.3946267828941,-6.9141228512764,-4.615630465793609,0.4136986496530975
6.887204545454545,16.8864065680504,-5.14420341768265,-1.34882382516861,0.4136986496530975
6.887810606060606,-3.95744841241837,2.9629376955985998,0.991110256862641,0.4136986496530975
6.888416666666667,-20.3585421624184,2.1510260745048497,2.80893008108139,0.4136986496530975
6.889022727272727,-8.381049486637119,4.2418781252860995,3.3885248076438903,0.4136986496530975
6.889628787878788,2.6767556891441298,3.64551826200485,-1.16919736032486,0.4136986496530975
6.890234848484849,10.587505200862902,-6.5740300778389,-3.69115292673111,0.4136986496530975
6.890840909090909,17.2743997321129,-6.1812468747139,-2.30443661813736,0.4136986496530975
6.89144696969697,1.31398957586288,3.8490949221611,0.00196719045639056,0.4136986496530975
6.89205303030303,-20.0112643303871,0.903220898723602,3.5921014678001404,0.4136986496530975
6.892659090909091,-11.7364718499184,3.73173896512985,3.2496136748313904,0.4136986496530975
6.893265151515151,2.13308625555038,4.3903693362236,-0.364470797824859,0.4136986496530975
6.893871212121212,8.10865998601913,-5.7884636715889,-3.6073272431373598,0.4136986496530975
6.894477272727273,17.286374829769102,-5.9992253903389,-2.9846221650123597,0.4136986496530975
6.895083333333333,7.33506867742538,2.8671369143486,0.689337795925141,0.4136986496530975
6.895689393939394,-19.237673021793398,2.0576203127861,2.7969549834251404,0.4136986496530975
6.896295454545455,-16.1241476311684,1.65765205106735,3.64239687795639,0.4136986496530975
6.896901515151515,1.28764436101913,5.35556220731735,1.21863711233139,0.4136986496530975
6.897507575757576,6.45130647039413,-2.70128349580765,-3.2145440400123597,0.4136986496530975
6.898113636363636,16.009829419612903,-7.7140593747139,-5.041943942356109,0.4136986496530975
6.898719696969697,12.4532254157066,-0.234413378620148,0.0235223662376406,0.4136986496530975
6.899325757575758,-15.4008517327309,4.2322980471611,2.3802215849876402,0.4136986496530975
6.899931818181818,-20.454342943668397,0.632583691692352,3.22805849905014,0.4136986496530975
6.90053787878788,-0.07751677179336551,4.64184638700485,2.60774844045639,0.4136986496530975
6.901143939393939,5.13404572820663,0.828975293254852,-3.56182187204361,0.4136986496530975
6.90175,13.4735037360191,-8.1451628903389,-3.82527402048111,0.4136986496530975
6.902356060606062,16.385847486019102,-3.33356865205765,-0.364470797824859,0.4136986496530975
6.902962121212122,-11.5017599358559,3.76047919950485,1.53717470998764,0.4136986496530975
6.903568181818182,-20.6100192131996,1.5738263674736,3.64239687795639,0.4136986496530975
6.904174242424242,-2.84376433038712,3.91855048856735,2.61493349905014,0.4136986496530975
6.904780303030304,3.98204133367538,2.52943916044235,-2.73314511423111,0.4136986496530975
6.905386363636365,12.3765847907066,-7.7715398434639,-4.35457333688736,0.4136986496530975
6.905992424242424,17.2911648688316,-5.30706474580765,-0.893770114231109,0.4136986496530975
6.906598484848486,-6.00998015069962,4.01435126981735,1.32401797170639,0.4136986496530975
6.9072045454545465,-21.6063473381996,1.7510578127860998,3.0556170928001403,0.4136986496530975
6.907810606060607,-6.34528288507462,4.1173371096611,3.0963324248313904,0.4136986496530975
6.9084166666666675,2.71747102117538,3.54971748075485,-1.56916562204361,0.4136986496530975
6.909022727272728,10.5132595953941,-7.0961443356514,-4.1845269501686095,0.4136986496530975
6.9096287878787885,19.7508499274254,-5.9130046872139,-2.1703155243873598,0.4136986496530975
6.910234848484849,-0.47269499444961505,4.11015205106735,0.701312893581391,0.4136986496530975
6.9108409090909095,-22.5116647210121,1.6313068362235998,3.55617617483139,0.4136986496530975
6.9114469696969705,-10.2874850335121,2.9773078127861,3.20650332326889,0.4136986496530975
6.9120530303030305,2.86835725164413,4.0311164065361,-0.311780368137359,0.4136986496530975
6.9126590909090915,7.86915803289413,-5.3765203122139,-4.46474423532486,0.4136986496530975
6.9132651515151515,18.5174148688316,-7.27577080049515,-3.5833770478248597,0.4136986496530975
6.9138712121212125,6.45130647039413,2.08396552762985,1.05338076467514,0.4136986496530975
6.914477272727273,-21.038727709293397,4.15326240262985,3.3382293974876402,0.4136986496530975
6.9150833333333335,-15.3553463616371,0.788259961223602,3.70227236623764,0.4136986496530975
6.915689393939394,2.82524690008163,4.2275080080986,0.634252346706391,0.4136986496530975
6.916295454545455,6.09923859930038,-1.77680595674515,-3.88035946969986,0.4136986496530975
6.916901515151515,16.850481275081602,-8.317604296588899,-4.0049004853248595,0.4136986496530975
6.917507575757576,11.492822583675402,-0.794847948932648,0.322899807643891,0.4136986496530975
6.918113636363636,-17.3791378655434,5.08732001981735,2.0305487334251398,0.4136986496530975
6.918719696969697,-18.3323556389809,1.0445270510673499,3.51067080373764,0.4136986496530975
6.919325757575758,1.13675813055038,3.8275397463798497,2.08563418264389,0.4136986496530975
6.919931818181818,5.40468293523788,0.769099804973602,-4.13183652048111,0.4136986496530975
6.920537878787879,13.643550122737901,-9.134305956745148,-4.21566220407486,0.4136986496530975
6.921143939393939,16.462488111019102,-2.6509880856514,-1.2266778290748601,0.4136986496530975
6.92175,-13.3746652092934,5.0945050784111,2.0544989287376403,0.4136986496530975
6.922356060606061,-21.580002123355897,1.6528620120048498,3.89866396780014,0.4136986496530975
6.922962121212121,-0.841528002262115,4.04788154325485,2.2748407256126404,0.4136986496530975
6.923568181818182,3.48866731023788,1.73908271512985,-2.44334775094986,0.4136986496530975
6.924174242424242,13.1477810797691,-7.7906999997139,-4.23482236032486,0.4136986496530975
6.924780303030303,18.8982229743004,-4.6388542965889,-0.941670504856109,0.4136986496530975
6.925386363636364,-8.17268278741837,4.77117744169235,1.1515765654563899,0.4136986496530975
6.925992424242424,-22.9739034905434,1.9953498049736,3.90345400686264,0.4136986496530975
6.926598484848485,-5.31542448663712,3.1832794924736,2.73228945608139,0.4136986496530975
6.927204545454545,3.11025422430038,3.28147529325485,-1.66017636423111,0.4136986496530975
6.927810606060606,10.1444265875816,-6.6315105465889,-4.4168438446998595,0.4136986496530975
6.928416666666667,20.311284497737898,-7.7811199215889,-2.44334775094986,0.4136986496530975
6.929022727272727,-0.693036791324615,4.53167548856735,0.773163479518891,0.4136986496530975
6.929628787878788,-24.013341967105898,4.34486396512985,3.7214325224876403,0.4136986496530975
6.930234848484848,-10.134203783512099,1.2576837893486,3.2184784209251402,0.4136986496530975
6.930840909090909,3.93653596258163,3.76047919950485,-0.43392636423110903,0.4136986496530975
6.93144696969697,7.61289094305038,-4.2987615231514,-3.85401425485611,0.4136986496530975
6.93205303030303,18.8072122321129,-7.3308562497139,-4.29230282907486,0.4136986496530975
6.932659090909091,5.55796418523788,1.3151642580985998,0.734843167018891,0.4136986496530975
6.933265151515152,-21.869799486637103,4.8310529299736,3.3190692412376404,0.4136986496530975
6.933871212121212,-14.3015377678871,1.3103742190360999,3.4124750029563904,0.4136986496530975
6.934477272727273,3.44316193914413,3.0826886721610998,0.763583401393891,0.4136986496530975
6.935083333333333,6.02259797430038,-1.0415349606514002,-3.95700009469986,0.4136986496530975
6.935689393939394,16.1415554938316,-9.304352343463899,-4.00729550485611,0.4136986496530975
6.936295454545455,12.2017483649254,-0.31584404268264804,0.437860745143891,0.4136986496530975
6.936901515151515,-18.8664449944496,5.7363703127861,2.2676556670188903,0.4136986496530975
6.937507575757576,-18.7371139397621,1.0804523440361,3.50588076467514,0.4136986496530975
6.938113636363636,2.42288361883163,4.0071662112236,1.73835635061264,0.4136986496530975
6.938719696969697,4.35566438055038,-0.054786913776397696,-4.06717099313736,0.4136986496530975
6.939325757575758,15.0614016852379,-9.04808525362015,-3.7534234345436097,0.4136986496530975
6.939931818181818,16.8768264899254,-2.9815007809639003,-0.321360446262359,0.4136986496530975
6.940537878787879,-15.0272286858559,6.1531037112236,1.80302187795639,0.4136986496530975
6.941143939393939,-22.4972946038246,1.4852106448173499,3.7214325224876403,0.4136986496530975
6.941750000000001,-0.489460131168365,3.9927960940361,2.24610049123764,0.4136986496530975
6.942356060606061,3.55572785711288,2.1869513674736,-2.7523052704811097,0.4136986496530975
6.942962121212121,12.690332349300402,-8.1834832028389,-4.84794736032486,0.4136986496530975
6.943568181818183,19.9256863532066,-6.4542791012764,-1.43983456735611,0.4136986496530975
6.944174242424243,-8.472060228824619,5.17833076200485,2.0544989287376403,0.4136986496530975
6.944780303030303,-24.602516771793397,4.53646552762985,3.8316034209251404,0.4136986496530975
6.945386363636365,-4.20653044366837,1.1690680666923499,2.8927557646751403,0.4136986496530975
6.945992424242425,4.62630158758163,2.6563751955986,-1.7823223603248601,0.4136986496530975
6.946598484848486,9.160073560237882,-5.14420341768265,-5.39640683298111,0.4136986496530975
6.947204545454545,19.712529614925398,-8.2601238278389,-1.99308407907486,0.4136986496530975
6.947810606060607,-1.4139376702308701,3.1593292971611,1.24498232717514,0.4136986496530975
6.948416666666668,-24.8324386467934,6.1004132815361,3.57054629201889,0.4136986496530975
6.949022727272728,-8.735512377262118,0.673299023723602,3.82920840139389,0.4136986496530975
6.949628787878789,5.37833772039413,2.7330158205985997,-0.556072360324859,0.4136986496530975
6.950234848484849,6.86085481023788,-2.7515789059639,-4.54856991891861,0.4136986496530975
6.95084090909091,18.874272778987898,-9.19657646455765,-3.06365780954361,0.4136986496530975
6.9514469696969705,5.77591096258163,1.4301251955985999,0.835433987331391,0.4136986496530975
6.952053030303031,-23.6469039788246,5.5782990237236,3.24003359670639,0.4136986496530975
6.9526590909090915,-13.5950070061684,1.7079474612235999,3.4891156279563904,0.4136986496530975
6.9532651515151525,5.01429475164413,3.0156281252861,0.28457949514389097,0.4136986496530975
6.9538712121212125,5.49090363836288,-1.17805107393265,-3.97855527048111,0.4136986496530975
6.9544772727272735,17.3079300055504,-8.952284472370149,-3.72228818063736,0.4136986496530975
6.9550833333333335,12.273598950862901,-1.4965886715889,0.219913967800141,0.4136986496530975
6.9556893939393944,-21.0554928460121,7.06081611356735,2.31316103811264,0.4136986496530975
6.956295454545455,-19.333473803043397,1.0876374026298499,4.0519452178001405,0.4136986496530975
6.9569015151515154,4.10658234930038,3.41559638700485,1.26893252248764,0.4136986496530975
6.957507575757576,4.29818391180038,0.632583691692352,-4.050405856418609,0.4136986496530975
6.9581136363636364,14.5464724860191,-9.03850517549515,-4.63239560251236,0.4136986496530975
6.958719696969697,17.5953323493004,-4.5143132809639,-0.14173398141860902,0.4136986496530975
6.959325757575758,-15.5014425530434,7.5014997073173495,2.95502627248764,0.4136986496530975
6.959931818181818,-23.7690499749184,2.9246173830986,3.72622256155014,0.4136986496530975
6.960537878787879,1.27566926336288,1.8061432620048499,1.74554140920639,0.4136986496530975
6.961143939393939,3.90779572820663,2.2683820315361,-2.39065732126236,0.4136986496530975
6.96175,11.0952493414879,-6.78239677705765,-4.44079404001236,0.4136986496530975
6.962356060606061,20.6801175055504,-6.6027703122139,-0.948855563449859,0.4136986496530975
6.962962121212121,-9.53065886163712,4.4215045901298495,2.4640472685813903,0.4136986496530975
6.963568181818182,-24.8300436272621,6.27524970731735,3.70945742483139,0.4136986496530975
6.964174242424242,-2.6521627678871202,0.218245312786102,2.7634247099876403,0.4136986496530975
6.964780303030303,5.47174348211288,1.9690045901298499,-1.86135800485611,0.4136986496530975
6.965386363636364,8.930151685237881,-4.2460710934639,-5.10421445016861,0.4136986496530975
6.965992424242424,20.1244729743004,-8.28167900362015,-1.90686337594986,0.4136986496530975
6.966598484848485,-2.10130827569962,3.2407599612236,1.28090762014389,0.4136986496530975
6.967204545454545,-25.9580978264809,5.9758722659111,3.3981048857688902,0.4136986496530975
6.967810606060606,-7.34161101007462,0.725989453411102,3.81962832326889,0.4136986496530975
6.968416666666667,5.82141633367538,2.2923322268486,-1.02310116891861,0.4136986496530975
6.969022727272727,6.85366975164413,-2.3492156247139,-4.51264462594986,0.4136986496530975
6.969628787878788,20.5412063727379,-8.34873955049515,-2.6253692353248597,0.4136986496530975
6.970234848484848,4.75563264226913,0.819395215129852,0.840224026393891,0.4136986496530975
6.970840909090909,-26.279030443668397,6.5698371096611,3.0891473662376403,0.4136986496530975
6.97144696969697,-13.0345724358559,1.63370185575485,3.94177431936264,0.4136986496530975
6.97205303030303,6.22856965398788,2.59170966825485,-0.24711484079360901,0.4136986496530975
6.972659090909091,5.05261506414413,-0.481100390338898,-4.40486874704361,0.4136986496530975
6.973265151515152,18.119841626644103,-9.254056933307648,-3.54266171579361,0.4136986496530975
6.973871212121212,12.1107376227379,-3.1683123044014,-0.0339581025123594,0.4136986496530975
6.974477272727273,-22.207497240543397,9.0893976565361,3.43642519826889,0.4136986496530975
6.975083333333333,-20.030424486637102,1.8803888674736,3.79567812795639,0.4136986496530975
6.975689393939394,5.88847688055038,1.2576837893486,0.425885647487641,0.4136986496530975
6.976295454545455,4.83945832586288,0.965491406536102,-3.56900693063736,0.4136986496530975
6.976901515151515,14.3021804938316,-8.2840740231514,-4.71143124704361,0.4136986496530975
6.977507575757576,17.166623853206602,-5.43639580049515,-0.278250094699859,0.4136986496530975
6.978113636363636,-17.5108639397621,7.3601935549736,2.9933465849876404,0.4136986496530975
6.978719696969697,-23.3355514397621,4.7735724612236,3.8938739287376403,0.4136986496530975
6.979325757575758,3.3521511969566298,0.0146686526298523,2.38980166311264,0.4136986496530975
6.979931818181818,5.76633088445663,1.6552570315361,-3.43488583688736,0.4136986496530975
6.980537878787879,10.2210672125816,-6.53331474580765,-4.9030328095436095,0.4136986496530975
6.981143939393939,21.1830716071129,-6.42314384737015,-0.994360934543609,1.0969440030785051
6.98175,-10.5916525139809,4.87655830106735,2.5430829131126402,1.0969440030785051
6.982356060606062,-26.7412692131996,6.23692939481735,4.06392031545639,1.0969440030785051
6.982962121212121,-0.738542162418365,-0.0404167965888977,2.6795990263938902,1.0969440030785051
6.983568181818182,5.98188264226913,1.06847724637985,-1.79669247751236,1.0969440030785051
6.984174242424242,8.75292023992538,-3.29524833955765,-5.46586239938736,1.0969440030785051
6.984780303030304,21.5758548102379,-7.6709490231514,-1.7056817353248601,1.0969440030785051
6.985386363636364,-3.85206755304337,3.0299982424736,1.7072210967063899,1.0969440030785051
6.985992424242424,-28.3339572014809,6.7997589846611,3.88908388967514,1.0969440030785051
6.986598484848486,-6.10099089288712,0.132024609661102,3.3525995146751404,1.0969440030785051
6.987204545454546,6.84648469305038,1.6313068362235998,-1.10213681344986,1.0969440030785051
6.987810606060606,6.32676545476913,-1.6618450192451502,-4.68508603219986,1.0969440030785051
6.988416666666668,21.0920608649254,-10.0036980465889,-3.03012753610611,1.0969440030785051
6.989022727272728,4.58558625555038,-0.12663749971389798,1.4078436553001399,1.0969440030785051
6.989628787878789,-27.3735543694496,9.577981640911101,3.43642519826889,1.0969440030785051
6.9902348484848496,-12.8501559319496,0.788259961223602,3.4124750029563904,1.0969440030785051
6.99084090909091,7.92663850164413,0.9367511721611019,0.08818789358139059,1.0969440030785051
6.9914469696969705,5.07177522039413,0.0194586916923523,-4.31146298532486,1.0969440030785051
6.992053030303031,17.8444143805504,-9.110355761432649,-3.8923345673561096,1.0969440030785051
6.9926590909090915,11.1934451422691,-4.17182548799515,0.552821682643891,1.0969440030785051
6.9932651515151525,-23.510387865543397,9.49894599637985,3.6352118193626404,1.0969440030785051
6.9938712121212125,-18.370675951480898,3.3892511721611,3.8411834990501403,1.0969440030785051
6.9944772727272735,7.05006135320663,-0.5026555661201481,0.169618557643891,1.0969440030785051
6.9950833333333335,5.13165070867538,1.1331427737236,-3.7893487275123596,1.0969440030785051
6.9956893939393945,13.3178274664879,-8.4421453122139,-4.58449521188736,1.0969440030785051
6.996295454545455,17.252844556331603,-4.62687919893265,0.198358792018891,1.0969440030785051
6.9969015151515155,-18.313195482730897,7.8152472659111,2.8927557646751403,1.0969440030785051
6.997507575757576,-23.749889818668397,4.68974677762985,4.119005764675141,1.0969440030785051
6.9981136363636365,4.97597443914413,0.184715039348602,2.24849551076889,1.0969440030785051
6.998719696969697,4.85382844305038,0.39308173856735196,-3.8132989228248597,1.0969440030785051
6.999325757575758,11.0545340094566,-6.28902275362015,-4.66832089548111,1.0969440030785051
6.999931818181818,21.7099759039879,-6.01120048799515,-0.477036715793609,1.0969440030785051
7.000537878787879,-13.4105905022621,5.7603205080986,2.07605410451889,1.0969440030785051
7.001143939393939,-27.845373217105898,6.0980182620048495,3.82681338186264,1.0969440030785051
7.00175,0.775110181331635,0.0984943362236023,2.77539980764389,1.0969440030785051
7.002356060606061,6.10402863836288,1.26965888700485,-2.85289609079361,1.0969440030785051
7.002962121212121,8.19009065008163,-3.62097099580765,-5.30060605173111,1.0969440030785051
7.003568181818182,22.459617017269103,-9.043295214557649,-1.8421978486061101,1.0969440030785051
7.004174242424242,-4.24964079523087,2.60607978544235,1.8102069365501399,1.0969440030785051
7.004780303030303,-29.1267086663246,9.383985058879851,4.485443752956391,1.0969440030785051
7.005386363636364,-5.79203337335587,-0.857118456745148,3.2184784209251402,1.0969440030785051
7.005992424242424,8.403247388362882,0.685274121379852,-1.63143612985611,1.0969440030785051
7.006598484848485,6.03457307195663,-0.749342577838898,-5.0491290009498595,1.0969440030785051
7.007204545454545,20.323259595394102,-10.0947087887764,-2.71398495798111,1.0969440030785051
7.007810606060606,3.55093781805038,-1.5804143551826502,1.29767275686264,1.0969440030785051
7.008416666666667,-27.7711276116371,10.4425836916924,3.4555853545188904,1.0969440030785051
7.009022727272727,-11.8969381585121,1.6265167971610999,3.1059125029563903,1.0969440030785051
7.009628787878788,9.08822297430038,-0.945734179401398,-0.153709079074859,1.0969440030785051
7.010234848484849,5.13644074773788,0.802630078411102,-4.529409762668609,1.0969440030785051
7.010840909090909,16.9917874274254,-8.9498894528389,-3.70073300485611,1.0969440030785051
7.01144696969697,11.157519849300401,-3.98501396455765,0.658202542018891,1.0969440030785051
7.01205303030303,-25.059965502262102,9.44146552762985,3.55378115530014,1.0969440030785051
7.012659090909091,-18.241344896793397,4.2083478518485995,3.75017275686264,1.0969440030785051
7.013265151515151,8.398457349300381,-0.890648730182648,0.219913967800141,1.0969440030785051
7.013871212121212,5.01189973211288,0.584683301067352,-3.77737362985611,1.0969440030785051
7.014477272727273,14.4458816657066,-7.5128777340889,-4.16297177438736,1.0969440030785051
7.015083333333333,16.831321118831603,-5.5393816403389,0.430675686550141,1.0969440030785051
7.015689393939394,-21.2375143303871,8.67505927762985,3.0963324248313904,1.0969440030785051
7.016295454545455,-24.0396871819496,5.10169013700485,4.20762148733139,1.0969440030785051
7.016901515151515,6.72194367742538,-0.830773241901398,1.47729922170639,1.0969440030785051
7.017507575757576,4.97597443914413,0.7571247073173519,-3.5043414032936098,1.0969440030785051
7.018113636363636,10.8701175055504,-6.1046062497139,-5.2622857392311095,1.0969440030785051
7.018719696969697,21.9159475836754,-7.7427996090889,-0.445901461887359,1.0969440030785051
7.019325757575758,-13.5279464592934,6.4740363284111,2.63169863576889,1.0969440030785051
7.019931818181818,-29.018932787418397,8.14815498075485,4.119005764675141,1.0969440030785051
7.020537878787879,2.05165559148788,-1.99714775362015,3.0388519560813902,1.0969440030785051
7.021143939393939,7.68713654851913,0.7355695315361019,-2.8744512665748596,1.0969440030785051
7.02175,7.19376252508163,-2.52405205049515,-4.742566500949859,1.0969440030785051
7.022356060606061,22.952991040706603,-9.1798113278389,-1.62185605173111,1.0969440030785051
7.022962121212121,-5.94052458429337,1.8612287112236,2.3371112334251403,1.0969440030785051
7.023568181818182,-29.866769701480898,10.8090216799736,4.29384219045639,1.0969440030785051
7.024174242424242,-4.00055876398087,-1.51814384737015,3.18015810842514,1.0969440030785051
7.024780303030303,9.634287427425381,-0.744552538776398,-1.36558896188736,1.0969440030785051
7.025386363636365,5.44779328680038,0.290095898723602,-5.453887301731109,1.0969440030785051
7.025992424242424,20.1867434821129,-9.5773845700264,-2.2230059540748597,1.0969440030785051
7.026598484848485,2.84440705633163,-1.4774285153389,1.57310000295639,1.0969440030785051
7.027204545454547,-29.2201144280434,10.737171094036102,3.2352435576438903,1.0969440030785051
7.027810606060607,-10.1485739006996,1.75345283231735,3.8076532256126403,1.0969440030785051
7.028416666666667,9.780383618831632,-1.53251396455765,-0.800364352512359,1.0969440030785051
7.029022727272727,4.84903840398788,1.0541071291923498,-4.68508603219986,1.0969440030785051
7.029628787878789,18.6227957282066,-8.8157683590889,-2.96067196969986,1.0969440030785051
7.030234848484849,9.842654126644131,-4.12392509737015,0.480971096706391,1.0969440030785051
7.03084090909091,-27.217878099918398,10.267747265911101,3.7046673857688903,1.0969440030785051
7.031446969696971,-17.297707201480897,3.9041803713798497,4.00883486623764,1.0969440030785051
7.032053030303031,9.670212720394131,-1.39839287080765,-0.20160946969985902,1.0969440030785051
7.032659090909092,3.80480988836288,0.927171094036102,-4.43839902048111,1.0969440030785051
7.033265151515152,14.7404690680504,-7.64460380830765,-4.07435605173111,1.0969440030785051
7.033871212121213,17.5761721930504,-7.1344646481514005,-0.204004489231109,1.0969440030785051
7.0344772727272735,-21.6973580803871,9.68096748075485,3.5944964873313903,1.0969440030785051
7.035083333333334,-24.207338549137102,6.1842389651298495,4.17409121389389,1.0969440030785051
7.0356893939393945,7.51948518133163,-2.7755291012764003,0.744423245143891,1.0969440030785051
7.0362954545454555,6.48723176336288,0.8577155276298519,-3.1977789032936097,1.0969440030785051
7.0369015151515155,10.6066653571129,-5.2663494137764,-5.29102597360611,1.0969440030785051
7.0375075757575765,20.907644361019102,-8.458910448932649,-0.924905368137359,1.0969440030785051
7.0381136363636365,-14.6871359124184,5.8273810549736,3.1586029326438902,1.0969440030785051
7.0387196969696975,-28.4800533928871,9.9803449221611,4.66028017873764,1.0969440030785051
7.039325757575758,2.79171662664413,-2.9671306637764,2.4903924834251403,1.0969440030785051
7.0399318181818185,8.50623322820663,-0.210463183307648,-3.14269345407486,1.0969440030785051
7.040537878787879,6.20461945867538,-1.95882744112015,-5.5880083954811095,1.0969440030785051
7.0411439393939395,22.9410159430504,-8.839718554401399,-1.39911923532486,1.0969440030785051
7.04175,-6.28540739679337,1.75345283231735,2.34190127248764,1.0969440030785051
7.042356060606061,-31.090624681949603,11.1515094729424,4.13098086233139,1.0969440030785051
7.042962121212121,-2.71443327569962,-0.610431445026398,2.76821474905014,1.0969440030785051
7.043568181818182,9.639077466487882,-2.14084892549515,-1.86614804391861,1.0969440030785051
7.044174242424242,6.03936311101913,1.1283527346611,-5.1353497040748595,1.0969440030785051
7.044780303030303,21.233367017269103,-9.036110155963899,-2.1463653290748597,1.0969440030785051
7.045386363636364,1.79059846258163,-2.5024968747139003,1.89163760061264,1.0969440030785051
7.045992424242424,-30.8630978264809,11.8604352541924,3.6711371123313903,1.0969440030785051
7.046598484848485,-10.0815133538246,1.3965949221611,3.3525995146751404,1.0969440030785051
7.047204545454545,11.5000076422691,-2.09294853487015,-0.886585055637359,1.0969440030785051
7.047810606060606,4.12334748601913,1.4349152346610998,-5.42993710641861,1.0969440030785051
7.048416666666667,18.7066214118004,-9.6971355465889,-3.30315976266861,1.0969440030785051
7.049022727272727,10.4581741461754,-5.22084404268265,1.00548037405014,1.0969440030785051
7.049628787878788,-28.310007006168398,12.600496289348602,3.57294131155014,1.0969440030785051
7.050234848484848,-17.4078780999184,4.1412873049736,4.45670351858139,1.0969440030785051
7.050840909090909,11.0928543219566,-3.2449529294014,-0.139338961887359,1.0969440030785051
7.05144696969697,4.24070344305038,1.2912140627861,-3.8300640595436097,1.0969440030785051
7.05205303030303,14.366846021175402,-7.15601982393265,-3.55224179391861,1.0969440030785051
7.052659090909091,17.2839798102379,-7.7523796872139,0.037892483425140594,1.0969440030785051
7.053265151515152,-22.468554369449603,9.534871289348601,3.59928652639389,1.0969440030785051
7.053871212121212,-23.4553024163246,8.04756416044235,4.36090273733139,1.0969440030785051
7.054477272727273,8.01046418523788,-4.1119499997139,0.492946194362641,1.0969440030785051
7.055083333333333,7.00695100164413,-0.045206835651397693,-3.1738287079811096,1.0969440030785051
7.055689393939394,9.67260773992538,-4.6867546872139,-5.24073056344986,1.0969440030785051
7.056295454545455,20.5986868414879,-7.53922294893265,-0.982385836887359,1.0969440030785051
7.056901515151515,-15.1278195061684,5.50884345731735,3.2088983428001403,1.0969440030785051
7.057507575757576,-28.8417013421059,9.764793164348601,3.98488467092514,1.0969440030785051
7.058113636363636,3.8910305914878798,-2.5408171872139,2.46644228811264,1.0969440030785051
7.058719696969697,9.011582349300381,-1.5085637692451501,-2.97983212594986,1.0969440030785051
7.059325757575758,7.16023225164413,-1.01039970674515,-5.7341045868873595,1.0969440030785051
7.059931818181818,22.761389478206603,-8.82774345674515,-0.896165133762359,1.0969440030785051
7.060537878787879,-7.58590300226212,1.2936090823173498,2.13353457326889,1.0969440030785051
7.061143939393939,-32.565956713199604,12.0520368166924,4.32976748342514,1.0969440030785051
7.06175,-1.81390593194962,-1.0295598629951501,3.32385928030014,1.0969440030785051
7.062356060606061,10.985078443050401,-2.1168987301826503,-2.6493194306373598,1.0969440030785051
7.062962121212121,4.18801301336288,1.20259834012985,-5.9472613251686095,1.0969440030785051
7.063568181818182,22.057253736019103,-10.2288298825264,-1.87812314157486,1.0969440030785051
7.064174242424242,2.15224641180038,-3.2305828122139,1.98025332326889,1.0969440030785051
7.064780303030303,-32.122878099918395,14.5715973635674,3.76933291311264,1.0969440030785051
7.065386363636364,-9.61208952569962,0.967886426067352,3.98488467092514,1.0969440030785051
7.065992424242424,12.2424636969566,-3.17070732393265,-1.41827939157486,1.0969440030785051
7.066598484848486,3.55333283758163,2.41447822294235,-4.828787204074859,1.0969440030785051
7.067204545454545,18.5940554938316,-9.776171191120149,-2.9415118134498597,1.0969440030785051
7.067810606060606,9.864209302425381,-6.08305107393265,0.34445498342514097,1.0969440030785051
7.068416666666668,-28.8728365960121,13.117820508098601,4.22917666311264,1.0969440030785051
7.069022727272728,-16.2870089592934,5.2046759768486,4.1381659209251405,1.0969440030785051
7.069628787878788,11.545513013362902,-5.0412175778389,-0.855449801731109,1.0969440030785051
7.070234848484848,4.86580354070663,1.51395087919235,-4.25398251657486,1.0969440030785051
7.07084090909091,13.2004715094566,-6.84466728487015,-3.8731744111061097,1.0969440030785051
7.071446969696971,16.9127517828941,-7.72603447237015,0.21272890920639098,1.0969440030785051
7.07205303030303,-23.069704271793398,9.007966992473602,3.85315859670639,1.0969440030785051
7.072659090909092,-24.0013668694496,8.8498957034111,3.69269228811264,1.0969440030785051
7.073265151515153,9.205578931331631,-4.4520427731514,0.574376858425141,1.0969440030785051
7.073871212121213,7.32309357976913,-0.6391716794013981,-3.04928769235611,1.0969440030785051
7.074477272727274,10.333633130550401,-3.2641130856514002,-5.41556698923111,1.0969440030785051
7.075083333333334,20.775918286800398,-8.3942449215889,-0.568047457981109,1.0969440030785051
7.0756893939393946,-16.6726071038246,5.79624580106735,3.2328485381126404,1.0969440030785051
7.0762954545454555,-29.957780443668398,10.2390070315361,3.86273867483139,1.0969440030785051
7.0769015151515156,5.20829133367538,-2.89767509737015,2.3874066435813903,1.0969440030785051
7.0775075757575765,9.44987092351913,-1.56125419893265,-3.15227353219986,1.0969440030785051
7.0781136363636366,6.08726350164413,-0.691862109088898,-6.76635800485611,1.0969440030785051
7.0787196969696975,23.388884595394103,-9.7785662106514,-0.587207614231109,1.0969440030785051
7.079325757575758,-7.49968229913712,0.967886426067352,2.34190127248764,1.0969440030785051
7.0799318181818185,-33.3539181389809,14.0518781252861,4.17648623342514,1.0969440030785051
7.080537878787879,-1.21036101007462,-2.2055144528389,3.6088666045188904,1.0969440030785051
7.0811439393939395,11.6916092047691,-2.9144402340889,-3.2935796845436096,1.3512437529786254
7.08175,3.44795197820663,1.9690045901298499,-5.0227837861061095,1.3512437529786254
7.082356060606061,22.344656079769102,-10.2527800778389,-1.51168515329361,1.3512437529786254
7.082962121212121,1.08167268133163,-4.01854423799515,1.90121767873764,1.3512437529786254
7.083568181818182,-32.2809493889809,15.4481745120049,4.1381659209251405,1.3512437529786254
7.084174242424242,-8.18226286554337,1.43731025419235,3.6447918974876403,1.3512437529786254
7.084780303030303,12.6112967047691,-4.7107048825264,-1.72723691110611,1.3512437529786254
7.085386363636364,3.73056428289413,2.2635919924736,-4.99404355173111,1.3512437529786254
7.085992424242424,18.3689236578941,-8.6193767575264,-3.09000302438736,1.3512437529786254
7.086598484848485,9.002002271175382,-5.7597234372139,0.885729397487641,1.3512437529786254
7.087204545454545,-29.747018724918398,12.3130939455986,3.83639345998764,1.3512437529786254
7.087810606060606,-15.5565280022621,5.8896515627861,4.12140078420639,1.3512437529786254
7.088416666666667,12.1777981696129,-5.5298015622139,-0.675823336887359,1.3512437529786254
7.089022727272727,5.28972199773788,1.12116767606735,-4.52222470407486,1.3512437529786254
7.089628787878788,14.3596609625816,-5.3908904294014,-3.93783993844986,1.3512437529786254
7.090234848484848,15.4996902594566,-7.7068743161201505,-0.09383359079360941,1.3512437529786254
7.090840909090909,-24.8539938225746,9.3336896487236,3.74538271780014,1.3512437529786254
7.09144696969697,-23.4720675530434,8.648714062786102,4.3513226592063905,1.3512437529786254
7.09205303030303,10.3911135993004,-5.2423992184639,0.837829006862641,1.3512437529786254
7.092659090909091,7.01892609930038,-0.318239062213898,-4.11986142282486,1.3512437529786254
7.093265151515152,9.90492463445663,-3.1778923825264003,-5.094634372043609,1.3512437529786254
7.093871212121212,20.9435696539879,-9.59414970674515,-0.709353610324859,1.3512437529786254
7.094477272727273,-17.2402267327309,6.3303351565361,3.52264590139389,1.3512437529786254
7.095083333333333,-29.7422286858559,11.6185382815361,4.41359316701889,1.3512437529786254
7.095689393939394,6.12079377508163,-4.26283623018265,1.62818545217514,1.3512437529786254
7.096295454545455,10.2066970953941,-1.8989519528389,-3.43967587594986,1.3512437529786254
7.096901515151515,6.14234895086288,-0.39487968721389805,-5.873015719699859,1.3512437529786254
7.097507575757576,22.268015454769102,-9.924662402057649,-0.900955172824859,1.3512437529786254
7.098113636363636,-8.481640306949618,0.32123115262985197,2.71552431936264,1.3512437529786254
7.098719696969697,-32.4007003655434,14.8206793948174,4.53334414358139,1.3512437529786254
7.099325757575758,-0.522990404605865,-1.89176689424515,3.0723822295188903,1.3512437529786254
7.099931818181818,12.728652661800401,-4.28199638643265,-2.9079815400123596,1.3512437529786254
7.100537878787879,2.73902619695663,1.99295478544235,-5.77002987985611,1.3512437529786254
7.101143939393939,21.9351077399254,-9.0600603512764,-1.46857480173111,1.3512437529786254
7.10175,0.731999829769135,-4.10476494112015,2.16227480764389,1.3512437529786254
7.102356060606061,-33.0593307366371,14.5907575198174,3.48672060842514,1.3512437529786254
7.102962121212121,-7.44938688898087,1.9857697268485999,3.27356387014389,1.3512437529786254
7.103568181818182,12.4340652594566,-5.6160222653389,-1.49971005563736,1.3512437529786254
7.104174242424242,4.48020539617538,2.9916779299736,-5.034758883762359,1.3512437529786254
7.104780303030303,18.9557034430504,-8.0637322262764,-2.9151665986061097,1.3512437529786254
7.105386363636364,8.22841096258163,-6.4686492184639,1.4892743193626399,1.3512437529786254
7.105992424242424,-30.2571578850746,13.141770703411101,3.95614443655014,1.3512437529786254
7.106598484848485,-15.494257494449599,5.7315802737236,3.91542910451889,1.3512437529786254
7.107204545454545,12.9561795172691,-5.6375774411201505,-0.704563571262359,1.3512437529786254
7.107810606060606,5.22984650945663,1.23133857450485,-4.69466611032486,1.3512437529786254
7.108416666666667,14.3213406500816,-5.80043876924515,-4.48629941110611,1.3512437529786254
7.109022727272727,15.1715725836754,-8.62656181612015,-0.00282284860610944,1.3512437529786254
7.109628787878789,-25.349762865543397,10.7635163088799,4.14774599905014,1.3512437529786254
7.110234848484849,-23.548708178043398,9.2618390627861,4.598009670925141,1.3512437529786254
7.110840909090909,11.0018435797691,-6.5213396481514,0.725263088893891,1.3512437529786254
7.111446969696971,7.49313996648788,0.23261542997360202,-3.6360674775123596,1.3512437529786254
7.112053030303031,9.114568189144132,-2.54800224580765,-4.83357724313736,1.3512437529786254
7.112659090909091,20.4645657477379,-10.4324065426826,-0.287830172824859,1.3512437529786254
7.113265151515153,-17.656960131168397,5.80103584012985,3.21129336233139,1.3512437529786254
7.113871212121213,-28.808171068668397,12.7561725588799,4.119005764675141,1.3512437529786254
7.114477272727274,7.12670197820663,-4.8927263669014005,1.57310000295639,1.3512437529786254
7.115083333333333,10.0007254157066,-2.0282830075264,-3.6839678681373598,1.3512437529786254
7.115689393939395,5.78070100164413,-0.636776659870148,-5.27665585641861,1.3512437529786254
7.1162954545454555,22.3997415289879,-8.743917773151399,-0.740488864231109,1.3512437529786254
7.116901515151516,-9.834826342105869,0.828975293254852,2.3802215849876402,1.3512437529786254
7.1175075757575765,-31.892956224918397,13.9081769534111,4.85188174123764,1.3512437529786254
7.118113636363637,1.22537385320663,-1.3959978512764,2.92389101858139,1.3512437529786254
7.1187196969696975,11.3922317633629,-4.65082939424515,-3.76539853219986,1.3512437529786254
7.1193257575757585,4.66462190008163,2.0193000002861,-4.85992245798111,1.3512437529786254
7.1199318181818185,22.7254641852379,-8.363109667682648,-1.38714413766861,1.3512437529786254
7.1205378787878795,-2.07017302179337,-3.24255790987015,1.5108294951438899,1.3512437529786254
7.1211439393939395,-33.226982103824604,14.2985651370049,4.6770453154563905,1.3512437529786254
7.1217500000000005,-6.06985563898087,1.91152412137985,3.17776308889389,1.3512437529786254
7.122356060606061,12.5442361578941,-5.1585735348701505,-2.6086040986061096,1.3512437529786254
7.1229621212121215,3.80001984930038,2.1821613284111,-4.69945614938736,1.3512437529786254
7.123568181818182,19.7460598883629,-8.782238085651398,-3.00617734079361,1.3512437529786254
7.1241742424242425,7.47397981023788,-6.6602507809639,1.41742373342514,1.3512437529786254
7.124780303030303,-30.690656420230898,14.607522656536101,4.14056094045639,1.3512437529786254
7.125386363636364,-15.1182394280434,5.0202594729423495,4.092660549831391,1.3512437529786254
7.125992424242424,13.2052615485191,-6.6698308590889,-0.510566989231109,1.3512437529786254
7.126598484848485,5.79028107976913,1.98816474637985,-4.65874081735611,1.3512437529786254
7.127204545454545,13.8135965094566,-6.2387273434639,-3.97137021188736,1.3512437529786254
7.127810606060606,14.069863599300401,-8.6816472653389,-0.0603033173561094,1.3512437529786254
7.128416666666667,-25.5341793694496,10.9024274416924,4.3776678740501405,1.3512437529786254
7.129022727272727,-21.8817745842934,9.8366437502861,4.05673525686264,1.3512437529786254
7.129628787878788,11.5095877203941,-7.13685966768265,0.327689846706391,1.3512437529786254
7.130234848484849,7.54583039617538,0.110469433879852,-4.0312457001686095,1.3512437529786254
7.130840909090909,9.181628736019132,-3.0389812497139,-4.409658786106109,1.3512437529786254
7.13144696969697,19.7700100836754,-9.15825615205765,0.045077542018890596,1.3512437529786254
7.13205303030303,-18.7466940178871,6.1004132815361,3.3813397490501402,1.3512437529786254
7.132659090909091,-28.161515795230898,12.3514142580986,4.28426211233139,1.3512437529786254
7.133265151515151,7.56259553289413,-4.4328826169014,1.13241640920639,1.3512437529786254
7.133871212121212,9.646262525081632,-2.89288505830765,-3.31513486032486,1.3512437529786254
7.134477272727273,7.59373078680038,-0.263153612995148,-5.15690487985611,1.3512437529786254
7.135083333333333,21.817751782894103,-8.691227343463899,-0.948855563449859,1.3512437529786254
7.135689393939394,-11.9568136467934,1.46126044950485,2.75863467092514,1.3512437529786254
7.136295454545455,-32.2162838616371,13.5129987307549,4.32258242483139,1.3512437529786254
7.136901515151515,1.88879426336288,-1.6019695309639002,2.22215029592514,1.3512437529786254
7.137507575757576,11.4521072516441,-4.10476494112015,-3.0516827118873597,1.3512437529786254
7.138113636363636,5.29451203680038,0.946331250286102,-5.84188046579361,1.3512437529786254
7.138719696969697,22.093179028987898,-8.810978320026399,-2.02661435251236,1.3512437529786254
7.139325757575758,-3.05213102960587,-3.30003837862015,2.6340936553001404,1.3512437529786254
7.139931818181818,-33.1407614006996,15.5822956057549,4.88062197561264,1.3512437529786254
7.140537878787879,-6.03872038507462,1.07326728544235,3.24003359670639,1.3512437529786254
7.141143939393939,14.2662552008629,-6.1620867184639,-2.1200201142311097,1.3512437529786254
7.14175,3.85031525945663,3.0108380862236,-4.91979794626236,1.3512437529786254
7.142356060606061,18.3329983649254,-8.870853808307649,-1.99068905954361,1.3512437529786254
7.142962121212121,6.43933137273788,-6.91651787080765,1.47011416311264,1.3512437529786254
7.143568181818182,-31.160080248355897,14.9188751955986,4.03757510061264,1.3512437529786254
7.144174242424242,-13.4896261467934,4.9651740237236,4.05434023733139,1.3512437529786254
7.144780303030303,13.6219949469566,-7.57275322237015,-0.898560153293609,1.3512437529786254
7.145386363636364,5.34720246648788,1.5738263674736,-4.60844540719986,1.3512437529786254
7.145992424242424,14.7093338141441,-5.88665947237015,-3.8923345673561096,1.3512437529786254
7.146598484848485,12.915464185237902,-7.88889580049515,0.15764345998764098,1.3512437529786254
7.147204545454545,-26.3892013421059,10.521619336223601,4.2315716826438905,1.3512437529786254
7.147810606060606,-20.389677416324602,9.233098828411102,4.02320498342514,1.3512437529786254
7.148416666666668,11.2940359625816,-6.83029716768265,-0.0124029267311094,1.3512437529786254
7.149022727272727,7.02132111883163,-0.155377734088898,-3.92825986032486,1.3512437529786254
7.149628787878788,11.4161819586754,-2.4977068356514,-4.40247372751236,1.3512437529786254
7.150234848484848,18.0096707282066,-8.870853808307649,-0.275855075168609,1.3512437529786254
7.15084090909091,-21.172848803043397,6.38063056669235,3.52025088186264,1.3512437529786254
7.15144696969697,-26.647863451480898,11.7981647463799,4.26989199514389,1.3512437529786254
7.15205303030303,8.26673127508163,-4.76100029268265,0.859384182643891,1.3512437529786254
7.152659090909092,9.124148267269131,-2.17437919893265,-3.70552304391861,1.3512437529786254
7.153265151515152,7.90268830633163,-0.6822820309638981,-5.36287655954361,1.3512437529786254
7.153871212121212,21.5710647711754,-9.9222673825264,-0.762044040012359,1.3512437529786254
7.154477272727274,-12.7375900139809,2.09354560575485,2.7562396513938903,1.3512437529786254
7.155083333333334,-31.1049947991371,14.3033551760674,4.93331240530014,1.3512437529786254
7.155689393939395,2.38935334539413,-2.4019060544014,2.27005068655014,1.3512437529786254
7.156295454545456,11.5718582282066,-3.9562737301826503,-3.37501034860611,1.3512437529786254
7.156901515151516,5.15799592351913,0.888850781536102,-5.65506894235611,1.3512437529786254
7.157507575757577,21.147146314144102,-9.11514580049515,-1.93081357126236,1.3512437529786254
7.158113636363637,-4.05324919366837,-2.64380302705765,2.5335028349876403,1.3512437529786254
7.158719696969698,-31.9384615960121,15.7930573245049,4.48783877248764,1.3512437529786254
7.1593257575757585,-4.35981169366837,0.6948541995048519,3.34062441701889,1.3512437529786254
7.159931818181819,13.5022439703941,-6.75365654268265,-2.2900665009498598,1.3512437529786254
7.1605378787878795,3.48148225164413,2.62044990262985,-5.87541073923111,1.3512437529786254
7.16114393939394,18.914988111019102,-8.1260027340889,-1.98110898141861,1.3512437529786254
7.1617500000000005,4.72210236883163,-5.61841728487015,1.85810732717514,1.3512437529786254
7.1623560606060614,-31.2822262444496,14.0590631838799,3.75017275686264,1.3512437529786254
7.1629621212121215,-10.6395529046059,4.4286896487236,3.6280267607688903,1.3512437529786254
7.1635681818181824,12.038887036800402,-6.7225212887764,-1.43504452829361,1.3512437529786254
7.1641742424242425,5.00950471258163,1.9426593752860999,-4.58449521188736,1.3512437529786254
7.164780303030303,17.329485181331602,-6.3441082028389,-3.0181524384498597,1.3512437529786254
7.165386363636364,10.7575515875816,-7.6134685544014005,0.643832424831391,1.3512437529786254
7.165992424242424,-27.7495724358559,11.283235547161102,3.8076532256126403,1.3512437529786254
7.166598484848485,-18.1910494866371,8.1265998049736,3.8914789092063904,1.3512437529786254
7.167204545454545,11.440132153987902,-6.02078056612015,-0.563257418918609,1.3512437529786254
7.167810606060606,6.59261262273788,0.256565625286102,-4.1246514618873595,1.3512437529786254
7.168416666666667,13.0184500250816,-3.25213798799515,-4.38091855173111,1.3512437529786254
7.169022727272727,16.3642923102379,-9.8168865231514,-0.31417538766860903,1.3512437529786254
7.169628787878788,-21.6614327874184,7.4416242190360995,3.97530459280014,1.3512437529786254
7.170234848484848,-25.2348019280434,12.0711969729424,4.5572943388938905,1.3512437529786254
7.170840909090909,8.13740022039413,-5.54656669893265,1.20666201467514,1.3512437529786254
7.17144696969697,9.780383618831632,-1.41276298799515,-3.4564410126686096,1.3512437529786254
7.17205303030303,7.86676301336288,-1.33612236299515,-4.57491513376236,1.3512437529786254
7.172659090909091,19.8897610602379,-10.0659685544014,-0.225559665012359,1.3512437529786254
7.173265151515152,-13.961444994449598,3.0060480471610997,3.00053164358139,1.3512437529786254
7.173871212121212,-29.737438646793397,14.5213019534111,4.80158633108139,1.3512437529786254
7.174477272727273,4.20238313055038,-2.8425896481514,2.06647402639389,1.3512437529786254
7.175083333333333,11.2844558844566,-4.22451591768265,-3.54505673532486,1.3512437529786254
7.175689393939394,5.21787141180038,0.17752998075485202,-5.63111874704361,1.3512437529786254
7.176295454545455,21.472868970394103,-8.346344530963899,-1.33445370798111,1.3512437529786254
7.176901515151515,-6.16326140069962,-1.0032146481514,2.3442962920188903,1.3512437529786254
7.177507575757576,-31.8258956780434,14.1788141604424,4.80877138967514,1.3512437529786254
7.178113636363636,-1.94323698663712,0.771494824504852,3.3023041045188903,1.3512437529786254
7.178719696969697,12.0269119391441,-6.41835380830765,-3.25525937204361,1.3512437529786254
7.179325757575758,5.00471467351913,1.9091291018485999,-5.05870907907486,1.3512437529786254
7.179931818181818,20.819028638362898,-7.48653251924515,-1.75837216501236,1.3512437529786254
7.180537878787879,0.875701001644135,-4.48317802705765,1.38149844045639,1.3512437529786254
