Time (s),Accel X (m/s^2),Accel Y (m/s^2),Accel Z (m/s^2),CI Value
4.670625,-1.44697247400284,-1.0403159331321699,-0.42465455131530805,0.6041528373816046
4.67123069351908,2.79221209630966,0.00151756296157836,-1.94549195365906,0.6041528373816046
4.671836387038159,9.35456561193466,-2.7527548979759198,-1.45451294975281,0.6041528373816046
4.672442080557238,1.85336444005966,-2.37434181203842,-0.412679453659058,0.6041528373816046
4.673047774076317,-6.99383770837784,2.23128074655533,0.923741444778442,0.6041528373816046
4.673653467595397,-4.811974915409089,4.08023582468033,2.38470335884094,0.6041528373816046
4.674259161114477,-3.11390606775284,-0.07272804250717159,0.375281972122192,0.6041528373816046
4.674864854633555,4.06157244787216,-1.08582130422592,-1.23896119194031,0.6041528373816046
4.675470548152635,7.71637225255966,-2.71682960500717,-1.21261597709656,0.6041528373816046
4.676076241671715,2.63414080724716,-1.00918067922592,-1.62455933647156,0.6041528373816046
4.676681935190794,-4.48385723962784,0.593087387180328,1.57758177680969,0.6041528373816046
4.677287628709873,-5.96876934900284,3.15815330514908,2.71761107368469,0.6041528373816046
4.677893322228952,-3.37735821619034,2.54502830514908,0.45192259712219196,0.6041528373816046
4.678499015748032,2.63174578771591,-2.35757667531967,-1.05454468803406,0.6041528373816046
4.679104709267111,6.52604754552841,-1.8186972807884199,-2.56819703178406,0.6041528373816046
4.67971040278619,3.93463641271591,-2.58031349172592,-0.850968027877808,0.6041528373816046
4.68031609630527,-0.972758606815338,0.233834457492828,1.37879515571594,0.6041528373816046
4.68092178982435,-8.028486145877839,4.25028221139908,2.4685290424346897,0.6041528373816046
4.681527483343428,-4.01922345056534,2.5162880707740802,1.2303039447784399,0.6041528373816046
4.682133176862508,2.33955340490341,-2.32404640188217,-0.951558848190308,0.6041528373816046
4.682738870381587,5.01479022130966,-2.22585060110092,-2.54664185600281,0.6041528373816046
4.683344563900667,7.05774188146591,-2.66653419485092,-1.03298951225281,0.6041528373816046
4.683950257419746,-0.848217591190338,0.937970199680328,0.983616933059692,0.6041528373816046
4.684555950938825,-8.38534405603409,4.05389060983658,2.06377074165344,0.6041528373816046
4.685161644457905,-3.7988816536903403,0.995450668430328,1.96078490180969,0.6041528373816046
4.6857673379769835,-0.670986145877838,-0.997205581569672,-0.870128184127808,0.6041528373816046
4.686373031496063,3.82446551427841,-0.899009780788422,-2.0484777935028102,0.6041528373816046
4.686978725015143,9.665918150997161,-2.63060890188217,-1.30362671928406,0.6041528373816046
4.687584418534222,-0.424299134159088,-1.95042335500717,0.140570058059692,0.6041528373816046
4.688190112053301,-7.408176087284089,3.31382957468033,1.5727917377471898,0.6041528373816046
4.688795805572381,-4.380871399784089,3.93413963327408,2.05658568305969,0.6041528373816046
4.68940149909146,-2.29001934900284,-1.08103126516342,-0.12288209037780799,0.6041528373816046
4.6900071926105396,5.632705260372161,-1.29418800344467,-1.6101892192840601,0.6041528373816046
4.690612886129618,6.94517596349716,-2.98267677297592,-1.59102906303406,0.6041528373816046
4.691218579648698,1.32406512365341,-1.18880714406967,-0.568355723190308,0.6041528373816046
4.691824273167778,-4.90298565759659,1.1798671723365801,1.1153430072784398,0.6041528373816046
4.6924299666868565,-5.638256653690339,3.57488670358658,2.32003783149719,0.6041528373816046
4.693035660205936,-3.09953595056534,1.1319667817115802,0.621968983840942,0.6041528373816046
4.693641353725015,4.08552264318466,-2.27854103078842,-1.61976929740906,0.6041528373816046
4.694247047244095,7.81696307287216,-2.05340919485092,-1.6988049419403102,0.6041528373816046
4.694852740763174,2.55510516271591,-2.17076515188217,-1.6006091411590602,0.6041528373816046
4.695458434282253,-3.65757550134659,1.45050437936783,1.60392699165344,0.6041528373816046
4.696064127801333,-7.51116192712784,4.0682607270240805,2.75593138618469,0.6041528373816046
4.6966698213204126,-3.17138653650284,1.78101707468033,0.0543493549346919,0.6041528373816046
4.697275514839491,3.25684588537216,-2.4461923979759197,-1.01143433647156,0.6041528373816046
4.697881208358571,6.636218443965911,-2.3000962065696697,-2.24965943412781,0.6041528373816046
4.69848690187765,4.827978697872161,-2.21866554250717,-0.8988684185028081,0.6041528373816046
4.6990925953967295,-2.86482403650284,2.22888572702408,1.2638342182159399,0.6041528373816046
4.699698288915809,-7.606962708377839,3.62039207468033,1.89132933540344,0.6041528373816046
4.700303982434888,-3.49471417322159,0.490101547336578,0.921346425247192,0.6041528373816046
4.700909675953968,0.730100279903412,-0.417610855007172,-1.03538453178406,0.6041528373816046
4.7015153694730465,5.5704347525596605,-1.7803769682884198,-2.38857056694031,0.6041528373816046
4.702121062992126,7.488845397090911,-2.41505714406967,-1.25572632865906,0.6041528373816046
4.702726756511206,-2.25648907556534,-0.6714829253196719,0.48066283149719197,0.6041528373816046
4.703332450030285,-7.08484845056534,3.1916835785865802,1.4913610736846898,0.6041528373816046
4.703938143549364,-4.81676495447159,3.71140281686783,1.89851439399719,0.6041528373816046
4.704543837068444,-0.148871888065338,-1.06905616750717,-0.20670777397155798,0.6041528373816046
4.705149530587523,6.29373065099716,-2.40068702688217,-2.16104371147156,0.6041528373816046
4.7057552241066025,6.59789813146591,-2.70485450735092,-1.7802356060028102,0.6041528373816046
4.706360917625681,0.397192565059662,-1.0714511870384198,0.238765858840942,0.6041528373816046
4.706966611144761,-6.5771043099403395,2.21930564889908,1.4147204486846898,0.6041528373816046
4.707572304663841,-5.504135559940339,4.1808266449928295,2.1859167377471898,0.6041528373816046
4.7081779981829195,-1.83496563806534,-0.139788589382172,0.186075429153442,0.6041528373816046
4.708783691701999,5.093825865840911,-2.12525978078842,-2.13469849662781,0.6041528373816046
4.709389385221078,7.608596373653411,-2.42942726125717,-1.8664563091278101,0.6041528373816046
4.709995078740158,1.69529315099716,-1.90731300344467,-0.537220469284058,0.6041528373816046
4.710600772259237,-4.6083982552528395,2.56897850046158,1.6278771869659399,0.6041528373816046
4.711206465778316,-7.01299786462784,3.90539939889908,2.87568236274719,0.6041528373816046
4.711812159297396,-2.23493389978409,0.600272445774078,0.921346425247192,0.6041528373816046
4.7124178528164755,3.78135516271591,-2.38152687063217,-2.09398316459656,0.6041528373816046
4.713023546335554,7.72355731115341,-2.39110694875717,-2.40294068412781,0.6041528373816046
4.713629239854634,3.59693865880966,-1.35406349172592,-0.7599572856903081,0.6041528373816046
4.714234933373713,-5.331694153690339,2.93062644968033,1.6326672260284398,0.6041528373816046
4.7148406268927925,-6.110075501346589,2.6432241059303303,2.64576048774719,0.6041528373816046
4.715446320411872,-3.13306622400284,-0.23798439016342202,-0.027081309127808102,0.6041528373816046
4.716052013930951,1.76953875646591,0.013492660617828401,-1.31320679740906,0.6041528373816046
4.716657707450031,7.99658953771591,-2.03664405813217,-1.5239685161590601,0.6041528373816046
4.7172634009691095,5.44110369787216,-2.85095069875717,-1.65090455131531,0.6041528373816046
4.717869094488189,-3.73661114587784,0.0350478363990784,0.964456776809692,0.6041528373816046
4.718474788007269,-7.28603009119034,3.70661277780533,1.86019408149719,0.6041528373816046
4.719080481526348,-5.10177227869034,2.85159080514908,1.16084837837219,0.6041528373816046
4.719686175045427,2.38026873693466,-0.855899429225922,-0.259398203659058,0.6041528373816046
4.720291868564507,7.321194029903411,-2.77191505422592,-2.66639283256531,0.6041528373816046
4.720897562083586,5.19441668615341,-2.36236671438217,-1.57186890678406,0.6041528373816046
4.7215032556026655,-1.28890118494034,0.018282699680328397,0.526168202590942,0.6041528373816046
4.722108949121744,-7.01299786462784,1.9654335785865802,2.02066039009094,0.6041528373816046
4.722714642640824,-5.34366925134659,4.63588035593033,2.35835814399719,0.6041528373816046
4.723320336159904,0.052309752559661804,-0.7457285307884219,-0.115697031784058,0.6041528373816046
4.7239260296789825,5.79317156896591,-2.55396827688217,-2.43886597709656,0.6041528373816046
4.724531723198062,6.92601580724716,-2.53480812063217,-1.77305054740906,0.6041528373816046
4.725137416717141,1.49650652990341,-1.8234873198509198,0.279481190872192,0.6041528373816046
4.725743110236221,-6.809421204471589,3.58925682077408,1.52249632759094,0.6041528373816046
4.7263488037553,-7.1231687630653395,3.79283348093033,2.25776732368469,0.6041528373816046
4.726954497274379,-0.917673157596588,-0.384080581569672,-0.283348398971558,0.6041528373816046
4.727560190793459,4.27712420568466,-1.91449806203842,-2.59454224662781,0.6041528373816046
4.7281658843125385,8.51630877599716,-3.05931739797592,-1.67724976615906,0.6041528373816046
4.728771577831617,2.9670485220909097,-1.30855812063217,0.336961659622192,0.6041528373816046
4.729377271350697,-6.31844220056534,3.94132469186783,1.8338488666534398,0.6041528373816046
4.729982964869776,-6.8764817513465895,1.8672377778053302,1.85540404243469,0.6041528373816046
4.7305886583888554,-3.03247540369034,-0.321810073757172,0.317801503372192,0.6041528373816046
4.731194351907935,3.44844744787216,0.159588852024078,-1.7634704692840601,0.6041528373816046
4.731800045427014,9.58209246740341,-2.65695411672592,-1.69161988334656,0.6041528373816046
4.732405738946094,4.02325213537216,-2.12286476125717,-0.927608652877808,0.6041528373816046
4.733011432465172,-6.009484681034089,0.456571273899078,0.684239491653442,0.6041528373816046
4.733617125984252,-7.281240052127839,3.40963035593033,3.16547972602844,0.6041528373816046
4.734222819503332,-5.22870831384659,2.2504409028053303,1.00517210884094,0.6041528373816046
4.734828513022411,4.72499285802841,-0.558917007350922,-1.24854127006531,0.6041528373816046
4.73543420654149,9.021657897090911,-2.97309669485092,-2.49395142631531,0.6041528373816046
4.73603990006057,2.61258563146591,-1.9647934721946698,-2.43647095756531,0.6041528373816046
4.736645593579649,-1.96429669275284,-0.295464858913422,1.46262083930969,0.6041528373816046
4.7372512870987284,-7.214179505252839,2.27918113718033,2.66013060493469,0.6041528373816046
4.737856980617807,-6.929172181034089,5.03345359811783,1.05786253852844,0.6041528373816046
4.738462674136887,3.25684588537216,-1.59117042531967,-0.302508555221558,0.6041528373816046
4.739068367655967,7.979824400997161,-3.49281593313217,-3.02085572319031,0.6041528373816046
4.739674061175045,5.39559832677841,-2.74317481985092,-2.00776246147156,0.6041528373816046
4.740279754694125,0.418747740840912,-1.00199562063217,0.619573964309692,0.6041528373816046
4.740885448213204,-7.20459942712784,5.0118984223365795,2.61223021430969,0.6041528373816046
4.741491141732284,-9.48465802087784,3.00487205514908,3.5462878314971897,0.6041528373816046
4.742096835251363,1.14443865880966,-0.779258804225922,-0.6186511333465581,0.6041528373816046
4.742702528770442,8.101970397090911,-2.81023536672592,-2.72626832084656,0.6041528373816046
4.743308222289522,7.61099139318466,-3.91912940969467,-2.08440308647156,0.6041528373816046
4.7439139158086014,2.27249285802841,1.29243309030533,-0.29771851615905803,0.6041528373816046
4.74451960932768,-6.25377667322159,4.54965965280533,2.97627318305969,0.6041528373816046
4.74512530284676,-11.441388977909101,0.322450180149078,2.18352171821594,0.6041528373816046
4.745730996365839,-4.100654114627839,-0.108653335475922,-0.321668711471558,0.6041528373816046
4.746336689884918,9.76650897130966,0.894859848117828,-2.37659546928406,0.6041528373816046
4.746942383403998,9.21804949865341,-4.934617690944671,-2.18738892631531,0.6041528373816046
4.747548076923077,4.24598895177841,0.183539047336578,-1.0281994731903101,0.6041528373816046
4.748153770442157,-4.6347434700965895,0.458966293430328,2.08772093696594,0.6041528373816046
4.748759463961236,-12.4065818490028,2.60250877389908,2.51882445259094,0.6041528373816046
4.749365157480315,-9.57327374353409,1.4528993988990802,0.691424550247192,0.6041528373816046
4.749970850999395,11.3999122916222,1.63492088327408,-0.45818482475280803,0.6041528373816046
4.7505765445184736,10.7819972525597,-4.29275245656967,-3.13102662162781,0.6041528373816046
4.751182238037553,3.77417010412216,-3.08326759328842,-2.29755982475281,0.6041528373816046
4.751787931556633,-0.0291209115028382,0.0661830903053284,1.05307249946594,0.6041528373816046
4.752393625075712,-13.144247864627799,3.19886863718033,4.02289671821594,0.6041528373816046
4.752999318594791,-12.5933933724403,3.9101894379615802,1.6326672260284398,0.6041528373816046
4.753605012113871,7.29963885412216,-0.319415054225922,-0.38633423881530804,0.6041528373816046
4.75421070563295,12.8728493033409,-2.13004981985092,-3.23401246147156,0.6041528373816046
4.75481639915203,5.0315553580284105,-5.92136573781967,-4.33332642631531,0.6041528373816046
4.755422092671108,3.41252215490341,-0.245169448757172,1.60153197212219,0.6041528373816046
4.756027786190188,-13.0221018685341,4.50894432077408,3.17505980415344,0.6041528373816046
4.756633479709268,-16.1404172982216,3.55333152780533,1.9823400775909399,0.6041528373816046
4.7572391732283466,5.30219256505966,0.492496566867828,0.389652089309692,0.6041528373816046
4.757844866747426,12.547126647090899,-2.33841651906967,-3.94293824272156,0.6041528373816046
4.758450560266505,7.92952899084091,-6.01716651906967,-2.88194459037781,0.6041528373816046
4.759056253785585,5.692580748653411,-0.439166030788422,0.40162718696594196,0.6041528373816046
4.759661947304664,-11.9156028450966,3.34975486764908,2.62660033149719,0.6041528373816046
4.760267640823743,-17.7355003060341,4.9256777192115795,3.0672839252471897,0.6041528373816046
4.760873334342823,-0.290178040409088,0.777503891086578,0.533353261184692,0.6041528373816046
4.761479027861903,12.4728810416222,-0.113443374538422,-2.4843713481903102,0.6041528373816046
4.762084721380981,11.363986998653399,-5.820774917507171,-4.08903443412781,0.6041528373816046
4.762690414900061,7.13917254552841,-4.601709976100921,-0.764747324752808,0.6041528373816046
4.76329610841914,-9.70978985681534,2.71507469186783,3.39540160102844,0.6041528373816046
4.7639018019382195,-18.662372864627798,7.665580062961579,3.97499632759094,0.6041528373816046
4.764507495457299,-5.4466550911903395,0.657752914524078,1.18000853462219,0.6041528373816046
4.765113188976378,12.868059264278399,-0.678667983913422,-2.88912964897156,0.6041528373816046
4.765718882495458,12.2932545767784,-4.43166358938217,-3.85911255912781,0.6041528373816046
4.7663245760145365,7.694817076778411,-6.52970069875717,-2.3215100200653103,0.6041528373816046
4.766930269533616,-4.08388897790909,1.06251121530533,1.62069212837219,0.6041528373816046
4.767535963052696,-19.6515159310341,8.12302879343033,4.64081175727844,0.6041528373816046
4.768141656571775,-11.4389939583778,3.7209828949928303,2.17154662055969,0.6041528373816046
4.768747350090854,11.4741578970909,-2.02227394094467,-1.17190064506531,0.6041528373816046
4.769353043609934,14.836765318965899,-2.7024594878196697,-4.350091563034059,0.6041528373816046
4.769958737129013,6.351211119747161,-8.20381935110092,-4.14172486381531,0.6041528373816046
4.7705644306480925,1.63541766271591,0.717628402805328,2.53079955024719,0.6041528373816046
4.771170124167171,-19.617985657596602,8.00567283639908,5.87185179634094,0.6041528373816046
4.771775817686251,-16.3368088997841,3.84552391061783,2.5284045307159397,0.6041528373816046
4.77238151120533,10.7580470572472,-2.10849464406967,-0.491715098190308,0.6041528373816046
4.7729872047244095,14.1278395377159,-2.13483985891342,-4.529718027877809,0.6041528373816046
4.773592898243489,9.36414569005966,-6.56083595266342,-3.84953248100281,0.6041528373816046
4.774198591762568,4.454355650997161,-0.6906430815696719,1.05786253852844,0.6041528373816046
4.774804285281647,-18.4923264779091,6.633326644992829,4.96653441352844,0.6041528373816046
4.775409978800727,-18.2528245247841,5.67292381296158,2.70563597602844,0.6041528373816046
4.776015672319806,4.86150897130966,-1.7085263823509198,-0.769537363815308,0.6041528373816046
4.776621365838886,13.9290529166222,-1.6606259917259198,-3.6555358989715603,0.6041528373816046
4.7772270593579655,12.709987975215899,-5.71060401906967,-4.570433359909059,0.6041528373816046
4.777832752877044,7.80977801427841,-5.7058139800071705,0.327381581497192,0.6041528373816046
4.778438446396124,-16.3751292122841,6.13755760202408,3.40737669868469,0.6041528373816046
4.779044139915203,-22.0992258919716,9.79714744577408,5.1749011127471904,0.6041528373816046
4.7796498334342825,1.71924334630966,-2.0007187651634197,0.8950012104034419,0.6041528373816046
4.780255526953362,14.0727540884972,-3.0784775542259197,-4.896156016159059,0.6041528373816046
4.780861220472441,12.9087745963097,-3.04973731985092,-4.436312266159059,0.6041528373816046
4.781466913991521,9.50545184240341,-6.82668312063217,-1.6437194927215601,0.6041528373816046
4.7820726075106,-11.3863035286903,1.97740867624283,3.22775023384094,0.6041528373816046
4.782678301029679,-22.7626463021278,10.927596664524101,5.409613026809691,0.6041528373816046
4.783283994548758,-5.5065305794715895,1.22297752389908,1.13929320259094,0.6041528373816046
4.7838896880678385,12.4082155142784,-3.91194435110092,-3.07594117240906,0.6041528373816046
4.784495381586917,15.6007765494347,-1.9049179839134198,-4.5776184185028095,0.6041528373816046
4.785101075105996,10.7867872916222,-9.51389503469467,-2.0221325786590603,0.6041528373816046
4.785706768625076,-5.298163880252839,2.00375389108658,1.2039587299346899,0.6041528373816046
4.7863124621441555,-25.1935911263466,10.9323867035866,6.18559935493469,0.6041528373816046
4.786918155663234,-9.92773663415909,2.29594627389908,2.58588499946594,0.6041528373816046
4.787523849182314,12.3243898306847,-3.81614356985092,-3.47351441459656,0.6041528373816046
4.788129542701394,15.940869322872201,-1.6989463042259199,-3.81121216850281,0.6041528373816046
4.7887352362204725,12.5950270377159,-7.52602882375717,-3.05199097709656,0.6041528373816046
4.789340929739552,-3.08516583337784,-1.04271095266342,1.44106566352844,0.6041528373816046
4.789946623258631,-22.719535950565298,10.185140609836601,5.495833729934691,0.6041528373816046
4.790552316777711,-13.7501878060341,4.432303695774079,2.66013060493469,0.6041528373816046
4.79115801029679,7.71158221349716,-3.95505470266342,-2.02452759819031,0.6041528373816046
4.791763703815869,16.8437916861534,0.252994613742828,-3.78247193412781,0.6041528373816046
4.792369397334949,14.4296119986534,-8.23016456594467,-4.357276621627809,0.6041528373816046
4.7929750908540285,0.713335143184662,-5.77047950735092,0.873446034622192,0.6041528373816046
4.793580784373107,-22.4560838021278,10.9994472504616,5.04557005805969,0.6041528373816046
4.794186477892187,-17.4744431771278,8.46072654733658,4.365384511184691,0.6041528373816046
4.794792171411267,6.84698016271591,-4.61129005422592,-0.5994909770965581,0.6041528373816046
4.7953978649303455,14.424821959590899,-2.10849464406967,-5.17876832084656,0.6041528373816046
4.796003558449425,13.5242946158409,-4.25203712453842,-4.05071412162781,0.6041528373816046
4.796609251968504,6.27457049474716,-7.602669448757171,-0.666551523971558,0.6041528373816046
4.797214945487584,-17.7570554818153,6.872828598117829,4.152227772903441,0.6041528373816046
4.797820639006663,-21.5100510872841,11.820938949680299,5.11981566352844,0.6041528373816046
4.798426332525742,1.07977313146591,-2.43900733938217,0.389652089309692,0.6041528373816046
4.799032026044821,13.4692091666222,-3.96942481985092,-4.09142945365906,0.6041528373816046
4.7996377195639015,15.9743995963097,-2.54438819875717,-4.93926636772156,0.6041528373816046
4.80024341308298,9.36175067052841,-8.515171890163419,-1.83292603569031,0.6041528373816046
4.800849106602059,-13.2951340950966,5.749564437961579,3.63729857368469,0.6041528373816046
4.80145480012114,-24.3625193490028,11.555091781711601,5.682645253372191,0.6041528373816046
4.8020604936402185,-3.62404522790909,-1.2151523589134199,0.918951405715942,0.6041528373816046
4.802666187159297,13.212942076778399,-4.69990577688217,-3.69625123100281,0.6041528373816046
4.803271880678377,16.3408375845909,-1.31334815969467,-5.1500280864715595,0.6041528373816046
4.803877574197457,11.991482115840899,-7.63140968313217,-1.30841675834656,0.6041528373816046
4.804483267716535,-9.80798565759659,2.31989646921158,3.24451537055969,0.6041528373816046
4.805088961235615,-23.8140598763466,10.9347817231178,5.87185179634094,0.6041528373816046
4.805694654754694,-7.16388409509659,0.6673329926490781,1.58237181587219,0.6041528373816046
4.806300348273774,8.91867205724716,-4.110730972194671,-3.76091675834656,0.6041528373816046
4.806906041792853,17.7203688345909,0.403880844211578,-4.36206666069031,0.6041528373816046
4.807511735311932,14.7146193228722,-8.50319679250717,-2.89152466850281,0.6041528373816046
4.808117428831013,-6.95072735681534,-3.18625343313217,2.17873167915344,0.6041528373816046
4.8087231223500915,-24.0823020638466,12.1969570160866,5.33297240180969,0.6041528373816046
4.80932881586917,-10.8210789193153,5.7375893403053295,2.89484251899719,0.6041528373816046
4.80993450938825,8.59294940099716,-5.62198829641342,-1.9694421489715601,0.6041528373816046
4.81054020290733,16.0869655142784,-1.2510776518821698,-4.9033410747528094,0.6041528373816046
4.811145896426408,14.968491393184701,-5.29626564016342,-3.76570679740906,0.6041528373816046
4.811751589945488,-2.23732891931534,-6.225533218288421,0.571673573684692,0.6041528373816046
4.812357283464567,-21.385510071659102,10.144425277805299,5.282676991653441,0.6041528373816046
4.812962976983647,-14.8063914193153,9.03313621530533,4.204918202590941,0.6041528373816046
4.813568670502726,4.2268287955284105,-4.17300148000717,-1.98860230522156,0.6041528373816046
4.814174364021805,14.769704772090899,-3.61496192922592,-4.57282837944031,0.6041528373816046
4.814780057540884,17.6413331900597,-4.95617286672592,-3.35855347709656,0.6041528373816046
4.8153857510599645,1.68810809240341,-6.57999610891342,-0.853363047409058,0.6041528373816046
4.815991444579043,-19.232387513065298,9.60554588327408,4.552196034622191,0.6041528373816046
4.816597138098122,-18.1713938607216,9.12654197702408,5.0958654682159406,0.6041528373816046
4.817202831617203,0.849851256465912,-3.40180519094467,-0.982694102096558,0.6041528373816046
4.817808525136281,13.373408385372201,-4.1418662261009205,-4.80514527397156,0.6041528373816046
4.81841421865536,19.3322169791222,-3.87601905813217,-4.02436890678406,0.6041528373816046
4.81901991217444,5.69976580724716,-5.96926612844467,-0.42704957084655804,0.6041528373816046
4.81962560569352,-17.7115501107216,7.3805727387428295,3.88638060493469,0.6041528373816046
4.820231299212598,-18.6719529427528,8.25235984811783,6.04429320259094,0.6041528373816046
4.820836992731678,-2.45527569665909,-1.2462876128196698,-0.589910898971558,0.6041528373816046
4.821442686250757,8.97854754552841,-3.01620704641342,-4.65425904350281,0.6041528373816046
4.822048379769837,21.5452150259972,-1.92407814016342,-3.32502320365906,0.6041528373816046
4.822654073288916,10.020381041622201,-7.80385108938217,-2.35743531303406,0.6041528373816046
4.823259766807995,-16.372734192752798,2.6863344574928303,3.12236937446594,0.6041528373816046
4.823865460327076,-20.1856052865028,10.3911122895241,6.41552122993469,0.6041528373816046
4.824471153846154,-5.09698223962784,1.48882469186783,1.3931652729034398,0.6041528373816046
4.825076847365233,8.97375750646591,-4.16102638235092,-3.0567810161590603,0.6041528373816046
4.825682540884313,18.1394972525597,-3.02818214406967,-4.908131113815309,0.6041528373816046
4.826288234403393,13.1410914908409,-5.52858253469467,-2.69034302787781,0.6041528373816046
4.826893927922471,-11.1108762825966,-2.17316017141342,1.91767455024719,0.6041528373816046
4.827499621441551,-20.5352781380653,10.6282192231178,4.844388417434691,0.6041528373816046
4.82810531496063,-8.27277813806534,5.54838279733658,3.07925902290344,0.6041528373816046
4.82871100847971,5.08424578771591,-4.12510108938217,-2.65681275444031,0.6041528373816046
4.829316701998789,17.4449415884972,-4.249642105007171,-4.376436777877809,0.6041528373816046
4.829922395517868,16.8581618033409,-5.77047950735092,-2.97295533256531,0.6041528373816046
4.830528089036947,-7.520742005252839,-2.87011085500717,1.06025755805969,0.6041528373816046
4.831133782556027,-20.3676267708778,10.9635219574928,5.629954823684691,0.6041528373816046
4.831739476075106,-11.2473923958778,5.77111961374283,4.32945921821594,0.6041528373816046
4.832345169594185,2.60540057287216,-3.76824317922592,-1.82574097709656,0.6041528373816046
4.832950863113266,15.0403419791222,-4.096360855007171,-5.74399293022156,0.6041528373816046
4.833556556632344,21.0566310416222,-5.33219093313217,-2.41491578178406,0.6041528373816046
4.834162250151423,-3.71026593103409,-2.18274024953842,1.2255139057159399,0.6041528373816046
4.834767943670503,-21.6824924935341,9.87618309030533,4.59530638618469,0.6041528373816046
4.835373637189583,-10.9120896615028,4.20238182077408,4.78690794868469,0.6041528373816046
4.835979330708661,-0.982338684940338,-2.35039161672592,-2.46281617240906,0.6041528373816046
4.836585024227741,10.5424952994347,-2.74077980031967,-4.99435181694031,0.6041528373816046
4.83719071774682,25.3461110220909,-3.59580177297592,-2.55143189506531,0.6041528373816046
4.8377964112658995,1.0318727408409099,-5.52379249563217,-0.985089121627808,0.6041528373816046
4.838402104784979,-22.4201585091591,6.59261131296158,4.05403197212219,0.6041528373816046
4.839007798304058,-13.8292234505653,7.725455551242829,5.97723265571594,0.6041528373816046
4.839613491823137,-1.1667551888465901,-0.364920425319672,-0.894078379440308,0.6041528373816046
4.840219185342217,10.2095875845909,-2.78628517141342,-4.357276621627809,0.6041528373816046
4.840824878861296,22.2565358267784,-5.03281349172592,-3.6387707622528103,0.6041528373816046
4.841430572380376,6.183559752559661,-4.376578140163421,-2.39336060600281,0.6041528373816046
4.842036265899456,-18.5977073372841,2.37258689889908,3.47443724555969,0.6041528373816046
4.842641959418534,-14.9357224740028,8.285890121555331,5.18687621040344,0.6041528373816046
4.843247652937614,-4.687433899784089,3.6443422699928303,1.02193724555969,0.6041528373816046
4.843853346456693,7.01942156896591,-3.70118263235092,-2.97295533256531,0.6041528373816046
4.8444590399757725,20.7093532095909,-6.04111671438217,-4.9967468364715595,0.6041528373816046
4.845064733494852,11.5076881705284,-5.4926572417259205,-1.55749878959656,0.6041528373816046
4.845670427013931,-14.820761536502799,1.7738320160865801,1.85779906196594,0.6041528373816046
4.84627612053301,-18.6096824349403,10.343211898899101,5.17969115180969,0.6041528373816046
4.84688181405209,-6.05499005212784,2.80848045358658,2.67450072212219,0.6041528373816046
4.847487507571169,4.51902117834091,-3.31558448781967,-3.56692017631531,0.6041528373816046
4.848093201090248,17.6125929556847,-6.158472671413421,-5.1236828716278096,0.6041528373816046
4.848698894609329,17.8401198111534,-4.994493179225921,-2.04608277397156,0.6041528373816046
4.849304588128407,-12.1527097786903,2.03488914499283,2.95711302680969,0.6041528373816046
4.849910281647486,-20.1951853646278,10.0845497895241,5.28746703071594,0.6041528373816046
4.850515975166566,-5.990324524784089,1.4792446137428301,3.0840490619659398,0.6041528373816046
4.8511216686856455,-0.036305970096588196,-2.49169776906967,-3.53099488334656,0.6041528373816046
4.851727362204724,13.8164869986534,-3.59340675344467,-4.9368713481903095,0.6041528373816046
4.852333055723804,24.704245787715898,-5.19806983938217,-1.4640930278778101,0.6041528373816046
4.852938749242883,-7.37225079431534,-1.67499610891342,0.588438710403442,0.6041528373816046
4.8535444427619625,-23.8188499154091,8.728968734836581,4.844388417434691,0.6041528373816046
4.854150136281042,-8.23206280603409,4.21435691843033,4.53543089790344,0.6041528373816046
4.854755829800121,0.509758483028412,-1.0451059721946698,-1.69640992240906,0.6041528373816046
4.855361523319201,11.7711403189659,-3.67244239797592,-5.255408945846559,0.6041528373816046
4.85596721683828,22.7786500845909,-5.55492774953842,-2.84601929740906,0.6041528373816046
4.856572910357359,-1.20028546228409,-1.9216831206321698,-0.187547617721558,0.6041528373816046
4.857178603876439,-21.2921043099403,4.312552719211579,3.53191771430969,0.6041528373816046
4.8577842973955185,-10.6893528450966,6.68362205514908,5.66348509712219,0.6041528373816046
4.858389990914597,-2.63011212244034,2.77495018014908,-0.623441172409058,0.6041528373816046
4.858995684433677,8.662404967403411,-3.74429298391342,-4.26866089897156,0.6041528373816046
4.859601377952756,24.0240602408409,-7.59787940969467,-2.92984498100281,0.6041528373816046
4.8602070714718355,4.74175799474716,-3.33713966360092,-0.930003672409058,0.6041528373816046
4.860812764990915,-20.204765442752798,5.1053041840553295,3.05770384712219,0.6041528373816046
4.861418458509994,-13.8076682747841,7.16262596139908,6.38199095649719,0.6041528373816046
4.862024152029074,-3.57374981775284,2.48275779733658,0.5357482807159419,0.6041528373816046
4.862629845548153,5.84107195959091,-3.44491554250717,-4.4913977153778095,0.6041528373816046
4.863235539067232,21.4877345572472,-8.20621437063217,-3.88545777397156,0.6041528373816046
4.863841232586311,12.4585109244347,-3.7706381987571698,-1.46648804740906,0.6041528373816046
4.8644469261053915,-17.9390769661903,5.443001937961579,3.17266478462219,0.6041528373816046
4.86505261962447,-16.2481931771278,8.27631004343033,4.791697987747191,0.6041528373816046
4.865658313143549,-3.60009503259659,0.106898422336578,1.67338255805969,0.6041528373816046
4.866264006662629,0.971997252559662,-1.9432382964134198,-4.13932984428406,0.6041528373816046
4.8668697001817085,18.6568214713097,-5.008863296413421,-4.5440881450653094,0.6041528373816046
4.867475393700787,19.7633204947472,-4.802891616725921,-1.13358033256531,0.6041528373816046
4.868081087219867,-14.9644627083778,1.41697410593033,2.33680296821594,0.6041528373816046
4.868686780738947,-20.1065696419716,8.79842430124283,5.10065550727844,0.6041528373816046
4.8692924742580255,-4.67066876306534,1.73311668405533,2.8613122455596898,0.6041528373816046
4.869898167777105,1.80306902990341,-0.48946144094467203,-2.89391968803406,0.6041528373816046
4.870503861296184,14.3098610220909,-4.89629737844467,-5.45898560600281,0.6041528373816046
4.871109554815264,21.9978737174034,-5.547742690944671,-1.4473278911590601,0.6041528373816046
4.871715248334343,-7.63091290369034,0.6864931488990781,0.633944081497192,0.6041528373816046
4.872320941853422,-22.3914182747841,4.88017234811783,3.94625609321594,0.6041528373816046
4.872926635372503,-6.581894349002839,4.65504051218033,4.33424925727844,0.6041528373816046
4.8735323288915815,-1.61462384119034,1.9582485199928301,-1.76107544975281,0.6041528373816046
4.87413802241066,11.8358058463097,-5.56450782766342,-4.26147584037781,0.6041528373816046
4.87474371592974,24.4886940299034,-7.81822120656967,-3.04959595756531,0.6041528373816046
4.87534940944882,-2.85284893884659,-0.221219253444672,-0.26418824272155805,0.6041528373816046
4.8759551029678985,-21.8429588021278,6.4489101410865795,3.95823119087219,0.6041528373816046
4.876560796486978,-9.53016339197159,4.88975242624283,5.05994017524719,0.6041528373816046
4.877166490006057,-1.49247784509659,2.29834129343033,-0.755167246627808,0.6041528373816046
4.877772183525137,7.642126647090911,-4.68553565969467,-5.207508555221559,0.6041528373816046
4.878377877044216,24.0935158072472,-9.04926124563217,-3.10707642631531,0.6041528373816046
4.878983570563295,5.093825865840911,-0.7912339018821719,0.0782995502471919,0.6041528373816046
4.879589264082374,-22.5949949349403,7.71587547311783,3.47683226509094,0.6041528373816046
4.8801949576014545,-11.1132713021278,5.4645571137428295,4.971324452590941,0.6041528373816046
4.880800651120533,-1.81820050134659,0.161983871555328,0.030399159622191897,0.6041528373816046
4.881406344639612,2.41379901037216,-1.82109230031967,-4.668629160690309,0.6041528373816046
4.882012038158693,23.2360988150597,-7.183541030788421,-3.8016320903778102,0.6041528373816046
4.8826177316777715,13.5075294791222,-4.12749610891342,-0.611466074752808,0.6041528373816046
4.88322342519685,-20.9184812630653,5.2250551606178295,2.70324095649719,0.6041528373816046
4.88382911871593,-16.0230613411903,7.26321678171158,4.68152708930969,0.6041528373816046
4.88443481223501,-2.22774884119034,-0.254749526882172,2.17633665962219,0.6041528373816046
4.885040505754088,2.4880446158409097,-0.10146827688217201,-3.8950378520965603,0.6041528373816046
4.885646199273168,17.8999952994347,-7.030259780788421,-4.58719849662781,0.6041528373816046
4.886251892792247,18.0652516470909,-4.31191261281967,-1.29404664115906,0.6041528373816046
4.886857586311327,-15.395566224002799,3.36652000436783,1.4434606830596899,0.6041528373816046
4.887463279830406,-19.1078464974403,5.20829002389908,5.1557409564971906,0.6041528373816046
4.888068973349485,-3.53782452478409,3.17731346139908,3.07446898384094,0.6041528373816046
4.888674666868566,-0.208747376346588,1.39062889108658,-2.64004761772156,0.6041528373816046
4.8892803603876445,15.7899830924034,-6.730882339382171,-4.79317017631531,0.6041528373816046
4.889886053906723,22.0385890494347,-7.49249855031967,-2.13709351615906,0.6041528373816046
4.890491747425803,-9.59482891931534,2.82524559030533,0.705794667434692,0.6041528373816046
4.891097440944883,-22.0345603646278,6.947074203586579,4.52824583930969,0.6041528373816046
4.891703134463961,-5.18320294275284,2.5498183442115803,4.28874388618469,0.6041528373816046
4.892308827983041,-0.184797181034088,2.65519920358658,-1.93351685600281,0.6041528373816046
4.89291452150212,9.30187518224716,-6.20876808156967,-5.70327759819031,0.6041528373816046
4.8935202150212,25.2287550650597,-9.66717628469467,-2.27360962944031,0.6041528373816046
4.894125908540279,-1.92118634119034,2.87793601999283,0.947691640090942,0.6041528373816046
4.894731602059358,-24.992409485721602,8.61879783639908,3.55347289009094,0.6041528373816046
4.895337295578437,-6.0981004036903395,2.22888572702408,4.47555540962219,0.6041528373816046
4.8959429890975175,-1.5092429818153401,0.937970199680328,-1.36350220756531,0.6041528373816046
4.896548682616596,3.76698504552841,-3.01620704641342,-4.8841809185028096,0.6041528373816046
4.897154376135675,27.1926710806847,-8.15831398000717,-2.68315796928406,0.6041528373816046
4.897760069654756,5.326142760372161,-1.3828037261009198,-0.106116953659058,0.6041528373816046
4.898365763173834,-25.3037620247841,7.73743064889908,3.60376830024719,0.6041528373816046
4.898971456692913,-10.0235374154091,4.70773094186783,4.49950560493469,0.6041528373816046
4.899577150211993,-0.872167786502838,-1.10737648000717,0.279481190872192,0.6041528373816046
4.900182843731073,3.30953631505966,0.377535629367828,-4.85304566459656,0.6041528373816046
4.900788537250151,21.6482008658409,-8.14394386281967,-3.75612671928406,0.6041528373816046
4.901394230769231,12.4297706900597,-3.08805763235092,-0.403099375534058,0.6041528373816046
4.90199992428831,-20.7460398568153,5.85255027780533,2.09011595649719,0.6041528373816046
4.90260561780739,-14.887822083377799,4.06347068796158,5.222801503372191,0.6041528373816046
4.903211311326469,-1.65533917322159,1.4433193207740802,1.5943469135284398,0.6041528373816046
4.903817004845548,0.993552428340912,1.66366111764908,-3.4759094341278103,0.6041528373816046
4.904422698364627,19.0064943228722,-7.9212070464134205,-4.702159434127809,0.6041528373816046
4.905028391883707,17.610197936153398,-7.02067970266342,-1.45451294975281,0.6041528373816046
4.905634085402786,-16.0422214974403,5.775909652805329,2.01347533149719,0.6041528373816046
4.906239778921866,-19.6467258919716,6.5159706879615795,4.34861937446594,0.6041528373816046
4.906845472440946,-1.80622540369034,0.514051742649078,3.50796751899719,0.6041528373816046
4.907451165960024,0.742075377559662,3.2347939301490802,-2.9034997661590602,0.6041528373816046
4.908056859479104,12.6477174674034,-7.995452651882171,-5.64340210990906,0.6041528373816046
4.908662552998183,23.956999693965898,-9.856382827663419,-1.73952027397156,0.6041528373816046
4.909268246517263,-10.0331174935341,6.76265769968033,2.0494006244659397,0.6041528373816046
4.909873940036342,-24.7433274544716,7.845206527805329,4.32706419868469,0.6041528373816046
4.910479633555421,-0.869772766971588,-0.278699722194672,3.10560423774719,0.6041528373816046
4.9110853270745,-0.860192688846588,1.86005271921158,-2.18978394584656,0.6041528373816046
4.91169102059358,6.77752459630966,-4.61847511281967,-5.82302857475281,0.6041528373816046
4.912296714112659,27.4465431509972,-9.44922950735092,-1.35871216850281,0.6041528373816046
4.912902407631738,-2.71154278650284,1.6660561371803302,0.7752502338409419,0.6041528373816046
4.913508101150819,-27.1120017708778,9.35167381296158,3.87201048774719,0.6041528373816046
4.914113794669897,-5.252658509159089,1.97740867624283,4.372569569778441,0.6041528373816046
4.914719488188976,0.797160826778412,-0.522991714382172,-1.17908570365906,0.6041528373816046
4.915325181708056,3.99930194005966,-1.1313266753196698,-5.327259531784059,0.6041528373816046
4.915930875227136,24.835971861934702,-9.11153175344467,-3.04959595756531,0.6041528373816046
4.916536568746214,5.558459654903411,-0.338575210475922,0.727349843215942,0.6041528373816046
4.917142262265294,-25.4402781380653,8.04399314889908,2.72958617134094,0.6041528373816046
4.917747955784373,-9.47507794275284,2.48275779733658,4.71984740180969,0.6041528373816046
4.9183536493034525,-0.754811829471588,0.5260268403053281,0.140570058059692,0.6041528373816046
4.918959342822532,2.57905535802841,1.1319667817115802,-4.350091563034059,0.6041528373816046
4.919565036341611,23.1666432486534,-9.30552833547592,-4.1848352153778094,0.6041528373816046
4.92017072986069,12.1375783072472,-5.0399985503196705,-0.755167246627808,0.6041528373816046
4.92077642337977,-21.9722898568153,9.04511131296158,2.82538695259094,0.6041528373816046
4.921382116898849,-15.857804993534101,4.24788719186783,5.649114979934691,0.6041528373816046
4.921987810417929,1.0318727408409099,-0.817579116725922,2.06137572212219,0.6041528373816046
4.922593503937009,0.981577330684662,3.52938133249283,-4.19920533256531,0.6041528373816046
4.923199197456087,17.3036354361534,-9.825247573757169,-4.7308996685028095,0.6041528373816046
4.923804890975167,20.4195558463097,-8.18226417531967,-0.985089121627808,0.6041528373816046
4.924410584494246,-17.9366819466591,10.0270693207741,2.96908812446594,0.6041528373816046
4.9250162780133255,-21.160378235721602,6.69080711374283,4.08277220649719,0.6041528373816046
4.925621971532405,2.47127947912216,-2.35757667531967,2.23142210884094,0.6041528373816046
4.926227665051484,-0.898513001346588,3.63715721139908,-3.06396607475281,0.6041528373816046
4.926833358570564,10.8370827017784,-6.1848178862571705,-5.341629648971559,0.6041528373816046
4.927439052089643,25.8394850455284,-10.5102231596947,-1.20064087944031,0.6041528373816046
4.928044745608722,-10.6510325325966,5.77111961374283,1.5033361713409399,0.6041528373816046
4.928650439127801,-26.8198093880653,9.77798728952408,4.42765501899719,0.6041528373816046
4.929256132646882,-0.0866013802528382,-0.697828140163422,3.36426634712219,0.6041528373816046
4.92986182616596,1.30729998693466,0.899649887180328,-2.44365601615906,0.6041528373816046
4.930467519685039,6.2625953970909105,-3.65807228078842,-5.154818125534059,0.6041528373816046
4.931073213204119,26.0574318228722,-10.119834976100899,-1.6437194927215601,0.6041528373816046
4.9316789067231985,-2.46006573572159,3.11983299264908,1.0027770893096901,0.6041528373816046
4.932284600242277,-26.8844749154091,8.29786521921158,3.51515257759094,0.6041528373816046
4.932890293761357,-4.3353660286903395,0.8062441254615781,4.133067616653441,0.6041528373816046
4.933495987280436,0.526523619747162,0.195514144992828,-0.597095957565308,0.6041528373816046
4.9341016807995155,3.94421649084091,-0.137393569850922,-5.82302857475281,0.6041528373816046
4.934707374318595,25.7867946158409,-9.93541847219467,-3.63637574272156,0.6041528373816046
4.935313067837674,4.9716798697471605,-2.41505714406967,0.9141613666534419,0.6041528373816046
4.935918761356753,-25.5193137825966,11.3778603363991,2.90921263618469,0.6041528373816046
4.936524454875833,-10.6534275521278,1.4960097504615801,5.34494749946594,0.6041528373816046
4.937130148394912,2.05215106115341,-1.00678565969467,0.0232141010284419,0.6041528373816046
4.937735841913992,1.7455885611534099,3.16054832468033,-4.86741578178406,0.6041528373816046
4.9383415354330715,21.8110621939659,-11.3053696440697,-3.75373169975281,0.6041528373816046
4.93894722895215,14.4056618033409,-5.547742690944671,-0.132462168502808,0.6041528373816046
4.93955292247123,-24.901398743534102,12.8292421723366,3.57742308540344,0.6041528373816046
4.94015861599031,-15.845829895877799,3.64194725046158,4.58572630805969,0.6041528373816046
4.9407643095093885,4.57889666662216,-3.66765235891342,1.18000853462219,0.6041528373816046
4.941370003028468,-0.371608704471588,5.23942527780533,-4.189625254440309,0.6041528373816046
4.941975696547547,15.9360792838097,-8.15831398000717,-4.510557871627809,0.6041528373816046
4.942581390066627,21.2817628775597,-10.2084506987572,-1.07609986381531,0.6041528373816046
4.943187083585706,-18.3534153450966,9.356463852024081,3.0074084369659397,0.6041528373816046
4.943792777104785,-22.506379212284102,7.91705711374283,3.84327025337219,0.6041528373816046
4.944398470623864,3.47718768224716,-2.5994736479759197,2.2721374408721897,0.6041528373816046
4.9450041641429445,1.68810809240341,2.94020652780533,-2.74303345756531,0.6041528373816046
4.945609857662023,10.0131959830284,-6.086622085475921,-5.72962281303406,0.6041528373816046
4.946215551181102,23.7222877799034,-10.3617319487572,-0.752772227096558,0.6041528373816046
4.946821244700182,-10.658217591190299,6.621351547336579,1.53926146430969,0.6041528373816046
4.9474269382192615,-26.0055027474403,8.83674461374283,4.76535277290344,0.6041528373816046
4.94803263173834,0.912121764278412,-1.1001914214134199,2.79664671821594,0.6041528373816046
4.94863832525742,0.471438170528412,0.880489730930328,-2.43407593803406,0.6041528373816046
4.949244018776499,6.396716490840911,-2.61384376516342,-5.81823853569031,0.6041528373816046
4.9498497122955785,26.5460158072472,-11.3388999175072,-1.49762330131531,0.6041528373816046
4.950455405814658,-2.79057843103409,2.0708144379615803,1.53686644477844,0.6041528373816046
4.951061099333737,-27.8879880990028,12.4053237153053,3.70675414009094,0.6041528373816046
4.951666792852817,-4.347341126346589,-1.5241098784446698,4.66715697212219,0.6041528373816046
4.952272486371896,3.23768572912216,-0.676272964382172,-2.0221325786590603,0.6041528373816046
4.952878179890975,2.53594500646591,0.581112289524078,-5.57634156303406,0.6041528373816046
4.953483873410056,25.168879576778398,-11.8729892729759,-2.85799439506531,0.6041528373816046
4.9540895669291345,6.01590838537216,-0.939725112819672,1.55602660102844,0.6041528373816046
4.954695260448213,-28.826835755252798,13.9980117035866,3.97260130805969,0.6041528373816046
4.955300953967293,-9.56848370447159,-0.240379409694672,4.339039296340941,0.6041528373816046
4.955906647486373,5.36925311193466,-3.24612892141342,-0.556380625534058,0.6041528373816046
4.9565123410054515,-0.853007630252838,5.098119125461579,-4.99195679740906,0.6041528373816046
4.957118034524531,22.0936744986534,-10.0312192534447,-3.42321900444031,0.6041528373816046
4.95772372804361,14.784074889278399,-8.14394386281967,-0.518060313034058,0.6041528373816046
4.95832942156269,-26.5012717904091,13.4735024262428,3.32834105415344,0.6041528373816046
4.958935115081769,-16.8996384896278,4.338897934055329,4.60728148384094,0.6041528373816046
4.959540808600848,6.456591979122161,-4.33107276906967,0.7584850971221919,0.6041528373816046
4.960146502119927,1.25700457677841,5.72561424264908,-4.06029419975281,0.6041528373816046
4.9607521956390075,14.065569029903399,-8.54391212453842,-4.91292115287781,0.6041528373816046
4.961357889158086,20.1129933463097,-10.2755112456322,0.0567443744659419,0.6041528373816046
4.961963582677165,-18.540226868534102,10.3408168793678,2.24100218696594,0.6041528373816046
4.962569276196246,-22.4249485482216,7.732640609836579,3.9821813861846898,0.6041528373816046
4.9631749697153245,4.19808856115341,-2.96351661672592,2.35835814399719,0.6041528373816046
4.963780663234403,0.969602233028412,3.01684715280533,-3.21724732475281,0.6041528373816046
4.964386356753483,10.7149367056847,-5.334585952663421,-5.21708863334656,0.6041528373816046
4.964992050272563,24.2348219595909,-12.1603916167259,-1.6221643169403102,0.6041528373816046
4.965597743791641,-11.599460266971601,6.45130516061783,2.27692747993469,0.6041528373816046
4.966203437310721,-26.8006492318153,12.0628359223366,5.01922484321594,0.6041528373816046
4.9668091308298,0.859431334590912,-3.59819679250717,2.5116393939971897,0.6041528373816046
4.96741482434888,3.53466815099716,0.178749008274078,-2.27121460990906,0.6041528373816046
4.968020517867959,4.81600360021591,-1.67499610891342,-6.35472291069031,0.6041528373816046
4.968626211387038,26.3328590689659,-12.3639682768822,-1.8185559185028102,0.6041528373816046
4.969231904906119,-2.24930401697159,3.80480857858658,2.63618040962219,0.6041528373816046
4.9698375984251975,-30.9919334115028,14.3452895356178,3.94146605415344,0.6041528373816046
4.970443291944276,-2.62532208337784,-3.8832041167259197,4.43963011665344,0.7271791796971674
4.971048985463356,5.68779070959091,-2.86292579641342,-2.00297242240906,0.7271791796971674
4.971654678982436,0.0475197134971618,3.50543113718033,-6.0409753520965594,0.7271791796971674
4.972260372501514,26.0741969595909,-10.7928354643822,-2.06763794975281,0.7271791796971674
4.972866066020594,6.8350050650596605,-4.922642593288421,0.9165563861846919,0.7271791796971674
4.973471759539673,-31.1739548958778,15.6505751801491,3.6396935932159398,0.7271791796971674
4.974077453058753,-10.605527161502799,1.2038173676490802,4.65518187446594,0.7271791796971674
4.974683146577832,8.21453631505966,-5.67467872610092,-0.975509043502808,0.7271791796971674
4.975288840096911,1.25700457677841,5.99146141061783,-4.56085328178406,0.7271791796971674
4.97589453361599,18.7358571158409,-10.1294150542259,-3.78247193412781,0.7271791796971674
4.9765002271350705,14.6068434439659,-8.82412940969467,-0.237843027877808,0.7271791796971674
4.977105920654149,-25.698940247440298,13.8471254731178,3.87440550727844,0.7271791796971674
4.977711614173228,-17.5486887825966,4.978368148899079,4.03487181587219,0.7271791796971674
4.978317307692309,7.29724383459091,-4.39334327688217,0.641129140090942,0.7271791796971674
4.978923001211387,1.4510011588096599,4.5999550629615795,-3.46153931694031,0.7271791796971674
4.979528694730466,14.9349611197472,-7.4086728667259205,-5.07099244194031,0.7271791796971674
4.980134388249546,19.794455748653398,-12.0430356596947,-0.704871836471558,0.7271791796971674
4.980740081768626,-18.6072874154091,11.3371450043678,2.97148314399719,0.7271791796971674
4.981345775287704,-23.9625510872841,10.4270375824928,5.222801503372191,0.7271791796971674
4.981951468806784,5.19681170568466,-6.072251968288421,2.19310179634094,0.7271791796971674
4.982557162325863,4.03043719396591,2.3701918793678303,-3.7585217388153103,0.7271791796971674
4.983162855844943,7.71637225255966,-4.04606544485092,-6.405018320846559,0.7271791796971674
4.983768549364022,25.4299367056847,-12.6178403471947,-0.973114023971558,0.7271791796971674
4.984374242883101,-11.1587766732216,8.13021385202408,3.75225951118469,0.7271791796971674
4.98497993640218,-29.9141746224403,14.271043930149101,4.46597533149719,0.7271791796971674
4.98558562992126,3.18020526037216,-6.63508155813217,2.59307005805969,0.7271791796971674
4.986191323440339,4.28430926427841,-1.21754737844467,-2.5873571880340602,0.7271791796971674
4.986797016959419,2.8041871939659098,1.4912197113990802,-5.813448496627809,0.7271791796971674
4.987402710478499,27.9830275259972,-12.5340146636009,-1.81616089897156,0.7271791796971674
4.988008403997577,-1.67449932947159,0.42783103952407797,2.16675658149719,0.7271791796971674
4.988614097516657,-33.53544415369031,16.9702309418678,4.1905480854034405,0.7271791796971674
4.989219791035736,-3.64320538415909,-2.66892921438217,3.90075072212219,0.7271791796971674
4.989825484554816,9.39767596349716,-5.05915870656967,-1.69161988334656,0.7271791796971674
4.990431178073895,0.991157408809662,5.1987099457740795,-5.959544688034059,0.7271791796971674
4.991036871592974,22.654109068965898,-11.355665054225899,-2.18978394584656,0.7271791796971674
4.991642565112053,7.16551776037216,-5.10466407766342,0.945296620559692,0.7271791796971674
4.992248258631133,-30.4650291146278,15.6170449067116,3.6995690814971898,0.7271791796971674
4.992853952150212,-10.9719651497841,1.4648744965553302,4.6168615619659406,0.7271791796971674
4.993459645669291,8.76299578771591,-5.162144546413421,-1.03777955131531,0.7271791796971674
4.994065339188372,0.794765807247162,6.05133689889908,-4.55366822319031,0.7271791796971674
4.99467103270745,18.8436329947472,-9.55940040578842,-4.20639039115906,0.7271791796971674
4.995276726226529,13.7685866080284,-10.8982163237572,0.375281972122192,0.7271791796971674
4.995882419745609,-25.9025169075966,16.1822695160866,4.15462279243469,0.7271791796971674
4.996488113264689,-18.4013157357216,6.08486717233658,4.58812132759094,0.7271791796971674
4.997093806783767,8.76539080724716,-7.363167495632171,0.142965077590942,0.7271791796971674
4.997699500302847,1.59230731115341,5.723219223117829,-4.95842652397156,0.7271791796971674
4.998305193821926,13.280002623653399,-8.14873390188217,-4.144119883346559,0.7271791796971674
4.9989108873410055,22.187080260372202,-12.4549790190697,-0.300113535690308,0.7271791796971674
4.999516580860085,-20.8945310677528,14.548866195774101,3.30439085884094,0.7271791796971674
5.000122274379164,-25.2798118294716,10.4964931488991,5.49343871040344,0.7271791796971674
5.000727967898245,8.221721373653411,-9.02770606985092,0.475872792434692,0.7271791796971674
5.001333661417323,3.30474627599716,1.63971092233658,-3.67230103569031,0.7271791796971674
5.001939354936402,6.79428973302841,-1.53847999563217,-5.435035410690309,0.7271791796971674
5.002545048455482,25.8418800650597,-13.0920542143822,-1.26051636772156,0.7271791796971674
5.0031507419745616,-11.324033020877799,5.397496566867829,3.7091491596221897,0.7271791796971674
5.00375643549364,-31.3871116341591,16.615768051242803,4.339039296340941,0.7271791796971674
5.00436212901272,3.16583514318466,-7.018284683132171,2.80383177680969,0.7271791796971674
5.004967822531799,9.067163268184661,-2.75514991750717,-2.71908326225281,0.7271791796971674
5.0055735160508785,1.42226092443466,3.4216054535865803,-6.2876623638153095,0.7271791796971674
5.006179209569958,24.809626647090898,-12.8501572417259,-1.38026734428406,0.7271791796971674
5.006784903089037,-0.563210266971588,-0.47988136281967203,2.01826537055969,0.7271791796971674
5.007390596608117,-33.4468284310341,16.5822377778053,3.95104613227844,0.7271791796971674
5.007996290127196,-3.53303448572159,-2.50367286672592,3.68759398384094,0.7271791796971674
5.008601983646275,9.81201434240341,-5.3393759917259205,-2.22570923881531,0.7271791796971674
5.009207677165354,1.32406512365341,5.4909023285865795,-5.4158752544403095,0.7271791796971674
5.0098133706844346,22.3379664908409,-11.226333999538399,-2.65920777397156,0.7271791796971674
5.010419064203513,7.7930128775596605,-7.894861831569671,0.825545643997192,0.7271791796971674
5.011024757722592,-30.3309080208778,18.7808657074928,5.14616087837219,0.7271791796971674
5.011630451241672,-12.761044739627799,2.2336757660865802,4.31987914009094,0.7271791796971674
5.0122361447607515,11.1843605338097,-7.99305763235092,-1.2677014263153101,0.7271791796971674
5.01284183827983,1.22107928380966,5.802254867649079,-5.3224694927215594,0.7271791796971674
5.01344753179891,17.3587208853722,-9.20733253469467,-4.3716467388153095,0.7271791796971674
5.014053225317989,15.9839796744347,-10.5916538237572,0.940506581497192,0.7271791796971674
5.0146589188370685,-26.8988450325966,18.057569809055302,4.470765370559691,0.7271791796971674
5.015264612356148,-19.5605051888466,6.6884120942115795,4.26000365180969,0.7271791796971674
5.015870305875227,11.7615602408409,-10.5006430815697,-0.45818482475280803,0.7271791796971674
5.016475999394307,1.00313250646591,4.88017234811783,-4.256685801315309,0.7271791796971674
5.017081692913386,10.8777980338097,-4.56578468313217,-5.1164978130340595,0.7271791796971674
5.017687386432465,23.8420387564659,-13.6932041167259,0.27229613227844196,0.7271791796971674
5.018293079951545,-19.8191672982216,10.850956039524101,3.47922728462219,0.7271791796971674
5.0188987734706245,-28.1634153450966,14.5823964692116,4.504295643997191,0.7271791796971674
5.019504466989703,7.800197936153411,-9.60730079641342,1.66380247993469,0.7271791796971674
5.020110160508783,7.9989845572471605,-0.125418472194672,-3.37771363334656,0.7271791796971674
5.020715854027863,4.33220965490341,0.399090805149078,-5.62424195365906,0.7271791796971674
5.0213215475469415,23.9258644400597,-12.9339829253197,-1.27728150444031,0.7271791796971674
5.021927241066021,-9.04397442712784,3.65152732858658,2.84215208930969,0.7271791796971674
5.0225329345851,-32.2062083138466,16.5894228363991,4.02529173774719,0.7271791796971674
5.02313862810418,2.02820086584091,-5.30584571828842,3.24212035102844,0.7271791796971674
5.023744321623259,9.419231139278411,-4.03648536672592,-3.0400158794403103,0.7271791796971674
5.024350015142338,2.63893084630966,4.16406150827408,-6.06971558647156,0.7271791796971674
5.024955708661417,23.4803908072472,-12.766331558132201,-1.41619263725281,0.7271791796971674
5.0255614021804975,0.0642848502159118,-2.70964454641342,1.6829626361846899,0.7271791796971674
5.026167095699576,-32.6780271615028,19.973585434055302,5.196456288528441,0.7271791796971674
5.026772789218655,-6.0382249154090895,-2.14202491750717,2.96669310493469,0.7271791796971674
5.027378482737735,12.2788844595909,-7.02546974172592,-1.84729615287781,0.7271791796971674
5.0279841762568145,1.0270827017784099,5.30169578561783,-5.6817224224090594,0.7271791796971674
5.028589869775893,21.0015455924034,-11.130533218288399,-2.9202649028778103,0.7271791796971674
5.029195563294973,9.11266863927841,-6.67340187063217,2.36793822212219,0.7271791796971674
5.029801256814053,-32.2397385872841,20.5292299653053,3.9989465229034398,0.7271791796971674
5.0304069503331315,-12.3514963997841,1.93908836374283,4.10672240180969,0.7271791796971674
5.031012643852211,13.0596608267784,-10.1940805815697,-1.7203601177215602,0.7271791796971674
5.03161833737129,-0.520099915409088,6.5159706879615795,-5.21708863334656,0.7271791796971674
5.03222403089037,16.8892970572472,-6.93206398000717,-4.27345093803406,0.7271791796971674
5.032829724409449,16.771941100215898,-13.032178726100899,0.6578942768096919,0.7271791796971674
5.033435417928528,-27.2030125130653,16.4576967621803,4.52585081977844,0.7271791796971674
5.034041111447607,-21.3328196419716,9.902528305149081,4.55938109321594,0.7271791796971674
5.0346468049666875,12.2046388541222,-11.6550424956322,-0.132462168502808,0.7271791796971674
5.035252498485766,5.44110369787216,3.57249168405533,-3.89264283256531,0.7271791796971674
5.035858192004846,8.295966979122161,-3.19104347219467,-5.39911011772156,0.7271791796971674
5.036463885523926,21.6338307486534,-12.6801108550072,-0.359989023971558,0.7271791796971674
5.0370695790430045,-17.8863865365028,9.416339340305331,4.18096800727844,0.7271791796971674
5.037675272562084,-27.495204895877798,14.096207504367799,4.1642028705596905,0.7271791796971674
5.038280966081163,7.42417986974716,-8.48882667531967,1.68056761665344,0.7271791796971674
5.038886659600243,7.57027606115341,-1.1385117339134199,-3.42321900444031,0.7271791796971674
5.039492353119322,5.58240985021591,1.61815574655533,-4.72610962944031,0.7271791796971674
5.040098046638401,22.8720558463097,-14.1817881011009,-0.7623523052215581,0.7271791796971674
5.04070374015748,-8.282358216190339,3.40244529733658,2.59067503852844,0.7271791796971674
5.0413094336765605,-31.8014500130653,18.8431362153053,4.86115355415344,0.7271791796971674
5.041915127195639,0.054704772090911805,-6.326124038600921,2.8110168354034397,0.7271791796971674
5.042520820714718,11.922026549434701,-4.77654640188217,-2.97295533256531,0.7271791796971674
5.043126514233799,2.34194842443466,3.57009666452408,-6.11522095756531,0.7271791796971674
5.0437322077528774,22.1918702994347,-12.6825058745384,-2.01494752006531,0.7271791796971674
5.044337901271956,0.0858400259971618,-1.4977646636009199,2.9475329486846897,0.7271791796971674
5.044943594791036,-33.0468601693153,20.4645644379616,5.66588011665344,0.7271791796971674
5.045549288310116,-4.80957989587784,-3.07368751516342,2.52121947212219,0.7271791796971674
5.046154981829194,12.2980446158409,-8.21100440969467,-3.06875611381531,0.7271791796971674
5.046760675348274,-0.388373841190338,6.58542625436783,-5.94996460990906,0.7271791796971674
5.047366368867353,21.2554176627159,-9.818062515163419,-2.04129273490906,0.7271791796971674
5.047972062386433,9.78327410802841,-9.885123062038419,1.69014769477844,0.7271791796971674
5.048577755905512,-31.9451511849403,20.629820785617802,3.63250853462219,0.7271791796971674
5.049183449424591,-14.6722703255653,4.55444969186783,4.77253783149719,0.7271791796971674
5.049789142943672,14.5230177603722,-11.3796152495384,-1.64132447319031,0.7271791796971674
5.0503948364627504,2.70359637365341,5.4909023285865795,-4.99914185600281,0.7271791796971674
5.051000529981829,13.0836110220909,-6.62071144094467,-4.00520875053406,0.7271791796971674
5.051606223500909,16.4294533072472,-11.3005796050072,0.0232141010284419,0.7271791796971674
5.052211917019989,-25.1935911263466,14.4865956879616,4.76535277290344,0.7271791796971674
5.052817610539067,-20.8657908333778,10.2019057465553,4.578541249465941,0.7271791796971674
5.053423304058147,10.552075377559701,-10.251561050319701,-0.685711680221558,0.7271791796971674
5.054028997577226,5.1513063345909105,1.6229457856178302,-3.70822632865906,0.7271791796971674
5.054634691096306,10.2694630728722,-1.9336582182884199,-5.08536255912781,0.7271791796971674
5.055240384615385,19.8471461783409,-13.7602646636009,-1.19585084037781,0.7271791796971674
5.055846078134464,-16.8996384896278,9.926478500461581,4.29592894477844,0.7271791796971674
5.056451771653543,-28.0963547982216,15.561959457492799,5.01203978462219,0.7271791796971674
5.0570574651726234,6.2625953970909105,-9.65041114797592,1.13929320259094,0.7271791796971674
5.057663158691702,10.0036159049034,-1.35166847219467,-4.409967051315309,0.7271791796971674
5.058268852210781,5.04832049474716,0.8230092621803281,-5.66974732475281,0.7271791796971674
5.058874545729862,22.9510914908409,-13.4489121245384,-0.616256113815308,0.7271791796971674
5.05948023924894,-8.64400616540909,4.30776268014908,3.1702697650909397,0.7271791796971674
5.060085932768019,-31.7487595833778,19.595172348117803,4.997669667434691,0.7271791796971674
5.060691626287099,1.06779803380966,-7.415857925319671,1.37640013618469,0.7271791796971674
5.061297319806179,11.016709166622201,-5.62198829641342,-3.4854895122528102,0.7271791796971674
5.061903013325257,2.64851092443466,5.696874008274079,-5.67693238334656,0.7271791796971674
5.062508706844337,22.5415431509972,-12.2130820464134,-2.82206910209656,0.7271791796971674
5.063114400363416,0.167270690059662,-5.233995132350921,3.21338011665344,0.7271791796971674
5.0637200938824956,-33.0348850716591,22.188978500461598,5.01203978462219,0.7271791796971674
5.064325787401575,-6.99144268884659,-0.920564956569672,2.47092406196594,0.7271791796971674
5.064931480920654,15.6846022330284,-10.0024790190697,-2.43647095756531,0.7271791796971674
5.065537174439733,1.30729998693466,5.95793113718033,-5.98349488334656,0.7271791796971674
5.066142867958813,16.9563576041222,-8.97501564016342,-2.48916138725281,0.7271791796971674
5.066748561477892,10.4011891470909,-8.838499526882169,1.4650158588409399,0.7271791796971674
5.067354254996972,-29.8926194466591,17.580960922336597,3.9223058979034398,0.7271791796971674
5.067959948516052,-15.1201389779091,6.254913559055329,5.10784056587219,0.7271791796971674
5.06856564203513,13.0045753775597,-11.3149497221947,-1.3060217388153101,0.7271791796971674
5.06917133555421,3.79093524084091,4.06586570749283,-5.195533457565309,0.7271791796971674
5.069777029073289,13.8811525259972,-4.95138282766342,-4.2447107036590594,0.7271791796971674
5.0703827225923686,15.157697936153399,-12.3208579253197,0.7177697650909419,1.8366658072481716
5.070988416111448,-23.7493943490028,15.0781655121803,4.791697987747191,1.8366658072481716
5.071594109630527,-22.3028025521278,11.0210024262428,4.33424925727844,1.8366658072481716
5.072199803149606,9.69705340490341,-11.1784336089134,-0.149227305221558,1.8366658072481716
5.072805496668686,7.009841490840911,1.39541893014908,-4.37883179740906,1.8366658072481716
5.073411190187765,9.31145526037216,-1.79953712453842,-5.43024537162781,1.8366658072481716
5.074016883706844,20.2806447134972,-12.888477554225899,-0.12288209037780799,1.8366658072481716
5.074622577225925,-17.2517063607216,10.2713613129616,4.60728148384094,1.8366658072481716
5.075228270745003,-27.9502586068153,15.7224257660866,4.75337767524719,1.8366658072481716
5.075833964264082,6.36797625646591,-10.756910171413399,0.986011952590942,1.8366658072481716
5.076439657783162,9.11266863927841,-1.7420566557884198,-4.316561289596559,1.8366658072481716
5.0770453513022415,5.11777606115341,3.6611074067115803,-5.66495728569031,1.8366658072481716
5.07765104482132,22.1056495963097,-13.6812290190697,-0.6402063091278081,1.8366658072481716
5.0782567383404,-8.21769268884659,0.617037582492828,3.09841917915344,1.8366658072481716
5.078862431859479,-31.9954465950966,21.5159780121803,4.97850951118469,1.8366658072481716
5.0794681253785585,-0.668591126346588,-5.926155776882171,2.20028685493469,1.8366658072481716
5.080073818897638,14.0535939322472,-6.74764747610092,-3.43758912162781,1.8366658072481716
5.080679512416717,2.12160662755966,5.14841453561783,-5.506885996627809,1.8366658072481716
5.081285205935796,20.0507228384972,-11.6023520659447,-2.30713990287781,1.8366658072481716
5.081890899454876,1.54201190099716,-5.34416603078842,2.6050451557159398,1.8366658072481716
5.082496592973955,-32.2229734505653,20.5196498871803,4.98808958930969,1.8366658072481716
5.083102286493035,-7.16627911462784,1.04095603952408,3.0409387104034398,1.8366658072481716
5.0837079800121145,14.0488038931847,-10.0695395659447,-2.48676636772156,1.8366658072481716
5.084313673531193,2.19345721349716,4.84903709421158,-5.700882578659059,1.8366658072481716
5.084919367050273,17.0162330924034,-8.694798355007169,-2.8603894145965603,1.8366658072481716
5.085525060569353,9.82638445959091,-9.51629005422592,1.25425414009094,1.8366658072481716
5.0861307540884315,-28.601703919315298,19.0802431488991,5.01443480415344,1.8366658072481716
5.086736447607511,-15.498552063846601,6.434540023899079,4.38933470649719,1.8366658072481716
5.08734214112659,13.172226744747201,-11.889754409694701,-1.5622888286590602,1.8366658072481716
5.08794783464567,4.57889666662216,3.14378318796158,-4.929686289596559,1.8366658072481716
5.088553528164749,13.5961452017784,-5.353746108913421,-4.66144410209656,1.8366658072481716
5.089159221683828,15.7971681509972,-11.1089780425072,0.7177697650909419,1.8366658072481716
5.089764915202907,-24.276298645877798,15.8062514496803,4.870733632278441,1.8366658072481716
5.0903706087219875,-21.8214036263466,10.345606918430299,4.530640858840941,1.8366658072481716
5.090976302241066,10.2910182486534,-12.567544937038399,-0.6210461528778081,1.8366658072481716
5.091581995760145,5.2710573111534105,1.84089256296158,-4.81472535209656,1.8366658072481716
5.092187689279225,10.870612975215899,-0.348155288600922,-4.615938731002809,1.8366658072481716
5.0927933827983045,19.8016408072472,-14.4188950346947,-0.371964121627808,1.8366658072481716
5.093399076317383,-18.1905540169716,7.78054100046158,3.3666613666534397,1.8366658072481716
5.094004769836463,-27.6628562630653,18.0479897309303,5.11263060493469,1.8366658072481716
5.094610463355542,5.1249611197471605,-9.90667823781967,0.9357165424346919,1.8366658072481716
5.0952161568746215,12.0753077994347,-2.67371925344467,-3.65074585990906,1.8366658072481716
5.095821850393701,5.14172625646591,2.9354164887428302,-5.746387949752809,1.8366658072481716
5.09642754391278,18.9442238150597,-12.474139175319701,-1.51199341850281,1.8366658072481716
5.09703323743186,-7.82251446619034,0.114083480930328,3.44090697212219,1.8366658072481716
5.097638930950939,-29.4830711068153,19.8777846528053,4.63362669868469,1.8366658072481716
5.098244624470018,-1.10208966150284,-3.56945655813217,2.61462523384094,1.8366658072481716
5.098850317989099,12.3411549674034,-6.67579689016342,-3.39208375053406,1.8366658072481716
5.0994560115081775,3.98014178380966,4.00359519968033,-5.693697520065309,1.8366658072481716
5.100061705027256,19.1406154166222,-11.942444839382201,-2.13469849662781,1.8366658072481716
5.100667398546336,1.10132830724716,-4.3550229643821705,2.3056677143096898,1.8366658072481716
5.101273092065416,-30.4554490365028,20.8525576020241,5.02161986274719,1.8366658072481716
5.1018787855844945,-8.51707013025284,0.961920394992828,3.95344115180969,1.8366658072481716
5.102484479103574,13.598540221309701,-9.67436134328842,-2.18020386772156,1.8366658072481716
5.103090172622653,3.64723406896591,3.09827781686783,-6.19186158256531,1.8366658072481716
5.103695866141733,17.4066212759972,-8.500801772975919,-3.16216187553406,1.8366658072481716
5.104301559660812,8.68396014318466,-6.42192481985092,1.7524182025909398,1.8366658072481716
5.104907253179891,-28.7597752083778,18.8886415863991,5.17250609321594,1.8366658072481716
5.10551294669897,-14.102255677127799,4.844247055149079,3.63729857368469,1.8366658072481716
5.1061186402180505,11.7328200064659,-11.8370639800072,-1.53833863334656,1.8366658072481716
5.106724333737129,3.59693865880966,3.4814809418678303,-5.10691773490906,1.8366658072481716
5.107330027256208,15.5720363150597,-3.26289405813217,-4.01239380912781,1.8366658072481716
5.107935720775288,14.199690123653399,-12.7208261870384,0.186075429153442,1.8366658072481716
5.1085414142943675,-24.4415549935341,13.9836415863991,4.55459105415344,1.8366658072481716
5.109147107813446,-21.5124461068153,12.0580458832741,5.1150256244659404,1.8366658072481716
5.109752801332526,9.10069354162216,-11.8993344878197,-1.21022095756531,1.8366658072481716
5.110358494851606,8.221721373653411,1.8840029145240802,-4.323746348190309,1.8366658072481716
5.1109641883706844,9.70902850255966,-0.855899429225922,-4.283031016159059,1.8366658072481716
5.111569881889764,17.3108204947472,-13.2740756987572,-1.09526002006531,1.8366658072481716
5.112175575408843,-16.4182395638466,6.02020164499283,4.14025267524719,1.8366658072481716
5.112781268927923,-25.246281556034102,16.860060043430302,5.0288049213409405,1.8366658072481716
5.113386962447002,3.15386004552841,-7.456573257350921,0.871051015090942,1.8366658072481716
5.113992655966081,10.7628370963097,-2.90124610891342,-3.09749634819031,1.8366658072481716
5.11459834948516,7.32358904943466,1.5726503754615802,-5.88529908256531,1.8366658072481716
5.1152040430042405,17.9862160025597,-13.1878549956322,-1.59821412162781,1.8366658072481716
5.115809736523319,-7.434521302127839,0.8709096528053281,3.48880736274719,1.8366658072481716
5.116415430042399,-29.1884837044716,20.2106923676491,4.74858763618469,1.8366658072481716
5.117021123561479,-2.31396954431534,-3.64849220266342,2.97627318305969,1.8366658072481716
5.1176268170805574,13.4165187369347,-7.15240577688217,-3.3226281841278102,1.8366658072481716
5.118232510599637,4.95730975255966,2.14266502389908,-6.2613171489715596,1.8366658072481716
5.118838204118716,18.2281129752159,-11.0323374175072,-2.22091919975281,1.8366658072481716
5.119443897637796,-0.191982239627838,-1.5576401518821699,3.26846556587219,1.8366658072481716
5.120049591156875,-29.9884202279091,20.1316567231178,6.001182851028441,1.8366658072481716
5.120655284675954,-6.854926575565339,-0.6283725737571719,2.28411253852844,1.8366658072481716
5.121260978195033,11.7064747916222,-9.772557144069669,-3.04241089897156,1.8366658072481716
5.1218666717141135,3.02213397130966,4.159271469211579,-5.52604615287781,1.8366658072481716
5.122472365233192,19.7585304556847,-7.617039565944671,-2.60891236381531,1.8366658072481716
5.123078058752271,7.48405535802841,-8.97022560110092,1.0722326557159398,1.8366658072481716
5.123683752271352,-29.4160105599403,18.9796523285866,4.78690794868469,1.8366658072481716
5.12428944579043,-14.3393626107216,6.02738670358658,4.34861937446594,1.8366658072481716
5.124895139309509,11.8382008658409,-12.3927085112572,-1.65808960990906,1.8366658072481716
5.125500832828589,5.838676940059661,3.45034568796158,-4.941661387252809,1.8366658072481716
5.126106526347669,14.0967042838097,-3.7634531401634197,-4.369251719284059,1.8366658072481716
5.126712219866747,11.9819020377159,-11.4083554839134,0.0232141010284419,1.8366658072481716
5.127317913385827,-22.719535950565298,11.4042055512428,4.6432067768096905,1.8366658072481716
5.127923606904906,-19.871857727909102,12.8747475434303,5.35213255805969,1.8366658072481716
5.128529300423986,6.789499693965911,-10.064749526882201,-0.613861094284058,1.8366658072481716
5.129134993943065,8.83724139318466,0.6122475434303281,-3.96209839897156,1.8366658072481716
5.129740687462144,11.2274708853722,-1.14569679250717,-4.50816285209656,1.8366658072481716
5.130346380981225,15.2534987174034,-13.2094101714134,-1.25812134819031,1.8366658072481716
5.130952074500303,-15.6901536263466,7.17699607858658,4.770142811965941,1.8366658072481716
5.131557768019382,-25.2031712044716,16.6061879731178,6.1329089252471904,1.8366658072481716
5.132163461538462,2.55510516271591,-7.21467628469467,0.6147839252471919,1.8366658072481716
5.132769155057542,11.031079283809701,-2.76952003469467,-4.436312266159059,1.8366658072481716
5.13337484857662,7.75229754552841,-0.372105483913422,-5.20032349662781,1.8366658072481716
5.1339805420957,18.7190919791222,-11.968790054225899,-0.867733164596558,1.8366658072481716
5.134586235614779,-8.694301575565339,3.3018544770240803,3.54389281196594,1.8366658072481716
5.135191929133859,-28.1706004036903,19.0802431488991,5.443143300247191,1.8366658072481716
5.135797622652938,-1.9666917122840901,-4.8603720854759205,2.2457922260284398,1.8366658072481716
5.136403316172017,10.6646412955284,-6.850633315944671,-3.77289185600281,1.8366658072481716
5.137009009691096,6.09973406896591,2.82045555124283,-5.39192505912781,1.8366658072481716
5.137614703210176,19.4304127799034,-10.5629135893822,-2.64483765678406,1.8366658072481716
5.138220396729255,-1.52361309900284,-3.14314308156967,3.0241735736846898,1.8366658072481716
5.138826090248334,-29.2627293099403,20.0071157074928,5.97723265571594,1.8366658072481716
5.139431783767415,-7.75545391931534,0.5499770356178281,2.34638304634094,1.8366658072481716
5.140037477286493,11.907656432247201,-9.870752944850919,-1.95746705131531,1.8366658072481716
5.140643170805572,5.00281512365341,3.77606834421158,-5.48533082084656,1.8366658072481716
5.141248864324652,16.9300123892784,-6.67579689016342,-3.04241089897156,1.8366658072481716
5.141854557843732,6.18116473302841,-7.86612159719467,1.3668200580596899,1.8366658072481716
5.14246025136281,-26.9467454232216,15.7655361176491,4.12348753852844,1.8366658072481716
5.14306594488189,-13.8867039193153,7.37578269968033,4.451605214309691,1.8366658072481716
5.143671638400969,9.148593932247161,-10.4814829253197,-1.56947388725281,1.8366658072481716
5.1442773319200485,7.05055682287216,2.3438466645240803,-5.094942637252809,1.8366658072481716
5.144883025439128,15.4834205924034,-3.98379493703842,-3.7585217388153103,1.8366658072481716
5.145488718958207,10.6287160025597,-11.0299423979759,-0.0079211528778081,1.8366658072481716
5.146094412477286,-21.8573289193153,12.019725570774101,4.71984740180969,1.8366658072481716
5.146700105996366,-19.831142395877798,12.3191030121803,5.43356322212219,1.8366658072481716
5.147305799515445,5.79317156896591,-9.166617202663419,-0.9395837505340581,1.8366658072481716
5.147911493034525,8.99052264318466,0.128453598117828,-4.4051770122528096,1.8366658072481716
5.148517186553605,12.2525392447472,-2.70485450735092,-5.1763733013153095,1.8366658072481716
5.149122880072683,14.649953795528399,-11.3939853667259,-0.791092539596558,1.8366658072481716
5.149728573591763,-17.2517063607216,9.12893699655533,5.28746703071594,1.8366658072481716
5.150334267110842,-22.9135325325966,14.7452577973366,4.76535277290344,1.8366658072481716
5.1509399606299215,3.28798113927841,-8.03377296438217,0.981221913528442,1.8366658072481716
5.151545654149001,8.04688494787216,-1.61512062063217,-4.23273560600281,1.8366658072481716
5.15215134766808,9.27792498693466,-0.206849136257172,-5.573946543502809,1.8366658072481716
5.15275704118716,18.8101027213097,-12.5699399565697,-1.4808581645965602,1.8366658072481716
5.153362734706239,-10.351655091190299,2.58813865671158,3.27325560493469,1.8366658072481716
5.153968428225318,-27.2748630990028,19.044317855930302,5.89819701118469,1.8366658072481716
5.154574121744397,-1.71281964197159,-4.25922218313217,2.35356810493469,1.8366658072481716
5.155179815263478,11.6633644400597,-6.53449073781967,-3.39447877006531,1.8366658072481716
5.155785508782556,6.33205096349716,2.06123435983658,-5.31049439506531,1.8366658072481716
5.156391202301635,18.1586574088097,-9.65520118703842,-2.24726441459656,1.8366658072481716
5.156996895820715,-1.97866680994034,-3.19583351125717,1.72846800727844,1.8366658072481716
5.1576025893397945,-27.3347385872841,17.7821425629616,5.615584706497191,1.8366658072481716
5.158208282858873,-7.321955384159089,1.95106346139908,2.91879271430969,1.8366658072481716
5.158813976377953,9.64196795568466,-9.06842140188217,-2.44844605522156,1.8366658072481716
5.159419669897032,6.9547560416221605,1.9869887543678302,-5.33204957084656,1.8366658072481716
5.1600253634161115,17.5886427603722,-7.190726089382171,-2.94182007865906,1.8366658072481716
5.160631056935191,4.45914569005966,-7.0757651518821705,1.09857787055969,1.8366658072481716
5.16123675045427,-25.9695774544716,15.588304672336601,5.615584706497191,1.8366658072481716
5.161842443973349,-13.4220701302528,7.392547836399079,5.0024597064971905,1.8366658072481716
5.162448137492429,8.15226580724716,-9.57616554250717,-2.00297242240906,1.8366658072481716
5.163053831011508,7.5463258658409105,0.8469594574928281,-5.195533457565309,1.8366658072481716
5.163659524530587,16.2498268424034,-4.822051772975921,-4.01718384819031,1.8366658072481716
5.1642652180496675,9.45755145177841,-8.254114761257169,0.248345936965942,1.8366658072481716
5.164870911568746,-22.8728172005653,12.8028969574928,5.06712523384094,1.8366658072481716
5.165476605087826,-17.5438987435341,10.5419985199928,5.15334593696594,1.8366658072481716
5.166082298606906,5.58719988927841,-9.26002296438217,-1.59821412162781,1.8366658072481716
5.1666879921259845,6.384741393184661,0.509261703586578,-4.87460084037781,1.8366658072481716
5.167293685645064,14.728989440059701,-2.5994736479759197,-4.89136597709656,1.8366658072481716
5.167899379164143,14.2978859244347,-12.1627866362572,-0.6809216411590581,1.8366658072481716
5.168505072683223,-18.4013157357216,8.54694725046158,4.12827757759094,1.8366658072481716
5.169110766202302,-21.7639231575966,15.2889272309303,5.32578734321594,1.8366658072481716
5.169716459721381,1.93719012365341,-6.9895444487571705,1.4099304096221899,1.8366658072481716
5.17032215324046,10.1066017447472,-2.48451271047592,-4.09621949272156,1.1595532468358845
5.1709278467595405,9.919790221309661,-0.817579116725922,-4.99195679740906,1.1595532468358845
5.171533540278619,15.742082701778399,-10.730564956569701,-1.8449011333465601,1.1595532468358845
5.172139233797698,-9.76966534509659,1.63013084421158,2.78706664009094,1.1595532468358845
5.172744927316778,-24.8319431771278,17.262423324680302,6.05866331977844,1.1595532468358845
5.1733506208358575,-3.17857159509659,-1.59835548391342,2.45894896430969,1.1595532468358845
5.173956314354936,10.2215626822472,-6.385999526882171,-3.28670289115906,1.1595532468358845
5.174562007874016,9.201284361934661,0.286524887180328,-5.169188242721559,1.1595532468358845
5.175167701393095,16.5036989127159,-9.20254249563217,-2.26402955131531,1.1595532468358845
5.1757733949121745,-2.92709454431534,-2.51564796438217,2.14759642524719,1.1595532468358845
5.176379088431254,-25.9049119271278,16.8576650238991,5.70420042915344,1.1595532468358845
5.176984781950333,-8.44521954431534,2.7294448090553303,3.06249388618469,1.1595532468358845
5.1775904754694135,9.48150164709091,-8.27327491750717,-2.4412609966278103,1.1595532468358845
5.178196168988492,7.826543150997161,0.00630760202407836,-5.674537363815309,1.1595532468358845
5.178801862507571,17.744319029903398,-7.15959083547592,-2.72147828178406,1.1595532468358845
5.17940755602665,2.99339373693466,-3.97421485891342,1.82666380805969,1.1595532468358845
5.1800132495457305,-25.8402463997841,14.6111367035866,5.1222106830596905,1.1595532468358845
5.180618943064809,-11.096506165409101,5.65855369577408,4.145042714309691,1.1595532468358845
5.181224636583889,5.99914324865341,-8.701983413600919,-2.37899048881531,1.1595532468358845
5.181830330102969,6.490122252559661,1.05772117624283,-5.267384043502809,1.1595532468358845
5.1824360236220475,18.5849708853722,-4.862767105007171,-3.40645386772156,1.1595532468358845
5.183041717141127,8.018144713497161,-9.099556655788419,-0.201917734909058,1.1595532468358845
5.183647410660206,-23.3661912240028,11.9502700043678,4.77253783149719,1.1595532468358845
5.184253104179286,-16.6290012825966,11.0521376801491,5.2156164447784406,1.1595532468358845
5.184858797698365,4.56452654943466,-8.43134620656967,-0.997064219284058,1.1595532468358845
5.185464491217444,9.059978209590911,-0.36013038625717203,-4.649469004440309,1.1595532468358845
5.186070184736523,14.079939147090899,-2.80305030813217,-5.05422730522156,1.1595532468358845
5.1866758782556035,10.817922545528399,-10.3401767729759,-0.874918223190308,1.1595532468358845
5.187281571774682,-16.3679441536903,6.79858299264908,4.09235228462219,1.1595532468358845
5.187887265293761,-19.7664768685341,14.1680580903053,5.342552479934691,1.1595532468358845
5.188492958812841,-0.117736634159088,-3.88559913625717,1.0937878314971898,1.1595532468358845
5.1890986523319205,9.359355650997161,-2.86292579641342,-3.82797730522156,1.1595532468358845
5.189704345850999,12.1256032095909,-2.66653419485092,-4.802750254440309,1.1595532468358845
5.190310039370079,14.664323912715899,-10.2994614409447,-1.8496911724090601,1.1595532468358845
5.190915732889158,-10.0762278450966,3.18449851999283,3.18463988227844,1.1595532468358845
5.191521426408237,-24.168522766971602,16.0361733246803,6.793934315872191,1.1595532468358845
5.192127119927317,-3.56177472009659,-1.51213478078842,2.44457884712219,1.1595532468358845
5.192732813446396,9.28511004552841,-5.77526954641342,-3.24359253959656,1.1595532468358845
5.193338506965476,10.726911803340899,-1.4762094878196699,-5.447010508346559,1.1595532468358845
5.193944200484555,16.9922828970909,-8.79778419485092,-2.59454224662781,1.1595532468358845
5.194549894003634,-5.504135559940339,0.997845687961578,2.67450072212219,1.1595532468358845
5.195155587522715,-24.6427366341591,15.3703578949928,5.907777089309691,1.1595532468358845
5.1957612810417935,-6.143605774784089,0.657752914524078,2.76311644477844,1.1595532468358845
5.196366974560872,5.96082293615341,-6.8434482573509205,-3.36813355522156,1.1595532468358845
5.196972668079951,8.14747576818466,0.382325668430328,-5.37276490287781,1.1595532468358845
5.197578361599032,20.2399293814659,-7.1428256987571705,-3.13102662162781,1.1595532468358845
5.19818405511811,0.615139342403412,-5.50223731985092,1.43867064399719,1.1595532468358845
5.19878974863719,-25.8067161263466,14.429115219211601,5.12460570259094,1.1595532468358845
5.199395442156269,-11.0270505990028,6.947074203586579,4.28874388618469,1.1595532468358845
5.200001135675349,6.52125750646591,-8.42416114797592,-1.73233521537781,1.1595532468358845
5.200606829194428,8.63126971349716,0.6433827973365781,-5.52604615287781,1.1595532468358845
5.201212522713507,16.4701686392784,-4.88671730031967,-3.64835084037781,1.1595532468358845
5.201818216232586,6.231460143184661,-8.18705421438217,-0.0055261333465581,1.1595532468358845
5.2024239097516665,-21.2609690560341,9.69176658639908,4.324669179153441,1.1595532468358845
5.203029603270745,-15.7332639779091,11.3634902192116,5.51259886665344,1.1595532468358845
5.203635296789824,2.73712664709091,-5.95010597219467,-0.283348398971558,1.1595532468358845
5.204240990308905,9.119853697872161,-1.6702060698509198,-4.85304566459656,1.1595532468358845
5.204846683827983,15.6965773306847,-4.25203712453842,-4.53211304740906,1.1595532468358845
5.205452377347062,9.905420104122161,-9.44683448781967,-1.4425378520965602,1.1595532468358845
5.206058070866142,-16.1116770638466,7.1746010590553295,3.95823119087219,1.1595532468358845
5.206663764385222,-19.2802879036903,13.099879379367799,6.3460656635284405,1.1595532468358845
5.2072694579043,-0.903303040409088,-3.6341220854759198,0.514193104934692,1.1595532468358845
5.20787515142338,9.074348326778411,-3.6437021636009197,-4.1656750591278096,1.1595532468358845
5.208480844942459,13.5266896353722,-3.88799415578842,-4.51534791069031,1.1595532468358845
5.209086538461539,14.3386012564659,-8.52954200735092,-1.41140259819031,1.1595532468358845
5.209692231980618,-11.3120579232216,4.7197060395240795,3.17984984321594,1.1595532468358845
5.210297925499697,-22.3483079232216,14.4865956879616,5.948492421340941,1.1595532468358845
5.210903619018776,-3.45399884119034,-2.02945899953842,1.8458239643096899,1.1595532468358845
5.211509312537856,7.002656432247161,-4.948987808132171,-3.96209839897156,1.1595532468358845
5.212115006056935,11.3328517447472,-1.06426612844467,-4.90094605522156,1.1595532468358845
5.212720699576015,17.7203688345909,-8.53672706594467,-2.29995484428406,1.1595532468358845
5.213326393095095,-5.95439923181534,-1.09300636281967,2.53319456977844,1.1595532468358845
5.213932086614173,-24.3720994271278,14.7572328949928,5.476673573684691,1.1595532468358845
5.214537780133253,-6.97946759119034,3.12462303171158,2.83257201118469,1.1595532468358845
5.215143473652332,7.26610858068466,-7.037444839382171,-2.3646203716278102,1.1595532468358845
5.215749167171412,9.69705340490341,-0.278699722194672,-5.44461548881531,1.1595532468358845
5.216354860690491,17.6149879752159,-6.19679298391342,-3.03522584037781,1.1595532468358845
5.21696055420957,-0.0482810677528382,-4.9801230620384205,1.1153430072784398,1.1595532468358845
5.21756624772865,-23.703888977909102,11.0856679535866,5.083890370559691,1.1595532468358845
5.218171941247729,-10.6007371224403,8.51581199655533,4.22647337837219,1.1595532468358845
5.218777634766808,4.1932985220909105,-6.0650669096946705,-1.5191784770965602,1.1595532468358845
5.219383328285887,10.1449220572472,-1.34687843313217,-5.241038828659059,1.1595532468358845
5.219989021804968,17.0473683463097,-5.42559669485092,-3.83995240287781,1.1595532468358845
5.220594715324046,5.08903582677841,-7.37274757375717,0.45431761665344195,1.1595532468358845
5.221200408843125,-19.7545017708778,9.69176658639908,5.050360097122191,1.1595532468358845
5.221806102362205,-16.133232239627798,10.7096498871803,6.22391966743469,1.1595532468358845
5.222411795881285,1.91323992834091,-4.702300796413421,-0.724031992721558,1.1595532468358845
5.223017489400363,9.96290057287216,-2.9850717925071697,-5.128472910690309,1.1595532468358845
5.223623182919443,16.4294533072472,-5.387276382350921,-4.14172486381531,1.1595532468358845
5.224228876438522,8.57139422521591,-6.876978530788421,-1.11202515678406,1.1595532468358845
5.2248345699576015,-16.5858909310341,8.15655906686783,4.477950429153441,1.1595532468358845
5.225440263476681,-17.5319236458778,11.6389174653053,5.74491576118469,1.1595532468358845
5.22604595699576,-1.37272686853409,-3.36587989797592,0.0208190814971919,1.1595532468358845
5.226651650514839,7.36430438146591,-3.30600440969467,-4.189625254440309,1.1595532468358845
5.227257344033919,15.2702638541222,-3.33713966360092,-4.79317017631531,1.1595532468358845
5.227863037552998,13.759006529903399,-8.59660255422592,-1.23656617240906,1.1595532468358845
5.228468731072078,-11.7838767708778,3.09109275827408,2.72240111274719,1.1595532468358845
5.229074424591158,-21.8453538216591,14.017171859836601,5.967652577590941,1.1595532468358845
5.229680118110236,-4.08149395837784,-0.17331886281967201,2.25058226509094,1.1595532468358845
5.230285811629316,7.97503436193466,-5.360931167507171,-4.29500611381531,1.1595532468358845
5.230891505148396,11.562773619747201,-2.0174839018821698,-4.821910410690309,1.1595532468358845
5.2314971986674745,15.926499205684701,-6.599156265163421,-2.24007935600281,1.1595532468358845
5.232102892186554,-5.803513001346589,-2.0605942534446697,1.68056761665344,1.1595532468358845
5.232708585705633,-22.1830515755653,11.9861952973366,5.71857054634094,1.1595532468358845
5.233314279224713,-7.93029034509659,5.62023338327408,3.36905638618469,1.1595532468358845
5.233919972743792,5.24950213537216,-6.25666847219467,-2.39096558647156,1.1595532468358845
5.234525666262871,12.0369874869347,-1.8067221831321698,-5.43743043022156,1.1595532468358845
5.23513135978195,16.4462184439659,-6.4243198393821705,-3.01846070365906,1.1595532468358845
5.235737053301031,0.0954201041221618,-4.37178810110092,0.7968054096221919,1.1595532468358845
5.236342746820109,-21.761528138065298,10.9323867035866,5.11981566352844,1.1595532468358845
5.236948440339188,-12.0688840950966,8.53018211374283,4.43963011665344,1.1595532468358845
5.237554133858268,4.03762225255966,-5.29147560110092,-1.2796765239715602,1.1595532468358845
5.2381598273773475,10.4442994986534,-3.50000099172592,-4.975191660690309,1.1595532468358845
5.238765520896426,17.2892653189659,-5.7585044096946705,-4.189625254440309,1.1595532468358845
5.239371214415506,4.02564715490341,-4.69990577688217,0.523773183059692,1.1595532468358845
5.239976907934585,-19.3281882943153,9.969588852024081,4.68631712837219,1.1595532468358845
5.2405826014536645,-14.2124265755653,9.380414047336581,5.65869505805969,1.1595532468358845
5.241188294972744,0.586399108028412,-4.489144058132171,-0.462974863815308,1.1595532468358845
5.241793988491823,7.8792335806846605,-3.06410743703842,-5.2961242778778095,1.1595532468358845
5.242399682010902,17.5838527213097,-4.45082374563217,-4.23273560600281,1.1595532468358845
5.243005375529982,9.01686785802841,-7.116480483913421,-0.450999766159058,1.1595532468358845
5.243611069049061,-17.1511155404091,6.55189598093033,3.4433019916534398,1.1595532468358845
5.24421676256814,-17.673229798221602,12.072416000461601,5.622769765090941,1.1595532468358845
5.2448224560872205,-1.5044529427528401,-2.36955177297592,0.880631093215942,1.1595532468358845
5.245428149606299,8.39176776037216,-3.85925392141342,-3.99562867240906,1.1595532468358845
5.246033843125379,14.5852882681847,-3.31079444875717,-4.4051770122528096,1.1595532468358845
5.246639536644459,11.9004713736534,-7.08774024953842,-2.0388977153778103,1.1595532468358845
5.2472452301635375,-10.8617942513466,1.22776756296158,2.87568236274719,1.1595532468358845
5.247850923682617,-19.5772703255653,11.9598500824928,5.94370238227844,1.1595532468358845
5.248456617201696,-5.40354473962784,2.85398582468033,2.3224328510284398,1.1595532468358845
5.249062310720776,6.949966002559661,-5.44954689016342,-3.43998414115906,1.1595532468358845
5.249668004239855,13.773376647090899,-3.42575538625717,-4.53211304740906,1.1595532468358845
5.250273697758934,14.3649464713097,-6.74764747610092,-2.47000123100281,1.1595532468358845
5.250879391278013,-5.611911438846589,-0.7696787261009219,1.9272546283721899,1.1595532468358845
5.2514850847970935,-21.414250306034102,11.5718569184303,6.66460326118469,1.1595532468358845
5.252090778316172,-8.58652569665909,5.675318832492829,3.81692503852844,1.1595532468358845
5.252696471835251,5.991958190059661,-5.499842300319671,-2.67357789115906,1.1595532468358845
5.253302165354331,12.4992262564659,-3.84488380422592,-5.461380625534059,1.1595532468358845
5.2539078588734105,16.3576027213097,-6.02435157766342,-3.52141480522156,1.1595532468358845
5.254513552392489,-1.60983380212784,-1.9168930815696699,1.92964964790344,1.1595532468358845
5.255119245911569,-21.0358372200966,10.678514633274101,5.52457396430969,1.1595532468358845
5.255724939430648,-9.96366192712784,6.58542625436783,3.5199426166534398,1.1595532468358845
5.2563306329497275,2.14076678380966,-4.69272071828842,-1.61497925834656,1.1595532468358845
5.256936326468807,9.34019549474716,-2.66174415578842,-5.81823853569031,1.1595532468358845
5.257542019987886,19.0184694205284,-6.012376480007171,-2.49874146537781,1.1595532468358845
5.258147713506966,3.14427996740341,-5.274710464382171,-0.11809205131530799,1.1595532468358845
5.258753407026045,-20.4490574349403,9.13612205514908,3.71154417915344,1.1595532468358845
5.259359100545124,-13.6304368294716,9.423524398899081,6.2526599018096904,1.1595532468358845
5.259964794064203,0.976787291622162,-3.72752784719467,-1.3060217388153101,1.1595532468358845
5.2605704875832835,9.56293231115341,-3.60298683156967,-4.4842126567840594,1.1595532468358845
5.261176181102362,16.8845070181847,-4.52506935110092,-4.05071412162781,1.1595532468358845
5.261781874621442,6.430246764278411,-5.08550392141342,-1.19585084037781,1.1595532468358845
5.262387568140522,-15.7212888802528,4.22393699655533,3.90314574165344,1.1595532468358845
5.2629932616596005,-15.6254880990028,10.918016586399101,5.49104369087219,1.1595532468358845
5.26359895517868,-3.38693829431534,0.494891586399078,0.609993886184692,1.1595532468358845
5.264204648697759,8.74623065099716,-4.822051772975921,-4.1057995708465596,1.1595532468358845
5.264810342216839,16.199531432247202,-4.47716896047592,-4.477027598190309,1.1595532468358845
5.265416035735918,9.89104998693466,-6.0914121245384205,-2.02452759819031,1.1595532468358845
5.266021729254997,-10.4546409310341,2.85877586374283,2.83975706977844,1.1595532468358845
5.266627422774076,-19.0719212044716,10.3072866059303,5.8071862689971905,1.1595532468358845
5.2672331162931565,-5.58077618494034,3.23000389108658,1.90809447212219,1.1595532468358845
5.267838809812235,7.37627947912216,-4.881927261257171,-3.71301636772156,1.1595532468358845
5.268444503331314,14.781679869747201,-5.454336929225921,-5.11889283256531,1.1595532468358845
5.269050196850394,13.598540221309701,-5.380091323757171,-2.67118287162781,1.1595532468358845
5.2696558903694735,-7.573432434940339,1.4145790863990801,2.77509154243469,1.1595532468358845
5.270261583888552,-20.1736301888466,10.1923256684303,6.23589476509094,0.30353005047980064
5.270867277407632,-7.075268372440339,4.53049949655533,2.20507689399719,0.30353005047980064
5.271472970926712,3.67597430334091,-4.814866714382171,-2.42210084037781,0.30353005047980064
5.27207866444579,12.5806569205284,-2.9419614409446697,-5.3033093364715596,0.30353005047980064
5.27268435796487,17.4545216666222,-6.26145851125717,-3.50464966850281,0.30353005047980064
5.273290051483949,-3.4827390755653402,-2.81981544485092,2.05179564399719,0.30353005047980064
5.273895745003029,-20.7412498177528,10.8844863129616,4.59291136665344,0.30353005047980064
5.274501438522108,-9.60440899744034,6.786607894992829,3.91751585884094,0.30353005047980064
5.275107132041187,2.72994158849716,-4.36699806203842,-1.18387574272156,0.30353005047980064
5.275712825560268,10.5017799674034,-3.51916114797592,-5.547601328659059,0.30353005047980064
5.2763185190793465,16.9539625845909,-5.746529312038421,-2.72866334037781,0.30353005047980064
5.276924212598425,1.61865252599716,-3.20301856985092,-0.27855835990905803,0.30353005047980064
5.277529906117504,-18.1282835091591,6.247728500461579,3.34750121040344,0.30353005047980064
5.278135599636585,-12.2461155404091,9.29419334421158,5.95088744087219,0.30353005047980064
5.278741293155663,-1.32003643884659,-1.04750099172592,-0.668946543502808,0.30353005047980064
5.279346986674743,9.972480650997161,-4.721460952663421,-4.45307740287781,0.30353005047980064
5.279952680193822,17.9526857291222,-5.68904884328842,-3.28191285209656,0.30353005047980064
5.280558373712902,4.813608580684661,-4.47716896047592,0.016029042434691897,0.30353005047980064
5.281164067231981,-14.078305481815299,5.47174217233658,4.6695519916534405,0.30353005047980064
5.28176976075106,-15.6614133919716,8.915780258274081,5.86466673774719,0.30353005047980064
5.282375454270139,-4.10304913415909,1.4744545746803301,0.562093495559692,0.30353005047980064
5.2829811477892195,8.44685320959091,-4.75978126516342,-4.54648316459656,0.30353005047980064
5.283586841308298,17.3251906119347,-6.34049415578842,-3.98604859428406,0.30353005047980064
5.284192534827377,9.433601256465911,-4.2616172026634205,-1.25333130912781,0.30353005047980064
5.284798228346458,-12.078464173221601,4.7125209809303295,2.65534056587219,0.30353005047980064
5.285403921865536,-16.8708982552528,8.944520492649081,5.742520741653441,0.30353005047980064
5.286009615384615,-4.89819561853409,2.25523094186783,1.77157835884094,0.30353005047980064
5.286615308903695,4.72499285802841,-4.12749610891342,-3.77768189506531,0.30353005047980064
5.287221002422775,15.1936232291222,-4.45082374563217,-5.10452271537781,0.30353005047980064
5.287826695941853,14.1733449088097,-6.378814468288421,-2.13709351615906,0.30353005047980064
5.288432389460933,-8.236852845096589,0.542791977024078,2.46613402290344,0.30353005047980064
5.289038082980012,-19.1749070443153,10.2953115082741,5.34015746040344,0.30353005047980064
5.289643776499092,-7.07047833337784,4.6861757660865795,2.77748656196594,0.30353005047980064
5.290249470018171,4.195693541622161,-3.81135353078842,-2.03650269584656,0.30353005047980064
5.29085516353725,12.7411232291222,-4.608895034694671,-4.93447632865906,0.30353005047980064
5.291460857056329,15.888178893184701,-5.68425880422592,-2.99930054740906,0.30353005047980064
5.292066550575409,-4.287465638065339,-1.44507423391342,1.0674426166534399,0.30353005047980064
5.292672244094488,-18.3845505990028,7.36141258249283,4.6767370502471906,0.30353005047980064
5.293277937613568,-8.65358624353409,7.78054100046158,4.4899255268096905,0.30353005047980064
5.293883631132648,0.42114276037216203,-2.41745216360092,-1.5191784770965602,0.30353005047980064
5.294489324651726,12.094467955684701,-5.29626564016342,-5.28654419975281,0.30353005047980064
5.295095018170806,17.1695143424034,-6.76680763235092,-2.89391968803406,0.30353005047980064
5.295700711689885,0.526523619747162,-2.2833310698509197,0.205235585403442,0.30353005047980064
5.296306405208965,-17.2708665169716,7.45481834421158,3.06249388618469,0.30353005047980064
5.296912098728044,-12.9670164193153,7.770960922336579,5.656300038528441,0.30353005047980064
5.297517792247123,-0.977548645877838,0.16677391061782798,-0.280953379440308,0.30353005047980064
5.298123485766203,9.68268328771591,-5.74173927297592,-5.607476816940309,0.30353005047980064
5.298729179285282,18.956198912715898,-6.82907814016342,-3.4423791606903102,0.30353005047980064
5.299334872804361,3.9849318228721597,-1.9480283354759198,-0.503690195846558,0.30353005047980064
5.29994056632344,-16.0541965950966,7.02371482858658,3.92949095649719,0.30353005047980064
5.300546259842521,-12.825710266971601,6.40340476999283,5.67785521430969,0.30353005047980064
5.301151953361599,-3.30790264978409,1.1654970551490802,-0.453394785690308,0.30353005047980064
5.301757646880678,5.17046649084091,-3.64849220266342,-4.21597046928406,0.30353005047980064
5.302363340399758,19.3465870963097,-5.86388526906967,-3.8351623638153103,0.30353005047980064
5.302969033918838,9.82638445959091,-5.25076026906967,-2.01015748100281,0.30353005047980064
5.303574727437916,-14.473483704471601,4.10897605905533,2.81820189399719,0.30353005047980064
5.304180420956996,-16.1978977669716,8.70022850046158,6.00357787055969,0.30353005047980064
5.304786114476075,-4.34255108728409,2.58095359811783,1.86498412055969,0.30353005047980064
5.3053918079951545,5.5440895377159105,-3.16230323781967,-3.61482056694031,0.30353005047980064
5.305997501514234,15.7205275259972,-5.832750015163421,-4.75245484428406,0.30353005047980064
5.306603195033313,12.3243898306847,-5.05915870656967,-2.30953492240906,0.30353005047980064
5.307208888552392,-9.55650860681534,0.276944809055328,1.92964964790344,0.30353005047980064
5.307814582071472,-16.252983216190298,8.17092918405533,4.82522826118469,0.30353005047980064
5.308420275590551,-7.360275696659089,6.17827293405533,3.02656859321594,0.30353005047980064
5.309025969109631,2.17190203771591,-2.87729591360092,-2.13709351615906,0.30353005047980064
5.309631662628711,14.664323912715899,-6.10338722219467,-4.9105261333465595,0.30353005047980064
5.310237356147789,15.2990040884972,-6.95361915578842,-2.9466101177215602,0.30353005047980064
5.310843049666869,-4.59163311853409,0.00630760202407836,0.851890858840942,0.30353005047980064
5.311448743185949,-17.7666355599403,8.094288559055329,4.99287962837219,0.30353005047980064
5.3120544367050275,-9.10863995447159,6.70517723093033,4.118697499465941,0.30353005047980064
5.312660130224107,0.763630553340912,-1.2462876128196698,-1.27728150444031,0.30353005047980064
5.313265823743186,11.337641783809701,-6.54646583547592,-5.6889074810028095,0.30353005047980064
5.313871517262266,18.7119069205284,-7.10690040578842,-3.37771363334656,0.30353005047980064
5.314477210781345,-0.987128724002838,0.5499770356178281,1.02193724555969,0.30353005047980064
5.315082904300424,-18.1115183724403,7.91705711374283,4.12348753852844,0.30353005047980064
5.315688597819503,-9.11582501306534,5.2514003754615795,5.07191527290344,0.30353005047980064
5.3162942913385836,-2.2421189583778403,0.365560531711578,-1.24854127006531,0.30353005047980064
5.316899984857662,7.043371764278411,-4.17779151906967,-5.03267212944031,0.30353005047980064
5.317505678376741,21.3105031119347,-6.805127944850921,-3.40884888725281,0.30353005047980064
5.318111371895821,4.289099303340911,-3.27726417531967,-0.9012634380340581,0.30353005047980064
5.3187170654149005,-17.8792014779091,6.80576805124283,3.22775023384094,0.30353005047980064
5.319322758933979,-12.5886033333778,6.4489101410865795,5.65869505805969,0.30353005047980064
5.319928452453059,-2.64927227869034,1.69000633249283,0.123804921340942,0.30353005047980064
5.320534145972138,6.171584654903411,-3.1551181792259198,-3.80881714897156,0.30353005047980064
5.3211398394912175,18.3598390494347,-6.86739845266342,-3.83037232475281,0.30353005047980064
5.321745533010297,7.79780291662216,-4.242457046413421,-2.50832154350281,0.30353005047980064
5.322351226529376,-13.9154441536903,3.10785789499283,2.89963255805969,0.30353005047980064
5.322956920048455,-13.7765330208778,7.42368309030533,5.103050526809691,0.30353005047980064
5.323562613567535,-5.657416809940339,4.69336082468033,1.76678831977844,0.30353005047980064
5.324168307086614,4.581291686153411,-2.62821388235092,-2.79332886772156,0.30353005047980064
5.324774000605693,17.6293580924034,-7.20030616750717,-5.154818125534059,0.30353005047980064
5.3253796941247735,11.1556202994347,-6.46743019094467,-2.46521119194031,0.30353005047980064
5.325985387643852,-9.39604229822159,3.03600730905533,1.95838988227844,0.30353005047980064
5.326591081162932,-16.370339173221602,7.845206527805329,4.56896117134094,0.30353005047980064
5.327196774682012,-7.060898255252839,5.00710838327408,3.51515257759094,0.30353005047980064
5.3278024682010905,2.42577410802841,-1.53847999563217,-2.34546021537781,0.30353005047980064
5.32840816172017,14.264355650997201,-7.54518898000717,-5.806263438034059,0.30353005047980064
5.329013855239249,16.3576027213097,-6.98235939016342,-2.31671998100281,0.30353005047980064
5.329619548758329,-6.78068097009659,3.05756248483658,1.7859484760284399,0.30353005047980064
5.330225242277408,-17.8504612435341,8.37450584421158,4.89947386665344,0.30353005047980064
5.330830935796487,-6.26096173181534,3.57009666452408,3.58460814399719,0.30353005047980064
5.331436629315566,-1.17394024744034,-0.381685562038422,-1.71317505912781,0.30353005047980064
5.3320423228346465,9.965295592403411,-5.028023452663421,-5.55957642631531,0.30353005047980064
5.332648016353725,21.123691588497202,-7.69847023000717,-2.3382751567840603,0.30353005047980064
5.333253709872804,-2.15110821619034,-0.496646499538422,0.495032948684692,0.30353005047980064
5.333859403391884,-19.2802879036903,8.33379051218033,3.60137328071594,0.30353005047980064
5.3344650969109635,-8.387739075565339,4.54965965280533,5.13179076118469,0.30353005047980064
5.335070790430042,-1.89005108728409,1.00024070749283,-1.22219605522156,0.30353005047980064
5.335676483949122,7.740322447872161,-3.9430796050071697,-4.24710572319031,0.30353005047980064
5.336282177468201,20.630317565059702,-7.74637062063217,-3.22922242240906,0.30353005047980064
5.3368878709872805,1.98030047521591,-1.79953712453842,-1.3826623638153102,0.30353005047980064
5.33749356450636,-17.0289695443153,4.87538230905533,3.24212035102844,0.30353005047980064
5.338099258025439,-10.1001780404091,5.63220848093033,5.570079335403441,0.30353005047980064
5.338704951544519,-4.3952415169715895,3.64673728952408,0.253135976028442,0.30353005047980064
5.339310645063598,6.01351336584091,-2.88927101125717,-3.65793091850281,0.30353005047980064
5.339916338582677,20.153708678340898,-8.222979507350919,-4.19441529350281,0.30353005047980064
5.340522032101756,6.21469500646591,-4.642425308132171,-1.81137085990906,0.30353005047980064
5.3411277256208365,-13.8651487435341,5.596283187961579,2.97866820259094,0.30353005047980064
5.341733419139915,-13.091557434940299,6.24054344186783,5.79281615180969,0.30353005047980064
5.342339112658994,-5.18799298181534,4.10418601999283,1.75960326118469,0.30353005047980064
5.342944806178075,3.87476092443466,-1.1648569487571698,-4.1848352153778094,0.30353005047980064
5.3435504996971535,17.890415221309702,-9.21451759328842,-4.40038697319031,0.30353005047980064
5.344156193216233,12.7267531119347,-5.91418067922592,-1.74910035209656,0.30353005047980064
5.344761886735312,-11.958713196659101,5.8501552582740795,1.97755003852844,0.30353005047980064
5.345367580254392,-15.208754700565299,7.085985336399079,4.97371947212219,0.30353005047980064
5.345973273773471,-4.9005906380653395,3.0886977387428303,2.7679064838409397,0.30353005047980064
5.34657896729255,-0.342868470096588,-0.214034194850922,-2.62807252006531,0.30353005047980064
5.347184660811629,14.5852882681847,-6.88655860891342,-4.98477173881531,0.30353005047980064
5.3477903543307095,17.7898244009972,-7.90683692922592,-2.57059205131531,0.30353005047980064
5.348396047849788,-8.23445782556534,2.76776512155533,1.71170287055969,0.30353005047980064
5.349001741368867,-18.1402586068153,8.55892234811783,4.68152708930969,0.30353005047980064
5.349607434887947,-5.564011048221589,3.34256980905533,3.37384642524719,0.30353005047980064
5.3502131284070265,-0.668591126346588,0.813429184055328,-1.48325318412781,0.30353005047980064
5.350818821926105,10.3484987174034,-5.04957862844467,-5.42545533256531,0.30353005047980064
5.351424515445185,20.0435377799034,-7.9212070464134205,-2.10116822319031,0.30353005047980064
5.352030208964265,-3.09953595056534,0.638592758274078,0.164520253372192,0.30353005047980064
5.352635902483343,-17.915126770877798,5.99864646921158,3.03375365180969,0.30353005047980064
5.353241596002423,-7.1159837044715895,4.43709373483658,5.66348509712219,0.30353005047980064
5.353847289521502,-3.51866436853409,2.72704978952408,-0.9611389263153081,0.30353005047980064
5.354452983040582,8.482778502559661,-4.39094825735092,-4.402781992721559,0.30353005047980064
5.355058676559661,21.2769728384972,-8.75227882375717,-3.52141480522156,0.30353005047980064
5.35566437007874,0.457068053340912,-1.5887754057884198,-1.29644166069031,0.30353005047980064
5.356270063597821,-16.267353333377798,6.72433738718033,3.95104613227844,0.30353005047980064
5.3568757571168995,-10.0139573372841,4.64785545358658,5.24435667915344,0.30353005047980064
5.357481450635978,-4.36410626306534,3.85270896921158,0.145360097122192,0.30353005047980064
5.358087144155058,6.12847430334091,-2.93956642141342,-3.72259644584656,0.30353005047980064
5.358692837674138,20.8386842642784,-9.54742530813217,-4.31895630912781,0.30353005047980064
5.359298531193216,6.2362501822471605,-3.52634620656967,-1.27249146537781,0.30353005047980064
5.359904224712296,-16.0230613411903,7.79012107858658,3.37145140571594,0.30353005047980064
5.360509918231375,-11.3647483529091,4.97357810983658,4.8156481830596904,0.30353005047980064
5.361115611750455,-3.82283184900284,2.26241600046158,1.6542224018096898,0.30353005047980064
5.361721305269534,1.34083026037216,-0.240379409694672,-3.41842896537781,0.30353005047980064
5.362326998788613,18.5538356314659,-8.440926284694669,-4.742874766159059,0.30353005047980064
5.362932692307692,13.4859743033409,-7.04223487844467,-1.48325318412781,0.30353005047980064
5.3635383858267724,-13.4077000130653,5.483717269992829,2.19070677680969,0.30353005047980064
5.364144079345851,-15.7188938607216,7.60809959421158,4.365384511184691,0.30353005047980064
5.36474977286493,-3.87312725915909,2.37498191843033,2.87807738227844,0.30353005047980064
5.365355466384011,0.837876158809662,0.442201156711578,-2.4843713481903102,0.30353005047980064
5.365961159903089,13.826067076778399,-7.19312110891342,-4.968006602096559,0.30353005047980064
5.366566853422168,16.5396242056847,-7.0494199370384205,-1.89280152397156,0.30353005047980064
5.367172546941248,-9.12540509119034,2.55939842233658,1.16324339790344,0.30353005047980064
5.367778240460328,-16.1907127083778,6.27886375436783,4.42286497993469,0.30353005047980064
5.368383933979406,-4.77125958337784,3.8407338715553303,3.7857897846221897,0.30353005047980064
5.368989627498486,-2.56305157556534,1.91274314889908,-1.8065808208465601,0.30353005047980064
5.369595321017565,11.7974855338097,-5.97405616750717,-4.888970957565309,0.30353005047980064
5.370201014536645,19.9812672720909,-9.12350685110092,-2.41012574272156,1.475479112452114
5.370806708055724,-4.49583233728409,1.9223232270240802,0.0806945697784419,1.475479112452114
5.371412401574803,-17.7546604622841,7.45002830514908,4.10672240180969,1.475479112452114
5.372018095093882,-7.08005841150284,2.78692527780533,6.154464101028441,1.475479112452114
5.372623788612962,-2.89595929040909,3.28748435983658,-0.8797082622528081,1.475479112452114
5.373229482132041,7.71876727209091,-4.556204605007171,-5.30570435600281,1.475479112452114
5.373835175651121,21.9691334830284,-9.84201271047592,-3.0400158794403103,1.475479112452114
5.374440869170201,0.330132018184662,0.00870262155532836,-0.606676035690308,1.475479112452114
5.375046562689279,-18.2288743294716,8.49904685983658,3.83129515571594,1.475479112452114
5.375652256208359,-7.846464661502839,2.41090721139908,5.37129271430969,1.475479112452114
5.376257949727438,-3.55698468103409,2.99768699655533,-0.479740000534058,1.475479112452114
5.3768636432465176,2.85927264318466,-1.38519874563217,-3.80402710990906,1.475479112452114
5.377469336765597,22.7067994986534,-9.33666358938217,-3.96209839897156,1.475479112452114
5.378075030284676,6.823029967403411,-4.83642189016342,-1.8449011333465601,1.475479112452114
5.378680723803756,-18.6791380013466,7.96735252389908,2.75353636665344,1.475479112452114
5.379286417322835,-10.9264597786903,5.29451072702408,5.15813597602844,1.475479112452114
5.379892110841914,-2.78578839197159,1.78341209421158,1.69733275337219,1.475479112452114
5.380497804360993,2.29883807287216,0.8110341645240781,-3.15018677787781,1.475479112452114
5.381103497880074,17.4928419791222,-8.86963478078842,-4.34769654350281,1.475479112452114
5.381709191399152,11.6537843619347,-6.3644443511009205,-1.75149537162781,1.475479112452114
5.382314884918231,-13.132272766971601,4.956812973117829,2.22663206977844,1.475479112452114
5.382920578437311,-13.2831589974403,6.427354965305329,3.93428099555969,1.475479112452114
5.3835262719563906,-4.0431736458778404,3.3018544770240803,2.94274290962219,1.475479112452114
5.384131965475469,-0.421904114627838,1.48882469186783,-2.17062378959656,1.475479112452114
5.384737658994549,15.196018248653399,-7.98587257375717,-5.02548707084656,1.475479112452114
5.385343352513628,16.4510084830284,-8.575047378444669,-2.21612916069031,1.475479112452114
5.3859490460327075,-9.134985169315339,4.31734275827408,0.873446034622192,1.475479112452114
5.386554739551787,-16.4565598763466,7.09796043405533,4.52585081977844,1.475479112452114
5.387160433070866,-4.73533429040909,2.82045555124283,3.62532347602844,1.475479112452114
5.387766126589945,-1.38709698572159,2.4133022309303302,-1.77544556694031,1.475479112452114
5.388371820109025,11.033474303340899,-6.8697934721946705,-5.22666871147156,1.475479112452114
5.388977513628104,20.5919972525597,-9.624065933132169,-2.9370300395965603,1.475479112452114
5.389583207147184,-5.477790345096589,3.66350242624283,0.947691640090942,1.475479112452114
5.3901889006662635,-18.873134583377798,8.05117820749283,4.18336302680969,1.475479112452114
5.390794594185342,-4.07191388025284,0.466151352024078,4.53303587837219,1.475479112452114
5.391400287704422,-2.87679913415909,2.94020652780533,-1.2892566020965601,1.475479112452114
5.392005981223502,5.49379412755966,-2.92998634328842,-5.094942637252809,1.475479112452114
5.3926116747425805,23.7534230338097,-9.779742202663419,-2.69992310600281,1.475479112452114
5.39321736826166,0.231936217403412,-1.85462257375717,-0.5012951763153081,1.475479112452114
5.393823061780739,-19.9413132943153,9.11935691843033,3.43132689399719,1.475479112452114
5.394428755299819,-7.07287335290909,2.72704978952408,5.06712523384094,1.475479112452114
5.395034448818898,-2.29480938806534,2.09236961374283,0.0639294330596919,1.475479112452114
5.395640142337977,4.09749774084091,-0.374500503444672,-3.76810181694031,1.475479112452114
5.396245835857056,20.886584654903398,-10.292276382350899,-3.79205201225281,1.475479112452114
5.3968515293761365,6.14763445959091,-3.78979835500717,-1.40661255912781,1.475479112452114
5.397457222895215,-17.8552512825966,6.91593894968033,2.59067503852844,1.475479112452114
5.398062916414294,-9.51579327478409,4.20956687936783,4.78211790962219,1.475479112452114
5.398668609933374,-2.99415509119034,3.5844667817115803,1.7691833393096899,1.475479112452114
5.3992743034524535,1.27855975255966,0.557162094211578,-3.17892701225281,1.475479112452114
5.399879996971532,18.9035084830284,-9.877938003444669,-4.948846445846559,1.475479112452114
5.400485690490612,11.1963356314659,-7.34161231985092,-2.02931763725281,1.475479112452114
5.401091384009691,-13.7669529427528,7.31830223093033,2.36075316352844,1.475479112452114
5.4016970775287705,-13.5945115365028,6.075287094211579,5.34494749946594,1.475479112452114
5.40230277104785,-2.84326886072159,1.99896385202408,3.03375365180969,1.475479112452114
5.402908464566929,-0.47698956384658797,2.0875795746803303,-2.69513306694031,1.475479112452114
5.403514158086008,14.7649147330284,-9.25283790578842,-5.52604615287781,1.475479112452114
5.404119851605088,17.4281764517784,-8.718748550319669,-2.1682287700653102,1.475479112452114
5.404725545124167,-11.5300047005653,7.25842674264908,2.12843626899719,1.475479112452114
5.405331238643246,-16.6290012825966,7.56738426218033,4.71266234321594,1.475479112452114
5.4059369321623265,-1.85173077478409,-0.621187515163422,3.21577513618469,1.475479112452114
5.406542625681405,-2.48401593103409,3.62997215280533,-2.29995484428406,1.475479112452114
5.407148319200485,9.634782897090911,-5.39206642141342,-5.0829675395965594,1.475479112452114
5.407754012719565,22.4170021353722,-10.1222299956322,-2.7406384380340603,1.475479112452114
5.4083597062386435,-6.196296204471589,2.42767234811783,0.811175526809692,1.475479112452114
5.408965399757723,-20.0275339974403,9.18641746530533,3.86961546821594,1.475479112452114
5.409571093276802,-3.48513409509659,0.655357894992828,4.432445058059691,1.475479112452114
5.410176786795882,-1.8086204232215901,2.8324306488990802,-0.970719004440308,1.475479112452114
5.410782480314961,6.06620379552841,-2.3599716948509197,-4.58719849662781,1.475479112452114
5.41138817383404,22.6469240103722,-10.5748886870384,-2.54664185600281,1.475479112452114
5.411993867353119,-1.01826397790909,-0.439166030788422,-1.03298951225281,1.475479112452114
5.4125995608721995,-20.1712351693153,7.459608383274079,3.29720580024719,1.475479112452114
5.413205254391278,-5.12811749353409,2.6432241059303303,5.28507201118469,1.475479112452114
5.413810947910357,-2.45527569665909,3.48387596139908,0.200445546340942,1.475479112452114
5.414416641429437,3.42210223302841,-0.355340347194672,-3.74654664115906,1.475479112452114
5.4150223349485165,21.5164747916222,-10.905401382350899,-4.04352906303406,1.475479112452114
5.415628028467595,4.74894305334091,-4.42687355031967,-1.00903931694031,1.475479112452114
5.416233721986675,-17.8408811654091,8.841534652805331,3.0672839252471897,1.475479112452114
5.416839415505754,-9.39125225915909,3.70661277780533,4.59530638618469,1.475479112452114
5.4174451090248334,-2.35947491540909,3.03361228952408,0.959666737747192,1.475479112452114
5.418050802543913,0.871406432247162,1.72353660593033,-3.8351623638153103,1.475479112452114
5.418656496062992,18.7478322134972,-11.5065512846947,-4.26626587944031,1.475479112452114
5.419262189582072,12.3986354361534,-7.130850601100921,-0.894078379440308,1.475479112452114
5.419867883101151,-16.8708982552528,10.1132900238991,2.35356810493469,1.475479112452114
5.42047357662023,-13.2831589974403,5.083749008274079,4.444420155715941,1.475479112452114
5.421079270139311,0.102605162715912,-0.345760269069672,2.41583861274719,1.475479112452114
5.4216849636583895,-1.69365948572159,4.0347304535865804,-3.31304810600281,1.475479112452114
5.422290657177468,14.0990993033409,-8.35710060110092,-5.16439820365906,1.475479112452114
5.422896350696547,18.4053444205284,-9.825247573757169,-1.73952027397156,1.475479112452114
5.423502044215628,-13.0843723763466,6.427354965305329,1.6326672260284398,1.475479112452114
5.4241077377347064,-17.9199168099403,8.42719627389908,4.0899572650909395,1.475479112452114
5.424713431253786,-0.402743958377838,-1.4762094878196699,3.19661497993469,1.475479112452114
5.425319124772865,-0.630270813846588,4.38440330514908,-1.71317505912781,1.475479112452114
5.425924818291945,8.85400652990341,-5.1334043120384205,-5.087757578659059,1.475479112452114
5.426530511811024,21.4110939322472,-11.226333999538399,-2.61130738334656,1.475479112452114
5.427136205330103,-7.88238995447159,3.75451316843033,0.839915761184692,1.475479112452114
5.427741898849182,-20.1017796029091,8.034413070774079,3.7857897846221897,1.475479112452114
5.4283475923682625,-0.788342102909088,0.40867088327407797,4.118697499465941,1.475479112452114
5.428953285887341,-1.87089093103409,4.2670473481178295,-0.757562266159058,1.475479112452114
5.42955897940642,5.80275164709091,-2.4964878081321698,-4.56564332084656,1.475479112452114
5.4301646729255,22.7690700064659,-12.7304062651634,-2.35025025444031,1.475479112452114
5.4307703664445794,-0.908093079471588,-0.343365249538422,0.0735095111846919,1.475479112452114
5.431376059963658,-21.0669724740028,10.3336318207741,4.04684691352844,1.475479112452114
5.431981753482738,-5.62149151697159,1.06251121530533,5.5078088275909405,1.475479112452114
5.432587447001818,-0.036305970096588196,3.77606834421158,-0.132462168502808,1.475479112452114
5.433193140520896,2.79700213537216,-0.149368667507172,-4.46744752006531,1.475479112452114
5.433798834039976,21.8589625845909,-13.2884458159447,-3.74415162162781,1.475479112452114
5.434404527559055,5.486609068965911,-2.81981544485092,-0.422259531784058,1.475479112452114
5.435010221078135,-21.8381687630653,12.4795693207741,3.84087523384094,1.475479112452114
5.435615914597214,-8.416479309940339,1.74030174264908,4.68871214790344,1.475479112452114
5.436221608116293,2.26291277990341,0.41825096139907797,0.466292714309692,1.475479112452114
5.436827301635374,-1.24579083337784,3.70661277780533,-3.8950378520965603,1.475479112452114
5.437432995154452,18.4676149283409,-11.516131362819701,-4.3716467388153095,1.475479112452114
5.438038688673531,13.4548390494347,-7.823011245632171,-0.7192419536590581,1.475479112452114
5.438644382192611,-20.3029612435341,11.2748744965553,2.5882800189971897,1.475479112452114
5.439250075711691,-13.982504700565299,5.14122947702408,4.65997191352844,1.475479112452114
5.439855769230769,3.28798113927841,-1.8450424956321698,2.3823083393096898,1.475479112452114
5.440461462749849,0.0930250845909118,6.09205223093033,-3.49267457084656,1.475479112452114
5.441067156268928,12.4728810416222,-9.85877784719467,-5.027882090377809,1.475479112452114
5.441672849788008,18.4053444205284,-10.105464858913399,-1.5024133403778102,1.475479112452114
5.442278543307087,-15.4530466927528,8.06315330514908,1.52728636665344,1.475479112452114
5.442884236826166,-18.2911448372841,7.19855125436783,4.38693968696594,1.475479112452114
5.443489930345245,3.10835467443466,-1.41154396047592,3.31157591743469,1.475479112452114
5.444095623864325,-0.510519837284088,5.60586326608658,-2.06045289115906,1.475479112452114
5.444701317383404,9.09111346349716,-6.54167579641342,-4.8841809185028096,1.475479112452114
5.445307010902483,21.3751686392784,-13.0489438628197,-2.76219361381531,1.475479112452114
5.445912704421564,-9.772060364627839,5.675318832492829,1.1656384174346899,1.475479112452114
5.446518397940642,-21.402275208377798,9.33251365671158,4.71266234321594,1.475479112452114
5.447124091459721,0.595979186153412,-1.23191749563217,3.6660388080596897,1.475479112452114
5.447729784978801,0.888171568965912,4.5999550629615795,-1.35392212944031,1.475479112452114
5.448335478497881,5.11059100255966,-4.03648536672592,-5.8613488872528094,1.475479112452114
5.448941172016959,22.9319313345909,-14.4476352690697,-2.67357789115906,1.475479112452114
5.449546865536039,-2.54389141931534,3.27790428171158,0.811175526809692,1.475479112452114
5.450152559055118,-24.9229539193153,12.9202529145241,4.14983275337219,1.475479112452114
5.4507582525741975,-2.29720440759659,-1.68936622610092,4.71266234321594,1.475479112452114
5.451363946093277,3.93942645177841,1.97261863718033,-1.2078259380340601,1.475479112452114
5.451969639612356,-0.345263489627838,0.578717269992828,-5.147633066940309,1.475479112452114
5.452575333131435,22.2277955924034,-13.2836557768822,-3.75612671928406,1.475479112452114
5.453181026650515,5.49618914709091,-3.44252052297592,0.588438710403442,1.475479112452114
5.453786720169594,-25.5576340950966,14.0243569184303,3.60376830024719,1.475479112452114
5.454392413688674,-8.07399151697159,1.7786220551490801,4.624046620559691,1.475479112452114
5.454998107207754,5.812331725215911,-1.42830909719467,0.36330687446594195,1.475479112452114
5.455603800726832,0.576819029903412,4.724496078586579,-4.51534791069031,1.475479112452114
5.456209494245912,16.6689552603722,-13.022598647975899,-4.33572144584656,1.475479112452114
5.456815187764992,12.1375783072472,-6.99193946828842,-1.0497546489715601,1.475479112452114
5.4574208812840705,-22.8800022591591,12.2400673676491,2.91160765571594,1.475479112452114
5.45802657480315,-12.7538596810341,4.19040672311783,4.518665761184691,1.475479112452114
5.458632268322229,6.05422869787216,-1.6773911284446699,1.7907385150909398,1.475479112452114
5.459237961841309,0.390007506465912,5.423841781711579,-3.27233277397156,1.475479112452114
5.459843655360388,12.762678404903399,-9.968948745632169,-5.4494055278778095,1.475479112452114
5.460449348879467,17.0018629752159,-11.465835952663399,-1.50001832084656,1.475479112452114
5.461055042398546,-16.355969056034102,10.3695571137428,2.3487780658721897,1.475479112452114
5.461660735917627,-19.4670994271278,8.46072654733658,4.743797597122191,1.475479112452114
5.462266429436705,4.8519288931846605,-2.47253761281967,3.19421996040344,1.475479112452114
5.462872122955784,2.0856813345909098,5.03584861764908,-2.97295533256531,1.475479112452114
5.463477816474864,7.826543150997161,-7.65775489797592,-5.933199473190309,1.475479112452114
5.4640835099939435,21.0710011588097,-13.0824741362572,-2.16104371147156,1.475479112452114
5.464689203513022,-11.549164856815299,8.60442771921158,2.85652220649719,1.475479112452114
5.465294897032102,-24.422394837284102,11.4042055512428,4.77253783149719,1.475479112452114
5.465900590551181,4.3801100455284105,-4.110730972194671,3.15350462837219,1.475479112452114
5.4665062840702605,4.11665789709091,3.6275771332740803,-2.32630005912781,1.475479112452114
