Time (s),Accel X (m/s^2),Accel Y (m/s^2),Accel Z (m/s^2),CI Value
8.6395,-0.0990955235481262,0.13326945848465,-0.0894451852798465,1.0197055120011673
8.640105693519079,-0.209266421985626,-0.20442829542160001,0.190772099876404,1.0197055120011673
8.64071138703816,-0.15657599229812602,-0.0655171626091004,0.159636845970154,1.0197055120011673
8.641317080557238,-0.429608218860626,-0.046357006359100304,-0.058309931373596496,1.0197055120011673
8.641922774076317,-0.369732730579376,-0.048752025890350305,0.0662310842514035,1.0197055120011673
8.642528467595398,-0.218846500110626,-0.0583321040153503,0.20753723659515402,1.0197055120011673
8.643134161114476,-0.240401675891876,-0.051147045421600305,0.20274719753265402,1.0197055120011673
8.643739854633555,-0.13262579698562602,-0.0343819087028503,0.171611943626404,1.0197055120011673
8.644345548152634,-0.331412418079376,-0.0343819087028503,0.035095830345153504,1.0197055120011673
8.644951241671714,-0.35775763292312596,-0.10383747510909999,0.116526494407654,1.0197055120011673
8.645556935190793,0.037420589733123795,-0.19245319776535003,0.17400696315765402,1.0197055120011673
8.646162628709872,0.06616082410812381,-0.0176167719841003,-0.0918402048110965,1.0197055120011673
8.646768322228953,-0.252376773548126,-0.0679121821403504,0.166821904563904,1.0197055120011673
8.647374015748031,-0.218846500110626,-0.0343819087028503,0.21711731472015403,1.0197055120011673
8.64797970926711,-0.20687140245437602,-0.0008516352653503479,0.025515752220153502,1.0197055120011673
8.64858540278619,-0.31704230089187596,-0.22837849073410002,0.293757939720154,1.0197055120011673
8.64919109630527,-0.173341129016876,-0.08467731885910039,0.0087506155014035,1.0197055120011673
8.649796789824348,-0.22603155870437602,-0.043961986827850304,-0.0367547555923465,1.0197055120011673
8.650402483343429,-0.0416150547981262,-0.1613179438591,0.38955872097015404,1.0197055120011673
8.651008176862508,-0.22603155870437602,-0.0152217524528503,-0.0463348337173465,1.0197055120011673
8.651613870381587,-0.38649786729812596,-0.0367769282341003,0.509309697532654,1.0197055120011673
8.652219563900665,-0.149390933704376,-0.13497272901535,0.571580205345154,1.0197055120011673
8.652825257419746,-0.16136603136062602,-0.21640339307785,-0.0678900094985965,1.0197055120011673
8.653430950938825,-0.18771124620437601,-0.0008516352653503479,0.0853912405014035,1.0197055120011673
8.654036644457904,-0.14699591417312602,-0.1134175532341,0.0590460256576535,1.0197055120011673
8.654642337976984,0.039815609264373795,-0.00324665479660035,0.0877862600326535,1.0197055120011673
8.655248031496063,-0.0967005040168762,0.0230985600471497,0.0015655569076535002,1.0197055120011673
8.655853725015142,-0.15178595323562602,-0.10862751417159999,0.12850159206390402,1.0197055120011673
8.656459418534222,-0.252376773548126,-0.13257770948410003,0.154846806907654,1.0197055120011673
8.657065112053301,-0.240401675891876,-0.24035358839035,-0.0654949899673465,1.0197055120011673
8.65767080557238,-0.0775403477668762,-0.17808308057785002,-0.118185419654846,1.0197055120011673
8.65827649909146,-0.233216617298126,-0.08467731885910039,0.19795715847015402,1.0197055120011673
8.65888219261054,-0.46792853136062595,-0.0798872797966004,0.262622685813904,1.0197055120011673
8.659487886129618,-0.400867984485626,-0.1182075922966,0.19795715847015402,1.0197055120011673
8.660093579648699,-0.309857242298126,0.13566447801589998,-0.0511248727798465,1.0197055120011673
8.660699273167777,-0.393682925891876,0.0542338139533997,-0.029569696998596497,1.0197055120011673
8.661304966686856,-0.21166144151687602,-0.13976276807785,0.0925762990951535,1.0197055120011673
8.661910660205935,-0.0272449376106262,-0.22358845167160002,-0.13734557590484597,1.0197055120011673
8.662516353725016,-0.245191714954376,-0.0655171626091004,-0.0367547555923465,1.0197055120011673
8.663122047244094,-0.381707828235626,-0.09186237745285039,0.109341435813904,1.0197055120011673
8.663727740763173,-0.0943054844856262,-0.1421577876091,0.166821904563904,1.0197055120011673
8.664333434282254,-0.25716681261062596,-0.051147045421600305,0.0590460256576535,1.0197055120011673
8.664939127801333,-0.441583316516876,-0.0343819087028503,-0.0151995798110965,1.0197055120011673
8.665544821320411,-0.144600894641876,-0.0367769282341003,-0.0415447946548465,1.0197055120011673
8.666150514839492,-0.21166144151687602,-0.1469478266716,0.16921692409515401,1.0197055120011673
8.66675620835857,-0.223636539173126,-0.10383747510909999,-0.029569696998596497,1.0197055120011673
8.66736190187765,-0.101490543079376,-0.00803669385910035,0.21711731472015403,1.0197055120011673
8.66796759539673,-0.218846500110626,0.039863696765899695,0.442249150657654,1.0197055120011673
8.668573288915809,-0.422423160266876,-0.18766315870285002,0.322498174095154,1.0197055120011673
8.669178982434888,-0.329017398548126,-0.13497272901535,0.190772099876404,1.0197055120011673
8.669784675953967,-0.290697086048126,-0.0224068110466003,0.0662310842514035,1.0197055120011673
8.670390369473047,-0.429608218860626,-0.1229976313591,0.195562138938904,1.0197055120011673
8.670996062992126,-0.18771124620437601,-0.20203327589035,0.0063555959701534995,1.0197055120011673
8.671601756511205,-0.249981754016876,-0.0343819087028503,-0.0463348337173465,1.0197055120011673
8.672207450030285,-0.29788214464187596,-0.09186237745285039,-0.0439398141860965,1.0197055120011673
8.672813143549364,-0.18771124620437601,-0.12060261182785,0.214722295188904,1.0197055120011673
8.673418837068443,-0.20687140245437602,0.00154338426589965,-0.14213561496734597,1.0197055120011673
8.674024530587523,-0.168551089954376,-0.0248018305778503,0.111736455345154,1.0197055120011673
8.674630224106602,-0.38649786729812596,-0.13257770948410003,0.24346252956390402,1.0197055120011673
8.675235917625681,-0.261956851673126,-0.1948482172966,-0.0487298532485965,1.0197055120011673
8.67584161114476,-0.175736148548126,-0.1182075922966,0.12850159206390402,1.0197055120011673
8.67644730466384,-0.245191714954376,-0.0679121821403504,-0.127765497779846,1.0197055120011673
8.67705299818292,-0.108675601673126,0.0686039311408996,0.114131474876404,1.0197055120011673
8.677658691701998,-0.302672183704376,-0.0583321040153503,0.19795715847015402,1.0197055120011673
8.678264385221079,-0.214056461048126,-0.1756880610466,0.19795715847015402,1.0197055120011673
8.678870078740157,-0.130230777454376,-0.051147045421600305,0.176401982688904,1.0197055120011673
8.679475772259236,0.039815609264373795,-0.0128267329216003,0.540444951438904,1.0197055120011673
8.680081465778317,-0.06317023057937621,-0.0152217524528503,0.0422808889389035,1.0197055120011673
8.680687159297396,-0.439188296985626,0.044653735828399696,-0.340922236061096,1.0197055120011673
8.681292852816474,-0.194896304798126,-0.1565279047966,0.0662310842514035,1.0197055120011673
8.681898546335555,-0.314647281360626,-0.053542064952850306,0.104551396751404,1.0197055120011673
8.682504239854634,-0.369732730579376,-0.0319868891716003,0.23867249050140402,1.0197055120011673
8.683109933373713,-0.16136603136062602,-0.12539265089035,0.123711553001404,1.0197055120011673
8.683715626892791,-0.017664859485626197,-0.0056416743278503495,0.145266728782654,1.0197055120011673
8.684321320411872,-0.240401675891876,-0.0774922602653504,0.164426885032654,1.0197055120011673
8.68492701393095,-0.281117007923126,-0.0295918696403503,0.104551396751404,1.0197055120011673
8.68553270745003,-0.0248499180793762,0.039863696765899695,0.236277470970154,1.0197055120011673
8.68613840096911,-0.199686343860626,-0.0056416743278503495,0.372793584251404,1.0197055120011673
8.686744094488189,-0.35536261339187597,-0.0774922602653504,0.145266728782654,1.0197055120011673
8.687349788007268,-0.14699591417312602,0.0278885991096497,0.24346252956390402,1.0197055120011673
8.687955481526348,-0.35536261339187597,0.0709989506721496,0.19795715847015402,1.0197055120011673
8.688561175045427,-0.281117007923126,0.0302836186408997,0.274597783470154,1.0197055120011673
8.689166868564506,-0.230821597766876,0.00154338426589965,0.154846806907654,1.0197055120011673
8.689772562083586,-0.242796695423126,-0.09186237745285039,0.24825256862640402,1.0197055120011673
8.690378255602665,-0.293092105579376,-0.0295918696403503,0.16203186550140403,1.0197055120011673
8.690983949121744,-0.30506720323562597,-0.00324665479660035,0.30094299831390403,1.0197055120011673
8.691589642640823,-0.113465640735626,-0.22598347120285,0.32010315456390404,1.0197055120011673
8.692195336159903,-0.14220587511062602,-0.13018268995285,0.102156377220154,1.0197055120011673
8.692801029678982,0.0493956873893738,-0.0367769282341003,0.0159356740951535,1.0197055120011673
8.693406723198061,-0.319437320423126,0.0230985600471497,0.0398858694076535,1.0197055120011673
8.694012416717142,-0.0703552891731262,0.09494914598464961,0.19316711940765402,1.0197055120011673
8.69461811023622,0.0805309412956238,-0.055937084484100306,0.0422808889389035,1.0197055120011673
8.6952238037553,-0.214056461048126,-0.0655171626091004,0.22190735378265403,1.0197055120011673
8.69582949727438,0.0326305506706238,-0.11581257276535,0.190772099876404,1.0197055120011673
8.696435190793459,-0.168551089954376,-0.0248018305778503,0.032700810813903504,1.0197055120011673
8.697040884312537,-0.168551089954376,-0.051147045421600305,-0.029569696998596497,1.0197055120011673
8.697646577831618,-0.249981754016876,-0.16850300245285002,0.0901812795639035,1.0197055120011673
8.698252271350697,-0.35536261339187597,-0.19245319776535003,0.303338017845154,1.0197055120011673
8.698857964869775,-0.271536929798126,0.0159135014533997,0.159636845970154,1.0197055120011673
8.699463658388854,-0.362547671985626,-0.0008516352653503479,0.0422808889389035,1.0197055120011673
8.700069351907935,-0.0751453282356262,-0.1804781001091,0.336868291282654,1.0197055120011673
8.700675045427014,-0.053590152454376205,0.0662089116096496,-0.132555536842346,1.0197055120011673
8.701280738946092,-0.38649786729812596,0.0111234623908997,0.106946416282654,1.0197055120011673
8.701886432465173,-0.319437320423126,-0.11102253370285,0.327288213157654,1.0197055120011673
8.702492125984252,-0.319437320423126,-0.0631221430778503,0.130896611595154,1.0197055120011673
8.70309781950333,-0.36494269151687597,-0.2762788813591,0.253042607688904,1.0197055120011673
8.703703513022411,-0.185316226673126,-0.1756880610466,0.0015655569076535002,1.0197055120011673
8.70430920654149,-0.252376773548126,-0.0056416743278503495,0.0135406545639035,1.0197055120011673
8.704914900060569,-0.218846500110626,0.035073657703399694,0.19795715847015402,1.0197055120011673
8.70552059357965,-0.20687140245437602,-0.1613179438591,0.0853912405014035,1.0197055120011673
8.706126287098728,-0.158971011829376,-0.24274860792160002,0.037490849876403505,1.0197055120011673
8.706731980617807,-0.22603155870437602,-0.21161335401535,0.0470709280014035,1.0197055120011673
8.707337674136888,-0.372127750110626,-0.24274860792160002,-0.0056195016860965,1.0197055120011673
8.707943367655966,-0.204476382923126,0.1069242436409,0.130896611595154,1.0197055120011673
8.708549061175045,-0.273931949329376,-0.1661079829216,0.0949713186264035,1.0197055120011673
8.709154754694124,-0.362547671985626,-0.12539265089035,0.027910771751403503,1.0197055120011673
8.709760448213204,-0.25716681261062596,-0.09665241651535039,-0.0487298532485965,1.0197055120011673
8.710366141732283,-0.271536929798126,-0.1277876704216,-0.209196161842346,1.0197055120011673
8.710971835251362,-0.261956851673126,0.1212943608284,0.688936162376404,1.0197055120011673
8.711577528770443,-0.108675601673126,-0.1613179438591,1.16075501003265,1.0197055120011673
8.712183222289521,-0.20208136339187602,-0.14934284620285002,0.219512334251404,1.0197055120011673
8.7127889158086,-0.44637335557937596,-0.14934284620285002,-0.111000361061096,1.0197055120011673
8.71339460932768,-0.278721988391876,-0.1613179438591,0.0111456350326535,1.0197055120011673
8.71400030284676,-0.106280582141876,0.0518387944221497,0.0063555959701534995,1.0197055120011673
8.714605996365838,-0.21166144151687602,-0.1852681391716,0.145266728782654,1.0197055120011673
8.715211689884919,-0.118255679798126,-0.1708980219841,0.368003545188904,1.0197055120011673
8.715817383403998,-0.16136603136062602,-0.08946735792160039,0.0135406545639035,1.0197055120011673
8.716423076923077,-0.24758673448562601,-0.30262409620285,0.0853912405014035,1.0197055120011673
8.717028770442155,-0.13262579698562602,-0.08946735792160039,0.0590460256576535,1.0197055120011673
8.717634463961236,-0.278721988391876,-0.0750972407341004,0.224302373313904,1.0197055120011673
8.718240157480315,-0.25716681261062596,-0.0750972407341004,0.384768681907654,1.0197055120011673
8.718845850999394,-0.314647281360626,-0.0655171626091004,0.0829962209701535,1.0197055120011673
8.719451544518474,-0.300277164173126,-0.2523286860466,0.106946416282654,1.0197055120011673
8.720057238037553,-0.118255679798126,-0.0679121821403504,-0.0343597360610965,1.0197055120011673
8.720662931556632,-0.127835757923126,0.0686039311408996,0.12850159206390402,1.0197055120011673
8.721268625075712,-0.245191714954376,-0.0583321040153503,0.24346252956390402,1.0197055120011673
8.721874318594791,-0.26674689073562596,-0.21161335401535,0.19795715847015402,1.0197055120011673
8.72248001211387,-0.309857242298126,-0.0391719477653503,0.12850159206390402,1.0197055120011673
8.72308570563295,-0.293092105579376,-0.14455280714035001,0.18837708034515402,1.0197055120011673
8.72369139915203,-0.178131168079376,-0.08228229932785039,0.102156377220154,1.0197055120011673
8.724297092671108,-0.175736148548126,0.0207035405158997,0.16203186550140403,1.0197055120011673
8.724902786190187,-0.235611636829376,-0.1517378657341,0.257832646751404,1.0197055120011673
8.725508479709267,-0.479903629016876,-0.10144245557785,0.123711553001404,1.0197055120011673
8.726114173228346,-0.199686343860626,-0.0008516352653503479,0.214722295188904,1.0197055120011673
8.726719866747425,-0.230821597766876,0.0542338139533997,-0.0607049509048465,1.0197055120011673
8.727325560266506,-0.470323550891876,0.0757889897346496,-0.010409540748596501,1.0197055120011673
8.727931253785584,-0.194896304798126,-0.08707233839035039,0.181192021751404,1.0197055120011673
8.728536947304663,-0.235611636829376,-0.0008516352653503479,0.027910771751403503,1.0197055120011673
8.729142640823744,-0.106280582141876,0.0662089116096496,0.200352178001404,1.0197055120011673
8.729748334342823,-0.158971011829376,-0.046357006359100304,0.16203186550140403,1.0197055120011673
8.730354027861901,-0.281117007923126,-0.1182075922966,0.209932256126404,1.0197055120011673
8.730959721380982,-0.130230777454376,-0.0798872797966004,0.0877862600326535,1.0197055120011673
8.73156541490006,-0.300277164173126,0.042258716297149695,-0.0439398141860965,1.0197055120011673
8.73217110841914,-0.27632696886062597,-0.09665241651535039,0.14766174831390402,1.0197055120011673
8.732776801938218,-0.34817755479812595,-0.14934284620285002,0.140476689720154,1.0197055120011673
8.733382495457299,-0.35536261339187597,-0.0703072016716004,-0.0223846384048465,1.0197055120011673
8.733988188976378,-0.22603155870437602,-0.055937084484100306,0.200352178001404,1.0197055120011673
8.734593882495457,-0.25716681261062596,-0.17808308057785002,0.25064758815765403,1.0197055120011673
8.735199576014537,-0.123045718860626,-0.0152217524528503,-0.16608581027984598,1.0197055120011673
8.735805269533616,-0.168551089954376,-0.0367769282341003,0.16203186550140403,1.0197055120011673
8.736410963052695,-0.37691778917312596,0.0111234623908997,0.334473271751404,1.0197055120011673
8.737016656571775,-0.33620245714187597,0.0254935795783997,0.0829962209701535,1.0197055120011673
8.737622350090854,-0.273931949329376,-0.10862751417159999,0.061441045188903504,1.0197055120011673
8.738228043609933,-0.340992496204376,-0.12060261182785,0.176401982688904,1.0197055120011673
8.738833737129013,-0.259561832141876,-0.0774922602653504,0.07581116237640351,1.0197055120011673
8.739439430648092,-0.290697086048126,-0.00324665479660035,-0.32894713840484596,1.0197055120011673
8.740045124167171,-0.338597476673126,0.0590238530158997,-0.26907165012359596,1.0197055120011673
8.740650817686252,-0.0655652501106262,0.037468677234649694,-0.309786982154846,1.0197055120011673
8.74125651120533,-0.264351871204376,0.006333423328399651,0.463804326438904,1.0197055120011673
8.74186220472441,-0.324227359485626,-0.1182075922966,0.38955872097015404,1.0197055120011673
8.74246789824349,-0.238006656360626,-0.19245319776535003,-0.134950556373596,1.0197055120011673
8.743073591762569,-0.410448062610626,0.0159135014533997,0.030305791282653503,1.0197055120011673
8.743679285281647,-0.20208136339187602,-0.1613179438591,0.0638360647201535,1.0197055120011673
8.744284978800726,-0.185316226673126,-0.0415669672966003,0.140476689720154,1.0197055120011673
8.744890672319807,-0.0823303868293762,0.10452922410965,0.07820618190765351,1.0197055120011673
8.745496365838886,-0.0607752110481262,0.0757889897346496,0.18837708034515402,1.0197055120011673
8.746102059357964,-0.269141910266876,0.11889934129715,-0.0223846384048465,1.0197055120011673
8.746707752877043,-0.400867984485626,-0.0703072016716004,0.190772099876404,1.0197055120011673
8.747313446396124,-0.130230777454376,-0.3385493891716,0.214722295188904,1.0197055120011673
8.747919139915203,-0.26674689073562596,-0.053542064952850306,0.231487431907654,1.0197055120011673
8.748524833434281,-0.379312808704376,0.14763957567215,0.150056767845154,1.0197055120011673
8.749130526953362,-0.144600894641876,-0.0104317133903503,0.0135406545639035,1.0197055120011673
8.74973622047244,-0.34817755479812595,-0.20921833448410002,0.267412724876404,1.0197055120011673
8.75034191399152,-0.391287906360626,-0.0391719477653503,0.116526494407654,1.0197055120011673
8.7509476075106,-0.362547671985626,-0.0655171626091004,0.0590460256576535,1.0197055120011673
8.751553301029679,-0.0967005040168762,-0.0727022212028504,0.324893193626404,1.0197055120011673
8.752158994548758,-0.28830206651687595,0.0709989506721496,0.26980774440765404,1.0197055120011673
8.752764688067838,-0.180526187610626,-0.048752025890350305,0.025515752220153502,1.0197055120011673
8.753370381586917,-0.22124151964187602,-0.18287311964035002,0.032700810813903504,1.0197055120011673
8.753976075105996,-0.38649786729812596,-0.27388386182785,0.185982060813904,1.0197055120011673
8.754581768625076,-0.273931949329376,-0.020011791515350298,0.19316711940765402,1.0197055120011673
8.755187462144155,-0.180526187610626,-0.046357006359100304,0.19795715847015402,1.0197055120011673
8.755793155663234,-0.209266421985626,-0.0391719477653503,0.0829962209701535,1.0197055120011673
8.756398849182315,-0.214056461048126,0.0254935795783997,0.0494659475326535,1.0197055120011673
8.757004542701393,-0.0751453282356262,-0.13257770948410003,0.353633428001404,1.0197055120011673
8.757610236220472,-0.238006656360626,-0.14934284620285002,0.224302373313904,1.0197055120011673
8.758215929739553,-0.228426578235626,0.15721965379715,0.07581116237640351,1.0197055120011673
8.758821623258632,-0.120650699329376,0.039863696765899695,0.324893193626404,1.0197055120011673
8.75942731677771,-0.0799353672981262,0.0183085209846497,0.303338017845154,1.0197055120011673
8.76003301029679,-0.209266421985626,-0.17329304151535002,0.23867249050140402,1.0197055120011673
8.76063870381587,-0.154180972766876,-0.35052448682785003,-0.0798651071548465,1.0197055120011673
8.761244397334949,-0.30746222276687596,-0.0679121821403504,-0.16608581027984598,1.0197055120011673
8.761850090854027,-0.261956851673126,0.0590238530158997,0.219512334251404,1.0197055120011673
8.762455784373106,-0.199686343860626,-0.0631221430778503,0.284177861595154,1.0197055120011673
8.763061477892187,-0.242796695423126,-0.2523286860466,0.444644170188904,1.0197055120011673
8.763667171411265,-0.293092105579376,-0.15892292432785002,0.0422808889389035,1.0197055120011673
8.764272864930344,-0.223636539173126,-0.0750972407341004,-0.0702850290298465,1.0197055120011673
8.764878558449425,-0.0440100743293762,-0.0391719477653503,0.0638360647201535,1.0197055120011673
8.765484251968504,0.039815609264373795,-0.053542064952850306,0.18837708034515402,1.0197055120011673
8.766089945487582,-0.051195132923126205,-0.1469478266716,0.0566510061264035,1.0197055120011673
8.766695639006663,-0.170946109485626,0.0302836186408997,-0.194826044654846,1.0197055120011673
8.767301332525742,-0.135020816516876,-0.0008516352653503479,0.102156377220154,1.0197055120011673
8.76790702604482,-0.331412418079376,-0.046357006359100304,0.0494659475326535,1.0197055120011673
8.768512719563901,-0.18771124620437601,0.0662089116096496,0.0494659475326535,1.0197055120011673
8.76911841308298,-0.0799353672981262,-0.15892292432785002,0.0829962209701535,1.0197055120011673
8.769724106602059,-0.118255679798126,-0.053542064952850306,-0.017594599342346497,1.0197055120011673
8.77032980012114,-0.28590704698562597,0.14763957567215,0.468594365501404,1.0197055120011673
8.770935493640218,-0.388892886829376,-0.08946735792160039,0.341658330345154,1.0197055120011673
8.771541187159297,-0.261956851673126,-0.14455280714035001,0.45901428737640404,1.0197055120011673
8.772146880678378,-0.16615607042312602,-0.051147045421600305,0.185982060813904,1.0197055120011673
8.772752574197456,-0.242796695423126,-0.09186237745285039,0.08060120143890351,1.0197055120011673
8.773358267716535,-0.259561832141876,-0.08707233839035039,0.346448369407654,1.0197055120011673
8.773963961235616,-0.0990955235481262,-0.09904743604660039,0.0518609670639035,1.0197055120011673
8.774569654754695,-0.503853824329376,-0.24993366651535,0.13808167018890402,1.0197055120011673
8.775175348273773,-0.331412418079376,-0.0703072016716004,-0.055914911842346496,1.0197055120011673
8.775781041792852,-0.36733771104812596,-0.0798872797966004,0.23388245143890402,1.0197055120011673
8.776386735311933,-0.410448062610626,-0.28825397901535,0.140476689720154,1.0197055120011673
8.776992428831011,-0.235611636829376,-0.20203327589035,-0.0774700876235965,1.0197055120011673
8.77759812235009,-0.412843082141876,-0.24753864698410002,0.102156377220154,1.0197055120011673
8.778203815869169,-0.154180972766876,0.03267863817214969,0.308128056907654,1.0197055120011673
8.77880950938825,-0.0799353672981262,0.12368938035965,0.102156377220154,1.0197055120011673
8.779415202907328,-0.302672183704376,-0.1661079829216,0.16203186550140403,1.0197055120011673
8.780020896426407,-0.333807437610626,-0.08228229932785039,0.245857549095154,1.0197055120011673
8.780626589945488,-0.34578253526687597,0.00872844285964965,-0.0032244821548465,1.0197055120011673
8.781232283464567,-0.21166144151687602,-0.0750972407341004,0.19795715847015402,1.0197055120011673
8.781837976983645,-0.0990955235481262,-0.0391719477653503,0.42069397487640403,1.0197055120011673
8.782443670502726,-0.25477179307937603,-0.24514362745285,0.07820618190765351,1.0197055120011673
8.783049364021805,-0.6259998204231261,-0.10623249464034999,0.030305791282653503,1.0197055120011673
8.783655057540884,-0.46553351182937597,-0.11102253370285,0.164426885032654,1.0197055120011673
8.784260751059964,-0.0368250157356262,-0.1182075922966,0.17400696315765402,1.0197055120011673
8.784866444579043,-0.204476382923126,-0.0224068110466003,-0.0128045602798465,1.0197055120011673
8.785472138098122,-0.204476382923126,-0.23556354932785,0.126106572532654,1.0197055120011673
8.786077831617202,-0.259561832141876,-0.10144245557785,0.123711553001404,1.0197055120011673
8.786683525136281,-0.20208136339187602,-0.08946735792160039,0.14766174831390402,1.0197055120011673
8.78728921865536,-0.127835757923126,-0.0176167719841003,0.19795715847015402,1.0197055120011673
8.78789491217444,-0.18771124620437601,-0.0224068110466003,0.164426885032654,1.0197055120011673
8.78850060569352,-0.182921207141876,0.0709989506721496,0.356028447532654,1.0197055120011673
8.789106299212598,-0.0727503087043762,-0.0583321040153503,0.236277470970154,1.0197055120011673
8.789711992731679,-0.15657599229812602,0.09494914598464961,0.26022766628265404,1.0197055120011673
8.790317686250757,-0.0990955235481262,-0.0224068110466003,0.18837708034515402,1.0197055120011673
8.790923379769836,-0.20687140245437602,-0.09904743604660039,0.284177861595154,1.0197055120011673
8.791529073288915,-0.0895154454231262,0.12368938035965,0.32010315456390404,1.0197055120011673
8.792134766807996,-0.249981754016876,0.1069242436409,0.135686650657654,1.0197055120011673
8.792740460327074,-0.27632696886062597,0.006333423328399651,0.0901812795639035,1.0197055120011673
8.793346153846153,-0.0296399571418762,-0.0727022212028504,0.358423467063904,1.0197055120011673
8.793951847365234,-0.25477179307937603,-0.0319868891716003,0.18837708034515402,1.0197055120011673
8.794557540884313,-0.29548712511062597,0.042258716297149695,-0.0439398141860965,1.0197055120011673
8.795163234403391,-0.33620245714187597,0.0614188725471497,0.226697392845154,1.0197055120011673
8.79576892792247,-0.35536261339187597,-0.053542064952850306,0.0422808889389035,1.0197055120011673
8.79637462144155,-0.331412418079376,-0.0104317133903503,0.0111456350326535,1.0197055120011673
8.79698031496063,-0.26674689073562596,-0.051147045421600305,0.121316533470154,1.0197055120011673
8.797586008479708,-0.16136603136062602,-0.10383747510909999,0.07820618190765351,1.0197055120011673
8.798191701998789,-0.0751453282356262,-0.13497272901535,0.15245178737640402,1.0197055120011673
8.798797395517868,-0.123045718860626,0.0686039311408996,0.0135406545639035,1.0197055120011673
8.799403089036947,-0.235611636829376,-0.0128267329216003,0.547630010032654,1.0197055120011673
8.800008782556027,-0.170946109485626,0.0542338139533997,0.0710211233139035,1.0197055120011673
8.800614476075106,-0.214056461048126,0.00872844285964965,-0.0678900094985965,1.0197055120011673
8.801220169594185,-0.173341129016876,-0.20921833448410002,0.772761845970154,1.0197055120011673
8.801825863113265,-0.259561832141876,-0.1421577876091,-0.000829462623596496,1.0197055120011673
8.802431556632344,-0.32662237901687596,0.14045451707839998,-0.0415447946548465,1.0197055120011673
8.803037250151423,0.025445492076873803,-0.0631221430778503,0.123711553001404,1.0197055120011673
8.803642943670503,-0.135020816516876,-0.10623249464034999,0.0566510061264035,1.0197055120011673
8.804248637189582,-0.127835757923126,0.2170951420784,0.36081848659515403,1.0197055120011673
8.804854330708661,-0.16615607042312602,-0.13976276807785,0.23388245143890402,1.0197055120011673
8.805460024227742,-0.264351871204376,-0.020011791515350298,0.104551396751404,1.0197055120011673
8.80606571774682,-0.36733771104812596,0.2170951420784,0.16921692409515401,1.0197055120011673
8.8066714112659,-0.331412418079376,-0.048752025890350305,0.19316711940765402,1.0197055120011673
8.80727710478498,-0.118255679798126,-0.17329304151535002,0.0877862600326535,1.0197055120011673
8.807882798304059,-0.16136603136062602,-0.15413288526535002,0.0925762990951535,1.0197055120011673
8.808488491823137,-0.33620245714187597,0.1596146733284,0.0207257131576535,1.0197055120011673
8.809094185342216,-0.149390933704376,0.09255412645339961,-0.0654949899673465,1.0197055120011673
8.809699878861297,-0.0583801915168762,-0.20203327589035,0.195562138938904,1.0197055120011673
8.810305572380376,-0.49666876573562596,-0.24993366651535,0.0638360647201535,1.0197055120011673
8.810911265899454,0.746346370983124,-0.36489460401535,-0.218776239967346,1.0197055120011673
8.811516959418533,-1.14571905870438,0.2218851811409,0.0398858694076535,1.0197055120011673
8.812122652937614,-1.4211463047981299,0.0733939702033996,0.0231207326889035,1.0197055120011673
8.812728346456693,1.24930047254562,-0.0631221430778503,0.18358704128265402,1.0197055120011673
8.813334039975771,-0.48708868761062596,-0.1517378657341,0.209932256126404,1.0197055120011673
8.813939733494852,0.487684261608124,0.40869670457839996,-0.21638122043609598,1.0197055120011673
8.81454542701393,3.38326287488937,-0.09665241651535039,0.253042607688904,1.0197055120011673
8.81515112053301,-3.67725470323563,-0.11581257276535,0.463804326438904,1.0197055120011673
8.81575681405209,-6.30938116807938,-1.18878132276535,-0.120580439186096,1.0197055120011673
8.816362507571169,4.319715511608121,1.0553519780159,0.176401982688904,1.0197055120011673
8.816968201090248,0.844542171764374,0.00393840379714965,0.0997613576889035,1.0197055120011673
8.817573894609328,0.7918517420768739,0.3560062748909,-0.999552607154846,1.0197055120011673
8.818179588128407,5.96748894910812,-0.47027546339035003,-0.501388544654846,1.0197055120011673
8.818785281647486,-4.74064337511063,-1.2534468501091,0.38955872097015404,1.0197055120011673
8.819390975166566,-10.4407898594856,-0.3385493891716,0.47098938503265403,1.0197055120011673
8.819996668685645,2.99287469129562,2.36542766160965,0.540444951438904,1.0197055120011673
8.820602362204724,4.36761590223312,1.16312785692215,-0.10381530246734601,1.0197055120011673
8.821208055723805,1.45048211317062,-1.6534151118278502,-1.8090692087173499,1.0197055120011673
8.821813749242883,6.827300960826871,-1.5839595454216,-0.977997431373596,1.0197055120011673
8.822419442761962,-3.13837530870438,-1.2342866938591002,1.3451715139389,1.0197055120011673
8.823025136281043,-13.5662903477669,1.0625370366096498,1.13201477565765,1.0197055120011673
8.823630829800122,-0.769700992298126,3.5413822514534,0.995498662376404,1.0197055120011673
8.8242365233192,7.758963558483121,1.4289750248909,0.118921513938904,1.0197055120011673
8.82484221683828,1.1750548670768701,-3.79935261182785,-2.1850872751236,1.0197055120011673
8.82544791035736,7.4380309412956205,-1.9791377680778501,-1.5240618844986,1.0197055120011673
8.826053603876439,1.0720690272331201,-0.1182075922966,1.05058411159515,1.0197055120011673
8.826659297395517,-17.549207828235602,1.10564738817215,1.4122320608139,1.0197055120011673
8.827264990914596,-6.12256964464188,3.27553508348465,1.35714661159515,1.0197055120011673
8.827870684433677,11.052115413951901,3.0815385014534,-0.0151995798110965,1.0197055120011673
8.828476377952756,1.78338982801437,-4.822025951671599,-2.93951842746735,1.0197055120011673
8.829082071471834,9.35644158582687,-2.78865436964035,-2.2401727243423504,1.0197055120011673
8.829687764990915,4.88254510145187,-1.6031197016716001,0.916463017845154,1.0197055120011673
8.830293458509994,-20.557352359485602,3.0096879155159,1.93195129909515,1.0197055120011673
8.830899152029072,-12.3017200352669,3.9150052983284,3.1605963186264,1.0197055120011673
8.831504845548153,13.3249889491081,1.8073881108284,0.777551885032654,1.0197055120011673
8.832110539067232,4.772374203014371,-3.3466939204216,-3.60533385715485,1.0197055120011673
8.83271623258631,7.52185662488937,-4.2136909907341,-2.7024114938736004,1.0197055120011673
8.833321926105391,9.28938103895187,-2.05098835401535,-0.360082392311096,1.0197055120011673
8.83392761962447,-20.0759534337044,2.1283207280159,2.7869732717513997,1.0197055120011673
8.834533313143549,-17.664168765735603,5.77114543504715,3.5150592092513997,1.0197055120011673
8.83513900666263,10.3767199061394,3.36175578660965,0.9332281545639041,1.0197055120011673
8.835744700181708,9.01155877332687,-2.5802876704216002,-3.0664544626236,1.0197055120011673
8.836350393700787,6.56384881238937,-6.7093013422966,-4.27593932590485,1.0197055120011673
8.836956087219868,12.158614437389401,-4.0843599360466,-0.657064814186096,1.0197055120011673
8.837561780738946,-15.6260071446419,2.8779618412971497,3.3521978811263997,1.0197055120011673
8.838167474258025,-23.630162418079397,8.45356731004715,3.8312017873763997,1.0197055120011673
8.838773167777106,6.168670589733121,2.2528617436408997,1.37151672878265,1.0197055120011673
8.839378861296185,12.8028746912956,-2.1779243891716003,-3.2532659860611,1.0197055120011673
8.839984554815263,4.2382848475456205,-6.3404683344840995,-5.7632464548111,1.0197055120011673
8.840590248334342,15.7798839686394,-4.5394136469841,-0.0750750680923465,1.0197055120011673
8.841195941853423,-9.54026251573563,1.2972489506721498,2.85163879909515,1.0197055120011673
8.841801635372502,-29.062066714954398,9.3996000248909,3.5485894826888997,1.0197055120011673
8.84240732889158,0.16675164442062398,2.0947904545784,2.9402545217514,1.0197055120011673
8.84301302241066,14.924861995983099,-1.8665718501091,-2.8173724313736,1.0197055120011673
8.84361871592974,6.3075817225456206,-4.58491901807785,-5.8901824899673505,1.0197055120011673
8.844224409448818,17.8012804530144,-7.104479564952849,-1.2510296579361,1.0197055120011673
8.844830102967897,-4.9226648594856295,-0.28825397901535,1.83615051784515,1.0197055120011673
8.845435796486978,-33.4545325352669,11.1240140873909,4.6455084280014,1.0197055120011673
8.846041490006057,-6.44110724229813,3.0743534428596497,3.87670715847015,1.0197055120011673
8.846647183525135,18.035992367076897,-2.8149995844841,-2.6856463571548503,1.0197055120011673
8.847252877044216,7.6775328944206205,-2.3312056391716003,-5.2650823923111005,1.0197055120011673
8.847858570563295,16.4624645350456,-6.3931587641715995,-3.08321959934235,1.0197055120011673
8.848464264082374,2.1067174647331197,-4.5058833735466,1.33319641628265,1.0197055120011673
8.849069957601454,-32.898888004016904,9.7349027592659,4.9760211233139,1.0197055120011673
8.849675651120533,-15.305074527454401,6.6644877202034,3.8647320608138997,1.0197055120011673
8.850281344639612,16.0169909022331,-1.90728718214035,-0.704965204811096,1.0197055120011673
8.850887038158692,11.7370909998894,-0.5397310297965999,-4.8986444040298505,1.0197055120011673
8.851492731677771,13.2339782069206,-9.8755171626091,-4.7429681344986,1.0197055120011673
8.85209842519685,9.31333123426437,-7.01346882276535,0.33926331081390404,1.0197055120011673
8.85270411871593,-28.9231555821419,10.6282450444221,4.8275299123763995,1.0197055120011673
8.85330981223501,-23.6948279454231,10.621059985828401,5.0622418264389,1.0197055120011673
8.853915505754088,14.1105553553581,-3.44009968214035,0.32010315456390404,1.0197055120011673
8.854521199273169,13.926138851451901,-1.2630269282341,-4.87469420871735,1.0197055120011673
8.855126892792248,9.37799676160812,-7.2888960688591,-6.04825377902985,1.0197055120011673
8.855732586311326,15.257769710826901,-8.4864058344841,-0.115790400123596,1.0197055120011673
8.856338279830405,-22.8829163243294,7.160256763172151,5.0574517873764,1.0197055120011673
8.856943973349486,-30.125455386829397,14.4483011967659,4.83471497097015,1.0197055120011673
8.857549666868564,8.269102718639369,-4.62802936964035,1.0960894826889,1.0197055120011673
8.858155360387643,16.9941588709831,-1.99350788526535,-4.13702819309235,1.0197055120011673
8.858761053906722,9.31093621473312,-3.9981392329216,-6.7978948923111,1.0197055120011673
8.859366747425803,18.8047936366081,-11.0418916743279,-1.2103143259048499,1.0197055120011673
8.859972440944881,-17.4629871251106,5.0023441655159,4.3916363576889,1.0197055120011673
8.86057813446396,-37.509300601673104,16.0936796147346,5.8669683889389,1.0197055120011673
8.86118382798304,3.44553338270187,-3.23412800245285,2.59776672878265,1.0197055120011673
8.86178952150212,20.6010582850456,-3.85683308057785,-4.220853876686101,1.0197055120011673
8.862395215021198,8.987608578014369,-0.75288776807785,-5.92850280246735,1.0197055120011673
8.863000908540279,19.614310238170603,-10.1030440180779,-2.3527386423111003,1.0197055120011673
8.863606602059358,-9.75581427354813,-1.7348457758903502,3.08156067409515,1.0197055120011673
8.864212295578437,-38.5655042149544,17.2887943608284,6.8010260061264,1.0197055120011673
8.864817989097517,-5.83756232042313,1.2038431889534,2.25288391628265,1.0197055120011673
8.865423682616596,21.1447277186394,-4.75736042432785,-2.5419451852798503,1.0197055120011673
8.866029376135675,10.9179943202019,1.04816691942215,-5.74648131809235,1.0197055120011673
8.866635069654755,17.971326839733102,-12.7519356196404,-3.7610101266861,1.0197055120011673
8.867240763173834,-0.0943054844856262,-5.39922565870285,1.9966168264389,1.0197055120011673
8.867846456692913,-38.8337464024544,17.957004810047202,6.7148053030014,1.0197055120011673
8.868452150211994,-14.385387027454401,6.834534106922151,4.5353375295639,1.0197055120011673
8.869057843731072,20.641773617076897,-8.36904987745285,-2.7622869821548504,1.0197055120011673
8.869663537250151,12.0005431483269,1.5918363530158999,-5.9835882516861005,1.0197055120011673
8.870269230769232,15.2649547694206,-8.9701997797966,-4.853139032936101,1.0197055120011673
8.87087492428831,7.86194939832687,-9.42764851026535,1.2493707326889,1.0197055120011673
8.87148061780739,-34.5682166172981,15.6170707280159,6.4753033498764,1.0197055120011673
8.87208631132647,-22.5571936680794,11.8113846928596,4.79639465847015,1.0197055120011673
8.872692004845549,15.739168636608099,-10.5628877680779,-1.0785882516861,1.0197055120011673
8.873297698364627,15.9834606287956,1.3044340092659,-5.92850280246735,1.0197055120011673
8.873903391883706,13.5261705897331,-6.285382885265349,-5.7680364938736,1.0197055120011673
8.874509085402787,13.1238073084831,-12.1364156001091,0.518889775657654,1.0197055120011673
8.875114778921866,-30.1901209141731,13.0903251225471,5.8669683889389,1.0197055120011673
8.875720472440944,-31.1505237462044,14.7836039311409,5.4262847951888995,1.0197055120011673
8.876326165960023,13.0687218592644,-9.6982857172966,0.176401982688904,1.0197055120011673
8.876931859479104,18.9269396327019,-1.0929805415153502,-5.30579772434235,1.0197055120011673
8.877537552998183,12.745394222545599,-1.40912311964035,-6.0698089548111005,1.0197055120011673
8.878143246517261,15.1691539881706,-13.0848433344841,-0.676224970436096,1.0197055120011673
8.878748940036342,-22.581143863391897,5.8142557866096505,4.9089605764389,1.0197055120011673
8.87935463355542,-34.450860660266905,18.0073002202034,6.79863098659515,1.0197055120011673
8.8799603270745,4.0107579920768694,-6.8194722407340995,0.358423467063904,1.0197055120011673
8.88056602059358,21.719532406139397,-1.8713618891716002,-4.5274163766861,1.0197055120011673
8.881171714112659,11.4496886561394,0.37756145067214997,-6.02430358371735,1.0197055120011673
8.881777407631738,16.6756212733269,-15.0104390376091,-1.74679870090485,1.0197055120011673
8.882383101150818,-12.9196350743294,1.4553202397346499,4.15931946315765,1.0197055120011673
8.882988794669897,-38.8097962071419,20.9148539311409,7.0165777639388995,1.0197055120011673
8.883594488188976,-2.19713263292313,-1.4306782954216,2.03733215847015,1.0197055120011673
8.884200181708056,22.6032946131706,-7.55953327589035,-3.9430316110611003,1.0197055120011673
8.884805875227135,11.0209801600456,2.90670207567215,-5.78001159152985,1.0197055120011673
8.885411568746214,16.1367418787956,-11.6047212641716,-3.6843695016861,1.0197055120011673
8.886017262265295,-5.09031622667313,-5.11182331495285,3.96292786159515,1.0197055120011673
8.886622955784373,-36.817139957141904,21.3172172123909,6.96628235378265,1.0197055120011673
8.887228649303452,-10.263558414173099,3.4886918217659,2.16187317409515,1.0197055120011673
8.887834342822533,19.9831432459831,-11.6741768305779,-2.5251800485611002,1.0197055120011673
8.888440036341612,14.316527035045599,3.8263895756721498,-5.8159368844986,1.0197055120011673
8.88904572986069,15.5355919764519,-9.595299877452849,-4.5513665719986,1.0197055120011673
8.88965142337977,0.547559749889374,-7.849330639171599,2.6360870412826496,1.0197055120011673
8.89025711689885,-36.8291150547981,19.6239384037972,6.9016168264389,1.0197055120011673
8.890862810417929,-17.4558020665169,7.0620609623909,3.6396002248764,1.0197055120011673
8.891468503937007,18.9916051600456,-12.3591524165154,-2.3910589548111,1.0197055120011673
8.892074197456086,15.4924816248894,2.0708402592659,-5.91892272434235,1.0197055120011673
8.892679890975167,16.8576427577019,-4.15860554151535,-3.9957220407486003,1.0197055120011673
8.893285584494246,4.877755062389371,-11.4753902094841,1.3882818655014,1.0197055120011673
8.893891278013324,-32.3360584141731,14.1896390873909,5.2346832326889,1.0197055120011673
8.894496971532405,-23.311624820423102,11.9191605717659,5.0814019826889,1.0197055120011673
8.895102665051484,12.1514293787956,-11.5520308344841,-2.0030657907486,1.0197055120011673
8.895708358570563,18.366505062389397,2.4205131108284,-5.58361998996735,1.0197055120011673
8.896314052089643,15.018267757701901,-3.6724165766716,-3.9861419626236003,1.0197055120011673
8.896919745608722,9.900111019420619,-13.8225093501091,-0.199616083717346,1.0197055120011673
8.8975254391278,-26.185648257923102,10.3647928959846,5.22749817409515,1.0197055120011673
8.898131132646881,-28.640543277454398,15.8757328373909,5.8621783498764,1.0197055120011673
8.89873682616596,7.79488885145187,-7.9307613032341,-0.7624456735610959,1.0197055120011673
8.899342519685039,17.9976720545769,-2.6569282954216003,-4.62082213840485,1.0197055120011673
8.89994821320412,15.6673180506706,0.3320560795784,-5.2507122751236,1.0197055120011673
8.900553906723198,11.1910265467644,-14.100331615734099,-1.55040709934235,1.0197055120011673
8.901159600242277,-20.1166687657356,5.19155070848465,4.84908508815765,1.0197055120011673
8.901765293761358,-29.5099353672981,19.020393481922202,6.72678040065765,1.0197055120011673
8.902370987280436,0.0470006678581238,-5.5620869868278495,0.372793584251404,1.0197055120011673
8.902976680799515,17.8300206873894,-5.600407299327849,-5.22436706027985,1.0197055120011673
8.903582374318596,16.965418636608103,1.4625052983284,-4.89385436496735,1.0197055120011673
8.904188067837675,12.984896175670599,-12.2417964594841,-1.8354144235611,1.0197055120011673
8.904793761356753,-14.7518250157356,1.88163371629715,3.7904864553451496,1.0197055120011673
8.905399454875832,-32.1971472813606,18.6108451420784,7.10998352565765,1.0197055120011673
8.906005148394913,-4.49156134386063,-2.06056843214035,1.01705383815765,1.0197055120011673
8.906610841913992,16.745076839733102,-8.0840425532341,-4.2639642282486,1.0197055120011673
8.90721653543307,17.2360558436394,2.7989261967659,-5.0399505563736,1.0197055120011673
8.90782222895215,16.4480944178581,-9.6312251704216,-1.9743255563736,1.0197055120011673
8.90842792247123,-9.58576788682938,-3.8879683344841003,2.68877747097015,1.0197055120011673
8.909033615990309,-32.1085315587044,18.0863358647347,5.47658020534515,1.0197055120011673
8.909639309509387,-10.4671350743294,1.8744486577033999,2.6241119436263998,1.0197055120011673
8.910245003028468,15.4948766444206,-8.42653034620285,-2.8844329782486002,1.0197055120011673
8.910850696547547,16.1367418787956,3.15578410692215,-5.4039935251236,1.0197055120011673
8.911456390066625,17.2168956873894,-8.119967846202849,-3.75861510715485,1.0197055120011673
8.912062083585706,-3.36350714464188,-7.437387279796599,2.20977356472015,1.0197055120011673
8.912667777104785,-31.006822574329398,15.5068998295784,5.744822392845149,1.0197055120011673
8.913273470623864,-13.7243616368294,6.666882739734651,3.96292786159515,1.0197055120011673
8.913879164142944,11.385023128795599,-8.33551960401535,-2.8796429391861,1.0197055120011673
8.914484857662023,14.644644710826901,0.6410135991096501,-5.5189544626236,1.0197055120011673
8.915090551181102,20.007093441295602,-4.40768757276535,-2.8556927438736004,1.0197055120011673
8.915696244700182,-0.30506720323562597,-10.560492748546599,0.0949713186264035,1.0197055120011673
8.916301938219261,-28.8584900547981,13.0472147709846,5.9651641897201495,1.0197055120011673
8.91690763173834,-16.605570132923102,11.0665336186409,5.1436724905014,1.0197055120011673
8.91751332525742,6.55905877332687,-8.76662311964035,-2.5587103219986003,1.0197055120011673
8.9181190187765,15.2649547694206,-1.8617818110466,-5.332142939186101,1.0197055120011673
8.918724712295578,21.480030453014397,-2.6186079829216,-3.38978209934235,1.0197055120011673
8.919330405814659,3.06951531629562,-10.1245991938591,-0.355292353248596,1.0197055120011673
8.919936099333738,-26.173673160266897,10.5108890873909,5.23228821315765,1.0197055120011673
8.920541792852816,-19.9226721837044,12.1011820561409,5.96995422878265,1.0197055120011673
8.921147486371895,2.94257928113937,-6.8338423579216,-1.59351745090485,1.0197055120011673
8.921753179890976,12.9106505702019,-3.0976118891716,-4.8124237009048505,1.0197055120011673
8.922358873410055,22.5985045741081,-0.7840230219841,-3.4592376657486,1.0197055120011673
8.922964566929133,8.89420281629562,-10.0383784907341,-0.374452509498596,1.0197055120011673
8.923570260448212,-23.1343933751106,6.0274125248909005,3.34980286159515,1.0197055120011673
8.924175953967293,-24.221732242298103,13.2460013920784,5.7280572561264,1.0197055120011673
8.924781647486371,-0.513433902454376,-4.6591646235466,-0.13016051731109599,1.0197055120011673
8.92538734100545,13.461505062389401,-3.5095552485466,-4.3166546579361,1.0197055120011673
8.92599303452453,19.4897692225456,-0.5229658930778499,-4.1106829782486,1.0197055120011673
8.92659872804361,13.0112413905144,-8.9462495844841,-1.5432220407486,1.0197055120011673
8.927204421562688,-18.0066565587044,1.5750712162971499,3.52703430690765,1.0197055120011673
8.927810115081769,-25.701854312610603,13.7034501225471,5.4167047170639,1.0197055120011673
8.928415808600848,-2.94677374620438,-0.8079732172966,1.8960260061264,1.0197055120011673
8.929021502119927,9.967171566295619,-4.6591646235466,-4.2639642282486,1.0197055120011673
8.929627195639007,18.119818050670602,-0.1852681391716,-4.759733271217351,1.0197055120011673
8.930232889158086,17.9785118983269,-7.954711498546599,-1.6677630563736,1.0197055120011673
8.930838582677165,-14.9434265782356,-1.95039753370285,2.2888092092514,1.0197055120011673
8.931444276196245,-26.918524234485602,14.3117850834846,6.17592590847015,1.0197055120011673
8.932049969715324,-4.49156134386063,1.7786478764534,2.88037903347015,1.0197055120011673
8.932655663234403,6.9590270350456205,-5.7704536860466,-3.72508483371735,1.0197055120011673
8.933261356753484,16.1415319178581,-1.5216890376091001,-5.65547057590485,1.0197055120011673
8.933867050272562,21.966219417858103,-6.2973579829216,-1.64620788059235,1.0197055120011673
8.934472743791641,-11.6622498204231,-3.23412800245285,1.68765930690765,1.0197055120011673
8.935078437310722,-27.8046814610481,14.3381302983284,5.58196106472015,1.0197055120011673
8.9356841308298,-7.09255255479813,3.3689408452034,3.7809063772201497,1.0197055120011673
8.93628982434888,4.95439568738937,-5.8423042719841,-3.22213073215485,1.0197055120011673
8.936895517867958,13.6171813319206,-1.2247066157341,-5.4902142282486,1.0197055120011673
8.937501211387039,24.8522179530144,-5.8231441157341,-2.5251800485611002,1.0197055120011673
8.938106904906117,-5.2483875157356294,-4.2136909907341,1.7427447561264,1.0197055120011673
8.938712598425196,-28.983031070423102,12.6137162358284,5.0478717092514,1.0197055120011673
8.939318291944275,-11.2694666172981,4.559265552234651,4.02040833034515,1.292603343303604
8.939923985463356,5.277723324108121,-5.2722896235466,-2.6928314157486004,1.292603343303604
8.940529678982434,10.8365636561394,-1.0570552485466,-4.8435589548111,1.292603343303604
8.941135372501513,24.4306945155144,-4.71425007276535,-2.4221942087173503,1.292603343303604
8.941741066020594,2.24802361707687,-5.3058198969841,0.545234990501404,1.292603343303604
8.942346759539673,-28.7698743321419,9.4187601811409,3.81922668972015,1.292603343303604
8.942952453058751,-13.9423084141731,7.232107349109651,4.81076477565765,1.292603343303604
8.943558146577832,3.4575084803581198,-4.395712475109099,-1.0306878610610999,1.292603343303604
8.94416384009691,7.845184261608121,-0.95406940870285,-5.53571959934235,1.292603343303604
8.94476953361599,24.3109435389519,-3.9262886469841,-2.66648620090485,1.292603343303604
8.94537522713507,8.67625603895187,-7.3128462641716,-0.33852721652984596,1.292603343303604
8.945980920654149,-27.8406067540169,7.05008586473465,3.7306109670638996,1.292603343303604
8.946586614173228,-17.2282752110481,9.62233684129715,5.49095032253265,1.292603343303604
8.947192307692308,3.42637322645187,-2.6952486079216,-0.149320673561096,1.292603343303604
8.947798001211387,5.656136410045621,-2.2210347407341002,-4.86990416965485,1.292603343303604
8.948403694730466,22.2895470545769,-4.781310619640349,-3.99811706027985,1.292603343303604
8.949009388249547,14.766790706920599,-6.78833698682785,-0.709755243873596,1.292603343303604
8.949615081768625,-25.9293811680794,6.05854777879715,3.1701763967514,1.292603343303604
8.950220775287704,-19.9969177891731,10.635430103015901,5.82625305690765,1.292603343303604
8.950826468806785,2.89228387098312,-2.57789265089035,1.5942535451889,1.292603343303604
8.951432162325863,2.06600213270187,-1.40433308057785,-4.6806976266861,1.292603343303604
8.952037855844942,19.5903600428581,-4.3190718501091,-5.118986200904851,1.292603343303604
8.952643549364023,21.5902013514519,-7.7583198969841,-0.419957880592346,1.292603343303604
8.953249242883102,-21.409979312610602,5.203525806140901,2.81810852565765,1.292603343303604
8.95385493640218,-25.1318396641731,11.476081958484599,4.8035797170639,1.292603343303604
8.95446062992126,-0.329017398548126,-3.4233345454216,1.9870367483139,1.292603343303604
8.95506632344034,4.64304314832687,-0.9660445063591,-4.35736998996735,1.292603343303604
8.955672016959419,13.9093737147331,-3.10000690870285,-4.9297796579361,1.292603343303604
8.956277710478497,24.3133385584831,-7.6481489985466,-0.752865595436096,1.292603343303604
8.956883403997576,-13.1782971837044,2.5258939702034,2.7702081350326497,1.292603343303604
8.957489097516657,-28.1088489415169,10.8845121342659,4.7221490530014,1.292603343303604
8.958094791035736,-2.2043176915168803,-1.3013472407341,2.1546881155013997,1.292603343303604
8.958700484554814,3.7736510584831198,-0.9157490962028499,-2.9371234079361,1.292603343303604
8.959306178073895,10.055787288951901,-1.3252974360466,-4.7238079782486,1.292603343303604
8.959911871592974,27.1705968592644,-8.43611042432785,-1.4905316110611,1.292603343303604
8.960517565112053,-6.34770148057938,-0.47985554151535004,1.24218567409515,1.292603343303604
8.961123258631133,-32.0773963047981,11.4688968998909,4.7556793264389,1.292603343303604
8.961728952150212,-4.74543341417313,0.7679496342659,4.0946539358139,1.292603343303604
8.96233464566929,6.19741082410812,-1.9048921626091,-1.8306243844985999,1.292603343303604
8.962940339188371,5.52680535535812,-1.4115181391716,-6.07220397434235,1.292603343303604
8.96354603270745,27.685526058483102,-8.53670124464035,-2.67127623996735,1.292603343303604
8.964151726226529,0.8900475428581239,-1.3755928462028502,1.96548157253265,1.292603343303604
8.96475741974561,-34.2616541172981,11.6796586186409,3.8910772756576497,1.292603343303604
8.965363113264688,-6.90813605089188,2.94502238817215,4.9185406545639,1.292603343303604
8.965968806783767,6.30997674207687,-3.72271198682785,-1.5911224313735999,1.292603343303604
8.966574500302848,-0.199686343860626,0.5595829350471501,-6.06741393527985,1.292603343303604
8.967180193821926,27.6807360194206,-8.7211177485466,-2.3024432321548503,1.292603343303604
8.967785887341005,11.308382503795599,-4.35978718214035,0.463804326438904,1.292603343303604
8.968391580860086,-34.0820276524544,13.2364213139534,3.8982623342514,1.292603343303604
8.968997274379165,-14.3758069493294,4.2407279545784,4.92572571315765,1.292603343303604
8.969602967898243,7.24163933973312,-6.3692085688591,-1.1983392282486,1.292603343303604
8.970208661417322,0.7511364100456239,2.77737102098465,-5.4973992868423505,1.292603343303604
8.970814354936403,20.5962682459831,-7.6146187251091,-2.9035931344986,1.292603343303604
8.971420048455482,18.776053402233103,-6.58236530714035,0.13808167018890402,1.292603343303604
8.97202574197456,-27.8094715001106,11.6676835209846,3.4312335256576496,1.292603343303604
8.97263143549364,-20.2220496251106,6.6860428959846505,4.0036431936264,1.292603343303604
8.97323712901272,5.835762874889371,-6.8434224360466,0.262622685813904,1.292603343303604
8.973842822531799,0.897232601451874,4.12816203660965,-4.4843060251236,1.292603343303604
8.974448516050877,16.6492760584831,-5.1381685297966,-4.71183288059235,1.292603343303604
8.975054209569958,23.4774767420769,-10.6083931391716,0.262622685813904,1.292603343303604
8.975659903089037,-21.2111926915169,9.56006633348465,2.81810852565765,1.292603343303604
8.976265596608116,-27.342442691516897,9.610361743640901,4.3628961233139,1.292603343303604
8.976871290127196,5.3423888514518705,-6.2734077876090995,1.6661041311264,1.292603343303604
8.977476983646275,4.05626336317062,3.3354105717659,-3.9478216501236,1.292603343303604
8.978082677165354,8.657095882701869,-4.316676830577849,-5.8303070016861005,1.292603343303604
8.978688370684434,29.1273278162956,-10.9748311274529,0.030305791282653503,1.292603343303604
8.979294064203513,-14.4189173008919,6.427380786609651,2.2648590139388998,1.292603343303604
8.979899757722592,-33.5958386876106,12.6927518803596,4.41319153347015,1.292603343303604
8.980505451241672,5.17473748426437,-4.7597554438591,3.2468170217514,1.292603343303604
8.981111144760751,5.0166661952018705,-0.60439655714035,-3.0808245798111003,1.292603343303604
8.98171683827983,1.95583123426437,0.1931449467659,-5.9452679391861,1.292603343303604
8.98232253179891,30.624215023326897,-12.7591206782341,-0.659459833717346,1.292603343303604
8.98292822531799,-2.3144885899543803,2.0756302983284,2.5618414358139,1.292603343303604
8.983533918837068,-37.6194715001106,16.431377368640902,3.3857281545638997,1.292603343303604
8.984139612356149,-2.5971008946418803,-4.0412495844841,3.7737213186263996,1.292603343303604
8.984745305875228,10.628196956920599,-4.3142818110466,-2.4245892282486,1.292603343303604
8.985350999394306,-1.0618933751106299,3.0432181889534,-6.30212584934235,1.292603343303604
8.985956692913385,26.8544542811394,-10.759279369640401,-1.8162542673111,1.292603343303604
8.986562386432466,6.76503045301437,-1.83064655714035,2.5139410451888997,1.292603343303604
8.987168079951545,-36.5560828282356,16.3810819584846,3.98208801784515,1.292603343303604
8.987773773470623,-8.02421515245438,-0.1948482172966,2.8827740530013997,1.292603343303604
8.988379466989702,10.1012926600456,-8.18702839307785,-1.8066741891861,1.292603343303604
8.988985160508783,-1.36366583604813,6.999790454578401,-5.43512877902985,1.292603343303604
8.989590854027862,22.8212413905144,-8.7067476313591,-2.2473577829361,1.292603343303604
8.99019654754694,15.1571788905144,-9.2001216547966,1.35235657253265,1.292603343303604
8.99080224106602,-33.4521375157356,16.9199613530159,3.8791021780014,1.292603343303604
8.9914079345851,-18.5191907383919,3.4791117436409,3.6156500295639,1.292603343303604
8.992013628104178,13.6674767420769,-9.901862377452849,-0.434327997779846,1.292603343303604
8.992619321623259,1.3163610194206201,6.86327434129715,-5.11419616184235,1.292603343303604
8.993225015142338,14.3117369959831,-7.57390339307785,-4.9249896188736,1.292603343303604
8.993830708661417,23.0248180506706,-10.8071797602654,1.5224029592514001,1.292603343303604
8.994436402180497,-28.147169254016898,14.776418872547099,3.8982623342514,1.292603343303604
8.995042095699576,-25.814420230579397,8.36255656785965,4.05393860378265,1.292603343303604
8.995647789218655,13.8518932459831,-10.1437593501091,0.801502080345154,1.292603343303604
8.996253482737735,1.41695183973312,4.631116138172151,-5.0878509469986,1.292603343303604
8.996859176256814,7.39731560926437,-4.0412495844841,-5.811146845436101,1.292603343303604
8.997464869775893,28.842320492076897,-13.820114330577901,1.0194488576889,1.292603343303604
8.998070563294974,-18.5335608555794,11.6533134037971,3.44081360378265,1.292603343303604
8.998676256814052,-34.1634583165169,13.655549731922099,4.2000347951889,1.292603343303604
8.999281950333131,9.35165154676437,-10.9101656001091,1.3930719045639,1.292603343303604
8.999887643852212,8.45351922254562,0.28655070848465,-4.08912780246735,1.292603343303604
9.00049333737129,0.236207210826874,0.36798137254714997,-5.7345062204361,1.292603343303604
9.00109903089037,28.799210140514397,-13.0273628657341,-0.32894713840484596,1.292603343303604
9.001704724409448,-6.76922491807938,5.0741947514534,3.7162408498764,1.292603343303604
9.002310417928529,-37.6913220860481,17.267239185047202,3.9772979787826497,1.292603343303604
9.002916111447608,3.21561150770187,-7.73197468214035,1.7331646780014,1.292603343303604
9.003521804966686,11.4736388514519,-6.18479206495285,-3.12632995090485,1.292603343303604
9.004127498485765,-1.1002136876106299,6.793818774890901,-6.1416595407486,1.292603343303604
9.004733192004846,25.1372252772331,-11.4969453852654,-0.889381708717346,1.292603343303604
9.005338885523924,3.34254754285812,-3.1742525141716,3.09114075222015,1.292603343303604
9.005944579043003,-38.1128455235481,20.5747611577034,4.041963506126399,1.292603343303604
9.006550272562084,-6.84107550401688,-4.129865307140349,2.4229303030014,1.292603343303604
9.007155966081163,17.418077328014398,-9.595299877452849,-1.9360052438736,1.292603343303604
9.007761659600241,-1.7803992344856299,7.45723918504715,-6.1033392282486005,1.292603343303604
9.008367353119322,20.155584652233102,-9.65278034620285,-2.7407318063736,1.292603343303604
9.0089730466384,12.2424401209831,-6.36202351026535,3.1989166311263997,1.292603343303604
9.00957874015748,-37.384759586048105,19.6071732670784,4.8131597951889,1.292603343303604
9.01018443367656,-13.001065738391901,1.4241849858284,3.4216534475326497,1.292603343303604
9.010790127195639,17.9473766444206,-12.0358247797966,-1.6893182321548499,1.292603343303604
9.011395820714718,-2.0941467930793802,7.90750285692215,-4.6567474313736,1.292603343303604
9.012001514233798,15.0470079920769,-7.70802448682785,-3.8041204782486,1.292603343303604
9.012607207752877,21.149517757701897,-11.8945186274529,1.8241754201889,1.292603343303604
9.013212901271956,-31.0858582188606,20.3592093998909,4.5880279592513995,1.292603343303604
9.013818594791037,-25.0240637852669,6.6525126225471505,3.39770325222015,1.292603343303604
9.014424288310115,18.021622249889397,-14.4691646235466,-0.0822601266860965,1.292603343303604
9.015029981829194,3.9628576014518697,5.06700969285965,-5.31058776340485,1.292603343303604
9.015635675348275,5.66571648817062,-4.4196626704216,-4.1490032907486,1.292603343303604
9.016241368867354,25.721610042858103,-11.9807393305779,1.1775201467514,1.292603343303604
9.016847062386432,-22.1883606602669,14.6686429936409,5.0047613576889,1.292603343303604
9.017452755905511,-30.118270328235603,11.8089896733284,3.7904864553451496,1.292603343303604
9.018058449424592,13.4950353358269,-13.4584663813591,-0.42714293918609597,1.292603343303604
9.01866414294367,6.61893426160812,0.28655070848465,-4.014882196998601,1.292603343303604
9.01926983646275,3.54612420301437,2.82527141160965,-5.81833190402985,1.292603343303604
9.019875529981828,24.967178890514397,-13.9829756587029,1.3427764944076501,1.292603343303604
9.020481223500909,-12.3568054844856,7.2153422123909,3.53661438503265,1.292603343303604
9.021086917019987,-35.1933167149544,17.597751880359702,4.21200989284515,1.292603343303604
9.021692610539066,5.59865594129562,-11.3173189204216,0.662590947532654,1.292603343303604
9.022298304058147,13.5237755702019,-3.2269429438591,-4.2591741891861,1.292603343303604
9.022903997577226,0.41343865613937403,3.5964677006721497,-4.7956585641861,1.292603343303604
9.023509691096304,23.9277404139519,-12.368732494640401,-0.16608581027984598,1.292603343303604
9.024115384615385,-3.66288458604813,2.10197551317215,3.89586731472015,1.292603343303604
9.024721078134464,-37.1117273594856,20.2825687748909,4.89219543972015,1.292603343303604
9.025326771653543,0.705631038951874,-6.8721626704215995,1.2158404592514,1.292603343303604
9.025932465172623,15.4254210780144,-8.76183308057785,-3.6316790719986,1.292603343303604
9.026538158691702,-2.6330261876106302,8.532602954578401,-5.87581237277985,1.292603343303604
9.02714385221078,20.8836705897331,-13.3914058344841,-1.40670592746735,1.292603343303604
9.027749545729861,7.964935238170621,-4.9633321040153495,3.7449810842513997,1.292603343303604
9.02835523924894,-37.1548377110481,25.2187040287972,4.00124817409515,1.292603343303604
9.028960932768019,-11.1832459141731,-3.9167085688591,3.1055108694076496,1.292603343303604
9.0295666262871,21.269268734264397,-12.4118428462029,-1.9599554391861,1.292603343303604
9.030172319806178,-1.1529041172981298,7.68716106004715,-5.7728265329361,1.292603343303604
9.030778013325257,13.540540706920599,-9.243232006359099,-3.76819518527985,1.292603343303604
9.031383706844338,15.7463536952019,-8.045722240734099,3.19652161159515,1.292603343303604
9.031989400363416,-33.248560855579406,21.712395435047203,5.9986944631576495,1.292603343303604
9.032595093882495,-17.199534976673103,2.6648051030159,2.10918274440765,1.292603343303604
9.033200787401576,18.7377330897331,-15.7193648188591,-1.85696959934235,1.292603343303604
9.033806480920655,0.739161312389374,7.1291215092659,-5.118986200904851,1.292603343303604
9.034412174439733,10.3431896327019,-3.7251070063591,-3.0377142282486003,1.292603343303604
9.035017867958812,20.5531578944206,-13.714733471202901,1.8098053030014,1.292603343303604
9.035623561477893,-26.602381656360603,18.316257739734702,4.1665045217514,1.292603343303604
9.036229254996972,-26.8538587071419,9.5337211186409,3.4000982717514,1.292603343303604
9.03683494851605,16.402589046764398,-15.8726460688591,-1.04266295871735,1.292603343303604
9.03744064203513,7.818839046764371,3.16057414598465,-4.5322064157486,1.292603343303604
9.03804633555421,4.91607537488937,-1.0522652094841,-4.43880065402985,1.292603343303604
9.038652029073289,21.994959652233103,-12.8645015376091,1.03621399440765,1.292603343303604
9.039257722592367,-19.5298889805794,12.247278247547099,4.9520709280014,1.8435955390397452
9.039863416111448,-30.362562320423102,14.8698246342659,4.00603821315765,1.8435955390397452
9.040469109630527,11.4856139491081,-13.2524947016716,-0.393612665748596,1.8435955390397452
9.041074803149606,9.600733578014369,-0.8965889399528499,-3.4736077829361003,1.8435955390397452
9.041680496668686,2.38214471082687,3.76411906785965,-5.837492060279851,1.8435955390397452
9.042286190187765,21.973404476451897,-15.762475170421599,1.1847052053451501,1.8435955390397452
9.042891883706844,-8.37388800401688,6.42259074754715,4.0946539358139,1.8435955390397452
9.043497577225924,-34.8580139805794,21.3483524662972,4.0707037405014,1.8435955390397452
9.044103270745003,2.4755504725456197,-11.9998994868279,1.44815735378265,1.8435955390397452
9.044708964264082,17.796490413951897,-6.0674361079215995,-4.613637079811101,1.8435955390397452
9.045314657783162,-1.5935877110481298,5.71845500535965,-5.7967767282486005,1.8435955390397452
9.045920351302241,18.558106624889398,-12.7351704829216,-1.06661315402985,1.8435955390397452
9.04652604482132,0.976268245983124,0.28176066942215,4.94967590847015,1.8435955390397452
9.0471317383404,-35.3010925938606,23.283528247547203,4.84429504909515,1.8435955390397452
9.04773743185948,-3.73952521104813,-6.97993854932785,1.1104595998764,1.8435955390397452
9.048343125378558,18.388060238170603,-11.889728588390401,-3.3921771188736,1.8435955390397452
9.048948818897639,-1.12895392198563,9.23434367723465,-5.64589049777985,1.8435955390397452
9.049554512416718,15.803834163951901,-10.0575386469841,-1.72284850559235,1.8435955390397452
9.050160205935796,8.88701775770187,-7.0493941157341,3.39770325222015,1.8435955390397452
9.050765899454875,-33.6006287266731,24.3732621342659,5.086192021751399,1.8435955390397452
9.051371592973956,-13.360318668079401,-2.0054829829216,1.75950989284515,1.8435955390397452
9.051977286493035,20.0046984217644,-14.1626021235466,-2.3096282907486003,1.8435955390397452
9.052582980012113,2.23844353895187,6.973445239734651,-5.5333245798111,1.8435955390397452
9.053188673531192,12.170589535045599,-6.30454304151535,-3.65802428684235,1.8435955390397452
9.053794367050273,13.1357824061394,-8.412160229015349,3.24442200222015,1.8435955390397452
9.054400060569352,-30.1853308751106,19.9831913334847,5.10774719753265,1.8435955390397452
9.05500575408843,-17.4342468907356,4.5999808842659,2.92827942409515,1.8435955390397452
9.055611447607511,16.3930089686394,-15.6738594477654,-2.1659271188736002,1.8435955390397452
9.05621714112659,3.34973260145187,6.05854777879715,-5.09024596652985,1.8435955390397452
9.056822834645669,9.73006463270187,-3.0329463618278503,-4.4124554391861,1.8435955390397452
9.057428528164749,16.4552794764519,-14.2895381587029,2.0205670217514,1.8435955390397452
9.058034221683828,-23.009852359485603,18.5030692631722,5.9196588186264,1.8435955390397452
9.058639915202907,-24.7965369297981,11.432971606922099,3.2252618459701496,1.8435955390397452
9.059245608721987,13.1477575037956,-16.6318672602653,-1.0929583688736,1.8435955390397452
9.059851302241066,9.65581902723312,2.1379008061409,-4.939359736061101,1.8435955390397452
9.060456995760145,2.95934441785812,-0.47985554151535004,-5.1453314157486005,1.8435955390397452
9.061062689279225,19.6430504725456,-13.5351070063591,1.2014703420639001,1.8435955390397452
9.061668382798304,-15.2547791172981,12.2520682866096,5.1340924123764,1.8435955390397452
9.062274076317383,-29.6344763829231,17.1953885991097,4.1856646780014,1.8435955390397452
9.062879769836464,8.48225945692062,-14.802072338390401,0.387163701438904,1.8435955390397452
9.063485463355542,11.8233117030144,-3.70355183057785,-4.972890009498601,1.8435955390397452
9.064091156874621,3.06951531629562,5.2274760014534,-5.4375237985611005,1.8435955390397452
9.064696850393702,17.837205745983102,-13.647672924327901,0.15724182643890403,1.8435955390397452
9.06530254391278,-7.5308411290168795,4.6239310795784005,4.0036431936264,1.8435955390397452
9.06590823743186,-31.3612854649544,21.7483207280159,5.1245123342514,1.8435955390397452
9.066513930950938,-0.264351871204376,-11.2167281001091,0.37997864284515404,1.8435955390397452
9.067119624470019,16.6516710780144,-7.07573933057785,-4.23761901340485,1.8435955390397452
9.067725317989098,2.20251824598312,5.1220951420784,-4.9345696969986,1.8435955390397452
9.068331011508176,16.4337243006706,-10.9389058344841,-0.939677118873596,1.8435955390397452
9.068936705027255,-0.6667151524543761,-0.0224068110466003,3.8144366506576497,1.8435955390397452
9.069542398546336,-31.061908023548103,22.0405131108284,5.74961243190765,1.8435955390397452
9.070148092065415,-4.5370667149543795,-5.660282787609099,1.3882818655014,1.8435955390397452
9.070753785584493,15.044612972545599,-11.3388740962029,-3.0377142282486003,1.8435955390397452
9.071359479103574,2.2959240077018697,7.998513599109651,-4.36216002902985,1.8435955390397452
9.071965172622653,15.4924816248894,-10.6994038813591,-2.1850872751236,1.8435955390397452
9.072570866141731,4.825064632701871,-6.8721626704215995,3.6922906545639,1.8435955390397452
9.073176559660812,-29.5865759922981,24.1169950444222,5.325693974876399,1.8435955390397452
9.07378225317989,-11.7820007969856,-0.57565632276535,2.22893372097015,1.8435955390397452
9.07438794669897,16.733101742076897,-13.9566304438591,-2.8077923532486,1.8435955390397452
9.07499364021805,3.05993523817062,6.5064164311409005,-5.19562682590485,1.8435955390397452
9.075599333737129,10.484495785045599,-7.116454662609099,-3.94542663059235,1.8435955390397452
9.076205027256208,11.5574645350456,-9.3294527094841,2.70793762722015,1.8435955390397452
9.076810720775288,-26.279054019641897,20.562786060047202,6.1064703420639,1.8435955390397452
9.077416414294367,-16.6175452305794,6.5591068608284,2.8037384084701498,1.8435955390397452
9.078022107813446,13.9117687342644,-16.4306856196403,-2.2401727243423504,1.8435955390397452
9.078627801332527,4.851409847545621,4.219172778797151,-5.16209655246735,1.8435955390397452
9.079233494851605,9.459427425670619,-1.8282515376091,-3.59575377902985,1.8435955390397452
9.079839188370684,14.259046566295599,-13.2189644282341,1.3978619436264,1.8435955390397452
9.080444881889765,-21.3237586094856,16.3259965092659,5.5316656545639,1.8435955390397452
9.081050575408844,-22.5476135899544,12.6400614506721,3.7713262990951497,1.8435955390397452
9.081656268927922,9.93364129285812,-15.7648701899529,-0.6618548532485959,1.8435955390397452
9.082261962447001,9.40434197645187,1.40262981004715,-5.0854559274673505,1.8435955390397452
9.082867655966082,7.2919347498893705,-0.4439302485466,-4.2112737985611,1.8435955390397452
9.08347334948516,16.2325426600456,-12.5076436274529,0.463804326438904,1.8435955390397452
9.08407904300424,-16.4930042149544,11.5646976811409,4.5305474905014,1.8435955390397452
9.084684736523318,-24.2241272618294,16.3188114506721,5.17480774440765,1.8435955390397452
9.085290430042399,5.730382015514371,-13.4560713618279,-0.994762568092346,1.8435955390397452
9.085896123561477,9.17202508192062,-2.0917036860466003,-4.2591741891861,1.8435955390397452
9.086501817080556,7.36857537488937,3.8766849858284,-5.00881530246735,1.8435955390397452
9.087107510599637,15.087723324108099,-14.921823314952901,-0.0223846384048465,1.8435955390397452
9.087713204118716,-9.880355289173131,5.423867603015901,3.49350403347015,1.8435955390397452
9.088318897637794,-26.3724597813606,21.0681351811409,4.96404602565765,1.8435955390397452
9.088924591156875,-0.841551578235626,-9.9425777094841,1.0649542287826501,1.8435955390397452
9.089530284675954,13.262718441295599,-6.539254955577849,-3.9478216501236,1.8435955390397452
9.090135978195033,4.19038445692062,3.9676957280159,-4.6591424509048505,1.8435955390397452
9.090741671714113,14.9464171717644,-11.7939278071404,-2.4150091501236,1.8435955390397452
9.091347365233192,-2.82462775011063,-0.12060261182785,4.3628961233139,1.8435955390397452
9.09195305875227,-27.7040906407356,21.7938260991097,5.6801568655014,1.8435955390397452
9.092558752271351,-4.915479800891879,-3.72271198682785,1.24218567409515,1.8435955390397452
9.09316444579043,13.3752843592644,-11.7819527094841,-3.38978209934235,1.8435955390397452
9.093770139309509,3.74730584363937,5.76635539598465,-6.17758483371735,1.8435955390397452
9.09437583282859,14.007569515514401,-8.62771198682785,-2.4437493844986,1.8435955390397452
9.094981526347668,4.36761590223312,-5.82553913526535,3.3019024709701497,1.8435955390397452
9.095587219866747,-27.3735779454231,21.190281177234702,5.1269073537826495,1.8435955390397452
9.096192913385828,-10.9605090977669,1.2565336186409,2.29599426784515,1.8435955390397452
9.096798606904906,12.9393908045769,-13.1998042719841,-2.22101256809235,1.8435955390397452
9.097404300423985,4.69333855848312,4.1377421147346505,-6.16800475559235,1.8435955390397452
9.098009993943066,14.194381038951901,-6.1632368891716,-2.7742620798111,1.8435955390397452
9.098615687462145,7.14344353895187,-6.6614009516716,2.28641418972015,1.8435955390397452
9.099221380981223,-25.455167300891897,17.8109086186409,5.39035950222015,1.8435955390397452
9.099827074500302,-12.2418445469856,5.9411918217659005,4.15931946315765,1.8435955390397452
9.100432768019381,8.079896175670621,-13.8009541743279,-2.75749694309235,1.8435955390397452
9.101038461538462,5.23940301160812,4.1305570561409,-4.93696471652985,1.8435955390397452
9.10164415505754,14.1871959803581,-3.3179536860466,-2.8892230173111,1.8435955390397452
9.10224984857662,8.994793636608119,-11.8466182368279,0.684146123313904,1.8435955390397452
9.1028555420957,-20.981270816516897,15.2099174077034,4.40361145534515,1.8435955390397452
9.103461235614779,-16.4211536290169,11.7706693608284,4.3581060842514,1.8435955390397452
9.104066929133857,6.101610042858121,-13.0034126704216,-1.54561706027985,1.8435955390397452
9.104672622652938,7.119493343639371,0.8134550053596501,-4.520231318092351,1.8435955390397452
9.105278316172017,10.8700939295769,-2.1515791743278503,-4.05559752902985,1.8435955390397452
9.105884009691096,11.9670128748894,-12.0046895258904,-0.671434931373596,1.8435955390397452
9.106489703210176,-15.9397547032356,10.1947465092659,4.4419317678451495,1.8435955390397452
9.107095396729255,-19.347867496204397,15.2458427006721,5.44783997097015,1.8435955390397452
9.107701090248334,2.39411980848312,-9.197726635265349,-0.0774700876235965,1.8435955390397452
9.108306783767414,7.81644402723312,-3.28681843214035,-4.91780456027985,1.8435955390397452
9.108912477286493,9.57678338270187,0.013518481922149701,-4.5944769235611,1.8435955390397452
9.109518170805572,13.5644909022331,-11.0993721430779,-0.664249872779846,1.8435955390397452
9.110123864324652,-10.074351871204401,5.6537894780159,3.8072515920638996,1.8435955390397452
9.110729557843731,-22.6146741368294,16.3307865483284,5.83583313503265,1.8435955390397452
9.11133525136281,-1.86901495714188,-5.001652416515349,1.03621399440765,1.8435955390397452
9.11194094488189,8.537344906139369,-6.1632368891716,-4.4028753610611,1.8435955390397452
9.11254663840097,8.61877557020187,-0.40800495557785,-4.8339788766861,1.8435955390397452
9.113152331920048,15.511641781139401,-8.869608959484099,-1.6965032907486,1.8435955390397452
9.113758025439129,-6.158494937610629,2.5977445561409,3.17736145534515,1.8435955390397452
9.114363718958208,-22.712869937610602,15.9763236577034,6.0250396780013995,1.8435955390397452
9.114969412477286,-3.13358526964188,-1.98871784620285,1.50563782253265,1.8435955390397452
9.115575105996365,5.07893670301437,-7.37272175245285,-3.2197357126236,1.8435955390397452
9.116180799515446,7.4380309412956205,2.5785843998908997,-5.118986200904851,1.8435955390397452
9.116786493034525,17.5809386561394,-8.9606197016716,-1.8976849313736,1.8435955390397452
9.117392186553603,-3.1886707188606302,-3.22454792432785,2.2768341115951496,1.8435955390397452
9.117997880072682,-23.297254703235602,16.6469291264534,4.8323199514389,1.8435955390397452
9.118603573591763,-5.59806036729813,2.57618938035965,3.23963196315765,1.8435955390397452
9.119209267110842,5.43339959363937,-8.57502155714035,-2.91077819309235,1.8435955390397452
9.11981496062992,6.57103387098312,1.7978080327033998,-5.238737177467351,1.8435955390397452
9.120420654149001,16.1080016444206,-7.7870601313591,-2.6856463571548503,1.8435955390397452
9.12102634766808,1.08164910535812,-5.1525386469841,1.4553424123764,1.8435955390397452
9.121632041187159,-21.438719546985602,13.9669022709846,4.6455084280014,1.8435955390397452
9.122237734706239,-9.094788882923131,6.561501880359651,4.3964263967514,1.8435955390397452
9.122843428225318,3.54851922254562,-7.7870601313591,-1.79948913059235,1.8435955390397452
9.123449121744397,5.82378777723312,0.15482463426589999,-5.2507122751236,1.8435955390397452
9.124054815263477,15.4757164881706,-6.218322338390349,-2.98262877902985,1.8435955390397452
9.124660508782556,5.8285778162956206,-6.64942585401535,0.305733037376404,1.8435955390397452
9.125266202301635,-19.0484900547981,12.1323173100471,4.73891418972015,1.8435955390397452
9.125871895820715,-13.3411585118294,8.45356731004715,4.4443267873764,1.8435955390397452
9.126477589339794,2.1833580897331197,-5.9045747797966,-0.851061396217346,1.8435955390397452
9.127083282858873,5.38549920301437,-2.0294331782341,-5.0016302438736,1.8435955390397452
9.127688976377954,14.8410363123894,-6.08899128370285,-3.7945404001236,1.8435955390397452
9.128294669897032,9.713299495983119,-5.5836421626091,-0.429537958717346,1.8435955390397452
9.128900363416111,-17.0151184727669,10.1947465092659,3.7833013967514,1.8435955390397452
9.129506056935192,-14.5841736485481,8.68348918504715,5.9292388967514,1.8435955390397452
9.13011175045427,0.8301720545768739,-4.5010933344841,0.487754521751404,1.8435955390397452
9.13071744397335,2.77253289442062,-2.4773018305778503,-4.3669500680923505,1.8435955390397452
9.131323137492428,15.3415953944206,-2.86529499464035,-4.4867010446548505,1.8435955390397452
9.131928831011509,11.890372249889401,-8.65645222120285,-0.24033141574859598,1.8435955390397452
9.132534524530588,-14.2704260899544,6.23098918504715,2.4468804983138996,1.8435955390397452
9.133140218049666,-16.1648865391731,11.1743094975471,5.0526617483139,1.8435955390397452
9.133745911568745,-1.3540857579231298,-2.0414082758903502,1.28529602565765,1.8435955390397452
9.134351605087826,2.19533318738937,-2.9012202876091,-3.70113463840485,1.8435955390397452
9.134957298606905,12.4053014491081,-3.2796333735466,-4.26156920871735,1.8435955390397452
9.135562992125983,14.488968441295599,-8.5438863032341,-2.52757506809235,1.8435955390397452
9.136168685645064,-10.409654605579401,3.0911185795783997,2.7247027639389,1.8435955390397452
9.136774379164143,-17.515677554798103,11.6676835209846,5.4526300100326495,1.8435955390397452
9.137380072683221,-2.75038214464188,1.4481351811409,2.5953717092514,1.8435955390397452
9.137985766202302,1.65166375379562,-3.8712031977653503,-2.9658636423111,1.8435955390397452
9.13859145972138,9.75640984754562,-2.18031940870285,-5.5955950876236,1.8435955390397452
9.13919715324046,15.777488949108099,-8.8743989985466,-1.8449945016861,0.8915196747063193
9.13980284675954,-4.15146857042313,0.6529886967659,1.9032110647201501,0.8915196747063193
9.140408540278619,-19.079625308704397,11.7060038334846,4.49941223659515,0.8915196747063193
9.141014233797698,-6.19681525011063,2.81569133348465,3.6707354787826496,0.8915196747063193
9.141619927316778,1.8073400233268702,-3.37303913526535,-2.0270159860611,0.8915196747063193
9.142225620835857,7.39492058973312,-3.8640181391716,-6.4027166696548505,0.8915196747063193
9.142831314354936,18.0886827967644,-8.4528755610466,-2.7072015329361,0.8915196747063193
9.143437007874017,-0.44637335557937596,1.5008256108284,1.6637091115951501,0.8915196747063193
9.144042701393095,-19.7262805821419,10.8461918217659,4.79639465847015,0.8915196747063193
9.144648394912174,-5.75852667589188,2.44685832567215,4.32697083034515,0.8915196747063193
9.145254088431255,-0.578099429798126,-2.5802876704216002,-1.5240618844986,0.8915196747063193
9.145859781950334,3.92453728895187,-1.9791377680778501,-4.8818792673111,0.8915196747063193
9.146465475469412,20.2442003748894,-7.7176045649528495,-3.5502484079361003,0.8915196747063193
9.147071168988491,2.72463250379562,-2.93714558057785,0.882932744407654,0.8915196747063193
9.147676862507572,-19.376607730579398,9.8450736577034,3.4120733694076497,0.8915196747063193
9.14828255602665,-7.70567755479813,4.597585864734651,4.0371734670639,0.8915196747063193
9.14888824954573,0.118851253795624,-1.3061372797966,-0.199616083717346,0.8915196747063193
9.149493943064808,1.97978142957687,-1.3420625727653501,-4.5513665719986,0.8915196747063193
9.150099636583889,18.0312023280144,-7.73197468214035,-3.7178997751236,0.8915196747063193
9.150705330102967,7.39492058973312,-5.26989460401535,-0.470253290748596,0.8915196747063193
9.151311023622046,-17.6162683751106,8.63558879442215,2.7151226858139,0.8915196747063193
9.151916717141127,-10.2443982579231,6.30283977098465,5.3113238576889,0.8915196747063193
9.152522410660206,-0.6858753087043761,0.5021024662971499,1.2230255178451501,0.8915196747063193
9.153128104179284,-0.35775763292312596,-1.48576374464035,-4.16576842746735,0.8915196747063193
9.153733797698365,17.5809386561394,-7.7056294672966,-3.5167181344986003,0.8915196747063193
9.154339491217444,10.9970299647331,-7.303266186046599,-1.65578795871735,0.8915196747063193
9.154945184736523,-14.7182947422981,8.25238566942215,2.2935992483138996,0.8915196747063193
9.155550878255603,-13.0896814610481,6.6884379155159,5.22749817409515,0.8915196747063193
9.156156571774682,-2.09893683214188,0.8062699467659,1.5391680959701501,0.8915196747063193
9.15676226529376,-0.9229822422981261,-0.1756880610466,-3.61491393527985,0.8915196747063193
9.157367958812841,14.194381038951901,-8.5151460688591,-4.4890960641861,0.8915196747063193
9.15797365233192,15.2912999842644,-8.0169820063591,-1.37796569309235,0.8915196747063193
9.158579345850999,-11.099420230579401,8.5134427983284,2.6360870412826496,0.8915196747063193
9.15918503937008,-14.7661951329231,7.05487590379715,5.3783844045639,0.8915196747063193
9.159790732889158,-1.82590460557938,-0.0319868891716003,2.01338196315765,0.8915196747063193
9.160396426408237,-3.1455603672981303,1.5247758061409,-2.6616961618423503,0.8915196747063193
9.161002119927318,9.90490105848312,-5.5644820063591,-5.2842425485611,0.8915196747063193
9.161607813446397,19.422708675670602,-9.45638874464035,-1.40191588840485,0.8915196747063193
9.162213506965475,-8.07451056261063,4.8873832280159,1.7810650686264,0.8915196747063193
9.162819200484556,-18.222208316516898,8.37692668504715,3.62283508815765,0.8915196747063193
9.163424894003635,-1.00441290636063,-0.87263874464035,4.188059697532649,0.8915196747063193
9.164030587522713,-1.70136358995438,2.66241008348465,-1.6438128610611,0.8915196747063193
9.164636281041792,5.18671258192062,-3.71313190870285,-4.9920501657486005,0.8915196747063193
9.165241974560871,20.7854747889519,-10.546122631359099,-2.92035827121735,0.8915196747063193
9.165847668079952,-3.69401983995438,1.7115873295783999,0.8733526662826541,0.8915196747063193
9.16645336159903,-18.820963199329398,9.018791919422151,3.4719488576888997,0.8915196747063193
9.16705905511811,-2.46776983995438,1.26850871629715,4.5928179983139,0.8915196747063193
9.16766474863719,-2.6569763829231303,2.98334270067215,-0.285836786842346,0.8915196747063193
9.168270442156269,2.48513055067062,-2.5946577876091,-4.7525482126236005,0.8915196747063193
9.168876135675347,21.3650695155144,-11.702917064952901,-2.6545111032486,0.8915196747063193
9.169481829194428,2.00612664442062,-1.0331050532341002,-0.628324579811096,0.8915196747063193
9.170087522713507,-18.967059390735603,10.7000956303596,3.2180767873764,0.8915196747063193
9.170693216232586,-5.7609216954231295,1.1774979741096498,4.74370422878265,0.8915196747063193
9.171298909751666,-1.16727423448563,2.7510258061409,0.346448369407654,0.8915196747063193
9.171904603270745,-0.836761539173126,-0.7169624751090999,-4.75494323215485,0.8915196747063193
9.172510296789824,20.129239437389398,-12.5603340571404,-3.19339049777985,0.8915196747063193
9.173115990308904,7.91942986707687,-2.71201374464035,-0.24991149387359599,0.8915196747063193
9.173721683827983,-18.416204898548102,12.2951786381721,2.3414996389389,0.8915196747063193
9.174327377347062,-7.62664191026688,0.5332377202034,5.2634234670639,0.8915196747063193
9.174933070866143,-0.103885562610626,1.0026615483284,0.803897099876404,0.8915196747063193
9.175538764385221,-4.64723761339188,3.05040324754715,-3.8711810251236,0.8915196747063193
9.1761444579043,18.241964046764398,-10.5149873774529,-4.03164733371735,0.8915196747063193
9.17675015142338,12.675938656139401,-6.71648640089035,-0.27865172824859596,0.8915196747063193
9.17735584494246,-17.515677554798103,11.8137797123909,1.9103961233139,0.8915196747063193
9.177961538461538,-10.8718933751106,2.45643840379715,4.0659137014389,0.8915196747063193
9.178567231980619,2.03247185926437,-1.46660358839035,1.91279114284515,0.8915196747063193
9.179172925499698,-5.234017398548129,5.8837113530159,-2.5251800485611002,0.8915196747063193
9.179778619018776,12.7262340662956,-9.43243854932785,-4.0005120798111005,0.8915196747063193
9.180384312537855,17.7581701014519,-9.6120650141716,-2.04857116184235,0.8915196747063193
9.180990006056934,-15.226038882923099,9.22476359910965,2.0972076467513996,0.8915196747063193
9.181595699576015,-13.360318668079401,5.124490161609651,3.8934722951888996,0.8915196747063193
9.182201393095093,2.26718377332687,-1.6031197016716001,3.2707672170639,0.8915196747063193
9.182807086614172,-4.80051886339188,6.3962455327034,-1.82343932590485,0.8915196747063193
9.183412780133253,7.964935238170621,-6.2494575922966,-5.31058776340485,0.8915196747063193
9.184018473652332,20.263360531139398,-12.7926509516716,-1.6102825876236,0.8915196747063193
9.18462416717141,-8.30682745714188,6.3052347905159,1.00747376003265,0.8915196747063193
9.185229860690491,-17.4845423008919,8.80324016160965,2.53549622097015,0.8915196747063193
9.18583555420957,1.0241686366081202,-2.94193561964035,4.2958355764389,0.8915196747063193
9.186441247728649,-3.6149841954231303,6.116028247547151,-1.08577331027985,0.8915196747063193
9.18704694124773,1.7139342616081201,-4.781310619640349,-5.7201361032486,0.8915196747063193
9.187652634766808,23.990010921764398,-14.2895381587029,-1.76116881809235,0.8915196747063193
9.188258328285887,-2.78151739854813,6.19266887254715,1.0433990530014001,0.8915196747063193
9.188864021804967,-21.1800574376106,11.380281177234599,3.3689630178451497,0.8915196747063193
9.189469715324046,1.66842889051437,-5.4064107172966,4.17847961940765,0.8915196747063193
9.190075408843125,-2.21629278917313,4.578425708484651,-0.115790400123596,0.8915196747063193
9.190681102362205,-3.62216925401688,0.6769388920784001,-4.23761901340485,0.8915196747063193
9.191286795881284,24.572000667858102,-13.9494453852654,-2.3048382516861,0.8915196747063193
9.191892489400363,2.69828728895187,0.25781047410964997,0.681751103782654,0.8915196747063193
9.192498182919444,-23.278094546985603,13.6052543217659,3.1414361623764,0.8915196747063193
9.193103876438522,-1.37324591417313,-4.39331745557785,3.58930481472015,0.8915196747063193
9.193709569957601,2.42525506238937,1.0050565678596501,0.0710211233139035,0.8915196747063193
9.194315263476682,-6.53690802354813,6.2405692631721505,-3.3586468454361,0.8915196747063193
9.19492095699576,19.9567980311394,-13.2716548579216,-3.15028014621735,0.8915196747063193
9.19552665051484,10.484495785045599,-5.9716353266716,-0.122975458717346,0.8915196747063193
9.196132344033918,-22.6434143712044,14.3668705327034,1.1032745412826501,0.8915196747063193
9.196738037552997,-6.42913214464188,-0.6115816157341,4.5928179983139,0.8915196747063193
9.197343731072078,4.844224788951871,-1.9048921626091,1.9391363576889,0.8915196747063193
9.197949424591156,-7.96673468370438,9.59838664598465,-3.1191448923111,0.8915196747063193
9.198555118110235,16.0409410975456,-11.7532124751091,-3.6197039743423503,0.8915196747063193
9.199160811629316,16.0409410975456,-11.8609883540154,-1.85696959934235,0.8915196747063193
9.199766505148395,-19.424508121204397,14.7237284428596,2.12355286159515,0.8915196747063193
9.200372198667473,-10.6922669102669,3.53419719285965,3.4815289358138997,0.8915196747063193
9.200977892186554,5.40705437879562,-5.1669087641716,2.5714215139389,0.8915196747063193
9.201583585705633,-6.85544562120438,9.79956828660965,-2.19227233371735,0.8915196747063193
9.202189279224712,8.48704949598312,-9.94497272901535,-5.059110712623601,0.8915196747063193
9.202794972743792,21.9614293787956,-14.153022045421599,-0.831901239967346,0.8915196747063193
9.203400666262871,-13.789027164173099,13.9956425053596,2.3175494436263997,0.8915196747063193
9.20400635978195,-16.2870325352669,7.186601978015901,2.79415833034515,0.8915196747063193
9.20461205330103,7.82123406629562,-8.76662311964035,2.74146790065765,0.8915196747063193
9.205217746820109,-6.26148077745438,9.677422290515901,-1.4522112985611,0.8915196747063193
9.205823440339188,0.494869320201874,-2.8581099360466,-5.3369329782486,0.8915196747063193
9.206429133858268,26.938279964733102,-16.9887251704216,-0.20680114231109598,0.8915196747063193
9.207034827377347,-7.93080939073563,7.912292895984651,1.2613458303451501,0.8915196747063193
9.207640520896426,-24.3582483555794,12.7214921147346,2.23851379909515,0.8915196747063193
9.208246214415507,7.85955437879562,-10.493432201671599,2.8923541311263996,0.8915196747063193
9.208851907934585,0.511634456920624,5.8406010014534,-0.630719599342346,0.8915196747063193
9.209457601453664,-6.9919617344856295,4.06110148973465,-4.58729186496735,0.8915196747063193
9.210063294972745,24.959993831920603,-16.1480733149529,-2.4964398141861004,0.8915196747063193
9.210668988491824,0.499659359264374,-0.3529195063591,1.3068512014389,0.8915196747063193
9.211274682010902,-26.2263635899544,15.8062772709846,1.75471985378265,0.8915196747063193
9.211880375529981,3.21561150770187,-6.1632368891716,3.1989166311263997,0.8915196747063193
9.212486069049062,4.92086541395187,-0.28106892042160003,0.47098938503265403,0.8915196747063193
9.21309176256814,-9.31752569932938,10.383953052234599,-3.8927362009048503,0.8915196747063193
9.21369745608722,20.7088341639519,-15.6594893305779,-2.6521160837173503,0.8915196747063193
9.214303149606298,10.2378087733269,-8.53670124464035,-0.22117125949859598,0.8915196747063193
9.214908843125379,-26.5664563633919,19.5377177006722,1.79304016628265,0.8915196747063193
9.215514536644458,-4.11554327745438,-1.9192622797966001,3.9317926076889,0.8915196747063193
9.216120230163536,9.61989373426437,-6.01714069776535,0.636245732688904,0.8915196747063193
9.216725923682617,-10.5844910313606,12.311943774890901,-3.37541198215485,0.8915196747063193
9.217331617201696,13.9117687342644,-13.168669018077901,-3.1311199899673503,0.8915196747063193
9.217937310720774,19.240687191295603,-12.2992769282341,-0.40798278293609597,0.8915196747063193
9.218543004239855,-23.4553259922981,19.784404712390902,2.42532532253265,0.8915196747063193
9.219148697758934,-10.582096011829401,1.91516398973465,3.4456036428451497,0.8915196747063193
9.219754391278013,12.0316784022331,-10.9772261469841,1.67807922878265,0.8915196747063193
9.220360084797093,-10.1629675938606,12.980154224109599,-1.8018841501236,0.8915196747063193
9.220965778316172,7.2584044764518705,-6.4697993891716,-4.2974945016861,0.8915196747063193
9.22157147183525,24.5145201991081,-16.8090987055778,-0.120580439186096,0.8915196747063193
9.222177165354331,-18.2150232579231,16.0817045170784,2.4564605764388996,0.8915196747063193
9.22278285887341,-19.8747717930794,7.44286906785965,1.3810968069076501,0.8915196747063193
9.223388552392489,14.2710216639519,-13.4656514399529,2.28162415065765,0.8915196747063193
9.22399424591157,-3.2988416172981303,10.1684012944221,-1.2414495798111,0.8915196747063193
9.224599939430648,-4.276009586048129,0.7918998295784,-4.86032409152985,0.8915196747063193
9.225205632949727,27.503504574108103,-17.862907299327798,0.782341924095154,0.8915196747063193
9.225811326468808,-8.46489874620438,5.25861125535965,1.0865094045639,0.8915196747063193
9.226417019987887,-26.877808902454397,15.0710062748909,2.0061969045639,0.8915196747063193
9.227022713506965,11.1239659998894,-11.2167281001091,2.9737847951889,0.8915196747063193
9.227628407026044,2.8515685389518697,3.5605424077034,-0.786395868873596,0.8915196747063193
9.228234100545125,-9.39177130479813,8.87030070848465,-4.5393914743423505,0.8915196747063193
9.228839794064204,24.3133385584831,-17.831772045421598,-1.7635638376236,0.8915196747063193
9.229445487583282,1.77141473035812,-3.25807819776535,1.6421539358139001,0.8915196747063193
9.230051181102361,-28.9471057774544,20.5100956303597,1.4936627248764,0.8915196747063193
9.230656874621442,4.08500359754562,-7.28650104932785,3.5821197561263998,0.8915196747063193
9.23126256814052,9.69653435926437,-4.350207104015349,-0.31936706027984596,0.8915196747063193
9.2318682616596,-12.4238660313606,11.2581351811409,-4.7190179391861005,0.8915196747063193
9.23247395517868,18.615587093639398,-14.7134566157341,-2.50841491184235,0.8915196747063193
9.233079648697759,11.8760021327019,-7.8205904047966,1.6756842092514,0.8915196747063193
9.233685342216837,-28.3507459141731,21.980637622547203,2.4995709280014,0.8915196747063193
9.234291035735918,-2.2546131016731303,-3.2077827876091,2.8300836233138997,0.8915196747063193
9.234896729254997,12.8435900233269,-11.0945821040154,0.44943420925140404,0.8915196747063193
9.235502422774076,-12.524456851673099,15.0949564702034,-4.00290709934235,0.8915196747063193
9.236108116293156,12.0077282069206,-9.9329976313591,-2.58026549777985,0.8915196747063193
9.236713809812235,19.6262853358269,-14.2488228266716,0.784736943626404,0.8915196747063193
9.237319503331314,-26.2694739415169,21.6094095952034,2.14271301784515,0.8915196747063193
9.237925196850394,-12.3855457188606,0.9930814702034001,1.4122320608139,0.8915196747063193
9.238530890369473,18.838323910045602,-14.3350435297966,0.940413213157654,0.8915196747063193
9.239136583888552,-9.48996710557938,14.4219559819221,-1.75158873996735,1.0488883797092285
9.239742277407633,1.75464959363937,-3.52632038526535,-3.70113463840485,1.0488883797092285
9.240347970926711,25.7503502772331,-17.3599531977653,0.286572881126404,1.0488883797092285
9.24095366444579,-19.405347964954398,13.404072681140901,1.36672668972015,1.0488883797092285
9.24155935796487,-20.0831384922981,8.98047160692215,1.55832825222015,1.0488883797092285
9.24216505148395,17.0181090662956,-14.2152925532341,1.71160950222015,1.0488883797092285
9.242770745003028,-2.80546759386063,9.5241410405159,-1.2701898141860999,1.0488883797092285
9.243376438522109,-4.09877814073563,3.08393352098465,-3.9717718454361,1.0488883797092285
9.243982132041188,24.212747738170602,-18.9789864008903,-0.194826044654846,1.0488883797092285
9.244587825560266,-9.23609503526688,5.68013469285965,1.33319641628265,1.0488883797092285
9.245193519079345,-24.715106265735603,16.2780961186409,1.54874817409515,1.0488883797092285
9.245799212598424,11.7945714686394,-11.6406465571404,2.72230774440765,1.0488883797092285
9.246404906117505,4.03710320692062,2.10676555223465,-1.4043109079361,1.0488883797092285
9.247010599636583,-9.90191046495438,6.8369291264534,-4.2639642282486,1.0488883797092285
9.247616293155662,22.311102230358102,-16.9360347407341,-0.728915400123596,1.0488883797092285
9.248221986674743,0.329612972545624,-0.0415669672966003,1.43857727565765,1.0488883797092285
9.248827680193822,-27.2825672032356,20.6993021733284,2.3438946584701497,1.0488883797092285
9.2494333737129,6.954236995983121,-9.7701363032341,1.9870367483139,1.0488883797092285
9.250039067231981,9.08101433973312,-5.5117915766716,-0.793580927467346,1.0488883797092285
9.25064476075106,-12.723243472766901,13.5429838139534,-3.0233441110611,1.0488883797092285
9.251250454270139,18.0335973475456,-14.6487910883904,-1.2031292673111,1.0488883797092285
9.25185614778922,9.99351678113937,-6.984728588390349,1.4553424123764,1.0488883797092285
9.252461841308298,-30.2140711094856,22.6871683842659,1.5224029592514001,1.0488883797092285
9.253067534827377,-0.678690250110626,-7.21944050245285,1.6229937795639,1.0488883797092285
9.253673228346457,17.537828304576898,-10.9484859126091,-0.0367547555923465,1.0488883797092285
9.254278921865536,-13.6884363438606,16.5104130131722,-2.75749694309235,1.0488883797092285
9.254884615384615,10.417435238170599,-8.8360786860466,-1.9360052438736,1.0488883797092285
9.255490308903696,17.9833019373894,-13.887174877452901,-0.204406122779846,1.0488883797092285
9.256096002422774,-26.9999548985481,19.3341410405159,2.21935364284515,1.0488883797092285
9.256701695941853,-8.99419806261063,1.1703129155159,1.1487799123764,1.0488883797092285
9.257307389460934,18.495836117076898,-14.1817622797966,0.926043095970154,1.0488883797092285
9.257913082980012,-8.675660464954381,15.6889213139534,-1.1456487985611,1.0488883797092285
9.258518776499091,1.5199376795768702,-3.9789790766716,-3.85441588840485,1.0488883797092285
9.259124470018172,22.5482091639519,-18.5694380610466,0.897302861595154,1.0488883797092285
9.25973016353725,-19.5203089024544,15.106931567859599,1.32361633815765,1.0488883797092285
9.26033585705633,-18.282083804798102,9.033162036609651,1.59664856472015,1.0488883797092285
9.260941550575408,18.6323522303581,-14.6248408930779,1.6373638967514,1.0488883797092285
9.261547244094487,-2.9132434727668803,8.75054973192215,-1.71805846652985,1.0488883797092285
9.262152937613568,-5.55255499620438,1.14396770067215,-3.7610101266861,1.0488883797092285
9.262758631132646,23.867864925670602,-16.993515209484098,0.303338017845154,1.0488883797092285
9.263364324651725,-11.4634631993294,9.5001908452034,2.35826477565765,1.0488883797092285
9.263970018170806,-21.9129334141731,14.122578540515901,1.45773743190765,1.0488883797092285
9.264575711689885,14.764395687389401,-14.8619478266716,1.87926086940765,1.0488883797092285
9.265181405208963,1.49359246473312,2.43727824754715,-1.9168450876236,1.0488883797092285
9.265787098728044,-8.191866519641879,8.6379838139534,-3.8831561227798503,1.0488883797092285
9.266392792247123,20.8094249842644,-16.8689741938591,0.545234990501404,1.0488883797092285
9.266998485766202,-3.21980597276688,3.7234037358284,1.5750933889389,1.0488883797092285
9.267604179285282,-27.469378726673103,18.2060868412972,1.1344097951889,1.0488883797092285
9.268209872804361,10.110872738170599,-13.8919649165154,1.49126770534515,1.0488883797092285
9.26881556632344,10.3527697108269,-3.7514522212028503,-0.726520380592346,1.0488883797092285
9.26942125984252,-13.360318668079401,14.4985966069221,-2.87724791965485,1.0488883797092285
9.270026953361599,16.472044613170603,-12.9890425532341,-0.20680114231109598,1.0488883797092285
9.270632646880678,7.12188836317062,-7.602643627452849,1.0481890920639,1.0488883797092285
9.271238340399758,-28.848909976673102,20.8909037358284,1.1200396780014001,1.0488883797092285
9.271844033918837,1.86482049207687,-7.2553657954216,0.664985967063904,1.0488883797092285
9.272449727437916,17.1881554530144,-10.0311934321404,0.171611943626404,1.0488883797092285
9.273055420956997,-13.0274109532356,17.5187162358284,-2.26891295871735,1.0488883797092285
9.273661114476075,9.294171078014369,-10.560492748546599,-1.48813659152985,1.0488883797092285
9.274266807995154,15.669713070201901,-13.9590254633904,0.825452275657654,1.0488883797092285
9.274872501514235,-27.385553043079398,20.845398364734702,1.13680481472015,1.0488883797092285
9.275478195033314,-6.17765509386063,-0.36489460401535,2.0636773733139,1.0488883797092285
9.276083888552392,20.078944027233103,-13.8512495844841,0.475779424095154,1.0488883797092285
9.276689582071471,-10.2779285313606,13.9261869389534,-2.9347283884048503,1.0488883797092285
9.277295275590552,2.76774285535812,-5.4064107172966,-3.14549010715485,1.0488883797092285
9.27790096910963,19.1496764491081,-14.3637837641716,1.7810650686264,1.0488883797092285
9.27850666262871,-21.572840640735603,17.3414847905159,2.2361187795639,1.0488883797092285
9.279112356147788,-11.008409488391901,5.42147258348465,1.3068512014389,1.0488883797092285
9.279718049666869,17.8132555506706,-16.9025044672966,0.45901428737640404,1.0488883797092285
9.280323743185948,-5.899832828235629,10.997078052234599,-2.10126159152985,1.0488883797092285
9.280929436705026,-2.2809583165168803,0.9403910405159001,-2.7527069040298504,1.0488883797092285
9.281535130224107,20.5076525233269,-17.1252412837028,1.54874817409515,1.0488883797092285
9.282140823743186,-14.8955261876106,14.0698881108284,2.4277203420638997,1.0488883797092285
9.282746517262265,-20.1046936680794,9.83788859910965,-0.482228388404846,1.0488883797092285
9.283352210781345,18.366505062389397,-17.221042064952798,1.4266021780014,1.0488883797092285
9.283957904300424,1.39060662488937,5.15323039598465,-1.2151043649673499,1.0488883797092285
9.284563597819503,-9.664803531360631,8.8966459233284,-3.0520843454361004,1.0488883797092285
9.285169291338583,20.4405919764519,-16.3109346430779,1.19907532253265,1.0488883797092285
9.285774984857662,-6.09143439073563,3.17494426317215,0.904487920188904,1.0488883797092285
9.28638067837674,-25.5988684727669,16.5104130131722,0.415903935813904,1.0488883797092285
9.286986371895821,13.0304015467644,-14.2655879633904,1.04100403347015,1.0488883797092285
9.2875920654149,8.91336297254562,-0.96364948682785,-0.343317255592346,1.0488883797092285
9.288197758933979,-12.0741931797981,13.947742114734599,-2.62816588840485,1.0488883797092285
9.28880345245306,16.1942223475456,-15.4798628657341,-0.31936706027984596,1.0488883797092285
9.289409145972138,3.04077508192062,-5.10703327589035,0.796712041282654,1.0488883797092285
9.290014839491217,-27.8046814610481,20.1915580327034,1.83136047878265,1.0488883797092285
9.290620533010298,6.11358514051437,-8.158288158702849,1.09369446315765,1.0488883797092285
9.291226226529377,14.7907409022331,-8.28282917432785,-1.56477721652985,1.0488883797092285
9.291831920048455,-12.5484070469856,13.7848807866096,-1.6294427438735999,1.0488883797092285
9.292437613567534,10.520421078014401,-10.467086986827901,-0.963627314186096,1.0488883797092285
9.293043307086615,9.959986507701869,-9.11150593214035,0.964363408470154,1.0488883797092285
9.293649000605694,-24.8180921055794,20.8980887944222,2.2361187795639,1.0488883797092285
9.294254694124772,-0.657135074329376,-2.8581099360466,0.48056946315765403,1.0488883797092285
9.294860387643851,16.2564928553581,-14.8619478266716,-1.0115277048111,1.0488883797092285
9.295466081162932,-9.59534796495438,15.6194657475471,-2.38866393527985,1.0488883797092285
9.29607177468201,4.17122430067062,-6.0818062251091,-1.63183776340485,1.0488883797092285
9.29667746820109,15.073353206920599,-13.2141743891716,1.3499615530014,1.0488883797092285
9.29728316172017,-22.3224817540169,19.6598636967659,2.0517022756576497,1.0488883797092285
9.297888855239249,-9.291180484485631,0.1787748295784,0.312918095970154,1.0488883797092285
9.298494548758327,20.383111507701898,-17.0366255610466,-0.546893915748596,1.0488883797092285
9.299100242277408,-6.20879034776688,12.846033130359599,-1.31569518527985,1.0488883797092285
9.299705935796487,-2.33125372667313,1.5415409428596498,-2.3383685251236,1.0488883797092285
9.300311629315566,18.5796618006706,-15.7816353266716,1.3116412405014,1.0488883797092285
9.300917322834646,-16.8690222813606,12.738257251453401,1.94632141628265,1.0488883797092285
9.301523016353725,-16.437918765735603,7.3303031498909,-0.731310419654846,1.0488883797092285
9.302128709872804,18.8479039881706,-16.4761909907341,1.3355914358139,1.0488883797092285
9.302734403391884,0.25536736707687396,8.233225513172151,-0.903751825904846,1.0488883797092285
9.303340096910963,-7.0446521641731294,6.62377238817215,-2.4724896188736003,1.0488883797092285
9.303945790430042,17.9904869959831,-17.4341988032341,1.18949524440765,1.0488883797092285
9.304551483949123,-8.57027960557938,5.7735404545784,0.15724182643890403,1.0488883797092285
9.305157177468201,-21.975203921985603,14.4962015873909,0.8350323537826541,1.0488883797092285
9.30576287098728,14.7620006678581,-13.460861400890401,1.05058411159515,1.0488883797092285
9.30636856450636,6.5997741053581205,0.28894572801589996,-0.968417353248596,1.0488883797092285
9.30697425802544,-10.9916443516731,9.5337211186409,-2.6305609079361,1.0488883797092285
9.307579951544518,15.605047542858099,-14.390128979015401,0.37039856472015403,1.0488883797092285
9.308185645063597,-1.79955939073563,0.9188358647346501,1.74992981472015,1.0488883797092285
9.308791338582678,-23.3523401524544,17.8492289311409,1.0601641897201501,1.0488883797092285
9.309397032101757,9.878555843639369,-10.7880196040154,1.1439898733139,1.0488883797092285
9.310002725620835,9.53127801160812,-6.0674361079215995,-1.1695989938736,1.0488883797092285
9.310608419139914,-9.43009161729813,13.9645072514534,-1.5480120798111,1.0488883797092285
9.311214112658995,10.9658947108269,-11.889728588390401,0.0973663381576535,1.0488883797092285
9.311819806178073,4.22391473035812,-3.66523151807785,1.6637091115951501,1.0488883797092285
9.312425499697152,-23.7547034337044,19.3580912358284,1.19907532253265,1.0488883797092285
9.313031193216233,2.50668572645187,-8.824103588390349,-0.302601923561096,1.0488883797092285
9.313636886735312,15.6122326014519,-11.132902416515401,-1.14325377902985,1.0488883797092285
9.31424258025439,-9.55463263292313,15.6074906498909,-1.8018841501236,1.0488883797092285
9.314848273773471,5.86450310926437,-6.0291157954216,-0.384032587623596,1.0488883797092285
9.31545396729255,10.2210436366081,-11.2598384516716,1.0673492483139,1.0488883797092285
9.316059660811629,-21.905748355579398,17.492371020984702,1.9199762014389001,1.0488883797092285
9.31666535433071,-4.13949347276688,-2.5563374751091,-0.49899352512359596,1.0488883797092285
9.317271047849788,17.7917003748894,-14.1602071040154,-0.875011591529846,1.0488883797092285
9.317876741368867,-6.34051642198563,14.747678638172099,-0.326552118873596,1.0488883797092285
9.318482434887947,0.195491878795624,-1.6749702876091002,-1.86175963840485,1.0488883797092285
9.319088128407026,14.3213170741081,-15.2235957758904,0.559605107688904,1.0488883797092285
9.319693821926105,-17.8725354649544,14.1010233647346,1.4313922170639,1.0488883797092285
9.320299515445186,-11.9879724766731,4.76044719285965,-0.09902526340484649,1.0488883797092285
9.320905208964264,18.965259945201897,-14.179367260265401,1.2685308889389,1.0488883797092285
9.321510902483343,-2.6066809727668803,8.20927531785965,-2.1204217477798504,1.0488883797092285
9.322116596002424,-4.00776739854813,2.22651652879715,-2.7048065134048502,1.0488883797092285
9.322722289521503,15.5403820155144,-13.6093526118279,2.2145636037826497,1.0488883797092285
9.323327983040581,-13.2046423985481,9.53132609910965,1.3978619436264,1.0488883797092285
9.323933676559662,-13.7099915196419,9.722927661609651,0.815872197532654,1.0488883797092285
9.32453937007874,14.4314879725456,-14.9026631587029,-0.233146357154846,1.0488883797092285
9.32514506359782,1.00261346082687,3.3737308842658997,-1.6533929391861,1.0488883797092285
9.325750757116898,-4.86518439073563,7.32311809129715,-1.5671722360611,1.0488883797092285
9.326356450635977,13.090277035045599,-14.4955098383904,0.540444951438904,1.0488883797092285
9.326962144155058,-7.030282046985629,7.291982837390901,1.89363098659515,1.0488883797092285
9.327567837674136,-18.7946179844856,12.2520682866096,0.657800908470154,1.0488883797092285
9.328173531193215,11.8041515467644,-14.2799580805779,-0.815136103248596,1.0488883797092285
9.328779224712296,7.2655895350456206,-1.8929170649528502,-1.3372503610611,1.0488883797092285
9.329384918231375,-7.55958136339188,12.4412748295784,-1.62704772434235,1.0488883797092285
9.329990611750453,10.6497521327019,-11.2191231196404,0.308128056907654,1.0488883797092285
9.330596305269534,-0.6882703282356261,-1.0546602290153502,1.61101868190765,1.0488883797092285
9.331201998788613,-20.2244446446419,14.881799731922099,0.12850159206390402,1.0488883797092285
9.331807692307692,5.131627132701871,-10.4215816157341,-0.173270868873596,1.0488883797092285
9.332413385826772,11.959827816295599,-6.225507396984099,-0.556473993873596,1.0488883797092285
9.333019079345851,-6.764434879016879,14.3429203373909,-1.63662780246735,1.0488883797092285
9.33362477286493,6.748265316295621,-8.5055659907341,-0.055914911842346496,1.0488883797092285
9.33423046638401,4.66220330457687,-6.9152730219841,1.0242388967514,1.0488883797092285
9.33483615990309,-20.839964664173102,15.8086722905159,1.3068512014389,1.0488883797092285
9.335441853422168,1.00500848035812,-4.73820026807785,0.23388245143890402,1.0488883797092285
9.336047546941248,14.4243029139519,-9.3725630610466,-1.22468444309235,1.0488883797092285
9.336653240460327,-7.35360968370438,10.9851029545784,-0.875011591529846,1.0488883797092285
9.337258933979406,4.83943474988937,-4.8100508540153495,-0.640299677467346,1.0488883797092285
9.337864627498487,7.96733025770187,-9.3821431391716,0.902092900657654,1.0488883797092285
9.338470321017565,-18.1743079258919,15.3488285405159,2.2121685842514,1.0488883797092285
9.339076014536644,-2.6066809727668803,0.41588176317215,-0.494203486061096,1.516473288532341
9.339681708055725,13.116622249889401,-13.0153877680779,-0.966022333717346,1.516473288532341
9.340287401574804,-4.189788882923129,9.89536906785965,-1.4929266305923499,1.516473288532341
9.340893095093882,2.05881707410812,-1.5791695063591,-1.3731756540298499,1.516473288532341
9.341498788612961,8.96605340223312,-10.5700728266716,2.2241436819076497,1.516473288532341
9.34210448213204,-15.051202457141901,14.230354419422099,1.8672857717514,1.516473288532341
9.34271017565112,-8.56069952745438,2.28399699754715,-0.17087584934234598,1.516473288532341
9.3433158691702,14.074630062389401,-14.203317455577901,-0.918121943092346,1.516473288532341
9.343921562689278,-0.7050354649543761,6.74352336473465,-1.1073284860611,1.516473288532341
9.344527256208359,-0.956512515735626,4.60237590379715,-1.0115277048111,1.516473288532341
9.345132949727438,9.62707879285812,-11.3221089594841,1.40504700222015,1.516473288532341
9.345738643246516,-11.0587048985481,8.652353931140901,1.9032110647201501,1.516473288532341
9.346344336765597,-12.2633997227669,6.40343059129715,-0.118185419654846,1.516473288532341
9.346950030284676,11.092830745983099,-13.5638472407341,-0.14213561496734597,1.516473288532341
9.347555723803755,3.20363641004562,3.9461405522346498,-0.767235712623596,1.516473288532341
9.348161417322835,-2.30490851182938,7.9530082280159,-0.760050654029846,1.516473288532341
9.348767110841914,9.57199334363937,-12.251376537609099,0.9931036428451541,1.516473288532341
9.349372804360993,-7.26020392198563,3.97009074754715,0.593135381126404,1.516473288532341
9.349978497880073,-15.5517615391731,9.497795825672151,0.5955304006576541,1.516473288532341
9.350584191399152,9.28219598035812,-10.3377559321404,0.061441045188903504,1.516473288532341
9.35118988491823,6.269261410045621,-0.21640339307785,-1.0306878610610999,1.516473288532341
9.351795578437311,-4.47958624620438,7.3303031498909,-1.8904998727798499,1.516473288532341
9.35240127195639,8.41998894910812,-9.8611470454216,-0.132555536842346,1.516473288532341
9.353006965475469,-3.4353577305793803,1.01942668504715,1.95590149440765,1.516473288532341
9.35361265899455,-15.211668765735599,11.4353666264534,1.11285461940765,1.516473288532341
9.354218352513628,6.07765984754562,-6.65421589307785,-0.17566588840484598,1.516473288532341
9.354824046032707,5.79265252332687,-4.2376411860465995,-1.2534246774673499,1.516473288532341
9.355429739551788,-2.8797131993293803,7.957798267078401,-1.70368834934235,1.516473288532341
9.356035433070867,7.43563592176437,-7.9235762446403495,0.159636845970154,1.516473288532341
9.356641126589945,-1.0786585118293799,-0.8606636469840999,1.57748840847015,1.516473288532341
9.357246820109024,-15.3649500157356,12.7143070561409,1.5942535451889,1.516473288532341
9.357852513628105,1.9438561366081202,-6.8098921626091,-0.44869811496734596,1.516473288532341
9.358458207147184,8.41998894910812,-6.86976765089035,-1.8785247751236,1.516473288532341
9.359063900666262,-2.3839441563606303,8.1493998295784,-1.59351745090485,1.516473288532341
9.359669594185341,6.08484490613937,-3.4281245844841,0.185982060813904,1.516473288532341
9.360275287704422,1.10320428113937,-4.256801342296599,1.3451715139389,1.516473288532341
9.3608809812235,-13.7962122227669,11.3443558842659,1.1439898733139,1.516473288532341
9.36148667474258,-2.08696173448563,-3.4137544672966,0.12850159206390402,1.516473288532341
9.36209236826166,8.27389275770187,-7.822985424327849,-1.8210443063736,1.516473288532341
9.362698061780739,-0.0559851719856262,7.4069437748909,-0.14692565402984598,1.516473288532341
9.363303755299818,4.14727410535812,-0.8271333735466,-0.585214228248596,1.516473288532341
9.363909448818898,2.48752557020187,-6.817077221202849,0.5140997365951541,1.516473288532341
9.364515142337977,-11.923306949329401,8.9301761967659,1.70681946315765,1.516473288532341
9.365120835857056,-5.09031622667313,0.14045451707839998,-0.0966302438735965,1.516473288532341
9.365726529376136,8.13019158582687,-7.576298412609099,0.0231207326889035,1.516473288532341
9.366332222895215,0.6936559412956239,4.738892017078401,-1.0953533884048499,1.516473288532341
9.366937916414294,3.50301385145187,-0.47506550245285,-1.4617913766861,1.516473288532341
9.367543609933374,4.21433465223312,-6.20874226026535,0.772761845970154,1.516473288532341
9.368149303452453,-11.2503064610481,7.60094035692215,1.47689758815765,1.516473288532341
9.368754996971532,-5.91180792589188,2.4588334233283997,1.3355914358139,1.516473288532341
9.369360690490613,6.63809441785812,-6.22311237745285,-1.01871276340485,1.516473288532341
9.369966384009691,0.8876525233268739,2.05407512254715,-1.7970941110611,1.516473288532341
9.37057207752877,3.7233556483268697,0.3320560795784,-0.793580927467346,1.516473288532341
9.37117777104785,4.484971859264371,-6.12252155714035,0.9140679983139041,1.516473288532341
9.37178346456693,-9.07802374620438,7.47639934129715,2.0684674123763997,1.516473288532341
9.372389158086008,-8.06253546495438,3.81201945848465,0.696121220970154,1.516473288532341
9.372994851605087,4.42988641004562,-6.52967487745285,-0.977997431373596,1.516473288532341
9.373600545124168,2.94736932020187,-0.1708980219841,-1.98151061496735,1.516473288532341
9.374206238643247,4.06823846082687,1.6972172123909,-0.906146845436096,1.516473288532341
9.374811932162325,4.4442565272331205,-3.68918171339035,0.619480595970154,1.516473288532341
9.375417625681404,-7.0781824376106295,3.51503703660965,1.6613140920639,1.516473288532341
9.376023319200485,-8.064930484485629,4.331738696765901,1.0098687795639,1.516473288532341
9.376629012719564,0.739161312389374,-4.881901439952849,-1.16720397434235,1.516473288532341
9.377234706238642,3.9029821131706197,-1.4833687251091001,-1.5384320016861,1.516473288532341
9.377840399757723,4.192779476451871,2.78216106004715,-0.946862177467346,1.516473288532341
9.378446093276802,3.8598717616081197,-2.58268268995285,0.353633428001404,1.516473288532341
9.37905178679588,-4.0724329258918806,0.19074992723464998,1.3451715139389,1.516473288532341
9.379657480314961,-9.492362125110631,4.65506633348465,1.1104595998764,1.516473288532341
9.38026317383404,-1.03554816026688,-2.67848347120285,0.116526494407654,1.516473288532341
9.380868867353119,5.22503289442062,-1.6893404047966,-1.27258483371735,1.516473288532341
9.3814745608722,3.48864373426437,0.7727396733284,-1.6821331735611,1.516473288532341
9.382080254391278,4.997506038951871,-1.7372407954216,-0.376847529029846,1.516473288532341
9.382685947910357,-3.2988416172981303,-0.38165974073410003,1.02663391628265,1.516473288532341
9.383291641429437,-8.71158575792313,5.158020435047151,1.6637091115951501,1.516473288532341
9.383897334948516,-1.48820685167313,-1.15525104932785,0.408718877220154,1.516473288532341
9.384503028467595,3.72096062879562,-2.0342232172966,-1.1743890329361,1.516473288532341
9.385108721986676,3.28027703504562,0.15003459520339998,-1.58872741184235,1.516473288532341
9.385714415505754,4.844224788951871,-1.9360274165153502,-1.1169085641861,1.516473288532341
9.386320109024833,-2.06301153917313,-0.055937084484100306,1.74513977565765,1.516473288532341
9.386925802543914,-8.43136847276688,5.443027759265901,1.6517340139389,1.516473288532341
9.387531496062993,-3.7515003087043803,-0.30741413526535,0.969153447532654,1.516473288532341
9.388137189582071,2.59290642957687,-2.5539424555778503,-1.7707488962173499,1.516473288532341
9.38874288310115,4.16164422254562,-1.1049556391716,-1.71326842746735,1.516473288532341
9.38934857662023,5.989044124889371,-0.25472370557785,0.0973663381576535,1.516473288532341
9.38995427013931,-1.1217688633918799,0.17158977098464998,0.729651494407654,1.516473288532341
9.390559963658388,-7.329659488391879,3.4671366459846498,1.9008160451889,1.516473288532341
9.391165657177467,-5.37771857042313,0.9691312748909,0.121316533470154,1.516473288532341
9.391771350696548,0.518819515514374,-3.17185749464035,-0.8223211618423459,1.516473288532341
9.392377044215626,5.603445980358121,-1.6462300532341,-1.2653997751236,1.516473288532341
9.392982737734705,5.53159539442062,1.2206083256721498,-1.1456487985611,1.516473288532341
9.393588431253786,-0.0703552891731262,-0.4343501704216,0.952388310813904,1.516473288532341
9.394194124772865,-5.9668933751106294,1.0529569584846499,1.9870367483139,1.516473288532341
9.394799818291943,-6.97280157823563,2.03491496629715,0.7751568655014041,1.516473288532341
9.395405511811024,-0.491878726673126,-1.92644733839035,-0.657064814186096,1.516473288532341
9.396011205330103,5.802232601451871,-1.5552193110466002,-1.5001116891861,1.516473288532341
9.396616898849182,4.32690057020187,-0.10862751417159999,-1.0642181344986,1.516473288532341
9.397222592368262,1.86482049207687,-0.9564644282340999,0.997893681907654,1.516473288532341
9.397828285887341,-5.00649054307938,1.0122416264534,1.2781109670639,1.516473288532341
9.39843397940642,-7.71765265245438,3.37612590379715,0.985918584251404,1.516473288532341
9.3990396729255,-0.144600894641876,-0.6762471430778499,0.463804326438904,1.516473288532341
9.39964536644458,4.44665154676437,-1.6582051508903501,-1.16720397434235,1.516473288532341
9.400251059963658,4.83464471082687,-1.2869771235466,-1.5384320016861,1.516473288532341
9.400856753482739,3.48864373426437,-0.6786421626090999,0.181192021751404,1.516473288532341
9.401462447001817,-5.25796759386063,1.6014164311408998,1.6421539358139001,1.516473288532341
9.402068140520896,-7.62664191026688,3.7856742436409,1.3044561819076501,1.516473288532341
9.402673834039977,-1.6869934727668798,-1.1720161860466,-0.0343597360610965,1.516473288532341
9.403279527559055,3.6634801600456197,-2.6904585688591003,-1.4498162790298499,1.516473288532341
9.403885221078134,5.5292003748893706,-1.6797603266716001,-1.9455853219986,1.516473288532341
9.404490914597215,4.12332391004562,0.3703763920784,-0.120580439186096,1.516473288532341
9.405096608116294,-3.47607306261063,1.08169719285965,2.4325103811264,1.516473288532341
9.405702301635372,-7.1979334141731295,2.9857377202034,1.12722473659515,1.516473288532341
9.406307995154451,-4.48677130479813,-0.27867390089035,0.447039189720154,1.516473288532341
9.40691368867353,2.52345086317062,-2.2809102290153502,-1.6965032907486,1.516473288532341
9.40751938219261,6.33871697645187,-1.48576374464035,-1.4713714548110999,1.516473288532341
9.40812507571169,4.79392937879562,0.6338285405159001,0.26022766628265404,1.516473288532341
9.408730769230768,-2.0175061680793798,0.38235148973465,0.504519658470154,1.516473288532341
9.409336462749849,-7.34642462511063,1.8648685795784,1.9391363576889,1.516473288532341
9.409942156268928,-5.626800601673129,0.6529886967659,0.7152813772201541,1.516473288532341
9.410547849788006,2.25041863660812,-1.98392780714035,-1.26300475559235,1.516473288532341
9.411153543307087,5.816602718639371,-1.6174898188591,-1.47376647434235,1.516473288532341
9.411759236826166,5.11246697645187,-0.3050191157341,-0.709755243873596,1.516473288532341
9.412364930345245,-0.515828921985626,0.7248392827034,0.779946904563904,1.516473288532341
9.412970623864325,-7.46857062120438,1.2924589116096499,1.9798516897201501,1.516473288532341
9.413576317383404,-5.04481085557938,1.7786478764534,1.1871002248764,1.516473288532341
9.414182010902483,0.657730648326874,-0.5301509516716,-0.532523798561096,1.516473288532341
9.414787704421563,5.05498650770187,-2.01745808057785,-1.8904998727798499,1.516473288532341
9.415393397940642,5.97227898817062,-1.5384541743278501,-1.5288519235611,1.516473288532341
9.415999091459721,0.5068444178581241,0.3416361577034,0.650615849876404,1.516473288532341
9.416604784978801,-6.62312872667313,2.41332805223465,1.84094055690765,1.516473288532341
9.41721047849788,-6.678214175891879,2.1379008061409,1.2445806936264001,1.516473288532341
9.417816172016959,-0.853526675891876,-0.9588594477653499,-0.616349482154846,1.516473288532341
9.41842186553604,4.59993279676437,-2.5419673579216,-1.7779339548111,1.516473288532341
9.419027559055118,5.90521844129562,-1.95039753370285,-1.7444036813736,1.516473288532341
9.419633252574197,2.34142937879562,0.95236613817215,0.298547978782654,1.516473288532341
9.420238946093278,-5.693861148548129,2.1929862553596497,2.2600689748764,1.516473288532341
9.420844639612357,-6.738089664173129,1.9941996342658999,1.2876910451889,1.516473288532341
9.421450333131435,-2.40549933214188,-0.5541011469841,-0.237936396217346,1.516473288532341
9.422056026650514,3.57965447645187,-2.36234089307785,-1.94319030246735,1.516473288532341
9.422661720169593,7.1123082850456205,-2.1156538813591,-1.31569518527985,1.516473288532341
9.423267413688674,2.60488152723312,0.9978715092659001,0.425484013938904,1.516473288532341
9.423873107207752,-4.23289923448563,1.27808879442215,1.8145953420639,1.516473288532341
9.424478800726831,-6.61594366807938,1.5487260014534,1.15117493190765,1.516473288532341
9.425084494245912,-4.50593146104813,0.15482463426589999,-0.48701842746734597,1.516473288532341
9.42569018776499,3.09346551160812,-1.9288423579216,-1.0522430368423499,1.516473288532341
9.42629588128407,6.88238641004562,-2.6377681391716,-1.5575921579361,1.516473288532341
9.42690157480315,4.16164422254562,0.4230668217659,-0.42714293918609597,1.516473288532341
9.427507268322229,-2.80786261339188,1.56549113817215,1.43378723659515,1.516473288532341
9.428112961841308,-7.6434070469856294,1.51280070848465,1.69244934597015,1.516473288532341
9.428718655360388,-4.05806280870438,0.68891398973465,0.569185185813904,1.516473288532341
9.429324348879467,2.4060949061393697,-0.7313325922966,-0.630719599342346,1.516473288532341
9.429930042398546,5.24658807020187,-2.57310261182785,-1.7444036813736,1.516473288532341
9.430535735917626,5.67290154676437,-1.60551472120285,0.0063555959701534995,1.516473288532341
9.431141429436705,-1.12416388292313,2.1522709233284,1.7619049123764001,1.516473288532341
9.431747122955784,-8.14875616807938,2.5187089116096497,1.60622864284515,1.516473288532341
9.432352816474864,-4.968170230579379,0.7871097905159,1.52000793972015,1.516473288532341
9.432958509993943,0.9475280116081239,-0.7169624751090999,-1.34443541965485,1.516473288532341
9.433564203513022,5.09570183973312,-3.28202839307785,-2.4102191110611,1.516473288532341
