Time (s),Accel X (m/s^2),Accel Y (m/s^2),Accel Z (m/s^2),CI Value
2.15275,0.20148494739532502,-0.160168521595001,-0.139905440139771,0.7146870648975273
2.1533560606060607,-0.10268253307342501,0.0122728846549988,-0.34827213935852097,0.7146870648975273
2.153962121212121,-0.136212806510925,-0.11705817003250099,-0.0824249713897708,0.7146870648975273
2.154568181818182,-0.057177161979675296,-0.152983463001251,0.291198075485229,0.7146870648975273
2.1551742424242426,-0.203273353385925,0.108073665904999,0.173842118453979,0.7146870648975273
2.155780303030303,-0.0140668104171753,-0.08113287706375119,0.037326005172729194,0.7146870648975273
2.1563863636363636,-0.0619672010421753,-0.17693365831375102,0.46842952079772904,0.7146870648975273
2.1569924242424245,-0.0380170057296753,0.0817284510612488,0.0972014934539792,0.7146870648975273
2.157598484848485,-0.15776798229217498,-0.0595777012825012,0.044511063766479196,0.7146870648975273
2.1582045454545455,0.012278404426574699,0.148788997936249,0.40855403251647904,0.7146870648975273
2.158810606060606,0.0673638536453247,0.129628841686249,0.149891923141479,0.7146870648975273
2.159416666666667,0.0529937364578247,-0.00449225206375122,0.121151688766479,0.7146870648975273
2.1600227272727275,-0.0404120252609253,-0.11705817003250099,0.0828313762664792,0.7146870648975273
2.160628787878788,-0.38768985729217503,-0.234414127063751,0.109176591110229,0.7146870648975273
2.1612348484848485,-0.24159366588592499,-0.07394781847000119,-0.00817936592102077,0.7146870648975273
2.1618409090909094,-0.0428070447921753,0.0553832362174988,0.590575516891479,0.7146870648975273
2.16244696969697,-0.164953040885925,0.0793334315299988,0.284013016891479,0.7146870648975273
2.1630530303030304,-0.16255802135467498,-0.220044009876251,-0.185410811233521,0.7146870648975273
2.163659090909091,-0.0404120252609253,-0.174538638782501,0.470824540328979,0.7146870648975273
2.164265151515152,-0.07633731822967531,-0.102688052845001,0.262457841110229,0.7146870648975273
2.1648712121212124,-0.210458411979675,0.00748284559249878,0.135521805953979,0.7146870648975273
2.165477272727273,0.0601787950515747,-0.13621832628250102,0.221742509078979,0.7146870648975273
2.1660833333333334,0.103289146614075,-0.0284424473762512,-0.0393146198272708,0.7146870648975273
2.166689393939394,-0.174533119010925,0.0458031580924988,0.216952470016479,0.7146870648975273
2.167295454545455,-0.10028751354217501,-0.126638248157501,0.176237137985229,0.7146870648975273
2.1679015151515153,0.110474205207825,-0.16735358018875102,0.137916825485229,0.7146870648975273
2.168507575757576,-0.0332269666671753,0.0505931971549988,0.24329768486022899,0.7146870648975273
2.1691136363636367,-0.243988685417175,0.036223079967498795,0.00140071220397923,0.7146870648975273
2.1697196969696972,-0.203273353385925,-0.054787662220001206,0.0540911418914792,0.7146870648975273
2.1703257575757577,-0.299074134635925,0.110468685436249,0.0756463176727292,0.7146870648975273
2.1709318181818182,-0.131422767448425,-0.160168521595001,0.0612762004852292,0.7146870648975273
2.171537878787879,-0.0619672010421753,-0.021257388782501198,0.159472001266479,0.7146870648975273
2.1721439393939397,-0.0284369276046753,0.0529882166862488,0.137916825485229,0.7146870648975273
2.17275,-0.07394229869842531,-0.0428125645637512,0.142706864547729,0.7146870648975273
2.1733560606060607,-0.08831241588592531,-0.021257388782501198,0.149891923141479,0.7146870648975273
2.173962121212121,-0.09070743541717531,-0.0571826817512512,0.109176591110229,0.7146870648975273
2.174568181818182,-0.0643622205734253,-0.15777350206375101,0.0708562786102292,0.7146870648975273
2.1751742424242426,-0.047597083854675294,-0.0691577794075012,0.154681962203979,0.7146870648975273
2.175780303030303,-0.0380170057296753,0.038618099498748795,0.209767411422729,0.7146870648975273
2.1763863636363636,0.18232479114532502,-0.0907129551887512,-0.0417096393585208,0.7146870648975273
2.1769924242424246,0.0553887559890747,-0.07155279893875119,0.152286942672729,0.7146870648975273
2.177598484848485,-0.049992103385925295,0.0625682948112488,0.26724788017272905,0.7146870648975273
2.1782045454545456,-0.00209171276092531,0.041013119029998796,0.176237137985229,0.7146870648975273
2.178810606060606,0.249385338020325,-0.18172369737625102,-0.0991901081085208,0.7146870648975273
2.179416666666667,0.33081600208282497,-0.00688727159500122,0.169052079391479,0.7146870648975273
2.1800227272727275,-0.124237708854675,0.16794915418624898,0.0301409465789792,0.7146870648975273
2.180628787878788,-0.10028751354217501,0.0481981776237488,0.0109807903289792,0.7146870648975273
2.1812348484848485,-0.11705265026092501,-0.0164673497200012,0.39657893486022905,0.7146870648975273
2.1818409090909094,-0.0380170057296753,0.026643001842498803,0.157076981735229,0.7146870648975273
2.18244696969697,0.09131404895782469,-0.07155279893875119,0.365443680953979,0.7146870648975273
2.1830530303030304,-0.131422767448425,-0.299079654407501,0.303173173141479,0.7146870648975273
2.183659090909091,0.08891902942657469,-0.200883853626251,0.0732512981414792,0.7146870648975273
2.184265151515152,0.0290435411453247,-0.0643677403450012,0.0612762004852292,0.7146870648975273
2.1848712121212124,-0.0452020643234253,-0.200883853626251,0.159472001266479,0.7146870648975273
2.185477272727273,-0.004486732292175309,-0.0619727208137512,0.216952470016479,0.7146870648975273
2.1860833333333334,0.105684166145325,-0.12424322862625099,0.044511063766479196,0.7146870648975273
2.186689393939394,0.00509334583282469,-0.129033267688751,0.0588811809539792,0.7146870648975273
2.187295454545455,-0.246383704948425,0.0673583338737488,0.0253509075164792,0.7146870648975273
2.1879015151515153,0.0529937364578247,-0.07394781847000119,-0.0201544635772708,0.7146870648975273
2.188507575757576,-0.023646888542175303,-0.08113287706375119,-0.0800299518585208,0.7146870648975273
2.1891136363636368,-0.0643622205734253,-0.11226813097000099,-0.00578434638977077,0.7146870648975273
2.1897196969696973,-0.0380170057296753,-0.07873785753250119,0.137916825485229,0.7146870648975273
2.1903257575757578,-0.09070743541717531,-0.12184820909500099,0.039721024703979195,0.7146870648975273
2.1909318181818183,-0.00927677135467531,-0.07155279893875119,0.0828313762664792,0.7146870648975273
2.1915378787878788,0.09610408802032469,-0.0164673497200012,0.214557450485229,0.7146870648975273
2.1921439393939397,0.0577837755203247,-0.00688727159500122,-0.0896100299835208,0.7146870648975273
2.19275,-0.08831241588592531,0.0314330409049988,-0.06565983467102081,0.7146870648975273
2.1933560606060607,0.0577837755203247,-0.0284424473762512,0.245692704391479,0.7146870648975273
2.193962121212121,-0.10986759166717501,0.09370354871749881,0.00140071220397923,0.7146870648975273
2.194568181818182,-0.11944766979217501,-0.184118716907501,0.413344071578979,0.7146870648975273
2.1951742424242426,-0.10268253307342501,-0.10987311143875099,0.008585770797729231,0.7146870648975273
2.195780303030303,-0.299074134635925,-0.0452075840950012,0.171447098922729,0.7146870648975273
2.1963863636363636,-0.210458411979675,-0.0643677403450012,0.31035823173522903,0.7146870648975273
2.1969924242424246,-0.349369544792175,-0.143403384876251,0.0133758098602292,0.7146870648975273
2.197598484848485,-0.253568763542175,-0.205673892688751,0.0229558879852292,0.7146870648975273
2.1982045454545456,-0.193693275260925,0.22303460340499898,0.0612762004852292,0.7146870648975273
2.198810606060606,-0.054782142448425296,-0.203278873157501,0.31754329032897904,0.7146870648975273
2.199416666666667,0.249385338020325,-0.220044009876251,0.133126786422729,0.7146870648975273
2.2000227272727275,-0.047597083854675294,-0.0260474278450012,-0.149485518264771,0.7146870648975273
2.200628787878788,-0.164953040885925,0.036223079967498795,-0.0920050495147708,0.7146870648975273
2.2012348484848485,0.0529937364578247,-0.0284424473762512,0.38939387626647903,0.7146870648975273
2.2018409090909095,0.041018638801574706,-0.10987311143875099,0.264852860641479,0.7146870648975273
2.20244696969697,0.0146734239578247,-0.12424322862625099,0.236112626266479,0.7146870648975273
2.2030530303030305,0.112869224739075,-0.184118716907501,0.152286942672729,0.7146870648975273
2.203659090909091,-0.057177161979675296,0.208664486217499,0.0157708293914792,0.7146870648975273
2.2042651515151515,-0.021251869010925302,-0.0140723301887512,0.145101884078979,0.7146870648975273
2.2048712121212124,0.00988338489532469,-0.203278873157501,0.195397294235229,0.7146870648975273
2.205477272727273,0.09131404895782469,-0.0404175450325012,0.0253509075164792,0.7146870648975273
2.2060833333333334,0.266150474739075,-0.0356275059700012,0.0948064739227292,0.7146870648975273
2.206689393939394,0.021858482551574698,0.00748284559249878,0.181027177047729,0.7146870648975273
2.207295454545455,0.0266485216140747,-0.0332324864387512,0.0301409465789792,0.7146870648975273
2.2079015151515153,-0.148187904167175,0.129628841686249,0.394183915328979,0.7146870648975273
2.208507575757576,-0.07394229869842531,0.13202386121749898,0.351073563766479,0.7146870648975273
2.209113636363637,-0.0332269666671753,-0.00449225206375122,0.0181658489227292,0.7146870648975273
2.2097196969696973,-0.0931024549484253,-0.00449225206375122,0.35586360282897905,0.7146870648975273
2.2103257575757578,-0.0954974744796753,-0.0955029942512512,0.207372391891479,0.7146870648975273
2.2109318181818183,-0.289494056510925,-0.15777350206375101,0.039721024703979195,0.7146870648975273
2.2115378787878788,0.000303306770324691,-0.0236524083137512,0.039721024703979195,0.7146870648975273
2.2121439393939397,-0.0691522596359253,-0.0236524083137512,-0.0393146198272708,0.7146870648975273
2.21275,-0.248778724479675,-0.0595777012825012,0.149891923141479,0.7146870648975273
2.2133560606060607,-0.049992103385925295,-0.0571826817512512,0.26964289970397903,0.7146870648975273
2.213962121212121,-0.0595721815109253,-0.0236524083137512,0.231322587203979,0.7146870648975273
2.214568181818182,-0.131422767448425,0.112863704967499,0.236112626266479,0.7146870648975273
2.2151742424242427,-0.0619672010421753,-0.152983463001251,0.176237137985229,0.7146870648975273
2.215780303030303,0.0290435411453247,-0.00688727159500122,0.135521805953979,0.7146870648975273
2.2163863636363637,0.000303306770324691,0.0649633143424988,0.0732512981414792,0.7146870648975273
2.216992424242424,-0.0619672010421753,-0.107478091907501,0.0277459270477292,0.7146870648975273
2.217598484848485,-0.0284369276046753,-0.0452075840950012,0.0493011028289792,0.7146870648975273
2.2182045454545456,-0.004486732292175309,0.00269280652999878,-0.0920050495147708,0.7146870648975273
2.218810606060606,-0.07873233776092531,-0.021257388782501198,0.0948064739227292,0.7146870648975273
2.219416666666667,-0.0284369276046753,0.0745433924674988,0.0684612590789792,0.7146870648975273
2.2200227272727275,-0.164953040885925,0.112863704967499,0.118756669235229,0.7146870648975273
2.220628787878788,-0.164953040885925,0.0194579432487488,0.0516961223602292,0.7146870648975273
2.2212348484848485,-0.141002845573425,-0.0978980137825012,-0.0369196002960208,0.7146870648975273
2.2218409090909095,-0.07633731822967531,0.038618099498748795,0.181027177047729,0.7146870648975273
2.22244696969697,-0.0978924940109253,0.103283626842499,-0.000994307327270769,0.7146870648975273
2.2230530303030305,-0.0954974744796753,-0.018862369251251197,0.461244462203979,0.7146870648975273
2.223659090909091,-0.188903236198425,-0.0260474278450012,0.722301591110229,0.7146870648975273
2.2242651515151515,-0.272728919792175,0.000297786998748779,0.228927567672729,0.7146870648975273
2.2248712121212124,0.0577837755203247,-0.00688727159500122,0.190607255172729,0.7146870648975273
2.225477272727273,0.0146734239578247,-0.21764899034500101,0.432504227828979,0.7146870648975273
2.2260833333333334,0.0458086778640747,-0.299079654407501,0.154681962203979,0.7146870648975273
2.226689393939394,0.0482036973953247,-0.18651373643875102,-0.233311201858521,0.7146870648975273
2.227295454545455,-0.21764347057342498,-0.19609381456375102,-0.00338932685852077,0.7146870648975273
2.2279015151515154,-0.16255802135467498,-0.0643677403450012,0.0876214153289792,0.7146870648975273
2.228507575757576,-0.131422767448425,0.0505931971549988,0.0948064739227292,0.7146870648975273
2.2291136363636364,-0.210458411979675,-0.0978980137825012,0.113966630172729,0.7146870648975273
2.2297196969696973,0.0026983263015746897,-0.224834048938751,0.145101884078979,0.7146870648975273
2.230325757575758,-0.16255802135467498,-0.11705817003250099,-0.0800299518585208,0.7146870648975273
2.2309318181818183,-0.0140668104171753,-0.133823306751251,0.0732512981414792,0.7146870648975273
2.231537878787879,-0.0931024549484253,-0.16735358018875102,0.037326005172729194,0.7146870648975273
2.2321439393939397,-0.188903236198425,-0.08592291612625119,-0.221336104202271,0.7146870648975273
2.2327500000000002,-0.11226261119842501,-0.08352789659500119,0.135521805953979,0.7146870648975273
2.2333560606060607,-0.0954974744796753,-0.13142828722000102,0.0516961223602292,0.7146870648975273
2.2339621212121212,-0.0380170057296753,-0.279919498157501,0.006190751266479231,0.7146870648975273
2.234568181818182,-0.0308319471359253,0.024247982311248802,0.0588811809539792,0.7146870648975273
2.2351742424242427,0.134424400520325,-0.0931079747200012,-0.00817936592102077,0.7146870648975273
2.235780303030303,-0.10507755260467501,-0.193698795032501,0.219347489547729,0.7146870648975273
2.2363863636363637,-0.10268253307342501,-0.15777350206375101,-0.0608697956085208,0.7146870648975273
2.236992424242424,0.112869224739075,-0.22722906847000102,-0.142300459671021,0.7146870648975273
2.237598484848485,-0.10268253307342501,0.021852962779998802,0.0493011028289792,0.7146870648975273
2.2382045454545456,0.0769439317703247,-0.126638248157501,-0.125535322952271,0.7146870648975273
2.238810606060606,-0.054782142448425296,0.00987786512374878,0.0612762004852292,0.7146870648975273
2.239416666666667,-0.30625919322967504,0.0314330409049988,0.181027177047729,0.7146870648975273
2.2400227272727276,0.012278404426574699,0.09609856824874881,-0.00338932685852077,0.7146870648975273
2.240628787878788,0.021858482551574698,-0.049997623157501205,0.226532548141479,0.7146870648975273
2.2412348484848486,-0.17692813854217498,-0.13142828722000102,0.38699885673522905,0.7146870648975273
2.241840909090909,-0.279913978385925,-0.0308374669075012,0.118756669235229,0.7146870648975273
2.24244696969697,0.0290435411453247,-0.16735358018875102,0.221742509078979,0.7146870648975273
2.2430530303030305,0.12484432239532499,-0.00449225206375122,0.31035823173522903,0.7146870648975273
2.243659090909091,-0.0308319471359253,-0.0380225255012512,0.193002274703979,0.7146870648975273
2.2442651515151515,0.0529937364578247,-0.107478091907501,0.0564861614227292,0.7146870648975273
2.2448712121212124,0.0649688341140747,-0.215253970813751,0.353468583297729,0.7146870648975273
2.245477272727273,-0.11465763072967501,-0.164958560657501,0.118756669235229,0.7146870648975273
2.2460833333333334,-0.10747257213592501,-0.10987311143875099,-0.0153644245147708,0.7146870648975273
2.246689393939394,0.0721538927078247,-0.102688052845001,0.209767411422729,0.7146870648975273
2.247295454545455,-0.0954974744796753,-0.0619727208137512,0.181027177047729,0.7146870648975273
2.2479015151515154,-0.11944766979217501,0.0481981776237488,0.248087723922729,0.7146870648975273
2.248507575757576,0.215855064582825,0.00748284559249878,0.0684612590789792,0.7146870648975273
2.2491136363636364,-0.10507755260467501,-0.0667627598762512,0.245692704391479,0.7146870648975273
2.2497196969696973,-0.275123939323425,-0.07394781847000119,0.034930985641479194,0.7146870648975273
2.250325757575758,0.0026983263015746897,-0.00209723253250122,-0.171040694046021,0.7146870648975273
2.2509318181818183,0.167954673957825,-0.0978980137825012,0.159472001266479,0.7146870648975273
2.251537878787879,0.031438560676574696,-0.07873785753250119,0.250482743453979,0.7146870648975273
2.2521439393939398,-0.023646888542175303,0.000297786998748779,-0.0369196002960208,0.7146870648975273
2.2527500000000003,-0.133817786979675,-0.0978980137825012,0.226532548141479,0.7146870648975273
2.253356060606061,-0.0691522596359253,-0.12184820909500099,0.533095048141479,0.7146870648975273
2.2539621212121213,-0.11465763072967501,-0.141008365345001,-0.00338932685852077,0.7146870648975273
2.254568181818182,0.0625738145828247,-0.129033267688751,-0.226126143264771,0.7146870648975273
2.2551742424242422,0.170349693489075,0.0458031580924988,-0.06326481513977081,0.7146870648975273
2.255780303030303,-0.129027747917175,0.0194579432487488,0.44687434501647905,0.7146870648975273
2.256386363636364,0.108079185676575,-0.0308374669075012,0.214557450485229,0.7146870648975273
2.256992424242424,-0.054782142448425296,-0.08831793565750119,0.224137528610229,0.7146870648975273
2.257598484848485,-0.229618568229675,-0.0380225255012512,0.18342219657897899,0.7146870648975273
2.258204545454545,-0.131422767448425,-0.105083072376251,0.0301409465789792,0.7146870648975273
2.258810606060606,0.0769439317703247,-0.0164673497200012,0.281617997360229,0.7146870648975273
2.259416666666667,-0.00927677135467531,-0.07634283800125119,0.17863215751647898,0.7146870648975273
2.260022727272727,-0.16734806041717498,-0.19130377550125102,0.157076981735229,0.7146870648975273
2.260628787878788,0.158374595832825,-0.19130377550125102,-0.132720381546021,0.7146870648975273
2.261234848484848,0.151189537239075,-0.0907129551887512,0.0540911418914792,0.7146870648975273
2.261840909090909,-0.0380170057296753,0.112863704967499,0.27682795829772905,0.7146870648975273
2.26244696969697,0.033833580207824704,-0.174538638782501,0.181027177047729,0.7146870648975273
2.26305303030303,-0.174533119010925,-0.148193423938751,0.111571610641479,0.7146870648975273
2.263659090909091,-0.11226261119842501,-0.152983463001251,0.171447098922729,0.7146870648975273
2.264265151515152,-0.11944766979217501,-0.0931079747200012,0.0612762004852292,0.7146870648975273
2.264871212121212,-0.057177161979675296,-0.18172369737625102,0.123546708297729,0.7146870648975273
2.265477272727273,-0.0188568494796753,0.00269280652999878,0.137916825485229,0.7146870648975273
2.266083333333333,-0.18171817760467499,-0.07634283800125119,-0.0848199909210208,0.7146870648975273
2.266689393939394,0.031438560676574696,-0.22722906847000102,-0.0129694049835208,0.7146870648975273
2.2672954545454553,-0.057177161979675296,0.0577782557487488,0.128336747360229,0.7146870648975273
2.2679015151515154,-0.08831241588592531,0.146393978404999,-0.0584747760772708,0.7146870648975273
2.2685075757575763,-0.0667572401046753,0.0505931971549988,0.125941727828979,0.7146870648975273
2.2691136363636364,-0.311049232292175,-0.107478091907501,0.23850764579772898,0.7146870648975273
2.2697196969696973,-0.224828529167175,-0.0907129551887512,0.30796321220397904,0.7146870648975273
2.2703257575757583,0.0482036973953247,-0.00209723253250122,0.463639481735229,0.7146870648975273
2.2709318181818183,0.00988338489532469,-0.0164673497200012,0.26724788017272905,0.7146870648975273
2.2715378787878793,-0.10028751354217501,-0.11945318956375099,0.176237137985229,0.7146870648975273
2.2721439393939393,-0.0715472791671753,-0.049997623157501205,0.00379573173522923,0.7146870648975273
2.2727500000000003,0.20627498645782502,-0.052392642688751205,0.34628352470397905,0.7146870648975273
2.273356060606061,-0.0164618299484253,-0.18651373643875102,0.169052079391479,0.7146870648975273
2.2739621212121213,-0.138607826042175,-0.0380225255012512,0.109176591110229,0.7146870648975273
2.274568181818182,-0.021251869010925302,-0.129033267688751,0.23850764579772898,0.7146870648975273
2.2751742424242423,-0.12663272838592501,-0.0452075840950012,-0.053684737014770806,0.7146870648975273
2.275780303030303,-0.0978924940109253,0.0146679041862488,0.0995965129852292,0.7146870648975273
2.276386363636364,0.24699031848907502,-0.18651373643875102,0.255272782516479,0.7146870648975273
2.276992424242424,-0.10268253307342501,-0.0284424473762512,0.128336747360229,0.7146870648975273
2.277598484848485,-0.399664954948425,0.024247982311248802,0.159472001266479,0.7146870648975273
2.278204545454545,0.041018638801574706,-0.0236524083137512,0.159472001266479,0.7146870648975273
2.278810606060606,-0.0643622205734253,-0.129033267688751,0.250482743453979,0.7146870648975273
2.279416666666667,-0.08352237682342531,-0.0571826817512512,0.133126786422729,0.7146870648975273
2.280022727272727,-0.0595721815109253,0.0314330409049988,-0.000994307327270769,0.7146870648975273
2.280628787878788,0.0026983263015746897,-0.0164673497200012,-0.0800299518585208,0.7146870648975273
2.281234848484848,0.00748836536407469,0.00508782606124878,0.0181658489227292,0.7146870648975273
2.281840909090909,-0.270333900260925,-0.0667627598762512,0.27922297782897904,0.7146870648975273
2.28244696969697,-0.0595721815109253,-0.255969302845001,0.293593095016479,0.7146870648975273
2.28305303030303,-0.0188568494796753,-0.105083072376251,0.43968928642272903,0.7146870648975273
2.283659090909091,-0.22722354869842498,0.153579036998749,0.451664384078979,0.7146870648975273
2.284265151515152,0.0841289903640747,-0.11226813097000099,0.31035823173522903,0.7146870648975273
2.284871212121212,0.155979576301575,-0.07634283800125119,-0.168645674514771,0.7146870648975273
2.285477272727273,-0.0643622205734253,-0.169748599720001,0.03253596611022919,0.7146870648975273
2.286083333333333,-0.23201358776092498,-0.07394781847000119,-0.000994307327270769,0.7146870648975273
2.286689393939394,-0.208063392448425,-0.00209723253250122,-0.0584747760772708,0.7146870648975273
2.2872954545454554,-0.08831241588592531,-0.07155279893875119,0.252877762985229,0.7146870648975273
2.287901515151515,-0.11226261119842501,-0.0595777012825012,0.121151688766479,0.7146870648975273
2.2885075757575764,-0.0954974744796753,-0.272734439563751,0.322333329391479,0.7146870648975273
2.289113636363636,-0.07394229869842531,0.00748284559249878,0.228927567672729,0.7146870648975273
2.2897196969696973,-0.18171817760467499,-0.0691577794075012,-0.056079756546020806,0.7146870648975273
2.2903257575757583,-0.052387122917175295,-0.26554938097000097,0.128336747360229,0.7146870648975273
2.2909318181818183,0.112869224739075,0.0721483729362488,0.0924114543914792,0.7146870648975273
2.2915378787878793,0.033833580207824704,-0.07873785753250119,0.125941727828979,0.7146870648975273
2.2921439393939393,0.041018638801574706,-0.0332324864387512,0.181027177047729,0.7146870648975273
2.2927500000000003,-0.10028751354217501,0.175134212779999,0.03253596611022919,0.7146870648975273
2.2933560606060612,-0.334999427604675,-0.102688052845001,-0.0345245807647708,0.7146870648975273
2.2939621212121213,-0.129027747917175,-0.00449225206375122,0.111571610641479,0.7146870648975273
2.2945681818181822,-0.131422767448425,-0.0380225255012512,0.32712336845397905,0.7146870648975273
2.2951742424242423,-0.141002845573425,0.0649633143424988,0.113966630172729,0.7146870648975273
2.2957803030303032,-0.169743079948425,0.0290380213737488,-0.000994307327270769,0.7146870648975273
2.296386363636364,0.021858482551574698,-0.141008365345001,0.190607255172729,0.7146870648975273
2.2969924242424242,0.12005428333282499,-0.0595777012825012,0.0133758098602292,0.7146870648975273
2.297598484848485,-0.10747257213592501,-0.07873785753250119,0.145101884078979,0.7146870648975273
2.2982045454545452,-0.133817786979675,-0.00928229112625122,0.305568192672729,0.7146870648975273
2.298810606060606,-0.138607826042175,-0.102688052845001,0.322333329391479,0.7146870648975273
2.299416666666667,0.112869224739075,-0.164958560657501,0.0852263957977292,0.7146870648975273
2.300022727272727,-0.0356219861984253,-0.0428125645637512,0.121151688766479,0.7146870648975273
2.300628787878788,-0.0931024549484253,-0.0356275059700012,0.45645442314147905,0.7146870648975273
2.301234848484848,-0.0428070447921753,-0.00688727159500122,0.18342219657897899,0.7146870648975273
2.301840909090909,-0.0188568494796753,0.00987786512374878,0.0660662395477292,0.7146870648975273
2.30244696969697,0.103289146614075,0.146393978404999,0.157076981735229,0.7146870648975273
2.30305303030303,-0.0931024549484253,0.0745433924674988,0.240902665328979,0.7146870648975273
2.303659090909091,-0.10986759166717501,0.0553832362174988,-0.053684737014770806,0.7146870648975273
2.304265151515152,0.129634361457825,0.0122728846549988,0.101991532516479,0.7146870648975273
2.304871212121212,-0.22722354869842498,-0.141008365345001,0.233717606735229,0.7146870648975273
2.305477272727273,-0.349369544792175,-0.11466315050125099,0.109176591110229,0.7146870648975273
2.306083333333333,0.00748836536407469,-0.052392642688751205,0.0133758098602292,0.7146870648975273
2.306689393939394,-0.10986759166717501,0.00748284559249878,0.044511063766479196,0.7146870648975273
2.3072954545454554,-0.16734806041717498,0.0122728846549988,0.214557450485229,0.7146870648975273
2.307901515151515,-0.047597083854675294,-0.21764899034500101,0.0660662395477292,0.7146870648975273
2.3085075757575764,-0.004486732292175309,-0.255969302845001,0.008585770797729231,0.7146870648975273
2.309113636363636,-0.0332269666671753,-0.0356275059700012,0.104386552047729,0.7146870648975273
2.3097196969696974,-0.047597083854675294,-0.138613345813751,0.0516961223602292,0.7146870648975273
2.3103257575757583,-0.0619672010421753,-0.0691577794075012,0.03253596611022919,0.7146870648975273
2.3109318181818184,-0.200878333854675,0.0314330409049988,0.044511063766479196,0.7146870648975273
2.3115378787878793,-0.0954974744796753,0.143998958873749,-0.135115401077271,0.7146870648975273
2.3121439393939394,-0.08591739635467531,-0.160168521595001,0.03253596611022919,0.7146870648975273
2.3127500000000003,-0.215248451042175,-0.133823306751251,-0.0920050495147708,0.7146870648975273
2.3133560606060612,-0.10507755260467501,-0.07155279893875119,0.6480559856414789,0.7146870648975273
2.3139621212121213,0.0793389513015747,-0.205673892688751,0.391788895797729,0.7146870648975273
2.3145681818181822,0.103289146614075,0.0314330409049988,0.00140071220397923,0.7146870648975273
2.3151742424242423,-0.049992103385925295,-0.129033267688751,0.391788895797729,0.7146870648975273
2.3157803030303032,-0.047597083854675294,-0.018862369251251197,0.0684612590789792,0.7146870648975273
2.316386363636364,0.0194634630203247,-0.08352789659500119,0.245692704391479,0.7146870648975273
2.3169924242424242,-0.0260419080734253,0.0290380213737488,0.204977372360229,0.7146870648975273
2.317598484848485,0.0505987169265747,-0.00209723253250122,-0.0177594440460208,0.7146870648975273
2.3182045454545452,0.12244930286407499,-0.174538638782501,0.042116044235229196,0.7146870648975273
2.318810606060606,-0.25835880260467503,0.0889135096549988,0.171447098922729,0.7146870648975273
2.319416666666667,-0.136212806510925,0.0338280604362488,0.255272782516479,0.7146870648975273
2.320022727272727,-0.023646888542175303,0.09370354871749881,0.176237137985229,0.7146870648975273
2.320628787878788,-0.16734806041717498,0.00748284559249878,0.216952470016479,0.7146870648975273
2.321234848484848,-0.138607826042175,-0.0595777012825012,0.312753251266479,0.7146870648975273
2.321840909090909,-0.07873233776092531,0.0553832362174988,0.157076981735229,0.7146870648975273
2.32244696969697,-0.07394229869842531,-0.15777350206375101,0.28640803642272905,0.7146870648975273
2.32305303030303,0.024253502082824698,-0.0356275059700012,0.130731766891479,0.7146870648975273
2.323659090909091,0.160769615364075,-0.049997623157501205,0.0660662395477292,0.7146870648975273
2.324265151515152,-0.0332269666671753,-0.152983463001251,0.245692704391479,0.7146870648975273
2.324871212121212,-0.150582923698425,-0.11705817003250099,0.0900164348602292,0.7146870648975273
2.325477272727273,0.0793389513015747,0.00508782606124878,0.116361649703979,0.7146870648975273
2.326083333333333,-0.272728919792175,0.0697533534049988,0.212162430953979,0.7146870648975273
2.326689393939394,-0.148187904167175,-0.133823306751251,0.113966630172729,0.7146870648975273
2.327295454545455,0.0745489122390747,0.00508782606124878,-0.113560225296021,0.7146870648975273
2.327901515151515,-0.145792884635925,-0.0667627598762512,0.118756669235229,0.7146870648975273
2.328507575757576,-0.10747257213592501,-0.155378482532501,0.164262040328979,0.7146870648975273
2.329113636363636,-0.0643622205734253,-0.07394781847000119,-0.113560225296021,0.7146870648975273
2.329719696969697,0.0649688341140747,-0.0260474278450012,0.26964289970397903,0.7146870648975273
2.3303257575757583,0.043413658332824706,-0.0452075840950012,0.142706864547729,0.7146870648975273
2.330931818181818,-0.021251869010925302,0.00269280652999878,-0.0201544635772708,0.7146870648975273
2.3315378787878793,-0.00927677135467531,-0.0308374669075012,0.181027177047729,0.7146870648975273
2.332143939393939,0.144004478645325,-0.200883853626251,0.248087723922729,0.7146870648975273
2.3327500000000003,0.0841289903640747,-0.107478091907501,0.008585770797729231,0.7146870648975273
2.3333560606060613,-0.0595721815109253,-0.047602603626251204,0.262457841110229,0.7146870648975273
2.3339621212121213,-0.121842689323425,0.09370354871749881,0.214557450485229,0.7146870648975273
2.3345681818181823,0.0697588731765747,-0.0236524083137512,0.0660662395477292,0.7146870648975273
2.3351742424242423,-0.150582923698425,-0.22722906847000102,0.111571610641479,0.7146870648975273
2.3357803030303033,-0.21764347057342498,-0.054787662220001206,0.0469060832977292,0.7146870648975273
2.336386363636364,-0.0356219861984253,0.021852962779998802,-0.044104658889770804,0.7146870648975273
2.3369924242424243,-0.0691522596359253,0.024247982311248802,0.0157708293914792,0.7146870648975273
2.337598484848485,-0.17213809947967498,-0.12424322862625099,0.25766780204772904,0.7146870648975273
2.3382045454545453,-0.18171817760467499,-0.13621832628250102,0.219347489547729,0.7146870648975273
2.338810606060606,-0.220038490104675,-0.0619727208137512,-0.0369196002960208,0.7146870648975273
2.339416666666667,-0.047597083854675294,0.0697533534049988,0.0109807903289792,0.7146870648975273
2.340022727272727,-0.049992103385925295,-0.0978980137825012,0.293593095016479,0.7146870648975273
2.340628787878788,0.00988338489532469,-0.234414127063751,0.171447098922729,0.7146870648975273
2.341234848484848,0.0482036973953247,-0.18651373643875102,0.0948064739227292,0.7146870648975273
2.341840909090909,0.021858482551574698,-0.28710455675125096,-0.06565983467102081,0.7146870648975273
2.34244696969697,0.108079185676575,0.0290380213737488,0.43968928642272903,0.7146870648975273
2.34305303030303,0.0266485216140747,-0.11705817003250099,0.681586259078979,0.7146870648975273
2.343659090909091,0.036228599739074704,-0.08352789659500119,0.188212235641479,0.7146870648975273
2.344265151515152,-0.0954974744796753,-0.0164673497200012,-0.0177594440460208,0.7146870648975273
2.344871212121212,0.09849910755157469,-0.18651373643875102,0.101991532516479,0.7146870648975273
2.345477272727273,0.12484432239532499,-0.208068912220001,0.121151688766479,0.7146870648975273
2.346083333333333,-0.0978924940109253,-0.205673892688751,0.0612762004852292,0.7146870648975273
2.346689393939394,-0.049992103385925295,-0.138613345813751,-0.101585127639771,0.7146870648975273
2.347295454545455,-0.10747257213592501,-0.105083072376251,-0.103980147171021,0.7146870648975273
2.347901515151515,-0.239198646354675,-0.00209723253250122,0.0564861614227292,0.7146870648975273
2.348507575757576,-0.09070743541717531,-0.00449225206375122,0.0493011028289792,0.7146870648975273
2.349113636363636,-0.0978924940109253,0.00748284559249878,0.26964289970397903,0.7146870648975273
2.349719696969697,-0.0380170057296753,0.0458031580924988,0.233717606735229,0.7146870648975273
2.3503257575757583,-0.0452020643234253,-0.08352789659500119,0.0301409465789792,0.7146870648975273
2.350931818181818,-0.052387122917175295,-0.11945318956375099,-0.056079756546020806,0.7146870648975273
2.3515378787878793,-0.00209171276092531,0.17752923231124898,-0.187805830764771,0.7146870648975273
2.3521439393939394,-0.160163001823425,-0.08113287706375119,0.034930985641479194,0.7146870648975273
2.3527500000000003,-0.164953040885925,-0.234414127063751,0.197792313766479,0.7146870648975273
2.3533560606060613,-0.184113197135925,-0.11945318956375099,0.0876214153289792,0.7146870648975273
2.3539621212121213,-0.138607826042175,-0.0955029942512512,0.0948064739227292,0.7146870648975273
2.3545681818181823,-0.07873233776092531,-0.11226813097000099,0.169052079391479,0.7146870648975273
2.3551742424242423,-0.0619672010421753,-0.133823306751251,-0.0153644245147708,0.7146870648975273
2.3557803030303033,-0.10747257213592501,-0.107478091907501,0.0301409465789792,0.7146870648975273
2.3563863636363642,-0.11226261119842501,0.0553832362174988,0.26964289970397903,0.7146870648975273
2.3569924242424243,-0.0404120252609253,-0.179328677845001,0.0948064739227292,0.7146870648975273
2.357598484848485,-0.145792884635925,-0.31584479112625097,0.26006282157897903,0.7146870648975273
2.3582045454545453,-0.301469154167175,0.139208919811249,0.181027177047729,0.7146870648975273
2.358810606060606,-0.253568763542175,0.0673583338737488,0.169052079391479,0.7146870648975273
2.359416666666667,-0.0715472791671753,-0.00928229112625122,0.34628352470397905,0.7146870648975273
2.360022727272727,-0.205668372917175,-0.138613345813751,0.03253596611022919,0.7146870648975273
2.360628787878788,0.09131404895782469,-0.16256354112625102,-0.159065596389771,0.7146870648975273
2.361234848484848,0.0146734239578247,-0.0428125645637512,0.195397294235229,0.7146870648975273
2.361840909090909,-0.10507755260467501,-0.0667627598762512,0.303173173141479,0.7146870648975273
2.36244696969697,0.0577837755203247,0.0625682948112488,0.24329768486022899,0.7146870648975273
2.36305303030303,-0.0619672010421753,-0.11705817003250099,0.262457841110229,0.7146870648975273
2.363659090909091,0.0194634630203247,0.038618099498748795,0.034930985641479194,0.7146870648975273
2.364265151515152,-0.08352237682342531,0.0697533534049988,0.26724788017272905,0.7146870648975273
2.364871212121212,0.13202938098907502,-0.07634283800125119,0.245692704391479,0.7146870648975273
2.365477272727273,-0.0140668104171753,-0.0452075840950012,0.23850764579772898,0.7146870648975273
2.366083333333333,-0.0619672010421753,-0.10987311143875099,0.039721024703979195,0.7146870648975273
2.366689393939394,0.0170684434890747,-0.11226813097000099,0.161867020797729,0.7146870648975273
2.367295454545455,0.031438560676574696,-0.248784244251251,0.26964289970397903,0.7146870648975273
2.367901515151515,0.0793389513015747,-0.052392642688751205,0.118756669235229,0.7146870648975273
2.368507575757576,-0.239198646354675,-0.174538638782501,-0.00338932685852077,0.7146870648975273
2.369113636363636,-0.057177161979675296,-0.148193423938751,-0.0105743854522708,0.7146870648975273
2.369719696969697,-0.0428070447921753,-0.303869693470001,0.197792313766479,0.7146870648975273
2.3703257575757584,-0.224828529167175,-0.11945318956375099,-0.000994307327270769,0.7146870648975273
2.370931818181818,-0.148187904167175,0.165554134654999,-0.0249445026397708,0.7146870648975273
2.3715378787878794,-0.0619672010421753,-0.0619727208137512,0.171447098922729,0.7146870648975273
2.372143939393939,-0.164953040885925,0.0458031580924988,0.0852263957977292,0.7146870648975273
2.3727500000000004,-0.10747257213592501,-0.23201910753250102,0.537885087203979,0.7146870648975273
2.3733560606060613,-0.00927677135467531,0.038618099498748795,0.770201981735229,0.7146870648975273
2.3739621212121214,-0.0164618299484253,0.103283626842499,0.0157708293914792,0.7146870648975273
2.3745681818181823,0.12484432239532499,-0.0428125645637512,0.190607255172729,0.7146870648975273
2.3751742424242424,0.0721538927078247,-0.13621832628250102,0.219347489547729,0.7146870648975273
2.3757803030303033,-0.0619672010421753,-0.152983463001251,0.006190751266479231,0.7146870648975273
2.3763863636363642,-0.11705265026092501,-0.049997623157501205,-0.06565983467102081,0.7146870648975273
2.3769924242424243,-0.057177161979675296,-0.200883853626251,0.109176591110229,0.7146870648975273
2.3775984848484852,-0.0643622205734253,-0.12184820909500099,0.305568192672729,0.7146870648975273
2.3782045454545453,-0.047597083854675294,-0.11705817003250099,0.18342219657897899,0.7146870648975273
2.3788106060606062,0.00988338489532469,0.0745433924674988,-0.0824249713897708,0.7146870648975273
2.379416666666667,0.0817339708328247,-0.12424322862625099,0.142706864547729,0.7146870648975273
2.3800227272727272,0.158374595832825,-0.00209723253250122,0.147496903610229,0.7146870648975273
2.380628787878788,-0.08591739635467531,0.0841234705924988,0.03253596611022919,0.7146870648975273
2.3812348484848482,-0.12663272838592501,0.0697533534049988,0.202582352828979,0.7146870648975273
2.381840909090909,-0.121842689323425,0.203874447154999,-0.0608697956085208,0.7146870648975273
2.38244696969697,-0.11226261119842501,-0.160168521595001,0.264852860641479,0.7146870648975273
2.38305303030303,0.0865240098953247,-0.13621832628250102,0.212162430953979,0.7146870648975273
2.383659090909091,0.09849910755157469,0.211059505748749,-0.000994307327270769,0.7146870648975273
2.384265151515152,0.14639949817657502,0.0529882166862488,0.35825862236022904,0.7146870648975273
2.384871212121212,-0.023646888542175303,-0.0308374669075012,0.250482743453979,0.7146870648975273
2.385477272727273,0.0026983263015746897,-0.17693365831375102,0.142706864547729,0.7146870648975273
2.386083333333333,-0.0380170057296753,-0.15777350206375101,0.193002274703979,0.7146870648975273
2.386689393939394,-0.09070743541717531,0.235009701061249,0.0900164348602292,0.7146870648975273
2.387295454545455,0.0146734239578247,0.00269280652999878,0.0804363567352292,0.7146870648975273
2.387901515151515,-0.10268253307342501,-0.0643677403450012,0.157076981735229,0.7146870648975273
2.388507575757576,-0.263148841667175,-0.155378482532501,0.216952470016479,0.7146870648975273
2.389113636363636,0.00509334583282469,-0.08352789659500119,0.0852263957977292,0.7146870648975273
2.389719696969697,0.108079185676575,0.0146679041862488,0.0516961223602292,0.7146870648975273
2.3903257575757584,-0.052387122917175295,-0.0955029942512512,0.039721024703979195,0.7146870648975273
2.390931818181818,-0.0691522596359253,0.0577782557487488,-0.00817936592102077,0.7146870648975273
2.3915378787878794,0.00988338489532469,-0.0236524083137512,0.161867020797729,0.7146870648975273
2.392143939393939,0.227830162239075,0.0314330409049988,0.159472001266479,0.7146870648975273
2.3927500000000004,0.0577837755203247,-0.141008365345001,0.30796321220397904,0.7146870648975273
2.3933560606060613,-0.246383704948425,-0.260759341907501,0.137916825485229,0.7146870648975273
2.3939621212121214,-0.0164618299484253,-0.0667627598762512,-0.0872150104522708,0.7146870648975273
2.3945681818181823,-0.16255802135467498,0.0290380213737488,0.214557450485229,0.7146870648975273
2.3951742424242424,-0.11944766979217501,-0.07155279893875119,0.41573909111022905,0.7146870648975273
2.3957803030303033,0.033833580207824704,-0.208068912220001,0.154681962203979,0.7146870648975273
2.3963863636363643,0.031438560676574696,-0.0236524083137512,-0.00578434638977077,0.7146870648975273
2.3969924242424243,-0.057177161979675296,-0.047602603626251204,0.31754329032897904,0.7146870648975273
2.3975984848484853,-0.121842689323425,0.103283626842499,0.166657059860229,0.7146870648975273
2.3982045454545453,0.0817339708328247,0.103283626842499,0.27922297782897904,0.7146870648975273
2.3988106060606063,-0.251173744010925,0.09370354871749881,0.224137528610229,0.7146870648975273
2.399416666666667,-0.0715472791671753,-0.0931079747200012,0.0493011028289792,0.7146870648975273
2.4000227272727273,-0.0332269666671753,-0.272734439563751,0.293593095016479,0.7146870648975273
2.400628787878788,-0.0931024549484253,0.0194579432487488,0.034930985641479194,0.7146870648975273
2.4012348484848482,-0.131422767448425,0.0697533534049988,0.0972014934539792,0.7146870648975273
2.401840909090909,-0.10507755260467501,0.0697533534049988,-0.056079756546020806,0.7146870648975273
2.40244696969697,-0.057177161979675296,-0.021257388782501198,0.104386552047729,0.7146870648975273
2.40305303030303,-0.179323158073425,-0.0595777012825012,0.36783870048522904,0.7146870648975273
2.403659090909091,0.041018638801574706,-0.08831793565750119,-0.127930342483521,0.7146870648975273
2.404265151515152,0.0482036973953247,-0.08113287706375119,0.164262040328979,0.7146870648975273
2.404871212121212,-0.047597083854675294,-0.07634283800125119,0.26006282157897903,0.7146870648975273
2.405477272727273,0.0529937364578247,-0.148193423938751,0.250482743453979,0.7146870648975273
2.406083333333333,-0.0404120252609253,-0.018862369251251197,0.17863215751647898,0.7146870648975273
2.406689393939394,0.024253502082824698,-0.049997623157501205,0.305568192672729,0.7146870648975273
2.407295454545455,-0.10986759166717501,0.105678646373749,0.365443680953979,0.7146870648975273
2.407901515151515,-0.0308319471359253,-0.0236524083137512,0.166657059860229,0.7146870648975273
2.408507575757576,0.041018638801574706,-0.24159918565750102,0.142706864547729,0.7146870648975273
2.409113636363636,-0.10028751354217501,-0.11466315050125099,-0.0776349323272708,0.7146870648975273
2.409719696969697,-0.08352237682342531,-0.145798404407501,-0.163855635452271,0.7146870648975273
2.410325757575758,-0.11705265026092501,-0.18172369737625102,0.0301409465789792,0.7146870648975273
2.410931818181818,0.112869224739075,-0.052392642688751205,0.0900164348602292,0.7146870648975273
2.411537878787879,-0.32781436901092503,-0.07155279893875119,0.140311845016479,0.7146870648975273
2.412143939393939,-0.10986759166717501,-0.105083072376251,0.365443680953979,0.7146870648975273
2.41275,0.0841289903640747,0.00748284559249878,0.34628352470397905,0.7146870648975273
2.4133560606060613,0.0194634630203247,0.000297786998748779,0.473219559860229,0.7146870648975273
2.413962121212121,0.12244930286407499,-0.018862369251251197,0.240902665328979,0.7146870648975273
2.4145681818181823,-0.0619672010421753,-0.0404175450325012,0.149891923141479,0.7146870648975273
2.415174242424242,-0.0978924940109253,0.00748284559249878,0.190607255172729,0.7146870648975273
2.4157803030303033,0.0625738145828247,0.0553832362174988,0.207372391891479,0.7146870648975273
2.4163863636363643,0.18232479114532502,0.194294369029999,0.216952470016479,0.7146870648975273
2.4169924242424243,-0.057177161979675296,-0.11466315050125099,0.042116044235229196,0.7146870648975273
2.4175984848484853,-0.08831241588592531,-0.13142828722000102,0.0924114543914792,0.7146870648975273
2.4182045454545453,-0.10268253307342501,-0.00688727159500122,-0.0776349323272708,0.7146870648975273
2.4188106060606063,-0.0931024549484253,-0.105083072376251,0.152286942672729,0.7146870648975273
2.419416666666667,0.0266485216140747,0.335600521373749,0.26724788017272905,0.7146870648975273
2.4200227272727273,-0.00927677135467531,-0.12184820909500099,0.142706864547729,0.7146870648975273
2.420628787878788,-0.234408607292175,-0.047602603626251204,0.0804363567352292,0.7146870648975273
2.4212348484848483,-0.17213809947967498,0.038618099498748795,0.123546708297729,0.7146870648975273
2.421840909090909,0.0577837755203247,-0.248784244251251,0.106781571578979,0.7146870648975273
2.42244696969697,0.14160945911407502,0.09370354871749881,0.104386552047729,0.7146870648975273
2.42305303030303,0.0170684434890747,-0.00209723253250122,0.173842118453979,0.7146870648975273
2.423659090909091,-0.047597083854675294,-0.129033267688751,0.140311845016479,0.7146870648975273
2.424265151515151,-0.004486732292175309,-0.0667627598762512,0.28640803642272905,0.7146870648975273
2.424871212121212,-0.10268253307342501,0.09370354871749881,0.322333329391479,0.7146870648975273
2.425477272727273,-0.0691522596359253,-0.00209723253250122,0.195397294235229,0.7146870648975273
2.426083333333333,-0.07873233776092531,-0.220044009876251,-0.0225494831085208,0.7146870648975273
2.426689393939394,-0.323024329948425,-0.311054752063751,0.00140071220397923,0.7146870648975273
2.427295454545455,0.0482036973953247,-0.0428125645637512,0.34628352470397905,0.7146870648975273
2.427901515151515,0.0458086778640747,-0.0428125645637512,0.305568192672729,0.7146870648975273
2.428507575757576,0.036228599739074704,-0.0907129551887512,0.188212235641479,0.7146870648975273
2.429113636363636,0.110474205207825,0.0649633143424988,0.24329768486022899,0.7146870648975273
2.429719696969697,-0.11226261119842501,-0.11945318956375099,0.250482743453979,0.7146870648975273
2.430325757575758,-0.10986759166717501,-0.00449225206375122,0.109176591110229,0.7146870648975273
2.430931818181818,-0.133817786979675,-0.0164673497200012,0.0564861614227292,0.7146870648975273
2.431537878787879,-0.129027747917175,-0.188908755970001,-0.0872150104522708,0.7146870648975273
2.432143939393939,-0.0978924940109253,0.00987786512374878,-0.0896100299835208,0.7146870648975273
2.4327500000000004,-0.0164618299484253,0.0553832362174988,0.0493011028289792,0.7146870648975273
2.4333560606060614,0.167954673957825,0.0793334315299988,0.360653641891479,0.7146870648975273
2.4339621212121214,-0.138607826042175,-0.11945318956375099,0.473219559860229,0.7146870648975273
2.4345681818181824,-0.11226261119842501,-0.0404175450325012,0.0924114543914792,0.7146870648975273
2.4351742424242424,0.235015220832825,-0.0236524083137512,0.204977372360229,0.7146870648975273
2.4357803030303034,0.0194634630203247,-0.0571826817512512,0.0852263957977292,0.7146870648975273
2.4363863636363643,-0.11944766979217501,0.100888607311249,0.109176591110229,0.7146870648975273
2.4369924242424243,-0.196088294792175,0.0505931971549988,0.204977372360229,0.7146870648975273
2.4375984848484853,-0.143397865104675,-0.0619727208137512,0.264852860641479,0.7146870648975273
2.4382045454545453,0.0841289903640747,-0.179328677845001,0.200187333297729,0.7146870648975273
2.4388106060606063,-0.0140668104171753,-0.08831793565750119,0.188212235641479,0.7146870648975273
2.4394166666666672,-0.220038490104675,0.0649633143424988,0.006190751266479231,0.7146870648975273
2.4400227272727273,-0.10268253307342501,-0.107478091907501,0.24329768486022899,0.7146870648975273
2.4406287878787882,-0.160163001823425,-0.239204166126251,0.250482743453979,0.7146870648975273
2.441234848484849,-0.052387122917175295,-0.0260474278450012,-0.0584747760772708,0.7146870648975273
2.4418409090909092,-0.10507755260467501,-0.215253970813751,0.0852263957977292,0.7146870648975273
2.44244696969697,0.033833580207824704,-0.143403384876251,0.0540911418914792,0.7146870648975273
2.4430530303030302,0.100894127082825,-0.18172369737625102,0.0756463176727292,0.7146870648975273
2.443659090909091,0.0553887559890747,-0.133823306751251,0.0157708293914792,0.7146870648975273
2.444265151515152,0.108079185676575,-0.07634283800125119,0.03253596611022919,0.7146870648975273
2.444871212121212,-0.07633731822967531,-0.184118716907501,0.0540911418914792,0.7146870648975273
2.445477272727273,-0.0643622205734253,0.16315911512374898,-0.0393146198272708,0.7146870648975273
2.446083333333333,-0.0954974744796753,-0.16256354112625102,0.104386552047729,0.7146870648975273
2.446689393939394,0.0625738145828247,-0.270339420032501,0.0516961223602292,0.7146870648975273
2.447295454545455,-0.011671790885925301,-0.0260474278450012,-0.0608697956085208,0.7146870648975273
2.447901515151515,-0.34697452526092504,0.0697533534049988,0.128336747360229,0.7146870648975273
2.448507575757576,-0.174533119010925,-0.0308374669075012,0.169052079391479,0.7146870648975273
2.449113636363636,-0.133817786979675,-0.11226813097000099,0.28880305595397904,0.7146870648975273
2.449719696969697,-0.047597083854675294,0.021852962779998802,-0.07284489326477081,0.7146870648975273
2.450325757575758,-0.16255802135467498,-0.160168521595001,0.0588811809539792,0.7146870648975273
2.450931818181818,-0.15297794322967498,-0.0236524083137512,0.204977372360229,0.7146870648975273
2.451537878787879,-0.10268253307342501,-0.0691577794075012,-0.0297345417022708,0.7146870648975273
2.452143939393939,-0.239198646354675,0.0290380213737488,0.209767411422729,0.7146870648975273
2.45275,-0.11226261119842501,-0.11705817003250099,0.32951838798522903,0.7852988449376237
2.453356060606061,-0.17692813854217498,-0.13142828722000102,0.135521805953979,0.7852988449376237
2.453962121212121,-0.11944766979217501,0.139208919811249,-0.0944000690460208,0.7852988449376237
2.454568181818182,-0.136212806510925,-0.021257388782501198,0.152286942672729,0.7852988449376237
2.455174242424242,-0.150582923698425,0.0314330409049988,0.25766780204772904,0.7852988449376237
2.455780303030303,-0.174533119010925,0.0529882166862488,0.31993830986022903,0.7852988449376237
2.4563863636363643,-0.0643622205734253,-0.12184820909500099,0.27682795829772905,0.7852988449376237
2.456992424242424,-0.0260419080734253,-0.23201910753250102,0.125941727828979,0.7852988449376237
2.4575984848484853,-0.145792884635925,0.13681390027999898,0.125941727828979,0.7852988449376237
2.458204545454545,-0.143397865104675,0.0458031580924988,0.00379573173522923,0.7852988449376237
2.4588106060606063,-0.0978924940109253,-0.16256354112625102,-0.0129694049835208,0.7852988449376237
2.4594166666666673,-0.0380170057296753,-0.0907129551887512,0.0972014934539792,0.7852988449376237
2.4600227272727273,0.024253502082824698,-0.0595777012825012,0.312753251266479,0.7852988449376237
2.4606287878787882,0.00509334583282469,-0.12424322862625099,0.154681962203979,0.7852988449376237
2.4612348484848483,0.0170684434890747,-0.260759341907501,-0.254866377639771,0.7852988449376237
2.4618409090909092,-0.00209171276092531,-0.0332324864387512,-0.120745283889771,0.7852988449376237
2.46244696969697,0.0577837755203247,-0.0619727208137512,-0.144695479202271,0.7852988449376237
2.4630530303030302,0.09610408802032469,-0.234414127063751,0.434899247360229,0.7852988449376237
2.463659090909091,-0.011671790885925301,-0.129033267688751,0.45884944267272904,0.7852988449376237
2.464265151515152,0.0745489122390747,-0.07873785753250119,-0.0201544635772708,0.7852988449376237
2.464871212121212,0.0290435411453247,0.179924251842499,0.181027177047729,0.7852988449376237
2.465477272727273,-0.0332269666671753,-0.143403384876251,0.044511063766479196,0.7852988449376237
2.466083333333333,-0.10507755260467501,-0.0691577794075012,0.0133758098602292,0.7852988449376237
2.466689393939394,-0.11226261119842501,-0.0380225255012512,0.147496903610229,0.7852988449376237
2.467295454545455,0.09849910755157469,-0.25357428331375104,0.37023372001647903,0.7852988449376237
2.467901515151515,-0.10268253307342501,-0.0978980137825012,0.185817216110229,0.7852988449376237
2.468507575757576,-0.205668372917175,0.0481981776237488,0.0972014934539792,0.7852988449376237
2.469113636363636,0.0458086778640747,-0.08592291612625119,0.0205608684539792,0.7852988449376237
2.469719696969697,0.033833580207824704,-0.0643677403450012,0.0828313762664792,0.7852988449376237
2.470325757575758,0.0769439317703247,-0.0308374669075012,0.121151688766479,0.7852988449376237
2.470931818181818,-0.0643622205734253,-0.143403384876251,0.29838313407897904,0.7852988449376237
2.471537878787879,-0.0380170057296753,0.021852962779998802,0.200187333297729,0.7852988449376237
2.472143939393939,0.12484432239532499,-0.07873785753250119,-0.103980147171021,0.7852988449376237
2.47275,-0.08831241588592531,-0.13621832628250102,0.31754329032897904,0.7852988449376237
2.4733560606060614,-0.0356219861984253,0.0625682948112488,-0.00338932685852077,0.7852988449376237
2.473962121212121,-0.0931024549484253,-0.105083072376251,0.123546708297729,0.7852988449376237
2.4745681818181824,-0.121842689323425,-0.105083072376251,0.32951838798522903,0.7852988449376237
2.475174242424242,-0.011671790885925301,0.09849358777999881,0.224137528610229,0.7852988449376237
2.4757803030303034,0.0170684434890747,-0.0643677403450012,0.454059403610229,0.7852988449376237
2.4763863636363643,0.021858482551574698,-0.0308374669075012,0.128336747360229,0.7852988449376237
2.4769924242424244,0.0170684434890747,-0.179328677845001,0.204977372360229,0.7852988449376237
2.4775984848484853,-0.0140668104171753,-0.248784244251251,0.27922297782897904,0.7852988449376237
2.4782045454545454,-0.0140668104171753,-0.08592291612625119,0.034930985641479194,0.7852988449376237
2.4788106060606063,-0.0595721815109253,0.0290380213737488,0.166657059860229,0.7852988449376237
2.4794166666666673,0.175139732551575,-0.049997623157501205,0.248087723922729,0.7852988449376237
2.4800227272727273,0.0146734239578247,0.0841234705924988,0.111571610641479,0.7852988449376237
2.4806287878787883,0.031438560676574696,-0.052392642688751205,-0.044104658889770804,0.7852988449376237
2.4812348484848483,-0.12663272838592501,-0.0955029942512512,0.27682795829772905,0.7852988449376237
2.4818409090909093,-0.155372962760925,0.11525872449874901,0.351073563766479,0.7852988449376237
2.48244696969697,-0.057177161979675296,-0.0619727208137512,0.209767411422729,0.7852988449376237
2.4830530303030303,-0.124237708854675,-0.145798404407501,0.137916825485229,0.7852988449376237
2.483659090909091,0.18232479114532502,-0.100293033313751,0.185817216110229,0.7852988449376237
2.484265151515152,0.00748836536407469,0.0170629237174988,0.219347489547729,0.7852988449376237
2.484871212121212,-0.054782142448425296,-0.10987311143875099,0.006190751266479231,0.7852988449376237
2.485477272727273,-0.07873233776092531,-0.0691577794075012,0.353468583297729,0.7852988449376237
2.486083333333333,-0.10747257213592501,-0.0260474278450012,0.161867020797729,0.7852988449376237
2.486689393939394,-0.121842689323425,-0.0116773106575012,0.181027177047729,0.7852988449376237
2.487295454545455,0.0458086778640747,-0.0452075840950012,0.236112626266479,0.7852988449376237
2.487901515151515,0.000303306770324691,-0.054787662220001206,-0.127930342483521,0.7852988449376237
2.488507575757576,-0.0260419080734253,-0.11705817003250099,0.0277459270477292,0.7852988449376237
2.489113636363636,0.0146734239578247,-0.210463931751251,0.0229558879852292,0.7852988449376237
2.489719696969697,0.043413658332824706,-0.021257388782501198,0.161867020797729,0.7852988449376237
2.490325757575758,-0.11226261119842501,-0.00209723253250122,0.0684612590789792,0.7852988449376237
2.490931818181818,-0.049992103385925295,-0.0260474278450012,0.0301409465789792,0.7852988449376237
2.491537878787879,0.031438560676574696,0.0673583338737488,0.564230302047729,0.7852988449376237
2.492143939393939,-0.0931024549484253,0.038618099498748795,0.37023372001647903,0.7852988449376237
2.49275,-0.07633731822967531,-0.08831793565750119,0.24329768486022899,0.7852988449376237
2.493356060606061,0.038623619270324705,-0.0931079747200012,0.6672161418914789,0.7852988449376237
2.493962121212121,-0.0284369276046753,-0.054787662220001206,0.45884944267272904,0.7852988449376237
2.494568181818182,-0.11944766979217501,-0.150588443470001,0.0948064739227292,0.7852988449376237
2.495174242424242,-0.023646888542175303,-0.24638922472000102,0.0253509075164792,0.7852988449376237
2.495780303030303,-0.145792884635925,-0.15777350206375101,-0.0321295612335208,0.7852988449376237
2.4963863636363643,-0.0619672010421753,-0.13621832628250102,-0.106375166702271,0.7852988449376237
2.496992424242424,0.0290435411453247,0.0529882166862488,0.0469060832977292,0.7852988449376237
2.4975984848484853,0.227830162239075,-0.00928229112625122,0.0900164348602292,0.7852988449376237
2.498204545454545,-0.11226261119842501,0.000297786998748779,0.264852860641479,0.7852988449376237
2.4988106060606063,-0.0978924940109253,-0.152983463001251,0.26006282157897903,0.7852988449376237
2.4994166666666673,0.00509334583282469,-0.27752447862625096,0.0253509075164792,0.7852988449376237
2.5000227272727273,-0.052387122917175295,-0.0116773106575012,-0.00817936592102077,0.7852988449376237
2.5006287878787883,-0.10268253307342501,-0.145798404407501,0.113966630172729,0.7852988449376237
2.5012348484848492,-0.21764347057342498,-0.08831793565750119,0.121151688766479,0.7852988449376237
2.5018409090909093,0.0194634630203247,0.153579036998749,0.0732512981414792,0.7852988449376237
2.5024469696969702,-0.210458411979675,-0.11226813097000099,0.343888505172729,0.7852988449376237
2.5030530303030303,0.0026983263015746897,-0.203278873157501,0.293593095016479,0.7852988449376237
2.5036590909090912,-0.0164618299484253,0.0505931971549988,0.202582352828979,0.7852988449376237
2.504265151515152,-0.141002845573425,0.00269280652999878,0.255272782516479,0.7852988449376237
2.504871212121212,-0.124237708854675,-0.155378482532501,0.0636712200164792,0.7852988449376237
2.505477272727273,-0.0332269666671753,0.00748284559249878,0.0564861614227292,0.7852988449376237
2.506083333333333,-0.049992103385925295,-0.0595777012825012,0.341493485641479,0.7852988449376237
2.506689393939394,-0.0715472791671753,-0.0691577794075012,0.0684612590789792,0.7852988449376237
2.507295454545455,-0.136212806510925,-0.152983463001251,0.130731766891479,0.7852988449376237
2.507901515151515,-0.239198646354675,-0.26554938097000097,0.03253596611022919,0.7852988449376237
2.508507575757576,-0.160163001823425,-0.0428125645637512,-0.365037276077271,0.7852988449376237
2.509113636363636,-0.08831241588592531,-0.0595777012825012,0.0181658489227292,0.7852988449376237
2.509719696969697,-0.054782142448425296,0.09849358777999881,0.28880305595397904,0.7852988449376237
2.510325757575758,-0.169743079948425,0.16315911512374898,0.29838313407897904,0.7852988449376237
2.510931818181818,-0.263148841667175,0.0290380213737488,0.202582352828979,0.7852988449376237
2.511537878787879,-0.0954974744796753,-0.129033267688751,0.142706864547729,0.7852988449376237
2.512143939393939,-0.0954974744796753,-0.100293033313751,-0.0297345417022708,0.7852988449376237
2.51275,-0.164953040885925,-0.0643677403450012,0.166657059860229,0.7852988449376237
2.513356060606061,0.0529937364578247,0.024247982311248802,0.202582352828979,0.7852988449376237
2.513962121212121,-0.0715472791671753,-0.13621832628250102,0.200187333297729,0.7852988449376237
2.514568181818182,-0.021251869010925302,0.0529882166862488,0.166657059860229,0.7852988449376237
2.515174242424242,-0.0428070447921753,-0.00928229112625122,0.111571610641479,0.7852988449376237
2.515780303030303,-0.0978924940109253,-0.229624088001251,0.214557450485229,0.7852988449376237
2.5163863636363644,-0.23201358776092498,-0.07873785753250119,-0.0369196002960208,0.7852988449376237
2.516992424242424,-0.0954974744796753,-0.133823306751251,0.193002274703979,0.7852988449376237
2.5175984848484854,-0.131422767448425,0.0841234705924988,0.0828313762664792,0.7852988449376237
2.518204545454545,-0.0954974744796753,-0.212858951282501,0.190607255172729,0.7852988449376237
2.5188106060606064,0.165559654426575,0.024247982311248802,0.140311845016479,0.7852988449376237
2.5194166666666673,-0.18171817760467499,0.0553832362174988,0.240902665328979,0.7852988449376237
2.5200227272727274,-0.0954974744796753,-0.100293033313751,0.216952470016479,0.7852988449376237
2.5206287878787883,-0.0978924940109253,-0.129033267688751,0.26724788017272905,0.7852988449376237
2.5212348484848484,-0.049992103385925295,-0.0428125645637512,-0.0153644245147708,0.7852988449376237
2.5218409090909093,-0.275123939323425,-0.148193423938751,-0.161460615921021,0.7852988449376237
2.5224469696969702,-0.179323158073425,-0.155378482532501,0.590575516891479,0.7852988449376237
2.5230530303030303,-0.00688175182342531,0.12244378309249901,0.959408524703979,0.7852988449376237
2.5236590909090912,-0.15776798229217498,-0.179328677845001,0.755831864547729,0.7852988449376237
2.524265151515152,-0.0667572401046753,-0.19130377550125102,0.137916825485229,0.7852988449376237
2.5248712121212122,-0.208063392448425,-0.00209723253250122,-0.120745283889771,0.7852988449376237
2.525477272727273,0.0601787950515747,0.00748284559249878,0.193002274703979,0.7852988449376237
2.5260833333333332,-0.23680362682342498,-0.12424322862625099,0.39897395439147904,0.7852988449376237
2.526689393939394,-0.11465763072967501,-0.294289615345001,0.212162430953979,0.7852988449376237
2.527295454545455,-0.220038490104675,-0.143403384876251,0.34867854423522904,0.7852988449376237
2.527901515151515,-0.07873233776092531,-0.11226813097000099,0.0756463176727292,0.7852988449376237
2.528507575757576,0.0170684434890747,-0.155378482532501,0.147496903610229,0.7852988449376237
2.529113636363636,-0.11705265026092501,0.021852962779998802,0.154681962203979,0.7852988449376237
2.529719696969697,0.043413658332824706,-0.133823306751251,0.0948064739227292,0.7852988449376237
2.530325757575758,-0.191298255729675,0.0170629237174988,-0.28121159248352096,0.7852988449376237
2.530931818181818,-0.0452020643234253,0.32123040418624904,-0.103980147171021,0.7852988449376237
2.531537878787879,-0.131422767448425,0.11525872449874901,0.113966630172729,0.7852988449376237
2.532143939393939,0.0553887559890747,-0.07394781847000119,0.26006282157897903,0.7852988449376237
2.53275,0.041018638801574706,-0.19609381456375102,0.384603837203979,0.7852988449376237
2.533356060606061,-0.188903236198425,-0.179328677845001,0.152286942672729,0.7852988449376237
2.533962121212121,-0.10028751354217501,0.0817284510612488,0.197792313766479,0.7852988449376237
2.534568181818182,-0.0715472791671753,-0.0978980137825012,0.0660662395477292,0.7852988449376237
2.535174242424242,0.021858482551574698,0.0577782557487488,0.121151688766479,0.7852988449376237
2.535780303030303,-0.164953040885925,0.16794915418624898,0.27682795829772905,0.7852988449376237
2.536386363636364,-0.0595721815109253,-0.0428125645637512,0.351073563766479,0.7852988449376237
2.536992424242424,0.151189537239075,-0.0907129551887512,0.039721024703979195,0.7852988449376237
2.537598484848485,0.0194634630203247,-0.0931079747200012,0.0708562786102292,0.7852988449376237
2.538204545454545,-0.0380170057296753,-0.047602603626251204,0.231322587203979,0.7852988449376237
2.538810606060606,-0.23680362682342498,-0.08831793565750119,0.0660662395477292,0.7852988449376237
2.5394166666666673,-0.193693275260925,-0.0380225255012512,0.145101884078979,0.7852988449376237
2.540022727272727,-0.179323158073425,0.0865184901237488,0.442084305953979,0.7852988449376237
2.5406287878787883,-0.0188568494796753,0.160764095592499,0.284013016891479,0.7852988449376237
2.541234848484848,-0.0691522596359253,-0.0140723301887512,0.470824540328979,0.7852988449376237
2.5418409090909093,0.203879966926575,0.0841234705924988,0.29838313407897904,0.7852988449376237
2.5424469696969703,0.12005428333282499,-0.07394781847000119,0.133126786422729,0.7852988449376237
2.5430530303030303,-0.131422767448425,-0.0907129551887512,0.142706864547729,0.7852988449376237
2.5436590909090913,0.0170684434890747,0.0673583338737488,0.034930985641479194,0.7852988449376237
2.544265151515152,0.00988338489532469,-0.00688727159500122,0.154681962203979,0.7852988449376237
2.5448712121212123,-0.00688175182342531,-0.0691577794075012,0.24329768486022899,0.7852988449376237
2.545477272727273,-0.054782142448425296,-0.25357428331375104,0.23850764579772898,0.7852988449376237
2.5460833333333333,0.000303306770324691,-0.16256354112625102,-0.0608697956085208,0.7852988449376237
2.546689393939394,-0.196088294792175,-0.0667627598762512,0.24329768486022899,0.7852988449376237
2.547295454545455,-0.0978924940109253,-0.052392642688751205,0.204977372360229,0.7852988449376237
2.547901515151515,-0.10747257213592501,-0.13142828722000102,0.0972014934539792,0.7852988449376237
2.548507575757576,-0.054782142448425296,-0.12184820909500099,0.0109807903289792,0.7852988449376237
2.549113636363636,-0.11226261119842501,0.110468685436249,-0.0225494831085208,0.7852988449376237
2.549719696969697,-0.15297794322967498,-0.00209723253250122,0.169052079391479,0.7852988449376237
2.550325757575758,-0.138607826042175,-0.208068912220001,0.410949052047729,0.7852988449376237
2.550931818181818,-0.136212806510925,-0.047602603626251204,0.26006282157897903,0.7852988449376237
2.551537878787879,-0.023646888542175303,-0.15777350206375101,-0.0201544635772708,0.7852988449376237
2.552143939393939,-0.08831241588592531,-0.239204166126251,0.00140071220397923,0.7852988449376237
2.55275,-0.057177161979675296,0.043408138561248796,0.0109807903289792,0.49416664436757096
2.553356060606061,-0.10268253307342501,-0.047602603626251204,0.511539872360229,0.49416664436757096
2.553962121212121,-0.12663272838592501,-0.00928229112625122,0.305568192672729,0.49416664436757096
2.554568181818182,-0.16734806041717498,-0.0571826817512512,0.161867020797729,0.49416664436757096
2.555174242424242,-0.196088294792175,-0.126638248157501,0.111571610641479,0.49416664436757096
2.555780303030303,-0.0164618299484253,-0.126638248157501,-0.000994307327270769,0.49416664436757096
2.5563863636363644,-0.0140668104171753,-0.08113287706375119,0.0205608684539792,0.49416664436757096
2.556992424242424,-0.11944766979217501,0.11525872449874901,0.039721024703979195,0.49416664436757096
2.5575984848484854,-0.0260419080734253,0.11765374402999901,0.331913407516479,0.49416664436757096
2.558204545454545,0.0601787950515747,-0.07634283800125119,0.111571610641479,0.49416664436757096
2.5588106060606064,0.20627498645782502,-0.11466315050125099,0.0133758098602292,0.49416664436757096
2.5594166666666673,0.0170684434890747,0.148788997936249,-0.06805485420227081,0.49416664436757096
2.5600227272727274,-0.17213809947967498,0.0170629237174988,0.0995965129852292,0.49416664436757096
2.5606287878787883,-0.15776798229217498,-0.0619727208137512,0.245692704391479,0.49416664436757096
2.5612348484848493,-0.21285343151092498,-0.215253970813751,0.135521805953979,0.49416664436757096
2.5618409090909093,-0.0404120252609253,-0.07634283800125119,0.154681962203979,0.49416664436757096
2.5624469696969703,-0.0428070447921753,0.09130852918624881,0.164262040328979,0.49416664436757096
2.5630530303030303,-0.121842689323425,-0.0907129551887512,0.214557450485229,0.49416664436757096
2.5636590909090913,0.0793389513015747,-0.0236524083137512,0.214557450485229,0.49416664436757096
2.564265151515152,-0.07873233776092531,-0.160168521595001,0.202582352828979,0.49416664436757096
2.5648712121212123,0.0865240098953247,-0.0452075840950012,-0.0944000690460208,0.49416664436757096
2.565477272727273,-0.0380170057296753,0.170344173717499,0.0493011028289792,0.49416664436757096
2.5660833333333333,-0.09070743541717531,0.0458031580924988,0.133126786422729,0.49416664436757096
2.566689393939394,0.218250084114075,0.0649633143424988,0.0660662395477292,0.49416664436757096
2.567295454545455,-0.208063392448425,0.0529882166862488,0.0756463176727292,0.49416664436757096
2.567901515151515,-0.0978924940109253,-0.133823306751251,0.0804363567352292,0.49416664436757096
2.568507575757576,-0.0595721815109253,-0.08592291612625119,0.111571610641479,0.49416664436757096
2.569113636363636,-0.255963783073425,0.0865184901237488,-0.0225494831085208,0.49416664436757096
2.569719696969697,0.0841289903640747,0.11525872449874901,-0.0321295612335208,0.49416664436757096
2.570325757575758,0.0458086778640747,0.0170629237174988,0.130731766891479,0.49416664436757096
2.570931818181818,-0.124237708854675,-0.07394781847000119,0.212162430953979,0.49416664436757096
2.571537878787879,-0.215248451042175,0.021852962779998802,0.034930985641479194,0.49416664436757096
2.572143939393939,-0.243988685417175,-0.212858951282501,0.0876214153289792,0.49416664436757096
2.57275,-0.08831241588592531,-0.100293033313751,0.185817216110229,0.49416664436757096
2.573356060606061,-0.148187904167175,0.0481981776237488,0.140311845016479,0.49416664436757096
2.573962121212121,-0.11944766979217501,-0.152983463001251,0.159472001266479,0.49416664436757096
2.574568181818182,0.158374595832825,-0.0380225255012512,0.0469060832977292,0.49416664436757096
2.575174242424242,-0.121842689323425,-0.229624088001251,0.0684612590789792,0.49416664436757096
2.575780303030303,-0.136212806510925,-0.00928229112625122,0.188212235641479,0.49416664436757096
2.576386363636364,0.0458086778640747,0.0673583338737488,0.0828313762664792,0.49416664436757096
2.576992424242424,-0.133817786979675,-0.018862369251251197,0.334308427047729,0.49416664436757096
2.577598484848485,-0.10268253307342501,-0.141008365345001,0.300778153610229,0.49416664436757096
2.578204545454545,-0.011671790885925301,-0.08113287706375119,-0.0584747760772708,0.49416664436757096
2.578810606060606,-0.0284369276046753,-0.200883853626251,0.137916825485229,0.49416664436757096
2.5794166666666674,-0.0619672010421753,-0.049997623157501205,-0.051289717483520805,0.49416664436757096
2.580022727272727,0.0194634630203247,0.108073665904999,0.044511063766479196,0.49416664436757096
2.5806287878787884,-0.08352237682342531,-0.239204166126251,0.384603837203979,0.49416664436757096
2.581234848484848,-0.0954974744796753,-0.0164673497200012,-0.0369196002960208,0.49416664436757096
2.5818409090909094,-0.10747257213592501,-0.08592291612625119,0.293593095016479,0.49416664436757096
2.5824469696969703,-0.0978924940109253,0.0649633143424988,0.6648211223602289,0.49416664436757096
2.5830530303030304,-0.174533119010925,0.00508782606124878,0.425319169235229,0.49416664436757096
2.5836590909090913,-0.282308997917175,-0.0452075840950012,0.770201981735229,0.49416664436757096
2.5842651515151522,-0.23201358776092498,-0.373325259876251,0.149891923141479,0.49416664436757096
2.5848712121212123,0.13202938098907502,-0.17214361925125102,-0.173435713577271,0.49416664436757096
2.5854772727272732,-0.0356219861984253,-0.0595777012825012,0.240902665328979,0.49416664436757096
2.5860833333333333,-0.0452020643234253,-0.19130377550125102,0.128336747360229,0.49416664436757096
2.5866893939393942,0.235015220832825,-0.0116773106575012,0.101991532516479,0.49416664436757096
2.587295454545455,-0.0715472791671753,-0.18172369737625102,0.0636712200164792,0.49416664436757096
2.5879015151515152,-0.08112735729217531,-0.15777350206375101,-0.171040694046021,0.49416664436757096
2.588507575757576,-0.210458411979675,-0.138613345813751,-0.123140303421021,0.49416664436757096
2.5891136363636362,0.038623619270324705,-0.0260474278450012,-0.00817936592102077,0.49416664436757096
2.589719696969697,-0.0284369276046753,0.0338280604362488,0.0708562786102292,0.49416664436757096
2.590325757575758,-0.289494056510925,-0.0404175450325012,0.207372391891479,0.49416664436757096
2.590931818181818,0.0577837755203247,-0.0140723301887512,0.26006282157897903,0.49416664436757096
2.591537878787879,0.0266485216140747,0.0577782557487488,0.315148270797729,0.49416664436757096
2.592143939393939,-0.08831241588592531,-0.126638248157501,0.121151688766479,0.49416664436757096
2.59275,-0.17213809947967498,-0.0571826817512512,-0.0273395221710208,0.49416664436757096
2.593356060606061,-0.0595721815109253,0.0649633143424988,0.185817216110229,0.49416664436757096
2.593962121212121,-0.203273353385925,-0.13142828722000102,0.264852860641479,0.49416664436757096
2.594568181818182,-0.138607826042175,0.0601732752799988,0.176237137985229,0.49416664436757096
2.595174242424242,-0.0452020643234253,-0.102688052845001,0.159472001266479,0.49416664436757096
2.595780303030303,-0.08591739635467531,-0.11705817003250099,0.0133758098602292,0.49416664436757096
2.596386363636364,-0.0931024549484253,0.14160393934249899,0.0900164348602292,0.49416664436757096
2.596992424242424,-0.10028751354217501,-0.126638248157501,0.195397294235229,0.49416664436757096
2.597598484848485,-0.0260419080734253,-0.0595777012825012,0.0564861614227292,0.49416664436757096
2.598204545454545,-0.200878333854675,-0.0140723301887512,0.152286942672729,0.49416664436757096
2.598810606060606,-0.047597083854675294,-0.0428125645637512,0.26724788017272905,0.49416664436757096
2.5994166666666674,-0.08352237682342531,-0.0332324864387512,0.300778153610229,0.49416664436757096
2.600022727272727,0.08891902942657469,-0.0284424473762512,0.109176591110229,0.49416664436757096
2.6006287878787884,0.0625738145828247,-0.100293033313751,0.39897395439147904,0.49416664436757096
2.601234848484848,-0.169743079948425,-0.0643677403450012,0.25766780204772904,0.49416664436757096
2.6018409090909094,0.0793389513015747,-0.08831793565750119,0.116361649703979,0.49416664436757096
2.6024469696969703,0.024253502082824698,-0.19609381456375102,0.245692704391479,0.49416664436757096
2.6030530303030304,0.175139732551575,0.09130852918624881,0.193002274703979,0.49416664436757096
2.6036590909090913,0.0505987169265747,0.0889135096549988,0.39897395439147904,0.49416664436757096
2.6042651515151523,-0.138607826042175,-0.22722906847000102,-0.0129694049835208,0.49416664436757096
2.6048712121212123,0.148794517707825,0.0338280604362488,0.130731766891479,0.49416664436757096
2.6054772727272733,0.043413658332824706,0.0841234705924988,0.41573909111022905,0.49416664436757096
2.6060833333333333,-0.09070743541717531,-0.234414127063751,0.33670344657897905,0.49416664436757096
2.6066893939393943,0.000303306770324691,-0.052392642688751205,-0.0153644245147708,0.49416664436757096
2.607295454545455,-0.174533119010925,0.0745433924674988,0.133126786422729,0.49416664436757096
2.6079015151515152,-0.179323158073425,-0.169748599720001,0.111571610641479,0.49416664436757096
2.608507575757576,-0.11944766979217501,-0.0955029942512512,0.0804363567352292,0.49416664436757096
2.6091136363636362,-0.0691522596359253,-0.133823306751251,0.101991532516479,0.49416664436757096
2.609719696969697,-0.047597083854675294,-0.0404175450325012,-0.103980147171021,0.49416664436757096
2.610325757575758,-0.164953040885925,-0.229624088001251,0.113966630172729,0.49416664436757096
2.610931818181818,-0.0284369276046753,-0.133823306751251,0.044511063766479196,0.49416664436757096
2.611537878787879,0.0146734239578247,-0.141008365345001,0.8468426067352289,0.49416664436757096
2.612143939393939,0.0769439317703247,-0.22722906847000102,0.516329911422729,0.49416664436757096
2.61275,0.103289146614075,-0.0452075840950012,0.154681962203979,0.49416664436757096
2.613356060606061,-0.17692813854217498,0.0122728846549988,0.45645442314147905,0.49416664436757096
2.613962121212121,-0.0308319471359253,-0.08113287706375119,0.128336747360229,0.49416664436757096
2.614568181818182,0.0529937364578247,-0.16735358018875102,0.284013016891479,0.49416664436757096
2.615174242424242,-0.15297794322967498,-0.00928229112625122,0.008585770797729231,0.49416664436757096
2.615780303030303,0.000303306770324691,-0.239204166126251,0.207372391891479,0.49416664436757096
2.616386363636364,0.0793389513015747,-0.184118716907501,0.30796321220397904,0.49416664436757096
2.616992424242424,0.148794517707825,-0.0404175450325012,0.23850764579772898,0.49416664436757096
2.617598484848485,0.0673638536453247,-0.193698795032501,0.195397294235229,0.49416664436757096
2.618204545454545,-0.0356219861984253,-0.22722906847000102,-0.046499678421020804,0.49416664436757096
2.618810606060606,0.103289146614075,0.103283626842499,0.0948064739227292,0.49416664436757096
2.619416666666667,0.00988338489532469,-0.00928229112625122,0.214557450485229,0.49416664436757096
2.620022727272727,0.0146734239578247,-0.0691577794075012,0.181027177047729,0.49416664436757096
2.620628787878788,0.100894127082825,-0.0380225255012512,0.212162430953979,0.49416664436757096
2.6212348484848493,-0.138607826042175,-0.0380225255012512,0.200187333297729,0.49416664436757096
2.621840909090909,-0.054782142448425296,0.00748284559249878,0.154681962203979,0.49416664436757096
2.6224469696969703,0.20627498645782502,0.203874447154999,0.006190751266479231,0.49416664436757096
2.62305303030303,-0.0619672010421753,0.0601732752799988,0.0277459270477292,0.49416664436757096
2.6236590909090913,-0.141002845573425,-0.148193423938751,0.125941727828979,0.49416664436757096
2.624265151515151,0.0601787950515747,0.0721483729362488,0.116361649703979,0.49416664436757096
2.6248712121212123,0.0817339708328247,0.024247982311248802,0.33670344657897905,0.49416664436757096
2.6254772727272733,-0.047597083854675294,0.000297786998748779,0.152286942672729,0.49416664436757096
2.6260833333333333,-0.186508216667175,-0.11945318956375099,0.0636712200164792,0.49416664436757096
2.6266893939393943,-0.08112735729217531,-0.049997623157501205,0.0229558879852292,0.49416664436757096
2.627295454545455,-0.004486732292175309,0.0721483729362488,-0.0177594440460208,0.49416664436757096
2.6279015151515153,-0.054782142448425296,-0.0332324864387512,0.044511063766479196,0.49416664436757096
2.628507575757576,-0.08831241588592531,0.175134212779999,0.137916825485229,0.49416664436757096
2.6291136363636363,-0.124237708854675,-0.0452075840950012,0.209767411422729,0.49416664436757096
2.629719696969697,-0.145792884635925,-0.07634283800125119,0.305568192672729,0.49416664436757096
2.630325757575758,0.0170684434890747,-0.102688052845001,0.40855403251647904,0.49416664436757096
2.630931818181818,0.12244930286407499,-0.049997623157501205,0.305568192672729,0.49416664436757096
2.631537878787879,0.108079185676575,0.09609856824874881,0.31993830986022903,0.49416664436757096
2.632143939393939,-0.08591739635467531,-0.0595777012825012,0.0516961223602292,0.49416664436757096
2.63275,-0.011671790885925301,-0.07873785753250119,0.255272782516479,0.49416664436757096
2.633356060606061,-0.10747257213592501,-0.15777350206375101,0.207372391891479,0.49416664436757096
2.633962121212121,-0.0428070447921753,-0.30626471300125097,0.00379573173522923,0.49416664436757096
2.634568181818182,0.33321102161407495,-0.0571826817512512,0.140311845016479,0.49416664436757096
2.635174242424242,-0.08112735729217531,0.112863704967499,-0.132720381546021,0.49416664436757096
2.635780303030303,-0.08352237682342531,0.0314330409049988,-0.0920050495147708,0.49416664436757096
2.636386363636364,0.09849910755157469,0.0529882166862488,0.343888505172729,0.49416664436757096
2.636992424242424,-0.184113197135925,-0.0428125645637512,0.18342219657897899,0.49416664436757096
2.637598484848485,0.0553887559890747,-0.138613345813751,0.145101884078979,0.49416664436757096
2.638204545454545,0.0625738145828247,0.0290380213737488,0.0900164348602292,0.49416664436757096
2.638810606060606,-0.18171817760467499,-0.00449225206375122,0.00379573173522923,0.49416664436757096
2.6394166666666674,0.0290435411453247,0.0529882166862488,0.109176591110229,0.49416664436757096
2.640022727272727,0.0458086778640747,0.206269466686249,0.32951838798522903,0.49416664436757096
2.6406287878787884,-0.239198646354675,-0.11466315050125099,0.305568192672729,0.49416664436757096
2.641234848484848,-0.22722354869842498,-0.0643677403450012,-0.0967950885772708,0.49416664436757096
2.6418409090909094,-0.10747257213592501,-0.052392642688751205,0.28880305595397904,0.49416664436757096
2.6424469696969703,0.00509334583282469,-0.0164673497200012,0.0181658489227292,0.49416664436757096
2.6430530303030304,-0.323024329948425,-0.17693365831375102,0.245692704391479,0.49416664436757096
2.6436590909090913,-0.11465763072967501,-0.07873785753250119,0.652846024703979,0.49416664436757096
2.6442651515151523,-0.0643622205734253,-0.15777350206375101,0.29838313407897904,0.49416664436757096
2.6448712121212123,-0.131422767448425,-0.11466315050125099,0.154681962203979,0.49416664436757096
2.6454772727272733,-0.10747257213592501,0.038618099498748795,-0.00578434638977077,0.49416664436757096
2.6460833333333333,-0.145792884635925,-0.12184820909500099,0.104386552047729,0.49416664436757096
2.6466893939393943,-0.052387122917175295,0.021852962779998802,0.039721024703979195,0.49416664436757096
2.6472954545454552,-0.11465763072967501,-0.25836432237625095,0.0612762004852292,0.49416664436757096
2.6479015151515153,0.00988338489532469,-0.0691577794075012,0.0924114543914792,0.49416664436757096
2.6485075757575762,0.0266485216140747,0.18710931043624898,0.31993830986022903,0.49416664436757096
2.6491136363636363,0.0817339708328247,-0.08831793565750119,0.425319169235229,0.49416664436757096
2.6497196969696972,-0.0691522596359253,-0.126638248157501,0.104386552047729,0.49416664436757096
2.650325757575758,-0.08112735729217531,-0.0332324864387512,-0.07284489326477081,0.49416664436757096
2.6509318181818182,-0.0284369276046753,-0.155378482532501,0.0588811809539792,0.49416664436757096
2.651537878787879,0.0721538927078247,-0.11705817003250099,0.0588811809539792,0.49416664436757096
2.652143939393939,-0.0404120252609253,0.038618099498748795,0.0924114543914792,0.49416664436757096
2.65275,-0.16734806041717498,-0.08831793565750119,0.262457841110229,1.0403074187619334
2.653356060606061,-0.057177161979675296,-0.184118716907501,0.31754329032897904,1.0403074187619334
2.653962121212121,-0.133817786979675,-0.10987311143875099,0.28880305595397904,1.0403074187619334
2.654568181818182,-0.0380170057296753,0.0338280604362488,0.216952470016479,1.0403074187619334
2.655174242424242,-0.11465763072967501,-0.380510318470001,0.334308427047729,1.0403074187619334
2.655780303030303,-0.11944766979217501,-0.25836432237625095,0.209767411422729,1.0403074187619334
2.656386363636364,-0.057177161979675296,0.134418880748749,0.125941727828979,1.0403074187619334
2.656992424242424,-0.07633731822967531,0.16315911512374898,0.30796321220397904,1.0403074187619334
2.657598484848485,0.117659263801575,0.0314330409049988,0.331913407516479,1.0403074187619334
2.658204545454545,0.0194634630203247,-0.0164673497200012,0.190607255172729,1.0403074187619334
2.658810606060606,-0.0164618299484253,-0.07634283800125119,0.0469060832977292,1.0403074187619334
2.659416666666667,0.00748836536407469,-0.21764899034500101,0.044511063766479196,1.0403074187619334
2.660022727272727,-0.0188568494796753,-0.10987311143875099,0.147496903610229,1.0403074187619334
2.660628787878788,0.0458086778640747,-0.0571826817512512,0.37023372001647903,1.0403074187619334
2.661234848484849,0.103289146614075,-0.0236524083137512,0.118756669235229,1.0403074187619334
2.661840909090909,-0.11944766979217501,-0.102688052845001,0.188212235641479,1.0403074187619334
2.66244696969697,0.0194634630203247,-0.0380225255012512,0.173842118453979,1.0403074187619334
2.66305303030303,-0.08352237682342531,-0.138613345813751,-0.0297345417022708,1.0403074187619334
2.663659090909091,0.0553887559890747,-0.105083072376251,0.0636712200164792,1.0403074187619334
2.664265151515151,0.175139732551575,0.0290380213737488,-0.046499678421020804,1.0403074187619334
2.664871212121212,-0.282308997917175,-0.220044009876251,0.29838313407897904,1.0403074187619334
2.6654772727272733,-0.0954974744796753,-0.107478091907501,0.0756463176727292,1.0403074187619334
2.666083333333333,-0.164953040885925,0.00987786512374878,0.204977372360229,1.0403074187619334
2.6666893939393943,-0.129027747917175,-0.0571826817512512,0.173842118453979,1.0403074187619334
2.6672954545454552,0.0625738145828247,0.0889135096549988,0.116361649703979,1.0403074187619334
2.6679015151515153,-0.057177161979675296,0.0338280604362488,0.133126786422729,1.0403074187619334
2.6685075757575762,0.0577837755203247,-0.10987311143875099,-0.0153644245147708,1.0403074187619334
2.6691136363636363,0.0721538927078247,-0.22722906847000102,0.221742509078979,1.0403074187619334
2.6697196969696972,0.0290435411453247,-0.19130377550125102,-0.00578434638977077,1.0403074187619334
2.670325757575758,-0.054782142448425296,-0.11466315050125099,-0.0896100299835208,1.0403074187619334
2.6709318181818182,-0.0667572401046753,-0.188908755970001,0.0804363567352292,1.0403074187619334
2.671537878787879,0.0553887559890747,0.0769384119987488,0.224137528610229,1.0403074187619334
2.6721439393939392,-0.00688175182342531,0.043408138561248796,0.600155595016479,1.0403074187619334
2.67275,-0.145792884635925,-0.21764899034500101,0.0636712200164792,1.0403074187619334
2.673356060606061,-0.004486732292175309,-0.13142828722000102,0.372628739547729,1.0403074187619334
2.673962121212121,0.275730552864075,0.0146679041862488,0.37741877861022904,1.0403074187619334
2.674568181818182,0.278125572395325,0.0721483729362488,0.125941727828979,1.0403074187619334
2.675174242424242,0.09370906848907469,-0.0332324864387512,0.262457841110229,1.0403074187619334
2.675780303030303,-0.15776798229217498,0.0505931971549988,0.135521805953979,1.0403074187619334
2.676386363636364,-0.10268253307342501,0.036223079967498795,0.0516961223602292,1.0403074187619334
2.676992424242424,-0.0260419080734253,-0.23680914659500102,0.121151688766479,1.0403074187619334
2.677598484848485,-0.179323158073425,-0.18651373643875102,0.300778153610229,1.0403074187619334
2.678204545454546,-0.22243350963592498,-0.0284424473762512,-0.048894697952270805,1.0403074187619334
2.678810606060606,-0.22722354869842498,-0.0907129551887512,0.245692704391479,1.0403074187619334
2.679416666666667,0.038623619270324705,-0.00209723253250122,0.0684612590789792,1.0403074187619334
2.680022727272727,-0.17692813854217498,-0.049997623157501205,0.188212235641479,1.0403074187619334
2.680628787878788,-0.246383704948425,0.00508782606124878,0.130731766891479,1.0403074187619334
2.681234848484848,-0.131422767448425,0.0577782557487488,0.0924114543914792,1.0403074187619334
2.681840909090909,-0.164953040885925,-0.215253970813751,0.104386552047729,1.0403074187619334
2.6824469696969704,-0.164953040885925,-0.143403384876251,0.0828313762664792,1.0403074187619334
2.6830530303030304,-0.17692813854217498,0.19189934949874898,0.0972014934539792,1.0403074187619334
2.6836590909090914,0.0721538927078247,-0.0571826817512512,0.25766780204772904,1.0403074187619334
2.6842651515151514,0.189509849739075,0.000297786998748779,0.0277459270477292,1.0403074187619334
2.6848712121212124,-0.0284369276046753,0.11765374402999901,0.18342219657897899,1.0403074187619334
2.6854772727272733,0.175139732551575,0.0721483729362488,0.391788895797729,1.0403074187619334
2.6860833333333334,0.151189537239075,-0.0428125645637512,0.250482743453979,1.0403074187619334
2.6866893939393943,-0.0595721815109253,-0.15777350206375101,0.188212235641479,1.0403074187619334
2.6872954545454553,0.0266485216140747,-0.0116773106575012,-0.108770186233521,1.0403074187619334
2.6879015151515153,-0.0667572401046753,-0.133823306751251,-0.0201544635772708,1.0403074187619334
2.6885075757575763,0.167954673957825,0.00508782606124878,0.193002274703979,1.0403074187619334
2.6891136363636363,-0.174533119010925,0.0673583338737488,0.228927567672729,1.0403074187619334
2.6897196969696973,-0.169743079948425,-0.133823306751251,0.0900164348602292,1.0403074187619334
2.690325757575758,-0.08112735729217531,0.0505931971549988,0.195397294235229,1.0403074187619334
2.6909318181818183,-0.210458411979675,0.0290380213737488,0.315148270797729,1.0403074187619334
2.691537878787879,0.0482036973953247,-0.11705817003250099,0.224137528610229,1.0403074187619334
2.6921439393939393,0.031438560676574696,-0.13142828722000102,-0.051289717483520805,1.0403074187619334
2.69275,0.033833580207824704,-0.052392642688751205,0.111571610641479,1.0403074187619334
2.693356060606061,0.0553887559890747,0.00748284559249878,0.044511063766479196,1.0403074187619334
2.693962121212121,-0.0284369276046753,-0.0907129551887512,0.147496903610229,1.0403074187619334
2.694568181818182,-0.0380170057296753,-0.00209723253250122,0.42771418876647904,1.0403074187619334
2.695174242424242,0.036228599739074704,0.0170629237174988,0.113966630172729,1.0403074187619334
2.695780303030303,0.0194634630203247,-0.018862369251251197,0.224137528610229,1.0403074187619334
2.696386363636364,-0.0260419080734253,0.038618099498748795,0.0924114543914792,1.0403074187619334
2.696992424242424,-0.164953040885925,0.0577782557487488,0.0253509075164792,1.0403074187619334
2.697598484848485,-0.24159366588592499,-0.07873785753250119,0.0828313762664792,1.0403074187619334
2.698204545454545,-0.0308319471359253,-0.100293033313751,0.0540911418914792,1.0403074187619334
2.698810606060606,-0.0380170057296753,-0.07394781847000119,0.173842118453979,1.0403074187619334
2.699416666666667,-0.136212806510925,-0.102688052845001,0.216952470016479,1.0403074187619334
2.700022727272727,0.160769615364075,-0.0140723301887512,0.245692704391479,1.0403074187619334
2.700628787878788,-0.0978924940109253,0.19668938856124898,-0.0201544635772708,1.0403074187619334
2.701234848484848,-0.311049232292175,0.00508782606124878,0.0804363567352292,1.0403074187619334
2.701840909090909,-0.052387122917175295,-0.13621832628250102,-0.156670576858521,1.0403074187619334
2.70244696969697,0.0793389513015747,-0.00449225206375122,-0.245286299514771,1.0403074187619334
2.70305303030303,0.12484432239532499,0.043408138561248796,-0.00578434638977077,1.0403074187619334
2.703659090909091,0.038623619270324705,0.0889135096549988,0.228927567672729,1.0403074187619334
2.704265151515152,-0.07394229869842531,0.0338280604362488,0.305568192672729,1.0403074187619334
2.704871212121212,0.0577837755203247,-0.143403384876251,0.228927567672729,1.0403074187619334
2.705477272727273,-0.0308319471359253,0.000297786998748779,0.0900164348602292,1.0403074187619334
2.706083333333333,0.165559654426575,0.151184017467499,0.0828313762664792,1.0403074187619334
2.706689393939394,0.043413658332824706,-0.0404175450325012,0.382208817672729,1.0403074187619334
2.7072954545454553,-0.145792884635925,-0.22722906847000102,0.0756463176727292,1.0403074187619334
2.707901515151515,0.038623619270324705,-0.133823306751251,-0.0872150104522708,1.0403074187619334
2.7085075757575763,-0.270333900260925,-0.23201910753250102,-0.0776349323272708,1.0403074187619334
2.709113636363636,-0.21764347057342498,-0.279919498157501,-0.0848199909210208,1.0403074187619334
2.7097196969696973,-0.0715472791671753,-0.08831793565750119,0.0205608684539792,1.0403074187619334
2.710325757575758,-0.057177161979675296,-0.0356275059700012,0.185817216110229,1.0403074187619334
2.7109318181818183,-0.00927677135467531,-0.11705817003250099,0.197792313766479,1.0403074187619334
2.711537878787879,-0.10028751354217501,-0.12184820909500099,0.0876214153289792,1.0403074187619334
2.7121439393939393,-0.220038490104675,-0.18651373643875102,0.0732512981414792,1.0403074187619334
2.71275,-0.07873233776092531,-0.07394781847000119,0.173842118453979,1.0403074187619334
2.713356060606061,0.031438560676574696,-0.0691577794075012,0.128336747360229,1.0403074187619334
2.713962121212121,-0.205668372917175,-0.08352789659500119,-0.0345245807647708,1.0403074187619334
2.714568181818182,-0.17213809947967498,-0.08592291612625119,-0.149485518264771,1.0403074187619334
2.715174242424242,0.13681942005157502,-0.22243902940750102,0.0756463176727292,1.0403074187619334
2.715780303030303,0.13202938098907502,0.0529882166862488,0.137916825485229,1.0403074187619334
2.716386363636364,-0.0356219861984253,-0.11226813097000099,0.185817216110229,1.0403074187619334
2.716992424242424,-0.057177161979675296,-0.12424322862625099,0.0972014934539792,1.0403074187619334
2.717598484848485,-0.00927677135467531,-0.160168521595001,-0.0896100299835208,1.0403074187619334
2.718204545454545,-0.16734806041717498,-0.0236524083137512,-0.199780928421021,1.0403074187619334
2.718810606060606,-0.0260419080734253,0.134418880748749,0.044511063766479196,1.0403074187619334
2.719416666666667,-0.07633731822967531,-0.052392642688751205,0.193002274703979,1.0403074187619334
2.720022727272727,-0.155372962760925,-0.0619727208137512,0.0684612590789792,1.0403074187619334
2.720628787878788,0.024253502082824698,-0.25836432237625095,0.0972014934539792,1.0403074187619334
2.721234848484848,0.0505987169265747,-0.12424322862625099,-0.046499678421020804,1.0403074187619334
2.721840909090909,0.08891902942657469,-0.160168521595001,0.039721024703979195,1.0403074187619334
2.7224469696969704,-0.131422767448425,-0.0667627598762512,0.161867020797729,1.0403074187619334
2.72305303030303,-0.11944766979217501,-0.00449225206375122,0.363048661422729,1.0403074187619334
2.7236590909090914,-0.16255802135467498,-0.047602603626251204,0.461244462203979,1.0403074187619334
2.7242651515151524,-0.279913978385925,-0.100293033313751,0.34867854423522904,1.0403074187619334
2.7248712121212124,0.0865240098953247,-0.11945318956375099,0.145101884078979,1.0403074187619334
2.7254772727272734,0.14639949817657502,-0.0955029942512512,-0.06805485420227081,1.0403074187619334
2.7260833333333334,-0.054782142448425296,-0.0907129551887512,0.236112626266479,1.0403074187619334
2.7266893939393944,-0.124237708854675,-0.08113287706375119,-0.0824249713897708,1.0403074187619334
2.7272954545454553,0.0026983263015746897,-0.143403384876251,0.0540911418914792,1.0403074187619334
2.7279015151515154,0.0290435411453247,0.13681390027999898,0.154681962203979,1.0403074187619334
2.7285075757575763,-0.263148841667175,-0.133823306751251,-0.0153644245147708,1.0403074187619334
2.7291136363636364,-0.00688175182342531,-0.13142828722000102,0.245692704391479,1.0403074187619334
2.7297196969696973,0.160769615364075,0.00269280652999878,0.101991532516479,1.0403074187619334
2.7303257575757582,0.0697588731765747,0.00269280652999878,0.0756463176727292,1.0403074187619334
2.7309318181818183,0.09849910755157469,0.0721483729362488,0.161867020797729,1.0403074187619334
2.7315378787878792,-0.023646888542175303,0.024247982311248802,0.181027177047729,1.0403074187619334
2.7321439393939393,-0.0428070447921753,-0.0907129551887512,0.360653641891479,1.0403074187619334
2.7327500000000002,-0.0428070447921753,-0.0931079747200012,0.216952470016479,1.0403074187619334
2.733356060606061,0.160769615364075,-0.102688052845001,0.382208817672729,1.0403074187619334
2.7339621212121212,-0.09070743541717531,-0.152983463001251,0.5498601848602289,1.0403074187619334
2.734568181818182,-0.23680362682342498,-0.07394781847000119,-0.185410811233521,1.0403074187619334
2.7351742424242422,-0.057177161979675296,-0.0116773106575012,0.159472001266479,1.0403074187619334
2.735780303030303,0.09370906848907469,0.0697533534049988,0.171447098922729,1.0403074187619334
2.736386363636364,-0.0188568494796753,-0.19130377550125102,0.0828313762664792,1.0403074187619334
2.736992424242424,-0.205668372917175,0.0314330409049988,0.0540911418914792,1.0403074187619334
2.737598484848485,-0.239198646354675,0.108073665904999,0.0516961223602292,1.0403074187619334
2.738204545454545,0.0577837755203247,-0.18172369737625102,0.221742509078979,1.0403074187619334
2.738810606060606,-0.0428070447921753,-0.08831793565750119,0.128336747360229,1.0403074187619334
2.739416666666667,-0.188903236198425,0.00748284559249878,0.43968928642272903,1.0403074187619334
2.740022727272727,-0.0428070447921753,-0.0356275059700012,0.250482743453979,1.0403074187619334
2.740628787878788,-0.17692813854217498,-0.289499576282501,0.188212235641479,1.0403074187619334
2.741234848484848,-0.0643622205734253,-0.08352789659500119,0.130731766891479,1.0403074187619334
2.741840909090909,-0.0954974744796753,0.0577782557487488,0.101991532516479,1.0403074187619334
2.74244696969697,0.0865240098953247,0.0529882166862488,0.212162430953979,1.0403074187619334
2.74305303030303,0.13202938098907502,-0.0667627598762512,0.193002274703979,1.0403074187619334
2.743659090909091,0.0769439317703247,-0.10987311143875099,0.305568192672729,1.0403074187619334
2.744265151515152,0.036228599739074704,0.0769384119987488,0.171447098922729,1.0403074187619334
2.744871212121212,0.0769439317703247,0.09849358777999881,0.353468583297729,1.0403074187619334
2.745477272727273,0.220645103645325,0.0745433924674988,0.28640803642272905,1.0403074187619334
2.746083333333333,0.0194634630203247,-0.0332324864387512,0.006190751266479231,1.0403074187619334
2.746689393939394,0.0529937364578247,-0.07394781847000119,0.0493011028289792,1.0403074187619334
2.7472954545454553,0.20148494739532502,-0.07155279893875119,0.312753251266479,1.0403074187619334
2.747901515151515,0.00748836536407469,0.0170629237174988,0.272037919235229,1.0403074187619334
2.7485075757575763,-0.179323158073425,-0.08831793565750119,0.197792313766479,1.0403074187619334
2.749113636363636,-0.0284369276046753,-0.18651373643875102,0.202582352828979,1.0403074187619334
2.7497196969696973,-0.131422767448425,-0.18651373643875102,0.0301409465789792,1.0403074187619334
2.7503257575757583,-0.0260419080734253,-0.107478091907501,0.0780413372039792,1.0403074187619334
2.7509318181818183,0.12005428333282499,-0.00209723253250122,0.193002274703979,1.0403074187619334
2.7515378787878793,-0.0619672010421753,-0.18651373643875102,0.0588811809539792,1.0403074187619334
2.7521439393939393,-0.246383704948425,-0.08352789659500119,0.240902665328979,0.8131778789052224
2.7527500000000003,-0.0284369276046753,-0.08592291612625119,0.00379573173522923,0.8131778789052224
2.753356060606061,0.29010067005157497,-0.049997623157501205,0.152286942672729,0.8131778789052224
2.7539621212121213,0.0505987169265747,0.151184017467499,0.37981379814147903,0.8131778789052224
2.754568181818182,-0.275123939323425,0.0697533534049988,0.0995965129852292,0.8131778789052224
2.7551742424242422,-0.246383704948425,-0.155378482532501,0.142706864547729,0.8131778789052224
2.755780303030303,-0.0164618299484253,-0.0260474278450012,0.113966630172729,0.8131778789052224
2.756386363636364,-0.00209171276092531,0.0889135096549988,0.315148270797729,0.8131778789052224
2.756992424242424,-0.021251869010925302,0.13681390027999898,-0.0249445026397708,0.8131778789052224
2.757598484848485,0.0601787950515747,0.0817284510612488,0.0684612590789792,0.8131778789052224
2.758204545454545,0.105684166145325,-0.11945318956375099,0.24329768486022899,0.8131778789052224
2.758810606060606,-0.0619672010421753,-0.107478091907501,0.18342219657897899,0.8131778789052224
2.759416666666667,0.0745489122390747,-0.0595777012825012,0.111571610641479,0.8131778789052224
2.760022727272727,0.0266485216140747,-0.11466315050125099,0.159472001266479,0.8131778789052224
2.760628787878788,-0.145792884635925,-0.021257388782501198,0.0828313762664792,0.8131778789052224
2.761234848484849,-0.07394229869842531,-0.049997623157501205,0.135521805953979,0.8131778789052224
2.761840909090909,0.172744713020325,-0.234414127063751,0.0756463176727292,0.8131778789052224
2.76244696969697,0.0146734239578247,-0.0643677403450012,0.47561457939147905,0.8131778789052224
2.76305303030303,-0.0931024549484253,-0.052392642688751205,0.202582352828979,0.8131778789052224
2.763659090909091,-0.0643622205734253,0.041013119029998796,-0.151880537796021,0.8131778789052224
2.7642651515151524,-0.10747257213592501,-0.0452075840950012,0.202582352828979,0.8131778789052224
2.764871212121212,0.0482036973953247,-0.133823306751251,0.231322587203979,0.8131778789052224
2.7654772727272734,-0.023646888542175303,-0.0643677403450012,0.303173173141479,0.8131778789052224
2.766083333333333,-0.09070743541717531,0.160764095592499,-0.06326481513977081,0.8131778789052224
2.7666893939393944,-0.0667572401046753,-0.138613345813751,0.0852263957977292,0.8131778789052224
2.7672954545454553,-0.10507755260467501,0.00748284559249878,-0.0249445026397708,0.8131778789052224
2.7679015151515154,-0.124237708854675,-0.0356275059700012,0.116361649703979,0.8131778789052224
2.7685075757575763,-0.133817786979675,-0.07394781847000119,0.324728348922729,0.8131778789052224
2.7691136363636364,-0.16255802135467498,0.0673583338737488,0.0469060832977292,0.8131778789052224
2.7697196969696973,-0.00688175182342531,-0.07394781847000119,-0.000994307327270769,0.8131778789052224
2.7703257575757583,-0.07873233776092531,-0.160168521595001,0.236112626266479,0.8131778789052224
2.7709318181818183,-0.0284369276046753,-0.22722906847000102,-0.048894697952270805,0.8131778789052224
2.7715378787878793,0.09849910755157469,-0.0691577794075012,0.248087723922729,0.8131778789052224
2.7721439393939393,-0.136212806510925,-0.08592291612625119,0.485194657516479,0.8131778789052224
2.7727500000000003,-0.07873233776092531,-0.152983463001251,-0.108770186233521,0.8131778789052224
2.773356060606061,-0.049992103385925295,-0.27512945909500097,-0.044104658889770804,0.8131778789052224
2.7739621212121213,-0.320629310417175,0.0458031580924988,0.00379573173522923,0.8131778789052224
2.774568181818182,-0.272728919792175,-0.129033267688751,0.130731766891479,0.8131778789052224
2.7751742424242423,-0.18171817760467499,-0.169748599720001,-0.0225494831085208,0.8131778789052224
2.775780303030303,-0.141002845573425,0.0170629237174988,-0.0321295612335208,0.8131778789052224
2.776386363636364,0.0026983263015746897,-0.07394781847000119,0.312753251266479,0.8131778789052224
2.776992424242424,-0.004486732292175309,-0.203278873157501,0.26964289970397903,0.8131778789052224
2.777598484848485,-0.057177161979675296,-0.150588443470001,0.0181658489227292,0.8131778789052224
2.778204545454545,-0.193693275260925,0.00508782606124878,-0.125535322952271,0.8131778789052224
2.778810606060606,-0.215248451042175,-0.224834048938751,0.140311845016479,0.8131778789052224
2.779416666666667,0.0170684434890747,-0.203278873157501,0.140311845016479,0.8131778789052224
2.780022727272727,-0.243988685417175,-0.049997623157501205,0.0612762004852292,0.8131778789052224
2.780628787878788,-0.08831241588592531,-0.155378482532501,0.0900164348602292,0.8131778789052224
2.781234848484849,-0.0332269666671753,-0.11466315050125099,0.204977372360229,0.8131778789052224
2.781840909090909,-0.196088294792175,-0.0619727208137512,0.219347489547729,0.8131778789052224
2.78244696969697,-0.279913978385925,-0.0978980137825012,0.322333329391479,0.8131778789052224
2.78305303030303,-0.224828529167175,-0.11945318956375099,0.161867020797729,0.8131778789052224
2.783659090909091,0.0577837755203247,-0.0260474278450012,-0.0225494831085208,0.8131778789052224
2.784265151515151,-0.0643622205734253,-0.169748599720001,0.193002274703979,0.8131778789052224
2.784871212121212,-0.049992103385925295,-0.25357428331375104,0.0684612590789792,0.8131778789052224
2.785477272727273,-0.138607826042175,-0.0380225255012512,0.0636712200164792,0.8131778789052224
2.786083333333333,-0.11226261119842501,-0.049997623157501205,0.32712336845397905,0.8131778789052224
2.786689393939394,0.00748836536407469,-0.0284424473762512,0.147496903610229,0.8131778789052224
2.787295454545455,-0.301469154167175,-0.0643677403450012,0.0900164348602292,0.8131778789052224
2.787901515151515,-0.138607826042175,-0.00928229112625122,0.161867020797729,0.8131778789052224
2.788507575757576,0.033833580207824704,0.0338280604362488,0.26006282157897903,0.8131778789052224
2.789113636363636,-0.16255802135467498,-0.311054752063751,0.240902665328979,0.8131778789052224
2.789719696969697,0.0290435411453247,-0.0452075840950012,0.0612762004852292,0.8131778789052224
2.7903257575757583,0.09370906848907469,0.158369076061249,0.0229558879852292,0.8131778789052224
2.790931818181818,0.0601787950515747,0.19189934949874898,0.104386552047729,0.8131778789052224
2.7915378787878793,-0.31823429088592503,0.170344173717499,0.161867020797729,0.8131778789052224
2.792143939393939,-0.0260419080734253,-0.07634283800125119,0.248087723922729,0.8131778789052224
2.7927500000000003,0.18711483020782502,-0.0907129551887512,0.0780413372039792,0.8131778789052224
2.7933560606060612,0.0649688341140747,-0.138613345813751,0.564230302047729,0.8131778789052224
2.7939621212121213,-0.0332269666671753,-0.00449225206375122,0.482799637985229,0.8131778789052224
2.7945681818181822,-0.196088294792175,0.0290380213737488,0.03253596611022919,0.8131778789052224
2.7951742424242423,-0.08591739635467531,-0.049997623157501205,0.291198075485229,0.8131778789052224
2.7957803030303032,-0.057177161979675296,-0.143403384876251,0.171447098922729,0.8131778789052224
2.796386363636364,-0.0428070447921753,-0.18172369737625102,0.176237137985229,0.8131778789052224
2.7969924242424242,-0.07394229869842531,-0.0643677403450012,0.274432938766479,0.8131778789052224
2.797598484848485,0.127239341926575,-0.08831793565750119,0.128336747360229,0.8131778789052224
2.798204545454546,0.115264244270325,-0.08352789659500119,0.193002274703979,0.8131778789052224
2.798810606060606,-0.0691522596359253,-0.13142828722000102,0.41813411064147904,0.8131778789052224
2.799416666666667,-0.011671790885925301,-0.13142828722000102,0.039721024703979195,0.8131778789052224
2.800022727272727,-0.0619672010421753,-0.12184820909500099,-0.00578434638977077,0.8131778789052224
2.800628787878788,-0.131422767448425,0.0865184901237488,-0.123140303421021,0.8131778789052224
2.801234848484848,-0.004486732292175309,-0.0428125645637512,0.147496903610229,0.8131778789052224
2.801840909090909,-0.10028751354217501,-0.0116773106575012,0.101991532516479,0.8131778789052224
2.80244696969697,-0.12663272838592501,0.160764095592499,0.145101884078979,0.8131778789052224
2.80305303030303,-0.143397865104675,-0.0691577794075012,0.384603837203979,0.8131778789052224
2.803659090909091,-0.0619672010421753,0.0625682948112488,0.0277459270477292,0.8131778789052224
2.804265151515151,-0.004486732292175309,0.12004876356124901,0.157076981735229,0.8131778789052224
2.804871212121212,-0.138607826042175,-0.13621832628250102,0.195397294235229,0.8131778789052224
2.8054772727272734,-0.12663272838592501,-0.26794440050125096,0.101991532516479,0.8131778789052224
2.806083333333333,-0.07633731822967531,-0.0284424473762512,-0.149485518264771,0.8131778789052224
2.8066893939393944,-0.133817786979675,-0.021257388782501198,0.03253596611022919,0.8131778789052224
2.8072954545454554,-0.0715472791671753,0.0865184901237488,0.312753251266479,0.8131778789052224
2.8079015151515154,0.148794517707825,0.0146679041862488,0.17863215751647898,0.8131778789052224
2.8085075757575764,0.12484432239532499,-0.0380225255012512,0.226532548141479,0.8131778789052224
2.8091136363636364,-0.0643622205734253,-0.0260474278450012,0.262457841110229,0.8131778789052224
2.8097196969696974,-0.004486732292175309,-0.18172369737625102,0.204977372360229,0.8131778789052224
2.8103257575757583,0.13681942005157502,0.00508782606124878,0.0972014934539792,0.8131778789052224
2.8109318181818184,-0.08352237682342531,-0.08831793565750119,0.113966630172729,0.8131778789052224
2.8115378787878793,-0.12663272838592501,-0.24159918565750102,0.226532548141479,0.8131778789052224
2.8121439393939394,-0.0308319471359253,-0.0332324864387512,0.240902665328979,0.8131778789052224
2.8127500000000003,-0.004486732292175309,-0.00688727159500122,0.161867020797729,0.8131778789052224
2.8133560606060612,0.127239341926575,-0.105083072376251,0.0133758098602292,0.8131778789052224
2.8139621212121213,-0.10986759166717501,-0.07155279893875119,0.214557450485229,0.8131778789052224
2.8145681818181822,-0.10986759166717501,-0.24159918565750102,0.133126786422729,0.8131778789052224
2.8151742424242423,-0.0404120252609253,-0.13621832628250102,-0.0129694049835208,0.8131778789052224
2.8157803030303032,-0.07633731822967531,0.0865184901237488,0.130731766891479,0.8131778789052224
2.816386363636364,0.0841289903640747,-0.11226813097000099,0.26964289970397903,0.8131778789052224
2.8169924242424242,-0.0715472791671753,-0.0907129551887512,0.039721024703979195,0.8131778789052224
2.817598484848485,-0.148187904167175,0.100888607311249,-0.0417096393585208,0.8131778789052224
2.8182045454545452,0.031438560676574696,0.0505931971549988,0.216952470016479,0.8131778789052224
2.818810606060606,-0.057177161979675296,0.038618099498748795,0.0181658489227292,0.8131778789052224
2.819416666666667,-0.09070743541717531,0.024247982311248802,0.35825862236022904,0.8131778789052224
2.820022727272727,-0.021251869010925302,0.12483880262374901,0.128336747360229,0.8131778789052224
2.820628787878788,0.033833580207824704,-0.148193423938751,0.113966630172729,0.8131778789052224
2.821234848484848,0.17753475208282501,-0.16735358018875102,0.372628739547729,0.8131778789052224
2.821840909090909,0.036228599739074704,-0.13142828722000102,0.152286942672729,0.8131778789052224
2.82244696969697,-0.129027747917175,-0.23680914659500102,0.0636712200164792,0.8131778789052224
2.82305303030303,0.0745489122390747,0.038618099498748795,0.226532548141479,0.8131778789052224
2.823659090909091,-0.00688175182342531,-0.239204166126251,0.760621903610229,0.8131778789052224
2.824265151515152,-0.00927677135467531,-0.25357428331375104,-0.06565983467102081,0.8131778789052224
2.824871212121212,0.0266485216140747,-0.184118716907501,-0.0129694049835208,0.8131778789052224
2.825477272727273,-0.0428070447921753,-0.107478091907501,0.26724788017272905,0.8131778789052224
2.826083333333333,-0.052387122917175295,0.021852962779998802,0.0876214153289792,0.8131778789052224
2.826689393939394,-0.047597083854675294,0.024247982311248802,0.38939387626647903,0.8131778789052224
2.827295454545455,-0.0978924940109253,0.179924251842499,0.0588811809539792,0.8131778789052224
2.827901515151515,-0.0284369276046753,-0.150588443470001,-0.00817936592102077,0.8131778789052224
2.828507575757576,0.0170684434890747,-0.164958560657501,-0.120745283889771,0.8131778789052224
2.829113636363636,0.110474205207825,-0.018862369251251197,-0.101585127639771,0.8131778789052224
2.829719696969697,0.036228599739074704,-0.152983463001251,0.291198075485229,0.8131778789052224
2.8303257575757583,-0.220038490104675,-0.0619727208137512,0.293593095016479,0.8131778789052224
2.830931818181818,-0.047597083854675294,0.0577782557487488,0.101991532516479,0.8131778789052224
2.8315378787878793,-0.08591739635467531,-0.239204166126251,0.0972014934539792,0.8131778789052224
2.832143939393939,-0.196088294792175,-0.193698795032501,0.169052079391479,0.8131778789052224
2.8327500000000003,-0.255963783073425,-0.0308374669075012,0.130731766891479,0.8131778789052224
2.8333560606060613,-0.193693275260925,-0.155378482532501,0.0876214153289792,0.8131778789052224
2.8339621212121213,0.105684166145325,-0.16256354112625102,0.0157708293914792,0.8131778789052224
2.8345681818181823,0.108079185676575,-0.0428125645637512,0.044511063766479196,0.8131778789052224
2.8351742424242423,0.0146734239578247,-0.0236524083137512,0.0948064739227292,0.8131778789052224
2.8357803030303033,0.112869224739075,-0.11466315050125099,0.0924114543914792,0.8131778789052224
2.836386363636364,-0.11465763072967501,0.038618099498748795,0.0684612590789792,0.8131778789052224
2.8369924242424243,-0.07394229869842531,-0.169748599720001,0.164262040328979,0.8131778789052224
2.837598484848485,-0.0428070447921753,0.0505931971549988,0.042116044235229196,0.8131778789052224
2.8382045454545453,-0.08591739635467531,0.129628841686249,0.193002274703979,0.8131778789052224
2.838810606060606,-0.160163001823425,-0.047602603626251204,0.272037919235229,0.8131778789052224
2.839416666666667,-0.133817786979675,-0.12184820909500099,0.104386552047729,0.8131778789052224
2.840022727272727,-0.129027747917175,-0.174538638782501,0.185817216110229,0.8131778789052224
2.840628787878788,0.09610408802032469,-0.126638248157501,0.0301409465789792,0.8131778789052224
2.841234848484848,0.0793389513015747,-0.021257388782501198,0.034930985641479194,0.8131778789052224
2.841840909090909,-0.193693275260925,0.134418880748749,0.130731766891479,0.8131778789052224
2.84244696969697,-0.0188568494796753,-0.00688727159500122,0.044511063766479196,0.8131778789052224
2.84305303030303,-0.251173744010925,0.0314330409049988,0.0948064739227292,0.8131778789052224
2.843659090909091,-0.129027747917175,-0.13142828722000102,0.250482743453979,0.8131778789052224
2.844265151515152,0.0266485216140747,-0.054787662220001206,0.0301409465789792,0.8131778789052224
2.844871212121212,0.0026983263015746897,-0.0260474278450012,0.03253596611022919,0.8131778789052224
2.845477272727273,0.031438560676574696,-0.294289615345001,0.154681962203979,0.8131778789052224
2.846083333333333,0.012278404426574699,-0.07873785753250119,0.0612762004852292,0.8131778789052224
2.846689393939394,0.0482036973953247,-0.145798404407501,-0.044104658889770804,0.8131778789052224
2.8472954545454554,0.00988338489532469,-0.021257388782501198,-0.0177594440460208,0.8131778789052224
2.847901515151515,0.012278404426574699,0.0865184901237488,0.111571610641479,0.8131778789052224
2.8485075757575764,-0.023646888542175303,-0.054787662220001206,0.226532548141479,0.8131778789052224
2.849113636363636,-0.023646888542175303,-0.150588443470001,0.0133758098602292,0.8131778789052224
2.8497196969696974,0.09131404895782469,-0.198488834095001,0.0684612590789792,0.8131778789052224
2.8503257575757583,0.0482036973953247,0.0721483729362488,0.0301409465789792,0.8131778789052224
2.8509318181818184,0.203879966926575,-0.00928229112625122,0.169052079391479,0.8131778789052224
2.8515378787878793,0.09849910755157469,-0.07873785753250119,0.255272782516479,0.8131778789052224
2.8521439393939394,-0.0452020643234253,-0.0308374669075012,0.0157708293914792,0.8131778789052224
2.8527500000000003,-0.141002845573425,-0.08592291612625119,0.17863215751647898,1.0009068805480856
2.8533560606060613,-0.0308319471359253,-0.152983463001251,0.463639481735229,1.0009068805480856
2.8539621212121213,-0.10747257213592501,-0.0380225255012512,-0.046499678421020804,1.0009068805480856
2.8545681818181823,-0.145792884635925,-0.150588443470001,0.0636712200164792,1.0009068805480856
2.8551742424242423,-0.0164618299484253,-0.11945318956375099,0.169052079391479,1.0009068805480856
2.8557803030303033,-0.35655460338592504,-0.141008365345001,-0.149485518264771,1.0009068805480856
2.8563863636363642,-0.148187904167175,-0.138613345813751,0.293593095016479,1.0009068805480856
2.8569924242424243,-0.0715472791671753,-0.0595777012825012,-0.053684737014770806,1.0009068805480856
2.857598484848485,0.036228599739074704,-0.169748599720001,0.147496903610229,1.0009068805480856
2.8582045454545453,-0.344579505729675,-0.08592291612625119,0.123546708297729,1.0009068805480856
2.858810606060606,-0.210458411979675,-0.11945318956375099,-0.108770186233521,1.0009068805480856
2.859416666666667,0.129634361457825,-0.07394781847000119,0.0133758098602292,1.0009068805480856
2.860022727272727,0.0697588731765747,-0.208068912220001,-0.147090498733521,1.0009068805480856
2.860628787878788,-0.184113197135925,-0.126638248157501,-0.127930342483521,1.0009068805480856
2.861234848484848,-0.011671790885925301,0.021852962779998802,0.0157708293914792,1.0009068805480856
2.861840909090909,0.13202938098907502,-0.0907129551887512,0.154681962203979,1.0009068805480856
2.86244696969697,-0.0691522596359253,-0.17214361925125102,0.31993830986022903,1.0009068805480856
2.86305303030303,0.00988338489532469,0.0194579432487488,0.264852860641479,1.0009068805480856
2.863659090909091,0.000303306770324691,0.0697533534049988,0.0205608684539792,1.0009068805480856
2.864265151515152,0.155979576301575,0.215849544811249,0.0852263957977292,1.0009068805480856
2.864871212121212,-0.0619672010421753,-0.0404175450325012,0.130731766891479,1.0009068805480856
2.865477272727273,-0.11944766979217501,-0.260759341907501,0.248087723922729,1.0009068805480856
2.866083333333333,-0.138607826042175,0.036223079967498795,0.0205608684539792,1.0009068805480856
2.866689393939394,-0.148187904167175,-0.16735358018875102,-0.0848199909210208,1.0009068805480856
2.867295454545455,-0.10747257213592501,-0.10987311143875099,0.0780413372039792,1.0009068805480856
2.867901515151515,-0.08831241588592531,0.0673583338737488,0.204977372360229,1.0009068805480856
2.868507575757576,0.000303306770324691,-0.26554938097000097,0.176237137985229,1.0009068805480856
2.869113636363636,0.031438560676574696,-0.0284424473762512,0.00140071220397923,1.0009068805480856
2.869719696969697,-0.011671790885925301,0.000297786998748779,0.154681962203979,1.0009068805480856
2.870325757575758,-0.0954974744796753,-0.0643677403450012,0.152286942672729,1.0009068805480856
2.870931818181818,-0.0619672010421753,0.105678646373749,0.118756669235229,1.0009068805480856
2.871537878787879,-0.0954974744796753,-0.00928229112625122,0.0852263957977292,1.0009068805480856
2.872143939393939,0.00748836536407469,-0.0452075840950012,-0.048894697952270805,1.0009068805480856
2.87275,-0.00688175182342531,0.0481981776237488,0.0756463176727292,1.0009068805480856
2.8733560606060613,-0.0428070447921753,-0.0260474278450012,0.26006282157897903,1.0009068805480856
2.873962121212121,-0.143397865104675,-0.13621832628250102,0.159472001266479,1.0009068805480856
2.8745681818181823,-0.155372962760925,-0.13142828722000102,-0.053684737014770806,1.0009068805480856
2.875174242424242,-0.272728919792175,-0.30626471300125097,0.113966630172729,1.0009068805480856
2.8757803030303033,-0.0332269666671753,-0.049997623157501205,0.111571610641479,1.0009068805480856
2.8763863636363642,0.00988338489532469,-0.0643677403450012,0.00140071220397923,1.0009068805480856
2.8769924242424243,-0.179323158073425,-0.12184820909500099,0.224137528610229,1.0009068805480856
2.8775984848484852,-0.0619672010421753,0.0194579432487488,0.106781571578979,1.0009068805480856
2.8782045454545453,-0.129027747917175,-0.24638922472000102,0.0852263957977292,1.0009068805480856
2.8788106060606062,-0.26793888072967503,0.09370354871749881,0.0301409465789792,1.0009068805480856
2.879416666666667,-0.253568763542175,-0.047602603626251204,0.0995965129852292,1.0009068805480856
2.8800227272727272,0.14639949817657502,-0.100293033313751,0.142706864547729,1.0009068805480856
2.880628787878788,-0.160163001823425,0.0146679041862488,0.18342219657897899,1.0009068805480856
2.881234848484849,0.0266485216140747,-0.210463931751251,0.394183915328979,1.0009068805480856
2.881840909090909,-0.11226261119842501,-0.0236524083137512,-0.00817936592102077,1.0009068805480856
2.88244696969697,-0.32541934947967505,-0.11705817003250099,0.410949052047729,1.0009068805480856
2.88305303030303,-0.10028751354217501,-0.155378482532501,0.137916825485229,1.0009068805480856
2.883659090909091,-0.0691522596359253,0.00748284559249878,0.197792313766479,1.0009068805480856
2.884265151515152,0.0793389513015747,-0.0571826817512512,0.394183915328979,1.0009068805480856
2.884871212121212,0.033833580207824704,-0.148193423938751,0.113966630172729,1.0009068805480856
2.885477272727273,-0.023646888542175303,0.0601732752799988,0.245692704391479,1.0009068805480856
2.886083333333333,-0.16734806041717498,-0.08352789659500119,0.123546708297729,1.0009068805480856
2.886689393939394,-0.150582923698425,-0.0404175450325012,0.140311845016479,1.0009068805480856
2.887295454545455,-0.129027747917175,-0.0907129551887512,0.0157708293914792,1.0009068805480856
2.887901515151515,0.0266485216140747,-0.0236524083137512,0.312753251266479,1.0009068805480856
2.8885075757575764,0.117659263801575,0.043408138561248796,0.44926936454772903,1.0009068805480856
2.889113636363636,0.000303306770324691,0.0194579432487488,0.26724788017272905,1.0009068805480856
2.8897196969696974,0.021858482551574698,-0.12424322862625099,0.25766780204772904,1.0009068805480856
2.8903257575757584,-0.07394229869842531,-0.11705817003250099,0.28640803642272905,1.0009068805480856
2.8909318181818184,0.184719810676575,-0.07634283800125119,-0.0153644245147708,1.0009068805480856
2.8915378787878794,0.158374595832825,-0.102688052845001,0.25766780204772904,1.0009068805480856
2.8921439393939394,-0.07394229869842531,-0.19609381456375102,0.116361649703979,1.0009068805480856
2.8927500000000004,0.036228599739074704,-0.291894595813751,-0.00338932685852077,1.0009068805480856
2.8933560606060613,-0.10747257213592501,-0.126638248157501,0.281617997360229,1.0009068805480856
2.8939621212121214,0.105684166145325,-0.0116773106575012,0.0109807903289792,1.0009068805480856
2.8945681818181823,0.09849910755157469,-0.0667627598762512,0.0804363567352292,1.0009068805480856
2.8951742424242424,-0.0332269666671753,-0.018862369251251197,0.145101884078979,1.0009068805480856
2.8957803030303033,-0.150582923698425,-0.0284424473762512,0.113966630172729,1.0009068805480856
2.8963863636363643,-0.0715472791671753,-0.07873785753250119,0.181027177047729,1.0009068805480856
2.8969924242424243,-0.00927677135467531,-0.0571826817512512,0.135521805953979,1.0009068805480856
2.8975984848484853,-0.26793888072967503,-0.105083072376251,0.221742509078979,1.0009068805480856
2.8982045454545453,-0.37810977916717503,0.0194579432487488,0.195397294235229,1.0009068805480856
2.8988106060606063,-0.121842689323425,-0.0308374669075012,0.145101884078979,1.0009068805480856
2.899416666666667,-0.0452020643234253,0.0481981776237488,0.17863215751647898,1.0009068805480856
2.9000227272727273,0.0745489122390747,0.0194579432487488,0.123546708297729,1.0009068805480856
2.900628787878788,0.09610408802032469,-0.0978980137825012,0.0828313762664792,1.0009068805480856
2.901234848484849,-0.10028751354217501,-0.24638922472000102,0.154681962203979,1.0009068805480856
2.901840909090909,0.00988338489532469,-0.054787662220001206,-0.051289717483520805,1.0009068805480856
2.90244696969697,-0.054782142448425296,0.00748284559249878,-0.0225494831085208,1.0009068805480856
2.90305303030303,0.41224666614532496,0.021852962779998802,-0.06565983467102081,1.0009068805480856
2.903659090909091,0.0482036973953247,-0.07873785753250119,0.0756463176727292,1.0009068805480856
2.904265151515151,-0.184113197135925,-0.224834048938751,0.23850764579772898,1.0009068805480856
2.904871212121212,-0.0931024549484253,-0.0116773106575012,0.104386552047729,1.0009068805480856
2.905477272727273,-0.052387122917175295,0.103283626842499,0.152286942672729,1.0009068805480856
2.906083333333333,0.215855064582825,0.0481981776237488,0.0732512981414792,1.0009068805480856
2.906689393939394,-0.138607826042175,0.0649633143424988,0.0588811809539792,1.0009068805480856
2.907295454545455,-0.31823429088592503,-0.16256354112625102,0.305568192672729,1.0009068805480856
