Time (s),Accel X (m/s^2),Accel Y (m/s^2),Accel Z (m/s^2)
0.0,-0.0424733325004578,0.0789822243690491,-0.000491446781158709
0.000606060606060606,0.0174021557807922,0.225078415775299,-0.216043204593659
0.00121212121212121,0.0557224682807922,-0.021608595943450902,-0.148982657718659
0.00181818181818182,0.0844627026557922,0.124487595462799,0.155184822750091
0.00242424242424242,-0.0831886645317078,-0.0431637717247009,-0.0938972084999087
0.00303030303030303,0.18984356203079197,-0.021608595943450902,-0.0699470131874087
0.00363636363636364,0.16349834718704198,-0.012028517818450902,0.0138786704063413
0.00424242424242424,-0.0209181567192078,-0.189259963130951,0.0929143149375913
0.00484848484848485,0.17307842531204198,-0.115014357662201,0.0498039633750913
0.00545454545454545,-0.00415302000045776,-0.143754592037201,0.25817066259384097
0.00606060606060606,-0.0855836840629578,0.10293241968154901,0.207875252437591
0.00666666666666667,-0.289160344219208,-0.00723847875595092,0.119259529781341
0.00727272727272727,-0.119113957500458,-0.0359787131309509,-0.0364167397499087
0.00787878787878788,0.0461423901557922,0.16759794702529898,-0.189697989749909
0.00848484848484848,-0.0544484301567078,-0.129384474849701,0.265355721187591
0.00909090909090909,0.240138972187042,-0.30422090063095103,0.315651131343841
0.0096969696969697,-0.0951637621879578,-0.0024484396934509197,0.042618904781341296
0.0103030303030303,-0.138274113750458,-0.0240036154747009,0.353971443843841
0.0109090909090909,0.0605125073432922,0.011921677494049099,0.595868416500091
0.0115151515151515,0.0509324292182922,-0.0814840842247009,0.0474089438438413
0.0121212121212121,0.101227839374542,-0.0742990256309509,-0.0436017983436587
0.0127272727272727,-0.126299016094208,-0.0575338889122009,0.0186687094688413
0.0133333333333333,0.0054270581245422405,-0.218000197505951,0.0330388266563413
0.0139393939393939,-0.0161281176567078,0.0167117165565491,0.26056568212509096
0.0145454545454545,-0.0113380785942078,-0.107829299068451,0.0258537680625913
0.0151515151515152,0.0868577221870422,-0.13656953344345102,-0.129822501468659
0.0157575757575758,-0.013733098125457801,-0.06950898656845089,0.14560474462509101
0.0163636363636364,-0.13587909421920802,-0.160519728755951,0.0234587485313413
0.016969696969697,-0.0424733325004578,-0.0886691428184509,0.107284432125091
0.0175757575757576,0.0174021557807922,-0.0024484396934509197,0.265355721187591
0.0181818181818182,0.010217097187042199,0.0310818337440491,0.0210637290000913
0.0187878787878788,0.0724876049995422,0.0885623024940491,0.0761491782188413
0.0193939393939394,-0.013733098125457801,-0.0311886740684509,0.174344979000091
0.02,0.0796726635932922,-0.371281447505951,0.198295174312591
0.0206060606060606,0.00303203859329224,0.00952665796279908,0.0114836508750913
0.0212121212121212,-0.19575458250045802,0.0813772439002991,-0.0555768959999087
0.0218181818181818,0.00782207765579224,-0.0838791037559509,0.0138786704063413
0.0224242424242424,-0.16461932859420803,-0.00723847875595092,-0.0771320717811587
0.023030303030303,-0.0927687426567078,-0.194050002193451,-0.218438224124909
0.0236363636363636,0.0269822339057922,-0.00723847875595092,0.00190357275009129
0.0242424242424242,-0.0760036059379578,0.184363083744049,0.100099373531341
0.0248484848484848,0.12996807374954197,0.0286868142127991,0.0450139243125913
0.0254545454545455,-0.0664235278129578,0.155622849369049,0.0474089438438413
0.0260606060606061,-0.21491473875045802,-0.0335836935997009,-0.0340217202186587
0.0266666666666667,-0.13587909421920802,-0.0742990256309509,0.0330388266563413
0.0272727272727273,0.0150071362495422,-0.012028517818450902,0.0785441977500913
0.0278787878787879,-0.00894305906295776,0.059822068119049096,0.0593840415000913
0.0284848484848485,0.0629075268745422,0.124487595462799,-0.0627619545936587
0.0290909090909091,-0.0879787035942078,-0.100644240474701,0.133629646968841
0.0296969696969697,0.0940427807807922,-0.11740937719345099,-0.113057364749909
0.0303030303030303,0.106017878437042,-0.210815138912201,-0.295078849124909
0.0309090909090909,-0.0616334887504578,0.21789335718154898,0.176739998531341
0.0315151515151515,0.108412897968292,0.22268339624404898,0.193505135250091
0.0321212121212121,0.0174021557807922,0.0143166970252991,-0.0196516030311587
0.0327272727272727,0.216188776874542,-0.0240036154747009,0.0569890219688413
0.0333333333333333,0.0221921948432922,-0.0335836935997009,-0.0412067788124087
0.0339393939393939,0.0174021557807922,0.07419218530654911,-0.0531818764686587
0.0345454545454545,0.13475811281204197,0.06940214624404911,0.0809392172813413
0.0351515151515151,-0.18138446531295802,-0.13177949438095102,-0.0771320717811587
0.0357575757575758,-0.00175800046920776,-0.0287936545372009,-0.0603669350624087
0.0363636363636364,-0.0328932543754578,-0.0982492209434509,-0.0148615639686587
0.036969696969697,-0.0664235278129578,-0.17728486547470101,-0.115452384281159
0.0375757575757576,0.170683405780792,0.136462693119049,0.124049568843841
0.0381818181818182,0.0653025464057922,0.0143166970252991,0.0306438071250913
0.0387878787878788,0.0916477612495422,-0.0168185568809509,0.11686451025009101
0.0393939393939394,-0.188569523906708,-0.0862741232872009,-0.0100715249061587
0.04,0.0365623120307922,-0.0144235373497009,-0.105872306156159
0.0406060606060606,0.132363093280792,-0.0407687521934509,0.217455330562591
0.0412121212121212,-0.123903996562958,-0.12459443578720099,0.720409432125091
0.0418181818181818,-0.0185231371879578,-0.0335836935997009,0.0521989829063413
0.0424242424242424,0.0916477612495422,0.0167117165565491,-0.249573478031159
0.043030303030303,0.0509324292182922,-0.17728486547470101,0.181530037593841
0.0436363636363636,-0.00175800046920776,-0.227580275630951,0.0138786704063413
0.0442424242424242,0.216188776874542,-0.0431637717247009,0.0234587485313413
0.0448484848484848,-0.0783986254692078,-0.06471894750595089,-0.0292316811561587
0.0454545454545455,-0.26281512937545803,0.0957473610877991,0.404266854000091
0.0460606060606061,-0.126299016094208,-0.105434279537201,0.0761491782188413
0.0466666666666667,-0.025708195781707802,-0.0024484396934509197,-0.0507868569374087
0.0472727272727273,-0.0281032153129578,0.225078415775299,0.0234587485313413
0.0478787878787879,0.17786846437454198,0.00234159936904908,0.0282487875938413
0.0484848484848485,0.151523249530792,0.0502419899940491,0.0593840415000913
0.0490909090909091,-0.0688185473442078,-0.004843459224700921,0.0953093344688413
0.0496969696969697,0.0341672924995422,0.00952665796279908,-0.0196516030311587
0.0503030303030303,0.0988328198432922,0.021501755619049098,-0.0220466225624087
0.0509090909090909,-0.013733098125457801,-0.20123506078720102,0.0809392172813413
0.0515151515151515,-0.0616334887504578,-0.18686494359970102,0.0354338461875913
0.0521212121212121,0.0533274487495422,0.0981423806190491,0.155184822750091
0.0527272727272727,-0.138274113750458,0.0310818337440491,-0.108267325687409
0.0533333333333333,-0.121508977031708,-0.059928908443450904,0.128839607906341
0.0539393939393939,-0.0209181567192078,0.023896775150299098,0.227035408687591
0.0545454545454545,-0.0783986254692078,0.023896775150299098,-0.0867121499061587
0.0551515151515152,-0.0951637621879578,0.06940214624404911,-0.0651569741249087
0.0557575757575758,-0.0281032153129578,0.0167117165565491,0.0210637290000913
0.0563636363636364,0.00782207765579224,0.11011747827529901,0.0977043540000913
0.056969696969697,0.19942364015579198,0.21789335718154898,0.248590584468841
0.0575757575757576,0.13475811281204197,-0.150939650630951,0.14560474462509101
0.0581818181818182,-0.0376832934379578,-0.0144235373497009,0.11446949071884101
0.0587878787878788,0.125178034687042,-0.0982492209434509,0.34918140478134096
0.0593939393939394,0.187448542499542,-0.12219941625595099,0.042618904781341296
0.06,0.122783015155792,0.16759794702529898,-0.0867121499061587
0.0606060606060606,-0.0496583910942078,-0.107829299068451,0.11446949071884101
0.0612121212121212,0.0892527417182922,-0.203630080318451,0.159974861812591
0.0618181818181818,0.0509324292182922,0.10053740015029901,-0.175327872562409
0.0624242424242424,-0.0807936450004578,0.06461210718154911,0.0521989829063413
0.063030303030303,0.17786846437454198,0.201128220462799,0.157579842281341
0.0636363636363636,0.103622858905792,0.0167117165565491,-0.0172565834999087
0.0642424242424242,-0.0927687426567078,-0.189259963130951,-0.0579719155311587
0.0648484848484848,-0.0951637621879578,0.0526370095252991,-0.0867121499061587
0.0654545454545455,0.0413523510932922,-0.143754592037201,0.136024666500091
0.0660606060606061,0.117992976093292,-0.0551388693809509,0.131234627437591
0.0666666666666667,0.0221921948432922,-0.105434279537201,0.124049568843841
0.0672727272727273,-0.013733098125457801,0.0550320290565491,0.00669361181259129
0.0678787878787879,0.0892527417182922,-0.00723847875595092,-0.115452384281159
0.0684848484848485,-0.0951637621879578,-0.021608595943450902,0.0809392172813413
0.0690909090909091,-0.15024921140670802,-0.012028517818450902,0.701249275875091
0.0696969696969697,0.170683405780792,-0.167704787349701,-0.117847403812409
0.0703030303030303,-0.15982928953170802,-0.004843459224700921,-0.103477286624909
0.0709090909090909,-0.0496583910942078,0.021501755619049098,0.227035408687591
0.0715151515151515,-0.18138446531295802,0.0933523415565491,-0.0867121499061587
0.0721212121212121,-0.44244159421920803,0.0789822243690491,0.0234587485313413
0.0727272727272727,-0.17419940671920803,-0.0479538107872009,0.0162736899375913
0.0733333333333333,-0.286765324687958,0.0837722634315491,0.0905192954063413
0.0739393939393939,-0.20054462156295802,-0.0383737326622009,-0.105872306156159
0.0745454545454545,-0.317900578594208,-0.126989455318451,0.11686451025009101
0.0751515151515151,-0.679548527812958,-0.273085646724701,-0.0699470131874087
0.0757575757575758,-0.44244159421920803,-0.265900588130951,0.0809392172813413
0.0763636363636364,-0.435256535625458,0.0622170876502991,-0.0771320717811587
0.076969696969697,-0.564587590312958,-0.148544631099701,-0.0843171303749087
0.0775757575757576,-0.725053898906708,-0.20123506078720102,0.191110115718841
0.0781818181818182,-0.7969044848442081,-0.107829299068451,0.0282487875938413
0.0787878787878788,-0.770559270000458,0.0909573220252991,-0.132217520999909
0.0793939393939394,-0.844804875469208,0.138857712650299,-0.125032462406159
0.08,-0.713078801250458,0.07419218530654911,-0.0268366616249087
0.0806060606060606,-0.907075383281708,0.16280790796279898,-0.206463126468659
0.0812121212121212,-0.835224797344208,-0.103039260005951,0.0857292563438413
0.0818181818181818,-0.926235539531708,-0.0575338889122009,-0.125032462406159
0.0824242424242424,-1.14418231687546,0.0143166970252991,-0.141797599124909
0.083030303030303,-0.986111027812958,-0.059928908443450904,-0.0172565834999087
0.0836363636363636,-0.844804875469208,-0.103039260005951,-0.168142813968659
0.0842424242424242,-0.907075383281708,0.201128220462799,-0.0531818764686587
0.0848484848484849,-1.2735133715629599,0.07419218530654911,0.0258537680625913
0.0854545454545454,-1.47709003171921,-0.18207490453720102,0.0713591391563413
0.0860606060606061,-1.22561298093796,0.129277634525299,-0.0052814858436587096
0.0866666666666667,-1.12502216062546,0.11251249780654901,0.0689641196250913
0.0872727272727273,-1.23758807859421,0.021501755619049098,0.0186687094688413
0.0878787878787879,-1.2304030200004599,0.059822068119049096,-0.137007560062409
0.0884848484848485,-1.32620380125046,-0.103039260005951,-0.00767650537490871
0.0890909090909091,-1.49864520750046,-0.172494826412201,0.00429859228134129
0.0896969696969697,-1.2687233325004599,-0.0575338889122009,-0.0507868569374087
0.0903030303030303,-1.3333888598442099,-0.0910641623497009,-0.125032462406159
0.0909090909090909,-1.37889423093796,-0.170099806880951,-0.0627619545936587
0.0915151515151515,-1.4148195239067098,0.10053740015029901,-0.024441642093658702
0.0921212121212121,-1.56091571531296,0.17717802515029898,-0.0723420327186587
0.0927272727272727,-1.45074481687546,0.10293241968154901,-0.0962922280311587
0.0933333333333333,-1.55852069578171,-0.0742990256309509,0.100099373531341
0.0939393939393939,-1.49625018796921,0.0334768532752991,-0.146587638187409
0.0945454545454545,-1.28069843015671,0.131672654056549,-0.127427481937409
0.0951515151515152,-1.62079120359421,-0.0838791037559509,-0.0507868569374087
0.0957575757575758,-1.58007587156296,0.0286868142127991,-0.0699470131874087
0.0963636363636364,-1.4267946215629599,-0.06950898656845089,0.171949959468841
0.096969696969697,-1.49864520750046,0.179573044681549,-0.024441642093658702
0.0975757575757576,-1.47229999265671,-0.105434279537201,0.0833342368125913
0.0981818181818182,-1.62318622312546,0.0981423806190491,-0.024441642093658702
0.0987878787878788,-1.62318622312546,0.165202927494049,0.0498039633750913
0.0993939393939394,-1.7261720629692099,-0.380861525630951,0.0210637290000913
0.1,-1.57768085203171,-0.0431637717247009,-0.0148615639686587
0.100606060606061,-1.32620380125046,0.10293241968154901,-0.0579719155311587
0.101212121212121,-1.2351930590629598,0.0622170876502991,-0.254363517093659
0.101818181818182,-1.24237811765671,-0.0455587912559509,-0.00767650537490871
0.102424242424242,-1.34057391843796,-0.0742990256309509,-0.00767650537490871
0.103030303030303,-1.37649921140671,0.011921677494049099,-0.129822501468659
0.103636363636364,-1.4531398364067099,-0.115014357662201,-0.146587638187409
0.104242424242424,-1.34296893796921,-0.0623239279747009,-0.000491446781158709
0.104848484848485,-1.1705275317192099,0.0143166970252991,0.0330388266563413
0.105454545454545,-1.25435321531296,-0.07190400609970089,-0.146587638187409
0.106060606060606,-1.1274171801567099,0.021501755619049098,-0.125032462406159
0.106666666666667,-0.986111027812958,-0.0192135764122009,-0.139402579593659
0.107272727272727,-1.19687274656296,-0.0359787131309509,-0.0292316811561587
0.107878787878788,-0.919050480937958,0.021501755619049098,-0.0148615639686587
0.108484848484848,-0.619673039531708,-0.0766940451622009,0.222245369625091
0.109090909090909,-0.844804875469208,0.06940214624404911,0.0617790610313413
0.10969696969697,-0.703498723125458,0.11969755640029901,-0.0316267006874087
0.11030303030303,-0.674758488750458,-0.13177949438095102,-0.103477286624909
0.110909090909091,-0.569377629375458,-0.213210158443451,-0.26873363428115904
0.111515151515152,-0.473576848125458,0.00234159936904908,-0.0771320717811587
0.112121212121212,-0.413701359844208,0.15322782983779898,-0.0819221108436587
0.112727272727273,-0.497527043437958,0.0622170876502991,-0.0459968178749087
0.113333333333333,-0.238864934062958,-0.229975295162201,0.0857292563438413
0.113939393939394,-0.22449481687545803,-0.179679885005951,-0.125032462406159
0.114545454545455,-0.0400783129692078,-0.021608595943450902,-0.31902904443740904
0.115151515151515,-0.119113957500458,0.0526370095252991,0.00190357275009129
0.115757575757576,-0.0783986254692078,-0.0527438498497009,0.143209725093841
0.116363636363636,0.19942364015579198,-0.059928908443450904,0.0593840415000913
0.116969696969697,-0.114323918437958,0.0813772439002991,-0.0962922280311587
0.117575757575758,0.110807917499542,-0.18686494359970102,0.0761491782188413
0.118181818181818,-0.0209181567192078,0.0071316384315490795,0.128839607906341
0.118787878787879,0.240138972187042,-0.14614961156845102,0.0138786704063413
0.119393939393939,0.290434382343292,-0.12219941625595099,-0.125032462406159
0.12,0.290434382343292,0.10053740015029901,-0.0651569741249087
0.120606060606061,0.369470026874542,0.0861672829627991,0.133629646968841
0.121212121212121,0.31677959718704196,-0.00723847875595092,-0.09150218896865871
0.121818181818182,0.28564434328079197,-0.172494826412201,-0.120242423343659
0.122424242424242,0.113202937030792,0.00952665796279908,0.0354338461875913
0.123030303030303,0.0820676831245422,0.11490751733779901,0.009088631343841289
0.123636363636364,0.271274226093292,-0.0144235373497009,0.0857292563438413
0.124242424242424,0.120387995624542,-0.0623239279747009,-0.0459968178749087
0.124848484848485,0.0653025464057922,-0.0407687521934509,-0.127427481937409
0.125454545454545,0.331149714374542,-0.112619338130951,-0.160957755374909
0.126060606060606,0.240138972187042,0.10532743921279901,-0.182512931156159
0.126666666666667,0.220978815937042,0.0262917946815491,-0.201673087406159
0.127272727272727,0.110807917499542,-0.14614961156845102,-0.132217520999909
0.127878787878788,0.24253399171829199,-0.165309767818451,-0.0220466225624087
0.128484848484848,0.20900371828079198,0.131672654056549,-0.0292316811561587
0.129090909090909,-0.0281032153129578,-0.138964552974701,-0.115452384281159
0.12969696969697,-0.025708195781707802,0.0574270485877991,-0.25915355615615904
0.13030303030303,0.290434382343292,0.11730253686904901,0.0306438071250913
0.130909090909091,0.24492901124954197,-0.244345412349701,0.239010506343841
0.131515151515152,0.151523249530792,-0.06711396703720089,0.535992928218841
0.132121212121212,0.010217097187042199,-0.0263986350059509,0.140814705562591
0.132727272727273,0.115597956562042,-0.06711396703720089,-0.175327872562409
0.133333333333333,0.18265850343704199,-0.107829299068451,-0.0268366616249087
0.133939393939394,0.0245872143745422,0.021501755619049098,-0.239993399906159
0.134545454545455,0.0748826245307922,-0.12459443578720099,-0.254363517093659
0.135151515151515,-0.18617450437545802,0.0334768532752991,-0.0651569741249087
0.135757575757576,-0.0424733325004578,0.155622849369049,-0.0579719155311587
0.136363636363636,-0.128694035625458,-0.110224318599701,0.0162736899375913
0.136969696969697,-0.126299016094208,-0.0910641623497009,0.193505135250091
0.137575757575758,0.0174021557807922,0.10053740015029901,0.11686451025009101
0.138181818181818,0.0676975659370422,-0.0623239279747009,0.042618904781341296
0.138787878787879,0.0341672924995422,0.10532743921279901,0.107284432125091
0.139393939393939,0.0317722729682922,0.00234159936904908,0.143209725093841
0.14,0.0892527417182922,0.0502419899940491,-0.0292316811561587
0.140606060606061,-0.00654803953170776,0.10772245874404901,-0.0124665444374087
0.141212121212121,-0.143064152812958,-0.06711396703720089,-0.09150218896865871
0.141818181818182,0.0748826245307922,0.11969755640029901,-0.184907950687409
0.142424242424242,0.21858379640579198,0.129277634525299,-0.0891071694374087
0.143030303030303,0.0533274487495422,-0.0024484396934509197,-0.0196516030311587
0.143636363636364,0.17786846437454198,-0.129384474849701,0.31804615087509097
0.144242424242424,0.13954815187454198,0.150832810306549,0.248590584468841
0.144848484848485,0.311989558124542,0.0191067360877991,-0.0436017983436587
0.145454545454545,0.18265850343704199,-0.0982492209434509,0.0857292563438413
0.146060606060606,0.0676975659370422,-0.0311886740684509,-0.103477286624909
0.146666666666667,0.201818659687042,-0.0982492209434509,0.102494393062591
0.147272727272727,0.304804499530792,-0.13177949438095102,0.08812427587509129
0.147878787878788,0.280854304218292,0.0167117165565491,0.009088631343841289
0.148484848484848,0.146733210468292,0.0861672829627991,0.0378288657188413
0.149090909090909,0.113202937030792,-0.0311886740684509,0.0977043540000913
0.14969696969697,0.103622858905792,0.10772245874404901,0.0809392172813413
0.15030303030303,-0.013733098125457801,0.059822068119049096,0.124049568843841
0.150909090909091,0.0892527417182922,0.0909573220252991,0.0713591391563413
0.151515151515152,0.18984356203079197,-0.18207490453720102,-0.127427481937409
0.152121212121212,-0.17419940671920803,-0.213210158443451,-0.127427481937409
0.152727272727273,-0.0400783129692078,-0.225185256099701,0.0402238852500913
0.153333333333333,0.0724876049995422,-0.20602509984970102,0.0521989829063413
0.153939393939394,-0.025708195781707802,-0.0575338889122009,0.191110115718841
0.154545454545455,-0.152644230937958,-0.12459443578720099,0.356366463375091
0.155151515151515,-0.20054462156295802,0.18196806421279899,-0.139402579593659
0.155757575757576,-0.258025090312958,0.0430569314002991,-0.132217520999909
0.156363636363636,-0.17659442625045801,0.023896775150299098,-0.158562735843659
0.156969696969697,-0.0161281176567078,0.0454519509315491,0.0761491782188413
0.157575757575758,0.000637019062042238,-0.24195039281845102,0.0953093344688413
0.158181818181818,0.15870830812454198,-0.12459443578720099,-0.134612540531159
0.158787878787879,-0.0736085864067078,-0.0575338889122009,0.169554939937591
0.159393939393939,-0.255630070781708,-0.012028517818450902,-0.148982657718659
0.16,-0.109533879375458,0.0837722634315491,0.133629646968841
0.160606060606061,-0.231679875469208,0.0526370095252991,0.100099373531341
0.161212121212121,-0.123903996562958,-0.17728486547470101,-0.362139395999909
0.161818181818182,-0.0376832934379578,-0.14614961156845102,0.0521989829063413
0.162424242424242,-0.109533879375458,0.16280790796279898,-0.024441642093658702
0.163030303030303,-0.0281032153129578,0.00952665796279908,0.0162736899375913
0.163636363636364,-0.0496583910942078,-0.0575338889122009,0.0665691000938413
0.164242424242424,-0.102348820781708,0.124487595462799,-0.024441642093658702
0.164848484848485,-0.123903996562958,0.023896775150299098,-0.0292316811561587
0.165454545454545,-0.0281032153129578,0.0454519509315491,0.0761491782188413
0.166060606060606,0.0413523510932922,-0.0263986350059509,0.0929143149375913
0.166666666666667,0.27606426515579197,0.11490751733779901,0.0138786704063413
0.167272727272727,0.0389573315620422,0.0765872048377991,0.0809392172813413
0.167878787878788,0.211398737812042,0.00952665796279908,0.171949959468841
0.168484848484848,0.297619440937042,0.0454519509315491,-0.00288646631240871
0.169090909090909,0.0916477612495422,-0.115014357662201,-0.189697989749909
0.16969696969697,0.230558894062042,0.0957473610877991,0.162369881343841
0.17030303030303,0.103622858905792,0.124487595462799,0.126444588375091
0.170909090909091,0.268879206562042,0.0478469704627991,-0.0412067788124087
0.171515151515152,0.450900690937042,-0.115014357662201,0.00429859228134129
0.172121212121212,0.338334772968292,0.0526370095252991,0.131234627437591
0.172727272727273,0.34551983156204197,-0.0287936545372009,0.0569890219688413
0.173333333333333,0.340729792499542,-0.110224318599701,-0.117847403812409
0.173939393939394,0.300014460468292,-0.0551388693809509,-0.110662345218659
0.174545454545455,0.5203562573432919,-0.0024484396934509197,-0.239993399906159
0.175151515151515,0.517961237812042,0.0071316384315490795,0.162369881343841
0.175757575757576,0.47485088624954197,-0.225185256099701,0.0905192954063413
0.176363636363636,0.288039362812042,0.196338181400299,-0.0747370522499087
0.176969696969697,0.470060847187042,0.191548142337799,0.0953093344688413
0.177575757575758,0.494011042499542,0.10293241968154901,-0.0867121499061587
0.178181818181818,0.491616022968292,0.10772245874404901,-0.314239005374909
0.178787878787879,0.5395164135932919,0.184363083744049,-0.115452384281159
0.179393939393939,0.369470026874542,0.131672654056549,-0.194488028812409
0.18,0.347914851093292,-0.0934591818809509,-0.30944896631240904
0.180606060606061,0.374260065937042,-0.12219941625595099,-0.0388117592811587
0.181212121212121,0.618552058124542,-0.172494826412201,-0.0627619545936587
0.181818181818182,0.31677959718704196,0.021501755619049098,-0.0459968178749087
0.182424242424242,0.340729792499542,0.0478469704627991,-0.127427481937409
0.183030303030303,0.494011042499542,-0.0958542014122009,-0.0388117592811587
0.183636363636364,0.412580378437042,-0.0527438498497009,-0.0412067788124087
0.184242424242424,0.37665508546829196,0.155622849369049,-0.184907950687409
0.184848484848485,0.333544733905792,0.17238798608779898,0.0593840415000913
0.185454545454545,0.29522442140579197,-0.112619338130951,-0.0627619545936587
0.186060606060606,0.431740534687042,-0.14614961156845102,-0.09150218896865871
0.186666666666667,0.39581524171829197,0.11730253686904901,-0.0268366616249087
0.187272727272727,0.30719951906204196,-0.153334670162201,-0.0364167397499087
0.187878787878788,0.309594538593292,-0.0383737326622009,-0.0412067788124087
0.188484848484848,0.264089167499542,-0.0838791037559509,-0.129822501468659
0.189090909090909,0.431740534687042,-0.0742990256309509,-0.103477286624909
0.18969696969697,0.29522442140579197,0.0909573220252991,0.34199634618759095
0.19030303030303,0.410185358905792,0.023896775150299098,-0.0867121499061587
0.190909090909091,0.400605280780792,-0.0551388693809509,0.124049568843841
0.191515151515152,0.565861628437042,0.0765872048377991,0.433007088375091
0.192121212121212,0.544306452655792,0.239448532962799,-0.0364167397499087
0.192727272727273,0.127573054218292,0.0167117165565491,-0.180117911624909
0.193333333333333,0.388630183124542,-0.0144235373497009,-0.295078849124909
0.193939393939394,0.42695049562454196,0.0071316384315490795,-0.115452384281159
0.194545454545455,0.23295391359329198,0.0933523415565491,-0.225623282718659
0.195151515151515,0.21858379640579198,0.021501755619049098,-0.105872306156159
0.195757575757576,0.259299128437042,-0.0527438498497009,-0.211253165531159
0.196363636363636,0.288039362812042,0.215498337650299,-0.117847403812409
0.196969696969697,0.211398737812042,0.225078415775299,-0.0555768959999087
0.197575757575758,0.17307842531204198,0.10293241968154901,0.0929143149375913
0.198181818181818,0.290434382343292,0.131672654056549,0.183925057125091
0.198787878787879,0.278459284687042,-0.218000197505951,-0.228018302249909
0.199393939393939,0.35509990968704197,-0.198840041255951,-0.0962922280311587
0.2,0.302409479999542,0.0837722634315491,-0.0819221108436587
0.200606060606061,0.113202937030792,0.0861672829627991,-0.0675519936561587
0.201212121212121,0.35509990968704197,-0.153334670162201,0.147999764156341
0.201818181818182,0.302409479999542,0.021501755619049098,0.136024666500091
0.202424242424242,0.201818659687042,0.00473661890029908,0.0761491782188413
0.203030303030303,0.180263483905792,-0.0311886740684509,-0.0172565834999087
0.203636363636364,0.340729792499542,0.129277634525299,-0.0196516030311587
0.204242424242424,0.333544733905792,0.134067673587799,-0.132217520999909
0.204848484848485,0.0796726635932922,-0.0168185568809509,-0.292683829593659
0.205454545454545,0.28564434328079197,0.00473661890029908,-0.127427481937409
0.206060606060606,0.132363093280792,-0.0431637717247009,-0.218438224124909
0.206666666666667,-0.0352882739067078,-0.0455587912559509,-0.0220466225624087
0.207272727272727,0.216188776874542,-0.112619338130951,0.217455330562591
0.207878787878788,0.13475811281204197,-0.203630080318451,-0.251968497562409
0.208484848484848,0.292829401874542,0.0430569314002991,0.0114836508750913
0.209090909090909,0.24253399171829199,0.011921677494049099,-0.189697989749909
0.20969696969697,0.151523249530792,0.0310818337440491,-0.29986888818740903
0.21030303030303,0.16828838624954198,-0.0168185568809509,0.147999764156341
0.210909090909091,0.14433819093704198,-0.004843459224700921,0.0569890219688413
0.211515151515152,0.18265850343704199,-5.34201622009196e-05,0.0737541586875913
0.212121212121212,0.0317722729682922,0.0191067360877991,0.107284432125091
0.212727272727273,0.15870830812454198,-0.13177949438095102,-0.129822501468659
0.213333333333333,0.0629075268745422,0.00473661890029908,0.0665691000938413
0.213939393939394,-0.0544484301567078,0.150832810306549,0.26056568212509096
0.214545454545455,-0.0999538012504578,-0.0958542014122009,0.0474089438438413
0.215151515151515,0.0461423901557922,-0.0527438498497009,0.0905192954063413
0.215757575757576,0.0365623120307922,0.0430569314002991,0.231825447750091
0.216363636363636,-0.274790227031708,-0.0455587912559509,0.0785441977500913
0.216969696969697,0.0509324292182922,-0.249135451412201,-0.0316267006874087
0.217575757575758,0.0221921948432922,-0.0982492209434509,-0.0220466225624087
0.218181818181818,-0.14066913328170802,-0.0168185568809509,0.00429859228134129
0.218787878787879,-0.0281032153129578,-0.11980439672470099,0.109679451656341
0.219393939393939,-0.025708195781707802,-0.174889845943451,-0.0292316811561587
0.22,0.0150071362495422,-0.342541213130951,-0.261548575687409
0.220606060606061,-0.0352882739067078,-0.0910641623497009,-0.0364167397499087
0.221212121212121,0.0126121167182922,-0.227580275630951,-0.168142813968659
0.221818181818182,-0.0975587817192078,-0.134174513912201,-0.134612540531159
0.222424242424242,-0.0352882739067078,0.0406619118690491,0.27014576025009096
0.223030303030303,-0.23646991453170801,-0.215605177974701,-0.0172565834999087
0.223636363636364,-0.00894305906295776,-0.31380097875595103,0.169554939937591
0.224242424242424,-0.0304982348442078,-0.0766940451622009,0.212665291500091
0.224848484848485,-0.107138859844208,0.06940214624404911,0.0929143149375913
0.225454545454545,0.27606426515579197,-0.0407687521934509,-0.0603669350624087
0.226060606060606,0.0629075268745422,-0.170099806880951,-0.0699470131874087
0.226666666666667,-0.0544484301567078,-0.0359787131309509,0.0474089438438413
0.227272727272727,-0.0424733325004578,0.15801786890029898,-0.0555768959999087
0.227878787878788,0.0533274487495422,-0.0431637717247009,0.128839607906341
0.228484848484848,-0.147854191875458,0.0382668923377991,0.104889412593841
0.229090909090909,-0.023313176250457802,-0.0527438498497009,0.131234627437591
0.22969696969697,0.151523249530792,0.0191067360877991,0.169554939937591
0.23030303030303,-0.0376832934379578,0.244238572025299,-0.00288646631240871
0.230909090909091,0.0221921948432922,0.17238798608779898,-0.0100715249061587
0.231515151515152,0.00782207765579224,0.277768845462799,0.152789803218841
0.232121212121212,0.0988328198432922,-0.021608595943450902,-0.105872306156159
0.232727272727273,0.18265850343704199,0.136462693119049,-0.0771320717811587
0.233333333333333,0.0221921948432922,-0.0168185568809509,-0.0723420327186587
0.233939393939394,0.0413523510932922,-0.174889845943451,-0.220833243656159
0.234545454545455,0.0629075268745422,-0.021608595943450902,-0.165747794437409
0.235151515151515,0.103622858905792,-0.194050002193451,-0.0124665444374087
0.235757575757576,0.00782207765579224,0.263398728275299,0.0641740805625913
0.236363636363636,-0.0161281176567078,0.0071316384315490795,-0.0555768959999087
0.236969696969697,0.0557224682807922,-0.18207490453720102,0.0713591391563413
0.237575757575758,-0.0161281176567078,-0.0527438498497009,-0.0268366616249087
0.238181818181818,-0.147854191875458,-0.059928908443450904,-0.230413321781159
0.238787878787879,0.0533274487495422,0.00234159936904908,0.0114836508750913
0.239393939393939,-0.0281032153129578,0.0957473610877991,-0.108267325687409
0.24,-0.14066913328170802,-0.0263986350059509,0.162369881343841
0.240606060606061,-0.0161281176567078,-0.0910641623497009,0.159974861812591
0.241212121212121,-0.16940936765670803,0.021501755619049098,-0.0412067788124087
0.241818181818182,0.0341672924995422,-0.213210158443451,0.277330818843841
0.242424242424242,0.019797175312042198,-0.0287936545372009,0.29888599462509097
0.243030303030303,-0.0712135668754578,-0.143754592037201,0.227035408687591
0.243636363636364,0.00303203859329224,0.00234159936904908,0.11686451025009101
0.244242424242424,-0.104743840312958,-0.222790236568451,-0.0675519936561587
0.244848484848485,0.0245872143745422,-0.354516310787201,0.0258537680625913
0.245454545454545,-0.17659442625045801,-0.0144235373497009,0.265355721187591
0.246060606060606,-0.17419940671920803,0.0502419899940491,0.102494393062591
0.246666666666667,0.106017878437042,-0.0742990256309509,-0.0459968178749087
0.247272727272727,-0.18617450437545802,0.0334768532752991,0.009088631343841289
0.247878787878788,-0.0640285082817078,0.155622849369049,0.186320076656341
0.248484848484848,0.156313288593292,0.0837722634315491,0.133629646968841
0.249090909090909,0.0724876049995422,0.131672654056549,0.0450139243125913
0.24969696969697,0.0389573315620422,-0.105434279537201,-0.0531818764686587
0.25030303030303,-0.15024921140670802,-0.148544631099701,-0.335794181156159
0.250909090909091,-0.0999538012504578,-0.17728486547470101,-0.25675853662490905
0.251515151515152,0.0461423901557922,0.160412888431549,0.47851245946884097
0.252121212121212,0.0485374096870422,0.124487595462799,0.31804615087509097
0.252727272727273,0.113202937030792,-0.18207490453720102,0.0306438071250913
0.253333333333333,0.19463360109329197,0.0262917946815491,0.102494393062591
0.253939393939394,-0.109533879375458,-0.115014357662201,-0.103477286624909
0.254545454545455,0.0293772534370422,-0.0623239279747009,0.0593840415000913
0.255151515151515,0.19463360109329197,0.244238572025299,0.195900154781341
0.255757575757576,-0.00654803953170776,0.011921677494049099,-0.12263744287490899
0.256363636363636,0.0629075268745422,-0.0359787131309509,-0.165747794437409
0.256969696969697,0.240138972187042,0.134067673587799,-0.0699470131874087
0.257575757575758,0.12996807374954197,0.10772245874404901,-0.134612540531159
0.258181818181818,0.103622858905792,-0.18207490453720102,-0.0100715249061587
0.258787878787879,0.156313288593292,-0.00723847875595092,0.0521989829063413
0.259393939393939,-0.0281032153129578,-0.0934591818809509,-0.0699470131874087
0.26,0.0844627026557922,-0.0335836935997009,-0.0220466225624087
0.260606060606061,-0.0568434496879578,-0.0838791037559509,-0.0292316811561587
0.261212121212121,-0.0855836840629578,0.10772245874404901,0.0210637290000913
0.261818181818182,0.137153132343292,-5.34201622009196e-05,-0.0268366616249087
0.262424242424242,0.268879206562042,-0.07190400609970089,-0.139402579593659
0.263030303030303,0.132363093280792,0.203523239994049,0.119259529781341
0.263636363636364,-0.0113380785942078,-0.155729689693451,-0.194488028812409
0.264242424242424,0.110807917499542,-0.0910641623497009,0.0617790610313413
0.264848484848485,0.0485374096870422,0.193943161869049,0.126444588375091
0.265454545454545,0.0221921948432922,0.06940214624404911,0.162369881343841
0.266060606060606,0.0413523510932922,-0.0383737326622009,0.102494393062591
0.266666666666667,0.0389573315620422,0.249028611087799,-0.160957755374909
0.267272727272727,-0.0281032153129578,-0.059928908443450904,0.176739998531341
0.267878787878788,0.0174021557807922,-0.261110549068451,-0.0292316811561587
0.268484848484848,-0.023313176250457802,-0.103039260005951,-0.192093009281159
0.269090909090909,-0.17659442625045801,-0.004843459224700921,-0.117847403812409
0.26969696969697,-0.00654803953170776,-0.059928908443450904,0.0234587485313413
0.27030303030303,0.00303203859329224,-0.0455587912559509,0.0306438071250913
0.270909090909091,0.0533274487495422,-0.00963349828720092,-0.165747794437409
0.271515151515151,-0.128694035625458,-0.12459443578720099,-0.0220466225624087
0.272121212121212,0.0844627026557922,-0.0359787131309509,0.0929143149375913
0.272727272727273,0.156313288593292,0.131672654056549,-0.0986872475624087
0.273333333333333,-0.0831886645317078,-0.11740937719345099,-0.115452384281159
0.273939393939394,-0.157434270000458,-0.0168185568809509,0.0905192954063413
0.274545454545455,-0.0496583910942078,-0.17728486547470101,0.0521989829063413
0.275151515151515,0.13475811281204197,-0.13656953344345102,-0.00288646631240871
0.275757575757576,0.0772776440620422,0.0406619118690491,0.0569890219688413
0.276363636363636,-0.0975587817192078,-0.12459443578720099,-0.127427481937409
0.276969696969697,-0.15024921140670802,-0.115014357662201,-0.127427481937409
0.277575757575758,0.0341672924995422,-0.143754592037201,-0.0483918374061587
0.278181818181818,0.0221921948432922,-0.13656953344345102,-0.0795270913124087
0.278787878787879,-0.104743840312958,0.22268339624404898,0.131234627437591
0.279393939393939,-0.0520534106254578,0.208313279056549,0.35876148290634097
0.28,-0.0113380785942078,-0.203630080318451,-0.235203360843659
0.280606060606061,-0.0161281176567078,-0.0383737326622009,-0.304658927249909
0.281212121212121,0.0557224682807922,-0.105434279537201,0.5120427329063411
0.281818181818182,0.0413523510932922,-0.0383737326622009,0.27254077978134095
0.282424242424242,0.132363093280792,-0.059928908443450904,-0.0507868569374087
0.283030303030303,0.13954815187454198,-0.0431637717247009,0.136024666500091
0.283636363636364,0.13475811281204197,-0.100644240474701,0.167159920406341
0.284242424242424,0.0676975659370422,-0.0383737326622009,0.179135018062591
0.284848484848485,-0.0568434496879578,0.169992966556549,0.0929143149375913
0.285454545454545,-0.13108905515670802,0.234658493900299,0.174344979000091
0.286060606060606,-0.0352882739067078,0.0191067360877991,-0.175327872562409
0.286666666666667,0.170683405780792,0.00473661890029908,-0.151377677249909
0.287272727272727,0.122783015155792,0.229868454837799,0.0929143149375913
0.287878787878788,-0.19575458250045802,0.0071316384315490795,-0.0843171303749087
0.288484848484849,0.17786846437454198,0.0813772439002991,0.27254077978134095
0.289090909090909,0.0700925854682922,0.00952665796279908,0.0641740805625913
0.28969696969697,-0.0951637621879578,-0.13656953344345102,0.0713591391563413
0.29030303030303,0.187448542499542,-0.07190400609970089,-0.0124665444374087
0.290909090909091,0.0868577221870422,-0.0144235373497009,-0.395669669437409
0.291515151515152,-0.171804387187958,0.0143166970252991,-0.134612540531159
0.292121212121212,0.106017878437042,-0.0383737326622009,0.11446949071884101
0.292727272727273,-0.0496583910942078,0.00952665796279908,0.34918140478134096
0.293333333333333,-0.114323918437958,0.06940214624404911,0.0545940024375913
0.293939393939394,0.156313288593292,0.06461210718154911,-0.0148615639686587
0.294545454545455,0.120387995624542,0.146042771244049,0.188715096187591
0.295151515151515,0.0988328198432922,-0.059928908443450904,0.0857292563438413
0.295757575757576,-0.123903996562958,-0.12459443578720099,0.009088631343841289
0.296363636363636,0.0629075268745422,0.0334768532752991,0.00429859228134129
0.296969696969697,0.103622858905792,0.0071316384315490795,-0.0819221108436587
0.297575757575758,0.175473444843292,0.12688261499404901,-0.0459968178749087
0.298181818181818,0.0940427807807922,0.0334768532752991,-0.024441642093658702
0.298787878787879,0.0724876049995422,-0.0623239279747009,-0.0172565834999087
0.299393939393939,0.108412897968292,-0.0766940451622009,0.102494393062591
0.3,0.0605125073432922,-0.0551388693809509,0.29170093603134095
0.300606060606061,-0.15503925046920802,0.06700712671279911,0.128839607906341
0.301212121212121,-0.14545917234420802,0.06461210718154911,-0.0986872475624087
0.301818181818182,0.120387995624542,-0.162914748287201,0.0450139243125913
0.302424242424242,0.019797175312042198,-0.021608595943450902,-0.120242423343659
0.303030303030303,0.00782207765579224,0.328064255619049,-0.0771320717811587
0.303636363636364,0.151523249530792,0.146042771244049,-0.208858145999909
0.304242424242424,0.14433819093704198,-0.0263986350059509,0.219850350093841
0.304848484848485,0.14912822999954198,0.0909573220252991,0.198295174312591
0.305454545454545,0.113202937030792,-0.00963349828720092,-0.158562735843659
0.306060606060606,0.0820676831245422,-0.0766940451622009,-0.0723420327186587
0.306666666666667,0.0581174878120422,-0.0910641623497009,-0.0867121499061587
0.307272727272727,0.0293772534370422,-0.0024484396934509197,-0.132217520999909
0.307878787878788,0.103622858905792,0.0191067360877991,0.0114836508750913
0.308484848484848,-0.0376832934379578,-0.0287936545372009,0.138419686031341
0.309090909090909,-0.0520534106254578,0.059822068119049096,0.00669361181259129
0.30969696969697,-0.00894305906295776,0.11490751733779901,-0.0172565834999087
0.31030303030303,-0.21012469968795802,-0.0934591818809509,0.11207447118759101
0.310909090909091,-0.119113957500458,0.00234159936904908,0.600658455562591
0.311515151515152,0.0245872143745422,0.00473661890029908,0.5288078696250911
0.312121212121212,0.0054270581245422405,-0.100644240474701,0.0474089438438413
0.312727272727273,0.108412897968292,0.141252732181549,0.0234587485313413
0.313333333333333,0.12996807374954197,-0.0335836935997009,0.107284432125091
0.313939393939394,-0.0328932543754578,0.0526370095252991,0.150394783687591
0.314545454545455,0.16828838624954198,0.129277634525299,0.0521989829063413
0.315151515151515,0.23774395265579198,0.179573044681549,-0.00288646631240871
0.315757575757576,-0.18138446531295802,-0.059928908443450904,0.0354338461875913
0.316363636363636,-0.0352882739067078,-0.0551388693809509,0.08812427587509129
0.316969696969697,0.000637019062042238,0.0334768532752991,0.0521989829063413
0.317575757575758,-0.0568434496879578,0.12209257593154901,0.200690193843841
0.318181818181818,0.0269822339057922,0.198733200931549,0.0905192954063413
0.318787878787879,0.0605125073432922,-0.299430861568451,0.0857292563438413
0.319393939393939,0.0820676831245422,-0.234765334224701,0.0545940024375913
0.32,-0.147854191875458,-0.07190400609970089,-0.0268366616249087
0.320606060606061,0.00782207765579224,-0.115014357662201,0.188715096187591
0.321212121212121,0.0940427807807922,0.0957473610877991,-0.09150218896865871
0.321818181818182,0.0820676831245422,0.249028611087799,0.00669361181259129
0.322424242424242,-0.0544484301567078,-0.0838791037559509,0.143209725093841
0.323030303030303,-0.0975587817192078,0.00473661890029908,0.0833342368125913
0.323636363636364,0.13475811281204197,0.17238798608779898,0.0905192954063413
0.324242424242424,-0.0352882739067078,-0.0551388693809509,0.0977043540000913
0.324848484848485,-0.0879787035942078,-0.251530470943451,-0.0436017983436587
0.325454545454545,-0.0855836840629578,-0.0383737326622009,-0.0388117592811587
0.326060606060606,0.00303203859329224,0.0310818337440491,0.159974861812591
0.326666666666667,0.15870830812454198,-0.25392549047470103,0.0713591391563413
0.327272727272727,-0.107138859844208,-0.129384474849701,-0.0723420327186587
0.327878787878788,0.0269822339057922,-0.134174513912201,-0.0867121499061587
0.328484848484848,0.0820676831245422,-0.0958542014122009,0.104889412593841
0.329090909090909,-0.0328932543754578,-0.112619338130951,0.210270271968841
0.32969696969697,0.000637019062042238,-0.00963349828720092,0.0258537680625913
0.33030303030303,0.000637019062042238,-0.0886691428184509,0.140814705562591
0.330909090909091,0.13475811281204197,-0.239555373287201,0.210270271968841
0.331515151515152,-0.047263371562957804,-0.0455587912559509,-0.0867121499061587
0.332121212121212,-0.0927687426567078,0.00234159936904908,0.102494393062591
0.332727272727273,0.0629075268745422,-0.00723847875595092,0.042618904781341296
0.333333333333333,0.0269822339057922,-0.0335836935997009,-0.27831371240615904
0.333939393939394,-0.152644230937958,-0.059928908443450904,0.143209725093841
0.334545454545455,0.0485374096870422,-0.0431637717247009,-0.0747370522499087
0.335151515151515,0.103622858905792,0.0574270485877991,0.00429859228134129
0.335757575757576,-0.0927687426567078,0.263398728275299,0.186320076656341
0.336363636363636,-0.0281032153129578,0.0885623024940491,-0.0148615639686587
0.336969696969697,0.0389573315620422,-0.0886691428184509,-0.103477286624909
0.337575757575758,0.0174021557807922,0.0574270485877991,0.20548023290634101
0.338181818181818,0.000637019062042238,0.0262917946815491,0.119259529781341
0.338787878787879,0.19463360109329197,0.0909573220252991,-0.0579719155311587
0.339393939393939,-0.21012469968795802,-0.14614961156845102,-0.0052814858436587096
0.34,-0.0616334887504578,-0.0742990256309509,-0.177722892093659
0.340606060606061,0.19942364015579198,0.124487595462799,-0.208858145999909
0.341212121212121,-0.0328932543754578,-0.148544631099701,0.344391365718841
0.341818181818182,0.0581174878120422,0.165202927494049,0.104889412593841
0.342424242424242,0.120387995624542,0.10053740015029901,-0.0938972084999087
0.343030303030303,-0.013733098125457801,-0.0263986350059509,0.0857292563438413
0.343636363636364,-0.171804387187958,-0.0431637717247009,-0.125032462406159
0.344242424242424,-0.0304982348442078,-0.06471894750595089,-0.0388117592811587
0.344848484848485,0.0413523510932922,-0.0958542014122009,0.104889412593841
0.345454545454545,0.175473444843292,-0.0311886740684509,0.0761491782188413
0.346060606060606,-0.0281032153129578,0.00473661890029908,-0.40045970849990903
0.346666666666667,-0.0161281176567078,-0.06471894750595089,-0.110662345218659
0.347272727272727,0.110807917499542,0.15322782983779898,0.0186687094688413
0.347878787878788,-0.121508977031708,0.0957473610877991,-0.0699470131874087
0.348484848484849,-0.13108905515670802,-0.162914748287201,-0.0100715249061587
0.349090909090909,-0.0903737231254578,-0.134174513912201,-0.0843171303749087
0.34969696969697,0.0054270581245422405,-0.198840041255951,-0.101082267093659
0.35030303030303,-0.0281032153129578,-0.0862741232872009,-0.12263744287490899
0.350909090909091,0.0844627026557922,0.249028611087799,0.0258537680625913
0.351515151515152,-0.171804387187958,0.134067673587799,0.104889412593841
0.352121212121212,-0.178989445781708,0.0861672829627991,-0.0483918374061587
0.352727272727273,0.0748826245307922,-0.004843459224700921,-0.000491446781158709
0.353333333333333,0.0389573315620422,0.136462693119049,-0.0100715249061587
0.353939393939394,-0.0281032153129578,-0.110224318599701,-0.115452384281159
0.354545454545455,-0.00415302000045776,-0.0910641623497009,-0.0795270913124087
0.355151515151515,0.0700925854682922,0.11490751733779901,0.143209725093841
0.355757575757576,-0.104743840312958,-0.0359787131309509,0.0378288657188413
0.356363636363636,0.0150071362495422,0.06700712671279911,-0.148982657718659
0.356969696969697,-0.133484074687958,0.0765872048377991,-0.101082267093659
0.357575757575758,-0.157434270000458,0.193943161869049,-0.101082267093659
0.358181818181818,0.0150071362495422,0.0358718728065491,-0.101082267093659
0.358787878787879,0.125178034687042,-0.0503488303184509,0.284515877437591
0.359393939393939,0.151523249530792,0.201128220462799,0.36115650243759095
0.36,-0.025708195781707802,-0.301825881099701,0.0713591391563413
0.360606060606061,0.165893366718292,-0.220395217037201,-0.0148615639686587
0.361212121212121,0.125178034687042,-0.0575338889122009,-0.0364167397499087
0.361818181818182,-0.0520534106254578,-0.00963349828720092,-0.144192618656159
0.362424242424242,0.0916477612495422,0.059822068119049096,-0.0268366616249087
0.363030303030303,0.12996807374954197,-0.14614961156845102,0.0498039633750913
0.363636363636364,-0.0664235278129578,-0.110224318599701,0.0210637290000913
0.364242424242424,-0.16940936765670803,-0.12459443578720099,0.119259529781341
0.364848484848485,-0.0640285082817078,0.021501755619049098,0.133629646968841
0.365454545454545,0.043747370624542196,-0.0431637717247009,0.136024666500091
0.366060606060606,-0.29155536375045804,0.0574270485877991,0.0306438071250913
0.366666666666667,-0.0855836840629578,0.160412888431549,-0.101082267093659
0.367272727272727,0.252114069843292,0.06700712671279911,0.11446949071884101
0.367878787878788,-0.0113380785942078,-0.232370314693451,-0.0651569741249087
0.368484848484848,-0.128694035625458,0.0071316384315490795,-0.0819221108436587
0.369090909090909,-0.0400783129692078,-0.00963349828720092,0.267750740718841
0.36969696969697,-0.0760036059379578,-0.0790890646934509,-0.103477286624909
0.37030303030303,0.0293772534370422,-0.0431637717247009,-0.189697989749909
0.370909090909091,0.161103327655792,-0.112619338130951,0.545573006343841
0.371515151515152,0.197028620624542,-0.0311886740684509,0.509647713375091
0.372121212121212,0.151523249530792,0.0502419899940491,-0.132217520999909
0.372727272727273,-0.0807936450004578,-0.0263986350059509,0.0665691000938413
0.373333333333333,0.18984356203079197,0.0478469704627991,-0.0579719155311587
0.373939393939394,0.0868577221870422,-0.105434279537201,-0.220833243656159
0.374545454545455,-0.15024921140670802,-0.0359787131309509,-0.110662345218659
0.375151515151515,0.0676975659370422,0.155622849369049,-0.0723420327186587
0.375757575757576,-0.0688185473442078,-0.0551388693809509,0.104889412593841
0.376363636363636,0.0245872143745422,-0.218000197505951,0.131234627437591
0.376969696969697,0.117992976093292,-0.059928908443450904,0.0569890219688413
0.377575757575758,-0.00175800046920776,0.0382668923377991,-0.0507868569374087
0.378181818181818,0.0485374096870422,-0.00723847875595092,0.0474089438438413
0.378787878787879,-0.0328932543754578,0.215498337650299,0.183925057125091
0.379393939393939,0.010217097187042199,0.0430569314002991,-0.103477286624909
0.38,0.0269822339057922,-0.148544631099701,-0.0555768959999087
0.380606060606061,0.0605125073432922,0.0167117165565491,0.0138786704063413
0.381212121212121,0.0605125073432922,0.0286868142127991,-0.223228263187409
0.381818181818182,-0.0975587817192078,-0.0838791037559509,-0.0292316811561587
0.382424242424242,-0.102348820781708,0.268188767337799,0.0402238852500913
0.383030303030303,-0.0209181567192078,0.0502419899940491,-0.0962922280311587
0.383636363636364,-0.14545917234420802,0.0262917946815491,0.0545940024375913
0.384242424242424,0.0413523510932922,0.10293241968154901,-0.115452384281159
0.384848484848485,0.0150071362495422,-0.277875685787201,0.14560474462509101
0.385454545454545,-0.0903737231254578,-0.100644240474701,0.0593840415000913
0.386060606060606,0.0844627026557922,0.10772245874404901,0.0953093344688413
0.386666666666667,-0.0113380785942078,-0.12459443578720099,0.159974861812591
0.387272727272727,0.132363093280792,-0.14614961156845102,-0.177722892093659
0.387878787878788,0.122783015155792,0.10772245874404901,-0.0938972084999087
0.388484848484848,0.0054270581245422405,-0.0766940451622009,-0.105872306156159
0.389090909090909,0.108412897968292,-0.306615920162201,-0.187302970218659
0.38969696969697,-0.0400783129692078,-0.0359787131309509,-0.132217520999909
0.39030303030303,-0.0736085864067078,-0.0934591818809509,-0.000491446781158709
0.390909090909091,-0.0304982348442078,0.06940214624404911,0.0569890219688413
0.391515151515152,0.00782207765579224,-0.143754592037201,0.0953093344688413
0.392121212121212,-0.128694035625458,-0.37367646703720103,0.0474089438438413
0.392727272727273,0.0653025464057922,-0.103039260005951,0.0689641196250913
0.393333333333333,0.146733210468292,-0.129384474849701,0.131234627437591
0.393939393939394,-0.0209181567192078,-0.0551388693809509,-0.0220466225624087
0.394545454545455,0.343124812030792,-0.0479538107872009,-0.208858145999909
0.395151515151515,0.0174021557807922,0.0957473610877991,-0.0819221108436587
0.395757575757576,-0.0328932543754578,0.10053740015029901,0.191110115718841
0.396363636363636,0.261694147968292,-0.0862741232872009,0.0378288657188413
0.396969696969697,0.0150071362495422,-0.0383737326622009,0.009088631343841289
0.397575757575758,-0.0113380785942078,-0.0359787131309509,-0.0172565834999087
0.398181818181818,0.0868577221870422,0.06461210718154911,-0.237598380374909
0.398787878787879,-0.126299016094208,0.0071316384315490795,0.104889412593841
0.399393939393939,0.0054270581245422405,-0.06950898656845089,0.200690193843841
0.4,0.0533274487495422,-0.0623239279747009,-0.146587638187409
0.400606060606061,-0.023313176250457802,0.129277634525299,0.540782967281341
0.401212121212121,-0.0400783129692078,0.0334768532752991,0.6701140219688411
0.401818181818182,-0.152644230937958,-0.0503488303184509,-0.0723420327186587
0.402424242424242,0.0581174878120422,-0.198840041255951,-0.0196516030311587
0.403030303030303,-0.0760036059379578,-0.213210158443451,-0.0891071694374087
0.403636363636364,0.165893366718292,0.184363083744049,0.00429859228134129
0.404242424242424,0.000637019062042238,-0.0958542014122009,0.0977043540000913
0.404848484848485,-0.102348820781708,-0.12219941625595099,0.0330388266563413
0.405454545454545,0.0126121167182922,-0.138964552974701,0.0330388266563413
0.406060606060606,-0.111928898906708,0.0550320290565491,0.181530037593841
0.406666666666667,0.0868577221870422,0.129277634525299,0.0809392172813413
0.407272727272727,0.0533274487495422,0.0334768532752991,-0.0100715249061587
0.407878787878788,0.0892527417182922,-0.107829299068451,-0.129822501468659
0.408484848484849,0.0317722729682922,-0.0335836935997009,0.0641740805625913
0.409090909090909,0.0126121167182922,0.07419218530654911,0.0785441977500913
0.40969696969697,0.0605125073432922,0.023896775150299098,-0.156167716312409
0.41030303030303,0.175473444843292,0.148437790775299,0.138419686031341
0.410909090909091,0.0964378003120422,0.06461210718154911,0.0282487875938413
0.411515151515152,-0.23646991453170801,0.06461210718154911,-0.0747370522499087
0.412121212121212,0.137153132343292,-0.004843459224700921,-0.0172565834999087
0.412727272727273,0.0629075268745422,0.21310331811904898,-0.024441642093658702
0.413333333333333,-0.102348820781708,-0.150939650630951,0.107284432125091
0.413939393939394,0.000637019062042238,-0.0503488303184509,-0.105872306156159
0.414545454545455,0.0221921948432922,-0.0838791037559509,-0.15377269678115899
0.415151515151515,0.0293772534370422,-0.0958542014122009,-0.0986872475624087
0.415757575757576,0.0126121167182922,0.0933523415565491,0.0665691000938413
0.416363636363636,0.0581174878120422,-0.148544631099701,0.325231209468841
0.416969696969697,-0.0520534106254578,-0.0623239279747009,-0.0412067788124087
0.417575757575758,-0.157434270000458,-0.0168185568809509,-0.163352774906159
0.418181818181818,-0.0400783129692078,0.234658493900299,0.009088631343841289
0.418787878787879,0.0150071362495422,0.0837722634315491,-0.108267325687409
0.419393939393939,-0.0209181567192078,0.0957473610877991,-0.0962922280311587
0.42,0.0940427807807922,0.0885623024940491,-0.0819221108436587
0.420606060606061,-0.0760036059379578,-0.12219941625595099,-0.0699470131874087
0.421212121212121,0.0174021557807922,0.136462693119049,0.159974861812591
0.421818181818182,0.180263483905792,0.189153122806549,0.0713591391563413
0.422424242424242,0.0461423901557922,0.0382668923377991,-0.443570060062409
0.423030303030303,-0.0664235278129578,-0.0311886740684509,-0.275918692874909
0.423636363636364,-0.0568434496879578,-0.004843459224700921,-0.0052814858436587096
0.424242424242424,0.187448542499542,0.021501755619049098,-0.15377269678115899
0.424848484848485,0.0676975659370422,0.0143166970252991,-0.0436017983436587
0.425454545454545,-0.114323918437958,0.0526370095252991,0.0617790610313413
0.426060606060606,0.13475811281204197,-0.0311886740684509,-0.0100715249061587
0.426666666666667,-0.0568434496879578,0.141252732181549,0.0402238852500913
0.427272727272727,-0.0640285082817078,0.11490751733779901,0.164764900875091
0.427878787878788,-0.0712135668754578,-0.0503488303184509,-0.0100715249061587
0.428484848484848,0.0126121167182922,0.0167117165565491,-0.0843171303749087
0.429090909090909,0.0126121167182922,-0.0383737326622009,-0.0555768959999087
0.42969696969697,-0.14545917234420802,-0.012028517818450902,-0.26633861474990905
0.43030303030303,-0.013733098125457801,0.00473661890029908,-0.0459968178749087
0.430909090909091,0.043747370624542196,0.220288376712799,0.456957283687591
0.431515151515152,0.17307842531204198,0.00473661890029908,-0.108267325687409
0.432121212121212,0.108412897968292,-0.0527438498497009,-0.208858145999909
0.432727272727273,0.0629075268745422,0.179573044681549,0.33241626806259095
0.433333333333333,0.0150071362495422,-0.287455763912201,0.042618904781341296
0.433939393939394,0.161103327655792,-0.256320510005951,0.0713591391563413
0.434545454545455,0.0269822339057922,-0.0383737326622009,0.0186687094688413
0.435151515151515,-0.198149602031708,-0.0359787131309509,0.08812427587509129
0.435757575757576,-0.0783986254692078,0.0430569314002991,0.155184822750091
0.436363636363636,-0.15024921140670802,0.06940214624404911,-0.0819221108436587
0.436969696969697,-0.0688185473442078,0.0526370095252991,0.169554939937591
0.437575757575758,0.0341672924995422,-0.0383737326622009,0.212665291500091
0.438181818181818,-0.0568434496879578,0.15801786890029898,0.126444588375091
0.438787878787879,-0.152644230937958,0.272978806400299,0.104889412593841
0.439393939393939,-0.16940936765670803,0.07179716577529911,-0.0819221108436587
0.44,-0.00894305906295776,-0.0192135764122009,-0.0220466225624087
0.440606060606061,0.211398737812042,-0.0024484396934509197,-0.0627619545936587
0.441212121212121,0.18265850343704199,-0.0263986350059509,-0.0795270913124087
0.441818181818182,-0.023313176250457802,0.0574270485877991,-0.206463126468659
0.442424242424242,-0.0520534106254578,-0.0886691428184509,-0.108267325687409
0.443030303030303,-0.0783986254692078,-0.0910641623497009,0.0737541586875913
0.443636363636364,0.00782207765579224,0.169992966556549,-0.0843171303749087
0.444242424242424,0.0748826245307922,0.0143166970252991,0.0234587485313413
0.444848484848485,-0.0400783129692078,-0.208420119380951,-0.0962922280311587
0.445454545454545,-0.152644230937958,-0.112619338130951,-0.0843171303749087
0.446060606060606,0.0700925854682922,-0.0287936545372009,0.0665691000938413
0.446666666666667,0.17786846437454198,-0.06471894750595089,0.100099373531341
0.447272727272727,-0.0304982348442078,0.0286868142127991,-0.0699470131874087
0.447878787878788,0.21379375734329198,-0.0790890646934509,0.193505135250091
0.448484848484848,0.0245872143745422,-0.0742990256309509,0.00190357275009129
0.449090909090909,-0.298740422344208,-5.34201622009196e-05,-0.115452384281159
0.44969696969697,-0.0328932543754578,-0.198840041255951,-0.0675519936561587
0.45030303030303,0.0892527417182922,0.0286868142127991,-0.156167716312409
0.450909090909091,0.0844627026557922,-0.012028517818450902,0.164764900875091
0.451515151515152,-0.0688185473442078,-0.167704787349701,-0.0100715249061587
0.452121212121212,-0.14545917234420802,0.0622170876502991,-0.218438224124909
0.452727272727273,-0.0281032153129578,-0.160519728755951,-0.0436017983436587
0.453333333333333,0.0844627026557922,-0.30422090063095103,0.0186687094688413
0.453939393939394,0.23774395265579198,-0.0240036154747009,0.124049568843841
0.454545454545455,0.13475811281204197,0.0334768532752991,0.0282487875938413
0.455151515151515,-0.0352882739067078,-0.0407687521934509,-0.0196516030311587
0.455757575757576,-0.0783986254692078,-0.306615920162201,-0.0196516030311587
0.456363636363636,0.0413523510932922,-0.0359787131309509,-0.223228263187409
0.456969696969697,-0.0185231371879578,0.258608689212799,-0.244783438968659
0.457575757575758,0.0676975659370422,-0.14614961156845102,0.009088631343841289
0.458181818181818,-0.0352882739067078,0.150832810306549,0.0857292563438413
0.458787878787879,0.0581174878120422,0.0981423806190491,-0.09150218896865871
0.459393939393939,0.0844627026557922,-0.229975295162201,0.581498299312591
0.46,-0.0831886645317078,-0.0192135764122009,0.28212085790634095
0.460606060606061,0.0892527417182922,-0.059928908443450904,0.0114836508750913
0.461212121212121,-0.128694035625458,0.0837722634315491,0.5910783774375911
0.461818181818182,-0.0927687426567078,0.0191067360877991,0.0378288657188413
0.462424242424242,-0.277185246562958,-0.11980439672470099,-0.0603669350624087
0.463030303030303,0.00782207765579224,-0.0144235373497009,0.0737541586875913
0.463636363636364,-0.0736085864067078,-0.0982492209434509,-0.0172565834999087
0.464242424242424,-0.23407489500045803,-0.06471894750595089,-0.0675519936561587
0.464848484848485,0.170683405780792,0.0382668923377991,0.0474089438438413
0.465454545454545,-0.0688185473442078,-0.0311886740684509,0.0929143149375913
0.466060606060606,-0.14545917234420802,0.10772245874404901,0.0162736899375913
0.466666666666667,-0.119113957500458,0.150832810306549,0.147999764156341
0.467272727272727,0.0341672924995422,-0.0024484396934509197,0.136024666500091
0.467878787878788,0.101227839374542,-0.0240036154747009,0.222245369625091
0.468484848484849,0.0341672924995422,0.011921677494049099,0.0402238852500913
0.469090909090909,-0.18138446531295802,0.124487595462799,-0.208858145999909
0.46969696969697,-0.104743840312958,-0.0551388693809509,0.0521989829063413
0.47030303030303,0.0485374096870422,-0.251530470943451,0.179135018062591
0.470909090909091,-0.0448683520317078,-0.162914748287201,0.0234587485313413
0.471515151515151,0.0054270581245422405,0.10532743921279901,0.119259529781341
0.472121212121212,-0.00415302000045776,-0.23716035375595101,-0.024441642093658702
0.472727272727273,-0.143064152812958,-0.0479538107872009,0.00429859228134129
0.473333333333333,0.0293772534370422,-0.0407687521934509,0.188715096187591
0.473939393939394,-0.0879787035942078,-0.194050002193451,-0.0268366616249087
0.474545454545455,0.0389573315620422,-0.0551388693809509,-0.0603669350624087
0.475151515151515,0.0653025464057922,-0.06950898656845089,0.131234627437591
0.475757575757576,-0.123903996562958,-0.07190400609970089,-0.0675519936561587
0.476363636363636,0.0389573315620422,-0.411996779537201,-0.0459968178749087
0.476969696969697,-0.14066913328170802,-0.0311886740684509,0.107284432125091
0.477575757575758,0.0605125073432922,0.198733200931549,-0.0292316811561587
0.478181818181818,-0.0424733325004578,-0.07190400609970089,0.0977043540000913
0.478787878787879,-0.0520534106254578,0.021501755619049098,0.0569890219688413
0.479393939393939,-0.111928898906708,0.0502419899940491,0.243800545406341
0.48,-0.0592384692192078,-0.0168185568809509,0.126444588375091
0.480606060606061,0.117992976093292,-0.17728486547470101,-0.0771320717811587
0.481212121212121,-0.217309758281708,-0.0766940451622009,-0.0962922280311587
0.481818181818182,0.0126121167182922,-0.00723847875595092,-0.115452384281159
0.482424242424242,-0.0544484301567078,-0.170099806880951,-0.0579719155311587
0.483030303030303,-0.0424733325004578,-0.153334670162201,0.183925057125091
0.483636363636364,0.165893366718292,-0.0263986350059509,0.191110115718841
0.484242424242424,0.000637019062042238,0.10532743921279901,0.0282487875938413
0.484848484848485,-0.00175800046920776,-0.0311886740684509,0.0138786704063413
0.485454545454545,0.115597956562042,-0.0862741232872009,0.181530037593841
0.486060606060606,0.0700925854682922,0.06461210718154911,0.193505135250091
0.486666666666667,-0.0592384692192078,0.179573044681549,-0.0292316811561587
0.487272727272727,-0.0400783129692078,0.011921677494049099,0.0641740805625913
0.487878787878788,-0.143064152812958,-0.194050002193451,-0.0891071694374087
0.488484848484848,-0.0616334887504578,0.12688261499404901,0.0378288657188413
0.489090909090909,-0.138274113750458,0.021501755619049098,0.222245369625091
0.48969696969697,-0.0520534106254578,-0.0886691428184509,0.344391365718841
0.49030303030303,0.0245872143745422,0.0550320290565491,0.576708260250091
0.490909090909091,-0.0400783129692078,0.0262917946815491,0.600658455562591
0.491515151515152,0.127573054218292,0.023896775150299098,0.200690193843841
0.492121212121212,0.17307842531204198,0.0262917946815491,-0.0938972084999087
0.492727272727273,0.0293772534370422,0.011921677494049099,-0.0292316811561587
0.493333333333333,-0.0304982348442078,-0.160519728755951,0.009088631343841289
0.493939393939394,-0.0352882739067078,-0.158124709224701,0.32044117040634096
0.494545454545455,-0.0328932543754578,-0.160519728755951,0.131234627437591
0.495151515151515,-0.013733098125457801,-0.021608595943450902,-0.0436017983436587
0.495757575757576,-0.0712135668754578,0.0334768532752991,0.0737541586875913
0.496363636363636,-0.00894305906295776,0.0550320290565491,-0.0843171303749087
0.496969696969697,0.175473444843292,-0.0407687521934509,0.102494393062591
0.497575757575758,0.197028620624542,0.0454519509315491,0.0761491782188413
0.498181818181818,0.0916477612495422,0.06700712671279911,-0.0531818764686587
0.498787878787879,0.0940427807807922,-0.0287936545372009,0.138419686031341
0.499393939393939,0.0150071362495422,-0.0551388693809509,-0.0819221108436587
0.5,-0.0209181567192078,-0.218000197505951,-0.0795270913124087
0.500606060606061,-0.0544484301567078,-0.129384474849701,0.133629646968841
0.501212121212121,0.0724876049995422,-0.06471894750595089,0.124049568843841
0.501818181818182,0.17786846437454198,0.0167117165565491,0.0953093344688413
0.502424242424242,-0.0999538012504578,0.0286868142127991,0.0474089438438413
0.503030303030303,0.010217097187042199,0.0430569314002991,0.0929143149375913
0.503636363636364,0.0150071362495422,-0.0335836935997009,0.0737541586875913
0.504242424242424,0.137153132343292,0.0071316384315490795,-0.0962922280311587
0.504848484848485,0.0533274487495422,0.059822068119049096,-0.196883048343659
0.505454545454545,-0.162224309062958,-0.00963349828720092,-0.0483918374061587
0.506060606060606,0.0629075268745422,0.0262917946815491,0.0665691000938413
0.506666666666667,-0.0448683520317078,-0.0886691428184509,0.0905192954063413
0.507272727272727,-0.0281032153129578,0.0334768532752991,-0.0603669350624087
0.507878787878788,-0.13108905515670802,-0.17728486547470101,0.009088631343841289
0.508484848484849,0.0533274487495422,-0.203630080318451,-0.0292316811561587
0.509090909090909,-0.0712135668754578,0.06461210718154911,0.00669361181259129
0.50969696969697,-0.111928898906708,0.131672654056549,0.119259529781341
0.51030303030303,0.0054270581245422405,-0.174889845943451,0.133629646968841
0.510909090909091,0.106017878437042,0.0574270485877991,0.203085213375091
0.511515151515151,0.0174021557807922,0.138857712650299,-0.000491446781158709
0.512121212121212,-0.114323918437958,-0.167704787349701,-0.0316267006874087
0.512727272727273,-0.047263371562957804,0.11969755640029901,0.0114836508750913
0.513333333333333,0.043747370624542196,0.11730253686904901,-0.0651569741249087
0.513939393939394,0.0389573315620422,0.165202927494049,0.0545940024375913
0.514545454545455,-0.0712135668754578,-0.004843459224700921,0.31086109228134096
0.515151515151515,0.0940427807807922,-0.174889845943451,0.159974861812591
0.515757575757576,-0.13108905515670802,0.22747343530654898,-0.0962922280311587
0.516363636363636,-0.126299016094208,0.0358718728065491,-0.0579719155311587
0.516969696969697,0.0605125073432922,-0.244345412349701,-0.0052814858436587096
0.517575757575758,-0.0304982348442078,-0.00963349828720092,0.00190357275009129
0.518181818181818,0.0317722729682922,-0.158124709224701,-0.170537833499909
0.518787878787879,0.122783015155792,0.0334768532752991,0.150394783687591
0.519393939393939,0.0054270581245422405,0.165202927494049,0.552758064937591
0.52,-0.116718937969208,0.0430569314002991,0.0186687094688413
0.520606060606061,-0.0903737231254578,0.023896775150299098,0.08812427587509129
0.521212121212121,0.0150071362495422,-0.158124709224701,0.5719182211875911
0.521818181818182,0.125178034687042,0.0550320290565491,0.00669361181259129
0.522424242424242,-0.0520534106254578,0.023896775150299098,-0.218438224124909
0.523030303030303,-0.0903737231254578,0.00234159936904908,-0.0100715249061587
0.523636363636364,-0.0640285082817078,0.246633591556549,0.164764900875091
0.524242424242424,0.110807917499542,-0.115014357662201,0.0114836508750913
0.524848484848485,-0.0185231371879578,-0.134174513912201,-0.110662345218659
0.525454545454546,-0.111928898906708,0.131672654056549,0.0402238852500913
0.526060606060606,0.0988328198432922,0.191548142337799,0.0521989829063413
0.526666666666667,-0.0568434496879578,0.239448532962799,0.11207447118759101
0.527272727272727,-0.15503925046920802,0.06940214624404911,0.0713591391563413
0.527878787878788,-0.167014348125458,-0.165309767818451,0.164764900875091
0.528484848484848,-0.0448683520317078,-0.244345412349701,-0.024441642093658702
0.529090909090909,0.019797175312042198,-0.00963349828720092,0.126444588375091
0.52969696969697,-0.226889836406708,0.06940214624404911,-0.0196516030311587
0.53030303030303,-0.0592384692192078,-0.143754592037201,-0.0412067788124087
0.530909090909091,0.15391826906204198,0.10293241968154901,0.186320076656341
0.531515151515151,0.019797175312042198,-0.0192135764122009,0.30128101415634095
0.532121212121212,0.0317722729682922,0.0286868142127991,0.200690193843841
0.532727272727273,-0.0783986254692078,0.21310331811904898,-0.0340217202186587
0.533333333333333,0.0653025464057922,0.00952665796279908,0.0689641196250913
0.533939393939394,-0.167014348125458,-0.0790890646934509,0.0545940024375913
0.534545454545455,-0.14545917234420802,-0.167704787349701,0.143209725093841
0.535151515151515,0.110807917499542,-0.0862741232872009,0.0258537680625913
0.535757575757576,0.117992976093292,-0.11980439672470099,-0.0507868569374087
0.536363636363636,-0.0328932543754578,-0.0287936545372009,-0.0196516030311587
0.536969696969697,0.20421367921829198,0.07179716577529911,0.0474089438438413
0.537575757575758,0.120387995624542,-0.00723847875595092,-0.0891071694374087
0.538181818181818,-0.138274113750458,-5.34201622009196e-05,0.0282487875938413
0.538787878787879,0.206608698749542,0.06461210718154911,0.11686451025009101
0.539393939393939,-0.222099797344208,0.0550320290565491,-0.024441642093658702
0.54,-0.188569523906708,0.059822068119049096,0.0593840415000913
0.540606060606061,0.12996807374954197,-0.0455587912559509,0.150394783687591
0.541212121212121,-0.0304982348442078,0.11730253686904901,0.0545940024375913
0.541818181818182,0.192238581562042,0.280163864994049,0.0402238852500913
0.542424242424242,-0.0161281176567078,0.136462693119049,-0.345374259281159
0.543030303030303,-0.0568434496879578,-0.14135957250595102,0.0857292563438413
0.543636363636364,0.18505352296829197,-0.0910641623497009,0.121654549312591
0.544242424242424,-0.0927687426567078,0.203523239994049,-0.218438224124909
0.544848484848485,-0.0161281176567078,-0.0311886740684509,0.147999764156341
0.545454545454545,0.0581174878120422,-0.0862741232872009,-0.0555768959999087
0.546060606060606,0.0988328198432922,0.15801786890029898,0.0258537680625913
0.546666666666667,-0.0544484301567078,0.0933523415565491,-0.0412067788124087
0.547272727272727,-0.23407489500045803,0.10293241968154901,0.107284432125091
0.547878787878788,-0.0328932543754578,-0.0527438498497009,0.119259529781341
0.548484848484848,-0.0113380785942078,0.0861672829627991,-0.00288646631240871
0.549090909090909,0.156313288593292,0.00473661890029908,-0.0196516030311587
0.54969696969697,0.0772776440620422,0.07179716577529911,0.00190357275009129
0.55030303030303,0.0509324292182922,0.0478469704627991,0.36834156103134097
0.550909090909091,-0.111928898906708,-0.150939650630951,0.39229175634384095
0.551515151515152,-0.15982928953170802,0.11011747827529901,0.29888599462509097
0.552121212121212,-0.231679875469208,0.136462693119049,0.11207447118759101
0.552727272727273,-0.0688185473442078,-0.0192135764122009,0.0905192954063413
0.553333333333333,0.0916477612495422,-0.07190400609970089,-0.120242423343659
0.553939393939394,0.0844627026557922,0.148437790775299,0.102494393062591
0.554545454545455,0.0126121167182922,0.0765872048377991,0.0545940024375913
0.555151515151515,-0.143064152812958,0.215498337650299,-0.0819221108436587
0.555757575757576,0.0748826245307922,0.234658493900299,0.0665691000938413
0.556363636363636,-0.222099797344208,-0.0527438498497009,-0.0220466225624087
0.556969696969697,-0.0760036059379578,-0.11740937719345099,0.0258537680625913
0.557575757575758,-0.0496583910942078,-0.0144235373497009,0.195900154781341
0.558181818181818,-0.13587909421920802,0.0286868142127991,0.183925057125091
0.558787878787879,-0.0328932543754578,-0.0934591818809509,-0.158562735843659
0.559393939393939,0.13475811281204197,-0.0455587912559509,0.0953093344688413
0.56,-0.0113380785942078,-0.0431637717247009,0.195900154781341
0.560606060606061,-0.138274113750458,0.0478469704627991,0.138419686031341
0.561212121212121,-0.0185231371879578,0.0310818337440491,0.143209725093841
0.561818181818182,0.000637019062042238,-0.162914748287201,0.00429859228134129
0.562424242424242,-0.00175800046920776,0.059822068119049096,0.188715096187591
0.563030303030303,0.137153132343292,-0.021608595943450902,0.131234627437591
0.563636363636364,0.132363093280792,-0.112619338130951,0.0905192954063413
0.564242424242424,0.0796726635932922,0.0262917946815491,0.0282487875938413
0.564848484848485,-0.0424733325004578,0.0334768532752991,-0.0531818764686587
0.565454545454545,-0.119113957500458,-0.0623239279747009,-0.0651569741249087
0.566060606060606,0.283249323749542,-0.0311886740684509,-0.0555768959999087
0.566666666666667,0.0317722729682922,-0.0527438498497009,-0.163352774906159
0.567272727272727,-0.111928898906708,-0.289850783443451,-0.103477286624909
0.567878787878788,-0.0831886645317078,-0.174889845943451,0.0689641196250913
0.568484848484848,-0.0927687426567078,-0.0814840842247009,0.0641740805625913
0.569090909090909,0.19942364015579198,0.059822068119049096,0.0330388266563413
0.56969696969697,0.0557224682807922,0.124487595462799,0.0450139243125913
0.57030303030303,-0.0736085864067078,-0.0551388693809509,0.104889412593841
0.570909090909091,-0.0400783129692078,-0.160519728755951,-0.0268366616249087
0.571515151515152,-0.0951637621879578,0.0478469704627991,0.0761491782188413
0.572121212121212,-0.013733098125457801,0.225078415775299,-0.0292316811561587
0.572727272727273,0.21379375734329198,-0.110224318599701,-0.0603669350624087
0.573333333333333,0.0605125073432922,-0.0311886740684509,-0.0172565834999087
0.573939393939394,-0.0281032153129578,0.00473661890029908,-0.09150218896865871
0.574545454545455,0.156313288593292,-0.0311886740684509,0.0378288657188413
0.575151515151515,0.0533274487495422,0.0957473610877991,0.131234627437591
0.575757575757576,0.0653025464057922,0.124487595462799,-0.0891071694374087
0.576363636363636,0.010217097187042199,-0.100644240474701,0.0258537680625913
0.576969696969697,0.106017878437042,-0.0623239279747009,-0.120242423343659
0.577575757575758,0.0653025464057922,0.0143166970252991,-0.0100715249061587
0.578181818181818,-0.0999538012504578,0.0071316384315490795,0.0833342368125913
0.578787878787879,0.0557224682807922,-0.06711396703720089,-0.09150218896865871
0.579393939393939,-0.107138859844208,0.06461210718154911,0.5120427329063411
0.58,-0.0304982348442078,-0.0479538107872009,-0.0675519936561587
0.580606060606061,0.14433819093704198,-0.155729689693451,-0.25915355615615904
0.581212121212121,0.13954815187454198,0.169992966556549,0.7275944907188411
0.581818181818182,0.0509324292182922,-0.174889845943451,0.327626229000091
0.582424242424242,0.21379375734329198,-0.0886691428184509,-0.132217520999909
0.583030303030303,0.137153132343292,0.136462693119049,-0.168142813968659
0.583636363636364,-0.0831886645317078,-0.004843459224700921,-0.110662345218659
0.584242424242424,0.043747370624542196,0.06700712671279911,0.0641740805625913
0.584848484848485,0.206608698749542,0.189153122806549,-0.0675519936561587
0.585454545454545,0.311989558124542,0.141252732181549,-0.0675519936561587
0.586060606060606,-0.0424733325004578,-0.203630080318451,-0.0436017983436587
0.586666666666667,0.108412897968292,-0.153334670162201,0.0977043540000913
0.587272727272727,0.424555476093292,0.0861672829627991,0.138419686031341
0.587878787878788,0.21858379640579198,-0.0503488303184509,-0.09150218896865871
0.588484848484848,0.0772776440620422,0.0430569314002991,-0.184907950687409
0.589090909090909,-0.188569523906708,-0.115014357662201,0.0905192954063413
0.58969696969697,-0.0999538012504578,-0.316195998287201,0.119259529781341
0.59030303030303,0.23774395265579198,-0.0982492209434509,0.11207447118759101
0.590909090909091,0.0317722729682922,-0.0742990256309509,-0.26873363428115904
0.591515151515152,-0.178989445781708,0.011921677494049099,-0.0795270913124087
0.592121212121212,-0.0927687426567078,0.06700712671279911,0.0521989829063413
0.592727272727273,0.0293772534370422,0.131672654056549,-0.137007560062409
0.593333333333333,0.0245872143745422,0.0981423806190491,0.217455330562591
0.593939393939394,0.0150071362495422,-0.105434279537201,-0.182512931156159
0.594545454545455,0.0676975659370422,-0.0575338889122009,-0.204068106937409
0.595151515151515,0.16828838624954198,-0.021608595943450902,0.00429859228134129
0.595757575757576,-0.0927687426567078,-0.0240036154747009,0.0905192954063413
0.596363636363636,-0.198149602031708,-0.103039260005951,-0.163352774906159
0.596969696969697,-0.0712135668754578,0.0406619118690491,-0.0938972084999087
0.597575757575758,0.0245872143745422,0.0454519509315491,0.210270271968841
0.598181818181818,0.0509324292182922,0.00952665796279908,0.195900154781341
0.598787878787879,0.0796726635932922,0.021501755619049098,0.104889412593841
0.599393939393939,-0.00894305906295776,-0.19165498266220102,-0.0938972084999087
0.6,-0.109533879375458,-0.12459443578720099,-0.0962922280311587
0.600606060606061,-0.0496583910942078,-0.0790890646934509,0.0521989829063413
0.601212121212121,-0.157434270000458,-0.155729689693451,0.0545940024375913
0.601818181818182,-0.0855836840629578,-0.0359787131309509,0.155184822750091
0.602424242424242,0.0126121167182922,-0.07190400609970089,0.0402238852500913
0.603030303030303,-0.00894305906295776,-0.0934591818809509,0.0977043540000913
0.603636363636364,0.0509324292182922,-0.0790890646934509,-0.0986872475624087
0.604242424242424,-0.023313176250457802,0.0502419899940491,-0.09150218896865871
0.604848484848485,0.0605125073432922,0.143647751712799,0.128839607906341
0.605454545454545,-0.0304982348442078,0.021501755619049098,-0.0436017983436587
0.606060606060606,-0.0712135668754578,0.059822068119049096,-0.0052814858436587096
0.606666666666667,-0.0328932543754578,-0.012028517818450902,-0.0436017983436587
0.607272727272727,-0.183779484844208,-0.14614961156845102,0.0186687094688413
0.607878787878788,-0.0807936450004578,-0.0311886740684509,0.0689641196250913
0.608484848484849,-0.193359562969208,-0.280270705318451,0.0785441977500913
0.609090909090909,-0.162224309062958,-0.06471894750595089,0.104889412593841
0.60969696969697,-0.0592384692192078,0.0837722634315491,0.346786385250091
0.61030303030303,-0.0281032153129578,-0.004843459224700921,-0.0675519936561587
0.610909090909091,-0.0400783129692078,0.11490751733779901,0.382711678218841
0.611515151515152,-0.109533879375458,-0.138964552974701,0.641373787593841
0.612121212121212,-0.0712135668754578,-5.34201622009196e-05,-0.29986888818740903
0.612727272727273,-0.0185231371879578,-0.07190400609970089,-0.0891071694374087
0.613333333333333,0.000637019062042238,-0.0240036154747009,0.0617790610313413
0.613939393939394,-0.0352882739067078,-0.0455587912559509,0.0378288657188413
0.614545454545455,0.0676975659370422,-0.0551388693809509,0.0761491782188413
0.615151515151515,-0.147854191875458,0.11251249780654901,0.0378288657188413
0.615757575757576,-0.418491398906708,0.0789822243690491,0.131234627437591
0.616363636363636,-0.0879787035942078,-0.115014357662201,-0.225623282718659
0.616969696969697,-0.0760036059379578,-0.20123506078720102,-0.00767650537490871
0.617575757575758,-0.0496583910942078,-0.143754592037201,0.0713591391563413
0.618181818181818,-0.111928898906708,0.06940214624404911,0.109679451656341
0.618787878787879,-0.238864934062958,-0.110224318599701,0.104889412593841
0.619393939393939,-0.0304982348442078,-0.0575338889122009,-0.105872306156159
0.62,-0.0927687426567078,0.0909573220252991,0.138419686031341
0.620606060606061,-0.24125995359420802,-0.158124709224701,-0.129822501468659
0.621212121212121,-0.413701359844208,0.023896775150299098,0.0761491782188413
0.621818181818182,-0.34185077390670804,-0.0192135764122009,0.128839607906341
0.622424242424242,-0.21012469968795802,-0.0240036154747009,-0.0531818764686587
0.623030303030303,-0.286765324687958,-0.179679885005951,0.0378288657188413
0.623636363636364,-0.121508977031708,-0.143754592037201,-0.192093009281159
0.624242424242424,-0.109533879375458,-0.134174513912201,-0.0268366616249087
0.624848484848485,-0.265210148906708,-0.220395217037201,0.0953093344688413
0.625454545454545,-0.238864934062958,0.0191067360877991,0.102494393062591
0.626060606060606,-0.243654973125458,0.0143166970252991,0.0641740805625913
0.626666666666667,-0.19575458250045802,-0.0958542014122009,-0.0436017983436587
0.627272727272727,-0.22928485593795803,-0.0192135764122009,-0.0843171303749087
0.627878787878788,-0.284370305156708,0.282558884525299,0.009088631343841289
0.628484848484849,-0.38256610593795803,0.0071316384315490795,0.0713591391563413
0.629090909090909,-0.13587909421920802,-0.13656953344345102,0.00669361181259129
0.62969696969697,-0.463996770000458,-0.0934591818809509,0.0378288657188413
0.63030303030303,-0.444836613750458,-0.100644240474701,-0.117847403812409
0.630909090909091,-0.33227069578170804,0.0191067360877991,-0.0555768959999087
0.631515151515151,-0.353825871562958,-0.13177949438095102,-0.0531818764686587
0.632121212121212,-0.157434270000458,0.129277634525299,-0.0675519936561587
0.632727272727273,-0.5382423754692081,0.0789822243690491,0.100099373531341
0.633333333333333,-0.279580266094208,0.11251249780654901,0.042618904781341296
0.633939393939394,-0.238864934062958,-0.0024484396934509197,0.0474089438438413
0.634545454545455,-0.18617450437545802,-0.162914748287201,0.0569890219688413
0.635151515151515,-0.31311053953170803,0.16280790796279898,-0.105872306156159
0.635757575757576,-0.329875676250458,-0.105434279537201,-0.151377677249909
0.636363636363636,-0.24125995359420802,-0.320986037349701,0.126444588375091
0.636969696969697,-0.32269061765670803,-0.0934591818809509,0.0498039633750913
0.637575757575758,-0.21012469968795802,-0.06711396703720089,-0.134612540531159
0.638181818181818,-0.41130634031295804,-0.0503488303184509,0.193505135250091
0.638787878787879,-0.468786809062958,0.07419218530654911,0.0593840415000913
0.639393939393939,-0.475971867656708,0.06940214624404911,0.30846607275009097
0.64,-0.47118182859420804,-0.165309767818451,0.533597908687591
0.640606060606061,-0.38256610593795803,-0.0982492209434509,-0.0364167397499087
0.641212121212121,-0.408911320781708,0.0167117165565491,0.284515877437591
0.641818181818182,-0.42328143796920803,0.11011747827529901,0.0665691000938413
0.642424242424242,-0.32269061765670803,0.0334768532752991,-0.25915355615615904
0.643030303030303,-0.416096379375458,0.0071316384315490795,-0.117847403812409
0.643636363636364,-0.36340594968795803,-0.06471894750595089,-0.0555768959999087
0.644242424242424,-0.375381047344208,-0.17728486547470101,0.162369881343841
0.644848484848485,-0.33227069578170804,-0.00963349828720092,-0.0100715249061587
0.645454545454546,-0.37298602781295803,-0.112619338130951,0.0953093344688413
0.646060606060606,-0.447231633281708,-0.158124709224701,0.126444588375091
0.646666666666667,-0.408911320781708,0.0334768532752991,0.128839607906341
0.647272727272727,-0.289160344219208,0.210708298587799,0.150394783687591
0.647878787878788,-0.23407489500045803,-0.0479538107872009,0.0330388266563413
0.648484848484848,-0.14545917234420802,0.07179716577529911,0.0785441977500913
0.649090909090909,-0.162224309062958,0.24184355249404899,-0.0651569741249087
0.64969696969697,-0.277185246562958,-0.0910641623497009,0.121654549312591
0.65030303030303,-0.310715520000458,0.0885623024940491,0.119259529781341
0.650909090909091,-0.389751164531708,0.229868454837799,-0.00288646631240871
0.651515151515151,-0.133484074687958,0.00952665796279908,0.102494393062591
0.652121212121212,-0.183779484844208,-0.285060744380951,0.0761491782188413
0.652727272727273,-0.317900578594208,-0.174889845943451,-0.0172565834999087
0.653333333333333,-0.260420109844208,0.0813772439002991,0.0689641196250913
0.653939393939394,-0.277185246562958,-0.150939650630951,-0.0579719155311587
0.654545454545455,-0.107138859844208,0.0191067360877991,-0.230413321781159
0.655151515151515,0.0054270581245422405,-0.0503488303184509,0.0785441977500913
0.655757575757576,-0.183779484844208,-0.0383737326622009,0.00190357275009129
0.656363636363636,-0.157434270000458,-0.0479538107872009,0.0545940024375913
0.656969696969697,0.0509324292182922,0.0502419899940491,0.121654549312591
0.657575757575758,0.0892527417182922,0.06461210718154911,0.200690193843841
0.658181818181818,0.0964378003120422,0.0071316384315490795,0.0330388266563413
0.658787878787879,0.0916477612495422,0.17238798608779898,-0.0124665444374087
0.659393939393939,0.0174021557807922,0.0382668923377991,-0.0364167397499087
0.66,-0.126299016094208,0.141252732181549,-0.165747794437409
0.660606060606061,-0.152644230937958,-0.0886691428184509,0.0785441977500913
0.661212121212121,0.00303203859329224,-0.0240036154747009,0.0713591391563413
0.661818181818182,-0.047263371562957804,0.160412888431549,-0.0148615639686587
0.662424242424242,-0.013733098125457801,-0.0575338889122009,-0.024441642093658702
0.663030303030303,-0.138274113750458,-0.0814840842247009,-0.0962922280311587
0.663636363636364,-0.0520534106254578,0.059822068119049096,-0.00288646631240871
0.664242424242424,0.0581174878120422,-0.06950898656845089,0.0114836508750913
0.664848484848485,-0.15503925046920802,0.0526370095252991,0.0593840415000913
0.665454545454545,-0.0304982348442078,0.141252732181549,0.107284432125091
0.666060606060606,0.0221921948432922,-0.158124709224701,-0.0148615639686587
0.666666666666667,0.019797175312042198,0.0909573220252991,-0.0436017983436587
0.667272727272727,-0.171804387187958,0.0143166970252991,-0.0699470131874087
0.667878787878788,-0.0999538012504578,-0.059928908443450904,-0.0316267006874087
0.668484848484848,-0.0592384692192078,0.0478469704627991,0.200690193843841
0.669090909090909,-0.119113957500458,-0.0479538107872009,0.042618904781341296
0.66969696969697,-0.00894305906295776,0.174783005619049,-0.0627619545936587
0.67030303030303,0.0724876049995422,-0.0910641623497009,-0.00288646631240871
0.670909090909091,0.0054270581245422405,-0.172494826412201,0.169554939937591
0.671515151515152,0.0509324292182922,0.11251249780654901,0.200690193843841
0.672121212121212,-0.047263371562957804,-5.34201622009196e-05,-0.0340217202186587
0.672727272727273,-0.114323918437958,-0.11980439672470099,0.0114836508750913
0.673333333333333,0.122783015155792,-0.0383737326622009,-0.110662345218659
0.673939393939394,-0.00415302000045776,-0.012028517818450902,-0.0603669350624087
0.674545454545455,0.0365623120307922,-0.167704787349701,0.152789803218841
0.675151515151515,-0.00415302000045776,-0.0287936545372009,-0.0483918374061587
0.675757575757576,0.0245872143745422,-0.12219941625595099,0.121654549312591
0.676363636363636,-0.0736085864067078,0.10053740015029901,0.0186687094688413
0.676969696969697,-0.109533879375458,0.0406619118690491,-0.101082267093659
0.677575757575758,0.0054270581245422405,-0.179679885005951,-0.0100715249061587
0.678181818181818,-0.0592384692192078,0.320879197025299,-0.105872306156159
0.678787878787879,-0.0281032153129578,-0.17728486547470101,-0.108267325687409
0.679393939393939,-0.0161281176567078,-0.179679885005951,-0.208858145999909
0.68,-0.0352882739067078,0.150832810306549,-0.0747370522499087
0.680606060606061,-0.157434270000458,0.0167117165565491,-0.0292316811561587
0.681212121212121,-0.0760036059379578,0.10772245874404901,-0.0699470131874087
0.681818181818182,0.0150071362495422,0.06940214624404911,-0.110662345218659
0.682424242424242,-0.0209181567192078,0.07419218530654911,0.0737541586875913
0.683030303030303,0.117992976093292,-0.110224318599701,0.0833342368125913
0.683636363636364,0.0581174878120422,-0.112619338130951,-0.0364167397499087
0.684242424242424,0.0868577221870422,-0.0886691428184509,0.126444588375091
0.684848484848485,0.0413523510932922,-0.0240036154747009,0.0857292563438413
0.685454545454545,-0.00654803953170776,-0.021608595943450902,-0.0579719155311587
0.686060606060606,0.0389573315620422,-0.0240036154747009,-0.108267325687409
0.686666666666667,-0.0376832934379578,0.021501755619049098,0.0162736899375913
0.687272727272727,-0.0760036059379578,-0.021608595943450902,-0.0555768959999087
0.687878787878788,-0.162224309062958,0.0765872048377991,-0.129822501468659
0.688484848484848,0.0653025464057922,-5.34201622009196e-05,0.124049568843841
0.689090909090909,0.0676975659370422,0.16759794702529898,-0.0052814858436587096
0.68969696969697,0.000637019062042238,0.17717802515029898,0.0354338461875913
0.69030303030303,0.0796726635932922,-0.0240036154747009,0.042618904781341296
0.690909090909091,-0.14545917234420802,-0.12459443578720099,-0.129822501468659
0.691515151515152,-0.0712135668754578,0.011921677494049099,-0.0340217202186587
0.692121212121212,0.115597956562042,0.06700712671279911,0.193505135250091
0.692727272727273,-0.0688185473442078,0.0406619118690491,0.104889412593841
0.693333333333333,-0.111928898906708,-0.12459443578720099,-0.0938972084999087
0.693939393939394,-0.15024921140670802,-0.158124709224701,0.00669361181259129
0.694545454545455,-0.0903737231254578,0.0358718728065491,-0.0268366616249087
0.695151515151515,0.0509324292182922,-0.0527438498497009,0.133629646968841
0.695757575757576,0.146733210468292,0.0981423806190491,0.157579842281341
0.696363636363636,0.0700925854682922,0.0550320290565491,0.0282487875938413
0.696969696969697,-0.047263371562957804,-0.155729689693451,0.174344979000091
0.697575757575758,-0.0807936450004578,-0.0814840842247009,0.152789803218841
0.698181818181818,0.019797175312042198,-0.0168185568809509,0.0186687094688413
0.698787878787879,0.110807917499542,0.0286868142127991,0.0545940024375913
0.699393939393939,-0.0185231371879578,0.12209257593154901,0.143209725093841
0.7,0.0341672924995422,-0.0551388693809509,-0.108267325687409
0.700606060606061,-0.0688185473442078,-0.0240036154747009,-0.41003978662490903
0.701212121212121,-0.0760036059379578,0.0813772439002991,0.009088631343841289
0.701818181818182,0.14433819093704198,-0.105434279537201,0.30846607275009097
0.702424242424242,0.13954815187454198,-0.0024484396934509197,-0.132217520999909
0.703030303030303,0.0054270581245422405,-0.07190400609970089,-0.0579719155311587
0.703636363636364,0.0964378003120422,-0.0359787131309509,-0.0843171303749087
0.704242424242424,0.22816387453079198,-0.138964552974701,-0.223228263187409
0.704848484848485,-0.0304982348442078,0.0909573220252991,-0.0507868569374087
0.705454545454545,0.043747370624542196,0.0358718728065491,0.102494393062591
0.706060606060606,-0.00654803953170776,-0.213210158443451,0.042618904781341296
0.706666666666667,-0.0736085864067078,0.00234159936904908,-0.0172565834999087
0.707272727272727,0.127573054218292,0.189153122806549,0.136024666500091
0.707878787878788,0.0245872143745422,0.256213669681549,0.152789803218841
0.708484848484848,0.141943171405792,-0.225185256099701,-0.163352774906159
0.709090909090909,0.26648418703079196,-0.06950898656845089,0.0641740805625913
0.70969696969697,0.0221921948432922,0.0310818337440491,0.102494393062591
0.71030303030303,-0.0161281176567078,0.155622849369049,-0.00288646631240871
0.710909090909091,-0.0113380785942078,0.059822068119049096,-0.134612540531159
0.711515151515152,-0.0376832934379578,-0.0240036154747009,-0.125032462406159
0.712121212121212,-0.0544484301567078,0.296929001712799,0.162369881343841
0.712727272727273,-0.109533879375458,0.399914841556549,0.0234587485313413
0.713333333333333,-0.0496583910942078,0.169992966556549,-0.0843171303749087
0.713939393939394,-0.15982928953170802,-0.0287936545372009,0.0569890219688413
0.714545454545455,0.0269822339057922,0.059822068119049096,0.107284432125091
0.715151515151515,0.0365623120307922,-0.06950898656845089,-0.151377677249909
0.715757575757576,0.201818659687042,-0.0623239279747009,0.0114836508750913
0.716363636363636,0.043747370624542196,-0.06711396703720089,-0.0555768959999087
0.716969696969697,-0.0304982348442078,-0.004843459224700921,-0.0867121499061587
0.717575757575758,0.14433819093704198,0.011921677494049099,0.138419686031341
0.718181818181818,-0.00654803953170776,-0.194050002193451,0.0737541586875913
0.718787878787879,-0.00654803953170776,0.11730253686904901,0.0737541586875913
0.719393939393939,-0.0304982348442078,0.201128220462799,0.231825447750091
0.72,-0.047263371562957804,0.06461210718154911,0.136024666500091
0.720606060606061,-0.0807936450004578,-0.0359787131309509,-0.182512931156159
0.721212121212121,-0.0113380785942078,-0.162914748287201,-0.0795270913124087
0.721818181818182,-0.15024921140670802,0.11730253686904901,0.131234627437591
0.722424242424242,-0.15982928953170802,-0.0623239279747009,0.0330388266563413
0.723030303030303,0.0174021557807922,-0.143754592037201,0.0450139243125913
0.723636363636364,0.0796726635932922,0.129277634525299,0.0593840415000913
0.724242424242424,0.0700925854682922,-0.150939650630951,-0.0292316811561587
0.724848484848485,0.235348933124542,-0.289850783443451,-0.194488028812409
0.725454545454545,-0.0352882739067078,-0.0335836935997009,0.08812427587509129
0.726060606060606,-0.114323918437958,-0.0359787131309509,0.212665291500091
0.726666666666667,0.0413523510932922,-0.172494826412201,0.138419686031341
0.727272727272727,0.0605125073432922,-0.0934591818809509,0.0977043540000913
0.727878787878788,0.137153132343292,-0.021608595943450902,0.136024666500091
0.728484848484849,-0.00415302000045776,0.0454519509315491,0.121654549312591
0.729090909090909,0.19463360109329197,-0.0455587912559509,-0.0388117592811587
0.72969696969697,0.21858379640579198,-0.282665724849701,-0.21364818506240899
0.73030303030303,0.0772776440620422,-0.155729689693451,0.155184822750091
0.730909090909091,0.0269822339057922,0.258608689212799,0.322836189937591
0.731515151515152,-0.0161281176567078,0.0454519509315491,0.660533943843841
0.732121212121212,0.0461423901557922,0.0430569314002991,0.284515877437591
0.732727272727273,-0.111928898906708,-0.0575338889122009,-0.0699470131874087
0.733333333333333,-0.0496583910942078,-0.06950898656845089,0.0354338461875913
0.733939393939394,0.271274226093292,0.12209257593154901,-0.0819221108436587
0.734545454545455,-0.320295598125458,0.059822068119049096,0.0210637290000913
0.735151515151515,-0.15503925046920802,0.11490751733779901,-0.0148615639686587
0.735757575757576,0.115597956562042,-0.229975295162201,-0.125032462406159
0.736363636363636,0.0557224682807922,-0.110224318599701,-0.0843171303749087
0.736969696969697,0.108412897968292,0.12688261499404901,0.203085213375091
0.737575757575758,-0.277185246562958,0.0789822243690491,-0.0938972084999087
0.738181818181818,-0.00415302000045776,-0.06950898656845089,0.186320076656341
0.738787878787879,-0.0903737231254578,-0.0479538107872009,-0.0148615639686587
0.739393939393939,-0.0185231371879578,-0.13177949438095102,0.179135018062591
0.74,0.0700925854682922,-0.0527438498497009,0.159974861812591
0.740606060606061,-0.0807936450004578,0.0430569314002991,0.195900154781341
0.741212121212121,-0.0568434496879578,0.011921677494049099,0.26056568212509096
0.741818181818182,-0.0281032153129578,0.282558884525299,0.0689641196250913
0.742424242424242,0.0988328198432922,0.12209257593154901,0.08812427587509129
0.743030303030303,-0.202939641094208,-0.0742990256309509,-0.0723420327186587
0.743636363636364,0.103622858905792,-0.158124709224701,-0.0531818764686587
0.744242424242424,0.17786846437454198,0.10293241968154901,0.0713591391563413
0.744848484848485,0.000637019062042238,0.143647751712799,-0.0459968178749087
0.745454545454545,-0.102348820781708,0.0143166970252991,-0.125032462406159
0.746060606060606,-0.0544484301567078,-0.184469924068451,0.140814705562591
0.746666666666667,0.0700925854682922,-0.280270705318451,0.0378288657188413
0.747272727272727,-0.104743840312958,-0.00963349828720092,0.119259529781341
0.747878787878788,0.0245872143745422,-0.134174513912201,-0.0364167397499087
0.748484848484849,-0.00654803953170776,0.0071316384315490795,0.0713591391563413
0.749090909090909,0.13954815187454198,0.023896775150299098,0.212665291500091
0.74969696969697,0.0653025464057922,-0.021608595943450902,-0.211253165531159
0.75030303030303,0.115597956562042,-0.0479538107872009,-0.0483918374061587
0.750909090909091,-0.00894305906295776,0.0382668923377991,0.191110115718841
0.751515151515151,0.201818659687042,0.06940214624404911,0.152789803218841
0.752121212121212,0.137153132343292,-0.213210158443451,-0.0699470131874087
0.752727272727273,-0.0568434496879578,0.059822068119049096,-0.0651569741249087
0.753333333333333,0.0174021557807922,0.11251249780654901,0.200690193843841
0.753939393939394,-0.0448683520317078,-0.0479538107872009,0.0761491782188413
0.754545454545455,0.132363093280792,-0.107829299068451,-0.0507868569374087
0.755151515151515,0.180263483905792,-0.021608595943450902,-0.0436017983436587
0.755757575757576,0.137153132343292,0.169992966556549,0.0857292563438413
0.756363636363636,0.010217097187042199,0.0286868142127991,-0.0579719155311587
0.756969696969697,0.0413523510932922,-0.0240036154747009,-0.120242423343659
0.757575757575758,-0.0831886645317078,0.06700712671279911,-0.144192618656159
0.758181818181818,-0.157434270000458,-0.0168185568809509,-0.206463126468659
0.758787878787879,0.0509324292182922,-0.244345412349701,0.0953093344688413
0.759393939393939,-0.023313176250457802,-0.0886691428184509,-0.108267325687409
0.76,-0.0879787035942078,0.11251249780654901,-0.285498770999909
0.760606060606061,0.0365623120307922,0.00952665796279908,-0.302263907718659
0.761212121212121,0.16828838624954198,-0.227580275630951,0.397081795406341
0.761818181818182,0.16828838624954198,-0.06711396703720089,0.507252693843841
0.762424242424242,0.0317722729682922,0.12209257593154901,-0.108267325687409
0.763030303030303,0.0461423901557922,-0.00723847875595092,-0.0268366616249087
0.763636363636364,0.16349834718704198,0.0334768532752991,-0.0507868569374087
0.764242424242424,0.161103327655792,0.0071316384315490795,0.0114836508750913
0.764848484848485,0.0245872143745422,0.0478469704627991,0.0833342368125913
0.765454545454545,0.16349834718704198,0.0430569314002991,-0.0555768959999087
0.766060606060606,0.115597956562042,-0.194050002193451,0.138419686031341
0.766666666666667,0.0820676831245422,-0.112619338130951,0.198295174312591
0.767272727272727,0.0126121167182922,0.184363083744049,0.0569890219688413
0.767878787878788,0.0940427807807922,0.10772245874404901,0.198295174312591
0.768484848484848,-0.0424733325004578,-0.318591017818451,-0.0340217202186587
0.769090909090909,-0.121508977031708,-0.0407687521934509,-0.113057364749909
0.76969696969697,0.127573054218292,-0.0240036154747009,0.08812427587509129
0.77030303030303,-0.15503925046920802,-0.0455587912559509,0.042618904781341296
0.770909090909091,0.00303203859329224,0.196338181400299,0.0641740805625913
0.771515151515151,0.043747370624542196,0.0981423806190491,-0.132217520999909
0.772121212121212,0.0940427807807922,-0.14135957250595102,0.0450139243125913
0.772727272727273,0.264089167499542,-0.0910641623497009,0.0498039633750913
0.773333333333333,-0.0760036059379578,0.011921677494049099,-0.170537833499909
0.773939393939394,-0.0831886645317078,-0.297035842037201,0.0929143149375913
0.774545454545455,0.101227839374542,-0.143754592037201,0.0162736899375913
0.775151515151515,0.0557224682807922,-0.021608595943450902,0.0330388266563413
0.775757575757576,0.0533274487495422,-0.126989455318451,0.100099373531341
0.776363636363636,0.043747370624542196,0.06940214624404911,0.08812427587509129
0.776969696969697,-0.0760036059379578,0.10772245874404901,0.0282487875938413
0.777575757575758,0.16349834718704198,-0.167704787349701,-0.0316267006874087
0.778181818181818,0.0581174878120422,-0.0742990256309509,0.0330388266563413
0.778787878787879,0.0269822339057922,-0.06950898656845089,0.157579842281341
0.779393939393939,-0.0855836840629578,-0.105434279537201,-0.0388117592811587
0.78,-0.167014348125458,0.11251249780654901,-0.0962922280311587
0.780606060606061,-0.0568434496879578,-0.059928908443450904,-0.0579719155311587
0.781212121212121,0.151523249530792,-0.330566115474701,0.0737541586875913
0.781818181818182,0.192238581562042,-0.167704787349701,0.152789803218841
0.782424242424242,-0.243654973125458,0.0406619118690491,-0.0699470131874087
0.783030303030303,-0.17659442625045801,-0.170099806880951,-0.0100715249061587
0.783636363636364,0.187448542499542,-0.184469924068451,-0.0388117592811587
0.784242424242424,0.201818659687042,0.0885623024940491,-0.199278067874909
0.784848484848485,-0.023313176250457802,0.0837722634315491,-0.0124665444374087
0.785454545454545,0.108412897968292,-0.11980439672470099,-0.0052814858436587096
0.786060606060606,0.141943171405792,-0.0838791037559509,0.0234587485313413
0.786666666666667,-0.0736085864067078,0.11969755640029901,0.162369881343841
0.787272727272727,0.17786846437454198,-0.0766940451622009,0.102494393062591
0.787878787878788,0.0844627026557922,-0.103039260005951,0.121654549312591
0.788484848484848,-0.126299016094208,0.06461210718154911,0.00669361181259129
0.789090909090909,0.132363093280792,0.15801786890029898,-0.0507868569374087
0.78969696969697,0.161103327655792,0.0813772439002991,-0.0124665444374087
0.79030303030303,-0.0975587817192078,-0.0168185568809509,0.0521989829063413
0.790909090909091,-0.22928485593795803,-0.0383737326622009,0.0210637290000913
0.791515151515152,0.0413523510932922,-0.0240036154747009,0.583893318843841
0.792121212121212,-0.0736085864067078,0.136462693119049,0.133629646968841
0.792727272727273,0.117992976093292,-0.11980439672470099,-0.216043204593659
0.793333333333333,0.20421367921829198,-0.14135957250595102,0.179135018062591
0.793939393939394,-0.047263371562957804,0.0334768532752991,-0.156167716312409
0.794545454545455,-0.013733098125457801,-0.14135957250595102,-0.187302970218659
0.795151515151515,0.180263483905792,-0.103039260005951,0.0689641196250913
0.795757575757576,0.13954815187454198,-0.059928908443450904,-0.105872306156159
0.796363636363636,-0.0161281176567078,0.208313279056549,0.0138786704063413
0.796969696969697,0.0772776440620422,0.0933523415565491,0.227035408687591
0.797575757575758,-0.0209181567192078,-0.0790890646934509,-0.0531818764686587
0.798181818181818,0.0245872143745422,-0.0982492209434509,0.181530037593841
0.798787878787879,-0.0736085864067078,0.0167117165565491,-0.0675519936561587
0.799393939393939,-0.231679875469208,-0.0287936545372009,0.0785441977500913
0.8,-0.22449481687545803,-0.0551388693809509,-0.0555768959999087
0.800606060606061,0.0844627026557922,0.15801786890029898,-0.0891071694374087
0.801212121212121,0.201818659687042,-0.0455587912559509,0.102494393062591
0.801818181818182,-0.0927687426567078,-0.215605177974701,-0.0052814858436587096
0.802424242424242,-0.16461932859420803,-0.143754592037201,0.11446949071884101
0.803030303030303,0.0317722729682922,-0.203630080318451,0.0689641196250913
0.803636363636364,0.010217097187042199,-0.220395217037201,0.0545940024375913
0.804242424242424,-0.0879787035942078,0.246633591556549,0.0521989829063413
0.804848484848485,0.00303203859329224,-0.0359787131309509,0.08812427587509129
0.805454545454545,-0.013733098125457801,-0.0934591818809509,-0.0603669350624087
0.806060606060606,0.0317722729682922,0.011921677494049099,0.0857292563438413
0.806666666666667,0.14912822999954198,-0.059928908443450904,-0.024441642093658702
0.807272727272727,0.0892527417182922,-0.0790890646934509,0.0162736899375913
0.807878787878788,-0.0161281176567078,-0.134174513912201,0.0330388266563413
0.808484848484848,-0.0448683520317078,-0.0383737326622009,-0.204068106937409
0.809090909090909,0.0293772534370422,0.00952665796279908,0.0929143149375913
0.80969696969697,0.170683405780792,0.15801786890029898,-0.00767650537490871
0.81030303030303,0.0844627026557922,0.184363083744049,0.0953093344688413
0.810909090909091,-0.00415302000045776,-0.0144235373497009,0.150394783687591
0.811515151515152,0.125178034687042,0.07419218530654911,0.14560474462509101
0.812121212121212,0.0940427807807922,-0.158124709224701,0.284515877437591
0.812727272727273,-0.0879787035942078,-0.021608595943450902,-0.194488028812409
0.813333333333333,0.297619440937042,0.193943161869049,-0.129822501468659
0.813939393939394,0.0485374096870422,-5.34201622009196e-05,-0.151377677249909
0.814545454545455,-0.0760036059379578,-0.0742990256309509,-0.0891071694374087
0.815151515151515,0.108412897968292,-0.12459443578720099,0.104889412593841
0.815757575757576,-0.0855836840629578,0.11490751733779901,0.107284432125091
0.816363636363636,0.0676975659370422,0.0310818337440491,0.0498039633750913
0.816969696969697,0.0892527417182922,-0.0383737326622009,-0.0364167397499087
0.817575757575758,-0.00415302000045776,0.0310818337440491,0.0665691000938413
0.818181818181818,-0.0209181567192078,0.06461210718154911,0.121654549312591
0.818787878787879,0.18505352296829197,0.00952665796279908,0.0186687094688413
0.819393939393939,0.000637019062042238,-0.00963349828720092,0.507252693843841
0.82,-0.0903737231254578,-0.00963349828720092,0.41145191259384095
0.820606060606061,-0.0975587817192078,0.17238798608779898,-0.34776927881240904
0.821212121212121,0.15870830812454198,0.174783005619049,0.248590584468841
0.821818181818182,0.108412897968292,0.12688261499404901,0.102494393062591
0.822424242424242,-0.0520534106254578,-0.0910641623497009,-0.105872306156159
0.823030303030303,-0.0328932543754578,0.11490751733779901,0.0809392172813413
0.823636363636364,0.0221921948432922,0.06461210718154911,0.0114836508750913
0.824242424242424,0.235348933124542,-0.0168185568809509,0.126444588375091
0.824848484848485,-0.0688185473442078,0.141252732181549,-0.199278067874909
0.825454545454545,-0.0783986254692078,-5.34201622009196e-05,-0.180117911624909
0.826060606060606,0.122783015155792,0.12209257593154901,-0.024441642093658702
0.826666666666667,0.16828838624954198,-0.14135957250595102,-0.0962922280311587
0.827272727272727,0.0221921948432922,-0.134174513912201,-0.127427481937409
0.827878787878788,-0.0951637621879578,0.11011747827529901,-0.275918692874909
0.828484848484848,0.108412897968292,-0.261110549068451,-0.0388117592811587
0.829090909090909,0.106017878437042,-0.0311886740684509,0.0258537680625913
0.82969696969697,0.0724876049995422,0.07419218530654911,0.140814705562591
0.83030303030303,-0.0400783129692078,-0.258715529537201,0.0617790610313413
0.830909090909091,-0.20054462156295802,-0.100644240474701,-0.165747794437409
0.831515151515152,0.0341672924995422,-0.0287936545372009,0.0689641196250913
0.832121212121212,-0.0113380785942078,0.023896775150299098,-0.0699470131874087
0.832727272727273,-0.0161281176567078,-0.0455587912559509,-0.132217520999909
0.833333333333333,0.019797175312042198,-0.0431637717247009,0.0785441977500913
0.833939393939394,0.0533274487495422,0.023896775150299098,-0.0555768959999087
0.834545454545455,-0.0352882739067078,-0.215605177974701,-0.0196516030311587
0.835151515151515,0.137153132343292,-0.0862741232872009,-0.0436017983436587
0.835757575757576,-0.0831886645317078,0.146042771244049,0.0402238852500913
0.836363636363636,-0.0807936450004578,0.136462693119049,-0.0723420327186587
0.836969696969697,0.268879206562042,0.07419218530654911,-0.0627619545936587
0.837575757575758,0.043747370624542196,0.0143166970252991,0.0761491782188413
0.838181818181818,-0.0400783129692078,-0.0479538107872009,-0.120242423343659
0.838787878787879,-0.0855836840629578,-0.00723847875595092,-0.108267325687409
0.839393939393939,0.0916477612495422,0.0789822243690491,0.152789803218841
0.84,0.0269822339057922,-0.13656953344345102,0.042618904781341296
0.840606060606061,0.0365623120307922,-0.0814840842247009,-0.0627619545936587
0.841212121212121,0.25690410890579196,-0.0287936545372009,0.155184822750091
0.841818181818182,0.165893366718292,0.0382668923377991,0.0282487875938413
0.842424242424242,0.0245872143745422,0.141252732181549,0.0569890219688413
0.843030303030303,-0.0712135668754578,-0.14614961156845102,-0.196883048343659
0.843636363636364,-0.121508977031708,0.12688261499404901,-0.0459968178749087
0.844242424242424,0.00303203859329224,0.021501755619049098,0.14560474462509101
0.844848484848485,0.13475811281204197,-0.14614961156845102,0.0378288657188413
0.845454545454545,0.0317722729682922,0.0478469704627991,-0.0148615639686587
0.846060606060606,-0.0448683520317078,-0.07190400609970089,0.14560474462509101
0.846666666666667,-0.22928485593795803,0.10053740015029901,0.0138786704063413
0.847272727272727,-0.0352882739067078,0.0981423806190491,-0.0771320717811587
0.847878787878788,0.0820676831245422,0.10053740015029901,0.176739998531341
0.848484848484849,-0.0664235278129578,0.16759794702529898,-0.0172565834999087
0.849090909090909,0.0126121167182922,0.12209257593154901,0.181530037593841
0.84969696969697,-0.0855836840629578,-0.0192135764122009,-0.25915355615615904
0.85030303030303,0.115597956562042,0.146042771244049,-0.0507868569374087
0.850909090909091,0.000637019062042238,-0.148544631099701,0.653348885250091
0.851515151515152,0.0557224682807922,-0.155729689693451,0.210270271968841
0.852121212121212,0.0054270581245422405,0.155622849369049,-0.0507868569374087
0.852727272727273,-0.14066913328170802,-0.110224318599701,0.00190357275009129
0.853333333333333,0.230558894062042,0.21789335718154898,-0.09150218896865871
0.853939393939394,0.0557224682807922,0.165202927494049,0.0282487875938413
0.854545454545454,-0.119113957500458,-0.059928908443450904,0.159974861812591
0.855151515151515,0.115597956562042,-0.021608595943450902,0.0354338461875913
0.855757575757576,0.0245872143745422,-0.20602509984970102,0.30128101415634095
0.856363636363636,0.0964378003120422,-0.19644502172470102,0.155184822750091
0.856969696969697,0.125178034687042,0.06940214624404911,0.0977043540000913
0.857575757575758,-0.119113957500458,0.07179716577529911,0.0689641196250913
0.858181818181818,-0.0544484301567078,-0.14614961156845102,-0.0124665444374087
0.858787878787879,0.0700925854682922,0.0478469704627991,-0.0483918374061587
0.859393939393939,-0.162224309062958,-0.11740937719345099,0.0545940024375913
0.86,-0.198149602031708,-0.165309767818451,0.0641740805625913
0.860606060606061,-0.0712135668754578,-0.0742990256309509,-0.132217520999909
0.861212121212121,-0.0304982348442078,-0.021608595943450902,0.0689641196250913
0.861818181818182,0.13475811281204197,0.12209257593154901,0.155184822750091
0.862424242424242,0.0341672924995422,-0.0790890646934509,-0.0052814858436587096
0.863030303030303,0.18265850343704199,-0.00963349828720092,-0.189697989749909
0.863636363636364,0.0916477612495422,-0.06711396703720089,-0.0867121499061587
0.864242424242424,-0.0496583910942078,-0.268295607662201,0.0354338461875913
0.864848484848485,0.24971905031204197,-0.13177949438095102,-0.158562735843659
0.865454545454545,0.101227839374542,0.0622170876502991,-0.184907950687409
0.866060606060606,-0.0688185473442078,0.10053740015029901,0.00190357275009129
0.866666666666667,0.0245872143745422,0.143647751712799,-0.101082267093659
0.867272727272727,0.141943171405792,-0.0790890646934509,0.0689641196250913
0.867878787878788,0.106017878437042,-0.249135451412201,0.11207447118759101
0.868484848484849,-0.0496583910942078,-0.0311886740684509,-0.120242423343659
0.869090909090909,-0.14545917234420802,0.0262917946815491,-0.247178458499909
0.86969696969697,-0.00175800046920776,-0.0455587912559509,0.0641740805625913
0.87030303030303,0.0796726635932922,0.07179716577529911,0.14560474462509101
0.870909090909091,-0.0664235278129578,0.0478469704627991,-0.144192618656159
0.871515151515151,-0.0688185473442078,0.06461210718154911,-0.0364167397499087
0.872121212121212,-0.102348820781708,0.0526370095252991,0.227035408687591
0.872727272727273,-0.0113380785942078,-0.167704787349701,0.183925057125091
0.873333333333333,0.17786846437454198,0.165202927494049,0.11207447118759101
0.873939393939394,-0.109533879375458,0.0765872048377991,-0.132217520999909
0.874545454545455,-0.109533879375458,0.11490751733779901,-0.103477286624909
0.875151515151515,0.0605125073432922,0.0310818337440491,0.102494393062591
0.875757575757576,-0.0640285082817078,-0.287455763912201,0.179135018062591
0.876363636363636,-0.102348820781708,0.0430569314002991,0.11446949071884101
0.876969696969697,-0.121508977031708,0.0789822243690491,0.0210637290000913
0.877575757575758,-0.0304982348442078,0.146042771244049,0.0857292563438413
0.878181818181818,-0.0688185473442078,-0.0240036154747009,0.0330388266563413
0.878787878787879,0.0126121167182922,-0.14614961156845102,-0.0436017983436587
0.879393939393939,0.113202937030792,-0.110224318599701,-0.0388117592811587
0.88,0.0461423901557922,-0.194050002193451,-0.0531818764686587
0.880606060606061,0.0269822339057922,0.023896775150299098,-0.323819083499909
0.881212121212121,-0.00415302000045776,0.011921677494049099,0.219850350093841
0.881818181818182,0.13954815187454198,-0.11740937719345099,0.718014412593841
0.882424242424242,0.0748826245307922,-0.0168185568809509,0.133629646968841
0.883030303030303,0.0629075268745422,-0.0168185568809509,0.0330388266563413
0.883636363636364,0.0820676831245422,-0.0862741232872009,0.14560474462509101
0.884242424242424,0.0796726635932922,-0.0838791037559509,0.126444588375091
0.884848484848485,0.0581174878120422,-0.0383737326622009,0.00429859228134129
0.885454545454545,0.0844627026557922,0.0909573220252991,-0.0148615639686587
0.886060606060606,-0.0688185473442078,-0.0886691428184509,0.0210637290000913
0.886666666666667,-0.114323918437958,0.11251249780654901,-0.127427481937409
0.887272727272727,0.0413523510932922,0.124487595462799,-0.139402579593659
0.887878787878788,-0.0951637621879578,-0.134174513912201,0.0162736899375913
0.888484848484848,-0.0592384692192078,-0.0958542014122009,-0.0340217202186587
0.889090909090909,0.0293772534370422,-0.100644240474701,-0.168142813968659
0.88969696969697,-0.121508977031708,0.0071316384315490795,-0.0196516030311587
0.89030303030303,-0.0424733325004578,0.0358718728065491,-0.144192618656159
0.890909090909091,0.106017878437042,0.11730253686904901,0.0306438071250913
0.891515151515151,-0.152644230937958,0.0622170876502991,-0.12263744287490899
0.892121212121212,-0.188569523906708,0.0191067360877991,-0.0962922280311587
0.892727272727273,-0.0975587817192078,-0.19165498266220102,-0.194488028812409
0.893333333333333,-0.00175800046920776,-0.26350556859970103,-0.206463126468659
0.893939393939394,0.000637019062042238,-0.13177949438095102,-0.0172565834999087
0.894545454545455,0.0892527417182922,0.07419218530654911,0.215060311031341
0.895151515151515,0.187448542499542,-0.00963349828720092,0.0785441977500913
0.895757575757576,0.0629075268745422,-0.021608595943450902,-0.25675853662490905
0.896363636363636,-0.202939641094208,-0.138964552974701,0.0162736899375913
0.896969696969697,0.0245872143745422,-0.26350556859970103,-0.0579719155311587
0.897575757575758,0.0844627026557922,-0.0287936545372009,-0.0843171303749087
0.898181818181818,0.0653025464057922,-0.0862741232872009,0.0354338461875913
0.898787878787879,0.15870830812454198,-0.07190400609970089,0.0186687094688413
0.899393939393939,-0.16461932859420803,-0.0359787131309509,0.143209725093841
0.9,-0.0568434496879578,0.12209257593154901,-0.0316267006874087
0.900606060606061,-0.0855836840629578,-0.134174513912201,-0.09150218896865871
0.901212121212121,-0.19096454343795802,0.0526370095252991,0.231825447750091
0.901818181818182,0.117992976093292,-0.00723847875595092,0.203085213375091
0.902424242424242,0.0772776440620422,-0.103039260005951,0.0761491782188413
0.903030303030303,0.17307842531204198,0.10053740015029901,-0.0196516030311587
0.903636363636364,0.187448542499542,-0.0287936545372009,-0.09150218896865871
0.904242424242424,0.0317722729682922,-0.100644240474701,0.00429859228134129
0.904848484848485,0.000637019062042238,-0.174889845943451,-0.0364167397499087
0.905454545454545,0.0653025464057922,0.0334768532752991,0.217455330562591
0.906060606060606,0.000637019062042238,-0.0623239279747009,0.133629646968841
0.906666666666667,-0.102348820781708,0.0382668923377991,0.042618904781341296
0.907272727272727,0.0461423901557922,-0.00723847875595092,0.30846607275009097
0.907878787878788,-0.0328932543754578,-0.0790890646934509,0.128839607906341
0.908484848484848,0.0557224682807922,0.0933523415565491,0.11446949071884101
0.909090909090909,0.0629075268745422,0.0574270485877991,0.102494393062591
0.90969696969697,-0.0664235278129578,-0.110224318599701,-0.158562735843659
0.91030303030303,0.0772776440620422,0.12688261499404901,0.425822029781341
0.910909090909091,0.115597956562042,-5.34201622009196e-05,0.6485588461875911
0.911515151515152,-0.0783986254692078,-0.0838791037559509,-0.304658927249909
0.912121212121212,0.0413523510932922,-0.004843459224700921,-0.26633861474990905
0.912727272727273,0.0629075268745422,-0.19644502172470102,0.0545940024375913
0.913333333333333,-0.0304982348442078,-0.0766940451622009,-0.0507868569374087
0.913939393939394,0.0317722729682922,0.150832810306549,-0.0436017983436587
0.914545454545455,0.146733210468292,0.22268339624404898,0.176739998531341
0.915151515151515,-0.0903737231254578,0.0837722634315491,0.150394783687591
0.915757575757576,0.0150071362495422,0.16759794702529898,-0.0100715249061587
0.916363636363636,0.0796726635932922,0.22268339624404898,0.155184822750091
0.916969696969697,0.0820676831245422,0.059822068119049096,0.143209725093841
0.917575757575758,0.000637019062042238,-0.0910641623497009,0.0498039633750913
0.918181818181818,-0.171804387187958,-0.103039260005951,0.0785441977500913
0.918787878787879,0.206608698749542,-0.25392549047470103,0.147999764156341
0.919393939393939,0.17786846437454198,0.11251249780654901,0.0665691000938413
0.92,0.0844627026557922,0.136462693119049,-0.261548575687409
0.920606060606061,-0.0688185473442078,0.0406619118690491,0.0521989829063413
0.921212121212121,-0.14545917234420802,-0.00963349828720092,0.121654549312591
0.921818181818182,0.019797175312042198,0.00234159936904908,0.131234627437591
0.922424242424242,0.101227839374542,0.186758103275299,0.227035408687591
0.923030303030303,0.125178034687042,-0.17728486547470101,-0.165747794437409
0.923636363636364,0.0509324292182922,-0.12219941625595099,0.0665691000938413
0.924242424242424,-0.18138446531295802,0.10053740015029901,0.234220467281341
0.924848484848485,0.0772776440620422,-0.107829299068451,0.255775643062591
0.925454545454545,0.00303203859329224,-0.06950898656845089,0.0737541586875913
0.926060606060606,-0.183779484844208,0.179573044681549,-0.151377677249909
0.926666666666667,0.170683405780792,0.0789822243690491,0.00190357275009129
0.927272727272727,0.201818659687042,0.0310818337440491,0.0210637290000913
0.927878787878788,-0.0927687426567078,0.179573044681549,0.0641740805625913
0.928484848484848,0.0293772534370422,0.0909573220252991,0.136024666500091
0.929090909090909,0.106017878437042,-0.112619338130951,0.155184822750091
0.92969696969697,0.0533274487495422,-0.0192135764122009,0.255775643062591
0.93030303030303,0.22337383546829198,-0.07190400609970089,0.109679451656341
0.930909090909091,0.220978815937042,-0.0240036154747009,-0.00767650537490871
0.931515151515152,-0.00175800046920776,0.0813772439002991,0.0474089438438413
0.932121212121212,-0.315505559062958,-0.0838791037559509,0.102494393062591
0.932727272727273,-0.047263371562957804,0.0286868142127991,0.100099373531341
0.933333333333333,0.235348933124542,0.191548142337799,0.0785441977500913
0.933939393939394,0.0653025464057922,-0.12459443578720099,-0.0292316811561587
0.934545454545455,-0.0688185473442078,-0.273085646724701,0.009088631343841289
0.935151515151515,0.0126121167182922,0.021501755619049098,0.0138786704063413
0.935757575757576,0.264089167499542,0.0262917946815491,-0.0795270913124087
0.936363636363636,0.137153132343292,-0.0455587912559509,-0.0148615639686587
0.936969696969697,-0.217309758281708,-0.0766940451622009,-0.09150218896865871
0.937575757575758,-0.0209181567192078,-0.021608595943450902,-0.0723420327186587
0.938181818181818,0.151523249530792,0.00952665796279908,0.0378288657188413
0.938787878787879,0.0221921948432922,-0.0455587912559509,0.0402238852500913
0.939393939393939,-0.0616334887504578,0.00234159936904908,-0.129822501468659
0.94,-0.0831886645317078,0.10532743921279901,-0.0819221108436587
0.940606060606061,-0.102348820781708,0.00234159936904908,-0.182512931156159
0.941212121212121,-0.0448683520317078,-0.11980439672470099,0.404266854000091
0.941818181818182,0.0413523510932922,0.10053740015029901,0.761124764156341
0.942424242424242,0.0868577221870422,0.07419218530654911,0.0905192954063413
0.943030303030303,0.0461423901557922,-0.112619338130951,-0.0507868569374087
0.943636363636364,0.115597956562042,0.323274216556549,0.181530037593841
0.944242424242424,-0.15982928953170802,0.16280790796279898,0.00190357275009129
0.944848484848485,-0.119113957500458,-0.0359787131309509,0.0785441977500913
0.945454545454545,0.0557224682807922,0.134067673587799,-0.0555768959999087
0.946060606060606,0.0269822339057922,0.0765872048377991,-0.00767650537490871
0.946666666666667,0.103622858905792,-0.203630080318451,0.0162736899375913
0.947272727272727,-0.0951637621879578,-0.129384474849701,-0.0579719155311587
0.947878787878788,0.0413523510932922,0.27537382593154897,0.128839607906341
0.948484848484848,0.0509324292182922,0.0813772439002991,-0.0986872475624087
0.949090909090909,0.000637019062042238,-0.0024484396934509197,0.009088631343841289
0.94969696969697,0.0221921948432922,0.179573044681549,0.0378288657188413
0.95030303030303,0.0413523510932922,0.06700712671279911,0.0402238852500913
0.950909090909091,0.120387995624542,-0.11740937719345099,-0.132217520999909
0.951515151515152,0.283249323749542,0.155622849369049,0.0665691000938413
0.952121212121212,0.0341672924995422,0.0813772439002991,0.0234587485313413
0.952727272727273,-0.013733098125457801,-0.0958542014122009,0.131234627437591
0.953333333333333,0.156313288593292,-0.0766940451622009,0.0785441977500913
0.953939393939394,-0.0496583910942078,-0.134174513912201,-0.0891071694374087
0.954545454545455,-0.023313176250457802,0.0526370095252991,0.0809392172813413
