Time (s),Accel X (m/s^2),Accel Y (m/s^2),Accel Z (m/s^2)
0.0,-0.0145013754844665,-0.045388146114349395,0.0622866929054259
0.000605693519079346,-0.122277254390717,0.146213416385651,0.0958169663429259
0.00121138703815869,-0.07198184423446649,0.0384375374794006,0.11737214212417599
0.00181708055723804,0.0980645424842835,-0.0597582633018494,0.13653229837417602
0.00242277407631738,0.117224698734283,-0.0621532828330994,0.0359414780616759
0.00302846759539673,-0.179757723140717,0.040832557010650604,-0.179610279750824
0.00363416111447607,0.0573492104530335,0.004907264041900621,0.0239663804054259
0.00423985463355542,-0.0264764731407165,-0.0286230093955994,0.021571360874175903
0.00484554815263477,0.0525591713905335,-0.08610347814559939,0.100607005405426
0.00545124167171411,0.14596493310928302,0.103103064823151,0.057496653842925904
0.00605693519079346,0.117224698734283,-0.0693383414268494,0.0742617905616759
0.0066626287098728,0.0717193276405335,-0.0669433218955994,-0.026329029750824098
0.00726832222895215,-0.07916690282821649,0.043227576541900604,0.0431265366554259
0.0078740157480315,-0.115092195796967,-0.042993126583099395,0.153297435092926
0.00847970926711084,0.236975675296783,-0.18908931798934903,-0.0119589125633241
0.00908540278619019,-0.0456366293907165,0.0360425179481506,0.158087474155426
0.00969109630526953,-0.103117098140717,0.13423831872940098,0.12216218118667599
0.0102967898243489,-0.0192914145469665,-0.0573632437705994,-0.225115650844574
0.0109024833434282,-0.028871492671966502,-0.0765234000205994,-0.27301604146957403
0.0115081768625076,0.148359952640533,0.12944827966690098,0.684991771030426
0.0121138703815869,0.129199796390533,0.20848392419815098,0.519735423374176
0.0127195639006663,0.153149991703033,0.040832557010650604,-0.124524830532074
0.0133252574197456,-0.0121063559532165,0.004907264041900621,0.17724763040542602
0.013930950938825,0.00944881982803346,-0.08370845861434939,0.0838418686866759
0.0145366444579043,0.0525591713905335,-0.0334130484580994,0.0239663804054259
0.0151423379769836,0.0142388588905335,-0.09089351720809939,-0.059859303188324095
0.015748031496063,0.107644620609283,0.050412635135650606,0.280233470249176
0.0163537250151423,0.100459562015533,-0.10286861486434899,0.263468333530426
0.0169594185342217,0.0812994057655335,0.0695727913856506,-0.00716887350082415
0.017565112053301,-0.06479678564071649,-0.00227779455184938,0.222753001499176
0.0181708055723804,-0.07677188329696649,-0.23938472814559902,0.20119782571792602
0.0187764990914597,0.112434659671783,0.0144873421669006,0.0455215561866759
0.0193821926105391,-0.0839569418907165,0.0599927132606506,0.004806224155425851
0.0199878861296184,-0.131857332515717,0.0743628304481506,-0.11494475240707401
0.0205935796486978,-0.009711336421966539,-0.14118892736434902,0.148507396030426
0.0211992731677771,0.0765093667030335,-0.16513912267684902,0.25388825540542603
0.0218049666868564,0.107644620609283,0.0216724007606506,0.19161774759292602
0.0224106602059358,0.0860894448280335,-0.0142528922080994,0.18682770853042602
0.0230163537250151,-0.0240814536094665,-0.138793907833099,-0.124524830532074
0.0236220472440945,-0.0145013754844665,0.048017615604400606,-0.10296965475082401
0.0242277407631738,0.0812994057655335,-0.16034908361434902,0.174852610874176
0.0248334342822532,-0.009711336421966539,-0.0741283804893494,0.11976716165542599
0.0254391278013325,-0.117487215328217,0.0623877327919006,0.057496653842925904
0.0260448213204119,-0.16778262548446699,-0.134003868770599,0.06707673196792589
0.0266505148394912,0.184285245609283,0.09112796716690061,-0.0766244399070741
0.0272562083585706,0.102854581546783,0.00730228357315062,0.100607005405426
0.0278619018776499,-0.12706729345321702,-0.050178185176849396,0.105397044467926
0.0284675953967293,-0.105512117671967,0.09112796716690061,0.280233470249176
0.0290732889158086,0.0741143471717835,0.05280765466690061,0.208382884311676
0.0296789824348879,0.100459562015533,-0.09328853673934939,0.0886319077491759
0.0302846759539673,-0.201312898921967,0.00730228357315062,-0.0119589125633241
0.0308903694730466,-0.06479678564071649,0.00730228357315062,-0.0454891860008241
0.031496062992126,0.114829679203033,0.0288574593544006,0.24670319681167602
0.0321017565112053,-0.119882234859467,0.127053260135651,0.17245759134292601
0.0327074500302847,0.0741143471717835,-0.08849849767684939,0.0431265366554259
0.033313143549364,0.143569913578033,-0.08849849767684939,0.143717356967926
0.0339188370684434,-0.20849795751571698,-0.122028771114349,0.167667552280426
0.0345245305875227,0.22500057764053302,-0.0549682242393494,0.17245759134292601
0.0351302241066021,0.0765093667030335,0.0360425179481506,-0.0478842055320741
0.0357359176256814,-0.196522859859467,-0.047783165645599396,-0.0454891860008241
0.0363416111447607,-0.13425235204696698,-0.00227779455184938,-0.0454891860008241
0.0369473046638401,-0.119882234859467,0.0120923226356506,-0.0119589125633241
0.0375529981829194,0.129199796390533,-0.157954064083099,0.167667552280426
0.0381586917019988,-0.0192914145469665,0.12944827966690098,0.13653229837417602
0.0387643852210781,0.0812994057655335,-0.0525732047080994,0.0239663804054259
0.0393700787401575,0.184285245609283,0.0719678109169006,-0.18200529928207398
0.0399757722592368,-0.25879336767196703,-0.047783165645599396,-0.256250904750824
0.0405814657783162,-0.0815619223594665,-0.18429927892684903,0.0982119858741759
0.0411871592973955,0.00226376123428346,0.045622596073150605,0.682596751499176
0.0417928528164749,-0.13425235204696698,-0.0645483023643494,0.804742747592926
0.0423985463355542,0.12680477685928299,0.100708045291901,0.112582103061676
0.0430042398546336,0.016633878421783498,-0.138793907833099,-0.0502792250633241
0.0436099333737129,0.00226376123428346,0.0815478890419006,0.0479165757179259
0.0442156268927922,0.0357940346717835,-0.09089351720809939,-0.10775969381332401
0.0448213204118716,-0.000131258296966542,-0.167534142208099,0.0766568100929259
0.0454270139309509,0.20584042139053302,-0.0597582633018494,0.110187083530426
0.0460327074500303,0.0573492104530335,-0.0310180289268494,0.11976716165542599
0.0466384009691096,-0.103117098140717,0.00969730310440062,0.225148021030426
0.047244094488189,0.0262139565467835,-0.0525732047080994,0.11976716165542599
0.0478497880072683,0.0286089760780335,-0.124423790645599,-0.10296965475082401
0.0484554815263477,0.14117489404678302,0.0743628304481506,0.0958169663429259
0.049061175045427,0.13159481592178301,-0.050178185176849396,0.107792063999176
0.0496668685645064,0.0693243081092835,-0.217829552364349,0.110187083530426
0.0502725620835857,0.00944881982803346,-0.09328853673934939,0.00720124368667585
0.050878255602665,0.0190288979530335,-0.186694298458099,0.20119782571792602
0.0514839491217444,-0.06479678564071649,0.105498084354401,0.273048411655426
0.0520896426408237,-0.0336615317344665,0.0767578499794006,0.055101634311675904
0.0526953361599031,0.169915128421783,-0.0645483023643494,-0.136499928188324
0.0533010296789824,-0.0576117270469665,-0.00227779455184938,0.14132233743667602
0.0539067231980618,-0.174967684078217,0.0240674202919006,0.213172923374176
0.0545124167171411,-0.0264764731407165,0.08394290857315061,0.016781321811675902
0.0551181102362205,-0.0121063559532165,-0.047783165645599396,0.0479165757179259
0.0557238037552998,0.102854581546783,-0.0262279898643494,0.059891673374175905
0.0563294972743792,-0.009711336421966539,-0.143583946895599,0.18682770853042602
0.0569351907934585,-0.160597566890717,-0.0741283804893494,1.6185092925851098e-05
0.0575408843125379,0.20105038232803302,0.19890384607315098,0.0143863022804259
0.0581465778316172,0.0789043862342835,0.105498084354401,-0.0862045180320741
0.0587522713506965,-0.119882234859467,0.14381839685440098,-0.06464934225082411
0.0593579648697759,-0.07437686376571649,0.0025122445106506197,0.158087474155426
0.0599636583888552,0.15554501123428302,-0.08131343908309939,0.0622866929054259
0.0605693519079346,0.0333990151405335,0.136633338260651,0.19640778665542602
0.0611750454270139,-0.0312665122032165,-0.126818810176849,0.0622866929054259
0.0617807389460933,0.102854581546783,-0.08370845861434939,-0.00477385396957415
0.0623864324651726,-0.0336615317344665,-0.112448692989349,0.299393626499176
0.062992125984252,0.0238189370155335,-0.22022457189559902,0.138927317905426
0.0635978195033313,-0.0815619223594665,0.13902835779190098,-0.11254973287582401
0.0642035130224107,0.0597442299842835,-0.0238329703330994,-0.134104908657074
0.06480920654149,0.268110929203033,-0.16513912267684902,0.0503115952491759
0.0654149000605694,0.0238189370155335,-0.09328853673934939,-0.11973479146957401
0.0660205935796487,-0.0576117270469665,0.24440921716690098,-0.0383041274070741
0.066626287098728,0.0765093667030335,0.299494666385651,0.165272532749176
0.0672319806178074,0.0765093667030335,0.09352298669815061,-0.289781178188324
0.0678376741368867,0.14596493310928302,0.0623877327919006,0.06468171243667589
0.0684433676559661,-0.0264764731407165,-0.042993126583099395,0.0718667710304259
0.0690490611750454,-0.0815619223594665,0.0288574593544006,0.0790518296241759
0.0696547546941248,0.102854581546783,-0.0765234000205994,0.354479075717926
0.0702604482132041,0.13638485498428302,0.004907264041900621,0.33531891946792597
0.0708661417322835,0.12680477685928299,-0.0166479117393494,0.158087474155426
0.0714718352513628,0.133989835453033,-0.126818810176849,0.459859935092926
0.0720775287704422,0.00226376123428346,0.141423377323151,0.34489899759292597
0.0726832222895215,-0.000131258296966542,0.0623877327919006,0.184432688999176
0.0732889158086008,0.114829679203033,-0.0645483023643494,0.160482493686676
0.0738946093276802,-0.009711336421966539,-0.0238329703330994,-0.0933895766258241
0.0745003028467595,-0.0145013754844665,0.0384375374794006,0.134137278842926
0.0751059963658389,0.193865323734283,0.040832557010650604,0.0024112046241758496
0.0757116898849182,0.06453426904678351,-0.0286230093955994,-0.0191439711570741
0.0763173834039976,-0.165387605953217,0.0767578499794006,0.004806224155425851
0.0769230769230769,0.0238189370155335,-0.222619591426849,0.0431265366554259
0.0775287704421563,0.38067684717178296,0.0144873421669006,0.031151438999175902
0.0781344639612356,0.0597442299842835,0.045622596073150605,0.0958169663429259
0.078740157480315,-0.00492129735946654,-0.112448692989349,-0.0838094985008241
0.0793458509993943,0.22021053857803302,-0.14118892736434902,0.059891673374175905
0.0799515445184737,-0.22765811376571699,-0.167534142208099,-0.026329029750824098
0.080557238037553,0.06453426904678351,0.17016361169815097,-0.170030201625824
0.0811629315566323,-0.0216864340782165,0.08873294763565061,-0.129314869594574
0.0817686250757117,-0.028871492671966502,-0.050178185176849396,0.179642649936676
0.082374318594791,0.0573492104530335,-0.114843712520599,-0.0526742445945741
0.0829800121138704,-0.230053133296967,-0.0597582633018494,-0.0167489516258241
0.0835857056329497,-0.124672273921967,0.09591800622940061,0.5125503647804259
0.0841913991520291,-0.12706729345321702,0.0599927132606506,0.129347239780426
0.0847970926711084,-0.0121063559532165,0.232434119510651,0.18682770853042602
0.0854027861901878,-0.06719180517196649,0.285124549198151,0.057496653842925904
0.0860084797092671,-0.06479678564071649,0.0120923226356506,-0.035909107875824096
0.0866141732283465,0.0453741127967835,0.08394290857315061,-0.028724049282074098
0.0872198667474258,0.0262139565467835,-0.08131343908309939,-0.10296965475082401
0.0878255602665051,0.107644620609283,-0.00227779455184938,0.0934219468116759
0.0884312537855845,0.0429790932655335,0.048017615604400606,0.14132233743667602
0.0890369473046638,-0.0600067465782165,-0.339975548458099,-0.10536467428207401
0.0896426408237432,0.19147030420303301,0.09352298669815061,0.0287564194679259
0.0902483343428225,0.179495206546783,0.0384375374794006,-0.0957845961570741
0.0908540278619019,-0.028871492671966502,-0.0717333609580994,-0.225115650844574
0.0914597213809812,-0.0240814536094665,0.0144873421669006,0.0766568100929259
0.0920654149000606,-0.151017488765717,0.0240674202919006,0.019176341342925902
0.0926711084191399,0.129199796390533,0.040832557010650604,0.103002024936676
0.0932768019382193,-0.0624017661094665,0.0623877327919006,0.167667552280426
0.0938824954572986,-0.0911420004844665,0.13902835779190098,0.14611237649917602
0.094488188976378,-0.00252627782821654,-0.08370845861434939,0.0143863022804259
0.0950938824954573,-0.0983270590782165,-0.0142528922080994,0.160482493686676
0.0956995760145366,0.0333990151405335,-0.00227779455184938,0.0383364975929259
0.096305269533616,-0.189337801265717,-0.0310180289268494,-0.136499928188324
0.0969109630526953,0.06453426904678351,-0.00227779455184938,0.0742617905616759
0.0975166565717747,0.107644620609283,0.0575976937294006,-0.0143539320945741
0.098122350090854,0.0429790932655335,0.0767578499794006,-0.033514088344574096
0.0987280436099334,0.0405840737342835,0.0743628304481506,-0.0430941664695741
0.0993337371290127,-0.0935370200157165,-0.0166479117393494,0.00959626321792585
0.0999394306480921,0.031003995609283498,-0.10286861486434899,0.493390208530426
0.100545124167171,-0.00731631689071654,-0.0118578726768494,0.795162669467926
0.101150817686251,-0.00252627782821654,-0.0166479117393494,-0.0191439711570741
0.10175651120533,-0.244423250484467,0.103103064823151,0.330528880405426
0.102362204724409,-0.06958682470321649,0.21327396326065098,0.18203766946792602
0.102967898243489,0.0381890542030335,0.09112796716690061,0.057496653842925904
0.103573591762568,-0.20370791845321698,-0.0980785758018494,0.222753001499176
0.104179285281647,0.117224698734283,-0.12921382970809903,-0.15805510396957398
0.104784978800727,0.0118438393592835,0.05280765466690061,0.155692454624176
0.105390672319806,-0.0624017661094665,-0.126818810176849,-0.138894947719574
0.105996365838886,-0.0121063559532165,-0.107658653926849,-0.062254322719574096
0.106602059357965,-0.036056551265716504,-0.119633751583099,0.0239663804054259
0.107207752877044,0.12680477685928299,-0.14597896642684902,0.0455215561866759
0.107813446396124,0.0381890542030335,0.0192773812294006,-0.184400318813324
0.108419139915203,-0.115092195796967,0.294704627323151,-0.07422942037582411
0.109024833434282,-0.10072207860946701,0.0719678109169006,-0.275411061000824
0.109630526953362,-0.25879336767196703,-0.162744103145599,-0.0933895766258241
0.110236220472441,-0.00492129735946654,-0.0238329703330994,0.213172923374176
0.11084191399152,0.119619718265533,-0.0070678336143493795,0.0742617905616759
0.1114476075106,-0.124672273921967,0.048017615604400606,0.0790518296241759
0.112053301029679,0.13159481592178301,-0.0118578726768494,0.016781321811675902
0.112658994548758,-0.0408465903282165,0.0288574593544006,0.0694717514991759
0.113264688067838,0.143569913578033,0.13902835779190098,0.100607005405426
0.113870381586917,0.0501641518592835,0.08633792810440061,0.103002024936676
0.114476075105996,-0.280348543453217,0.237224158573151,0.0024112046241758496
0.115081768625076,0.251345792484283,0.00969730310440062,0.364059153842926
0.115687462144155,0.0693243081092835,-0.08849849767684939,-0.00716887350082415
0.116293155663234,0.114829679203033,0.206088904666901,-0.0502792250633241
0.116898849182314,-0.107907137203217,0.0623877327919006,0.294603587436676
0.117504542701393,-0.206102937984467,-0.0334130484580994,0.0503115952491759
0.118110236220472,0.256135831546783,-0.0573632437705994,-0.0311190688133241
0.118715929739552,0.122014737796783,-0.198669396114349,0.0359414780616759
0.119321623258631,0.00944881982803346,0.136633338260651,0.12455720071792599
0.11992731677771,0.031003995609283498,-0.0142528922080994,-0.07183440084457411
0.12053301029679,0.016633878421783498,-0.047783165645599396,-0.0406991469383241
0.121138703815869,-0.0312665122032165,0.13423831872940098,0.0862368882179259
0.121744397334949,-0.07916690282821649,0.00969730310440062,0.0119912827491759
0.122350090854028,0.112434659671783,0.0360425179481506,0.174852610874176
0.122955784373107,0.0621392495155335,-0.0621532828330994,0.23233307962417601
0.123561477892187,-0.141437410640717,0.0288574593544006,0.0479165757179259
0.124167171411266,-0.00252627782821654,0.0599927132606506,0.107792063999176
0.124772864930345,0.117224698734283,0.0384375374794006,0.14611237649917602
0.125378558449425,0.0118438393592835,0.08873294763565061,0.174852610874176
0.125984251968504,-0.0168963950157165,-0.126818810176849,0.17724763040542602
0.126589945487583,-0.110302156734467,-0.12921382970809903,0.0862368882179259
0.127195639006663,-0.115092195796967,0.043227576541900604,-0.00956389303207415
0.127801332525742,0.102854581546783,-0.122028771114349,0.00959626321792585
0.128407026044821,0.13638485498428302,0.0695727913856506,0.0862368882179259
0.129012719563901,0.0789043862342835,0.146213416385651,0.215567942905426
0.12961841308298,0.0717193276405335,-0.0549682242393494,0.162877513217926
0.130224106602059,-0.000131258296966542,-0.20106441564559902,-0.196375416469574
0.130829800121139,-0.0863519614219665,0.0815478890419006,-0.37121184225082404
0.131435493640218,0.0381890542030335,-0.0334130484580994,0.34489899759292597
0.132041187159297,0.0789043862342835,0.0192773812294006,0.14132233743667602
0.132646880678377,-0.15341250829696698,0.18932376794815098,-0.023934010219574097
0.133252574197456,-0.16778262548446699,0.040832557010650604,0.189222728061676
0.133858267716535,-0.15820254735946698,-0.20106441564559902,-0.136499928188324
0.134463961235615,-0.0480316489219665,-0.047783165645599396,0.107792063999176
0.135069654754694,0.0357940346717835,0.24919925622940098,0.222753001499176
0.135675348273773,0.0357940346717835,-0.0549682242393494,-0.06943938131332411
0.136281041792853,-0.009711336421966539,-0.0645483023643494,-0.15326506490707398
0.136886735311932,-0.160597566890717,-0.0573632437705994,0.0742617905616759
0.137492428831012,-0.06958682470321649,-0.08610347814559939,0.0431265366554259
0.138098122350091,-0.07437686376571649,-0.00946285314559938,0.0407315171241759
0.13870381586917,0.15554501123428302,0.050412635135650606,-0.10296965475082401
0.13930950938825,0.19147030420303301,0.043227576541900604,0.129347239780426
0.139915202907329,-0.0240814536094665,-0.15555904455184902,0.0383364975929259
0.140520896426408,-0.036056551265716504,0.0264624398231506,0.057496653842925904
0.141126589945488,-0.174967684078217,-0.0166479117393494,0.203592845249176
0.141732283464567,0.0789043862342835,-0.047783165645599396,0.0455215561866759
0.142337976983646,-0.0145013754844665,0.040832557010650604,0.174852610874176
0.142943670502726,-0.07677188329696649,-0.198669396114349,-0.0933895766258241
0.143549364021805,0.0884844643592835,0.0552026741981506,0.00959626321792585
0.144155057540884,-0.0240814536094665,-0.0142528922080994,0.299393626499176
0.144760751059964,-0.0384515707969665,-0.114843712520599,0.0790518296241759
0.145366444579043,0.0286089760780335,-0.08131343908309939,0.0838418686866759
0.145972138098122,0.0836944252967835,0.215668982791901,0.330528880405426
0.146577831617202,-0.0336615317344665,0.206088904666901,0.36645417337417596
0.147183525136281,-0.0456366293907165,-0.12921382970809903,-0.12212981100082401
0.14778921865536,0.0765093667030335,-0.0597582633018494,-0.059859303188324095
0.14839491217444,0.06453426904678351,-0.00467281408309938,0.170062571811676
0.149000605693519,-0.131857332515717,0.196508826541901,-0.0430941664695741
0.149606299212598,0.0357940346717835,0.117473182010651,0.0431265366554259
0.150211992731678,0.0118438393592835,0.00969730310440062,0.0287564194679259
0.150817686250757,-0.0624017661094665,0.0384375374794006,-0.344866627407074
0.151423379769836,0.306431241703033,0.122263221073151,-0.10296965475082401
0.152029073288916,0.0429790932655335,0.0168823616981506,0.0024112046241758496
0.152634766807995,0.0525591713905335,-0.138793907833099,-0.033514088344574096
0.153240460327075,-0.0312665122032165,-0.08849849767684939,0.0383364975929259
0.153846153846154,-0.0552167075157165,-0.0334130484580994,0.0359414780616759
0.154451847365233,0.0621392495155335,-0.00227779455184938,0.227543040561676
0.155057540884313,0.016633878421783498,0.103103064823151,-0.0957845961570741
0.155663234403392,0.0812994057655335,0.112683142948151,-0.136499928188324
0.156268927922471,0.0381890542030335,-0.110053673458099,0.0287564194679259
0.156874621441551,0.0789043862342835,-0.0621532828330994,-0.00477385396957415
0.15748031496063,-0.0528216879844665,0.09831302576065061,0.107792063999176
0.158086008479709,0.229790616703033,-0.13639888830184901,0.100607005405426
0.158691701998789,0.153149991703033,-0.203459435176849,-0.0191439711570741
0.159297395517868,-0.10072207860946701,0.0240674202919006,0.0263613999366759
0.159903089036947,-0.0528216879844665,-0.0070678336143493795,-0.208350514125824
0.160508782556027,0.0501641518592835,-0.15555904455184902,-0.328101490688324
0.161114476075106,0.148359952640533,0.004907264041900621,-0.16763518209457398
0.161720169594185,0.184285245609283,-0.0142528922080994,0.421539622592926
0.162325863113265,0.0597442299842835,-0.08370845861434939,0.100607005405426
0.162931556632344,-0.0145013754844665,0.0791528695106506,-0.10057463521957401
0.163537250151423,-0.009711336421966539,-0.122028771114349,-0.0526742445945741
0.164142943670503,0.00944881982803346,0.0025122445106506197,-0.24188078756332398
0.164748637189582,0.00944881982803346,0.191718787479401,0.112582103061676
0.165354330708661,-0.0600067465782165,0.131843299198151,0.0838418686866759
0.165960024227741,-0.115092195796967,0.000117224979400624,0.0119912827491759
0.16656571774682,-0.0432416098594665,0.0120923226356506,-0.00477385396957415
0.167171411265899,0.248950772953033,0.151003455448151,0.198802806186676
0.167777104784979,0.129199796390533,0.167768592166901,-0.16763518209457398
0.168382798304058,-0.00492129735946654,0.182138709354401,-0.10057463521957401
0.168988491823137,0.00705380029678346,0.0815478890419006,0.17245759134292601
0.169594185342217,-0.0576117270469665,0.09112796716690061,-0.18200529928207398
0.170199878861296,-0.19412784032821698,-0.00467281408309938,-0.0430941664695741
0.170805572380376,0.102854581546783,-0.143583946895599,-0.0478842055320741
0.171411265899455,0.148359952640533,-0.09568355627059939,-0.033514088344574096
0.172016959418534,0.00226376123428346,-0.038203087520599394,0.0838418686866759
0.172622652937614,-0.136647371578217,0.0025122445106506197,-0.0406991469383241
0.173228346456693,-0.0863519614219665,-0.08131343908309939,0.0431265366554259
0.173834039975772,0.162730069828033,0.043227576541900604,0.031151438999175902
0.174439733494852,0.138779874515533,0.004907264041900621,0.0718667710304259
0.175045427013931,-0.00252627782821654,-0.038203087520599394,-0.0790194594383241
0.17565112053301,-0.165387605953217,0.115078162479401,0.0910269272804259
0.17625681405209,-0.0552167075157165,-0.045388146114349395,0.13174225931167602
0.176862507571169,0.0621392495155335,-0.0717333609580994,-0.0526742445945741
0.177468201090248,0.0501641518592835,-0.042993126583099395,-0.0502792250633241
0.178073894609328,-0.0312665122032165,0.0168823616981506,-0.0311190688133241
0.178679588128407,0.16033505029678302,0.182138709354401,0.0790518296241759
0.179285281647486,-0.0264764731407165,0.124658240604401,-0.00716887350082415
0.179890975166566,0.19147030420303301,0.0599927132606506,-0.0383041274070741
0.180496668685645,0.0860894448280335,-0.040598107051849394,-0.138894947719574
0.181102362204724,-0.15820254735946698,-0.34716060705184904,0.0431265366554259
0.181708055723804,-0.0935370200157165,0.0647827523231506,0.0527066147804259
0.182313749242883,-0.151017488765717,0.19411380701065098,-0.06704436178207411
0.182919442761962,0.0932745034217835,-0.0645483023643494,0.0503115952491759
0.183525136281042,0.0860894448280335,-0.00227779455184938,-0.0526742445945741
0.184130829800121,-0.0552167075157165,-0.260939903926849,-0.0526742445945741
0.1847365233192,0.0405840737342835,-0.0621532828330994,0.0024112046241758496
0.18534221683828,0.06692928857803351,-0.15076900548934902,0.18203766946792602
0.185947910357359,0.0501641518592835,0.0695727913856506,0.0503115952491759
0.186553603876439,0.184285245609283,-0.0238329703330994,0.0814468491554259
0.187159297395518,0.0789043862342835,-0.23459468908309902,-0.06464934225082411
0.187764990914597,0.12680477685928299,-0.0789184195518494,-0.201165455532074
0.188370684433677,0.119619718265533,0.0552026741981506,-0.0862045180320741
0.188976377952756,0.0118438393592835,0.0312524788856506,-0.0526742445945741
0.189582071471835,0.129199796390533,-0.0549682242393494,-0.10775969381332401
0.190187764990915,0.0286089760780335,-0.0980785758018494,-0.193980396938324
0.190793458509994,-0.0839569418907165,-0.0238329703330994,-0.0119589125633241
0.191399152029073,-0.0432416098594665,0.0168823616981506,0.225148021030426
0.192004845548153,0.0429790932655335,-0.03580806798934939,0.0766568100929259
0.192610539067232,0.06453426904678351,0.0216724007606506,-0.0933895766258241
0.193216232586311,0.0621392495155335,-0.050178185176849396,0.292208567905426
0.193821926105391,0.0741143471717835,-0.00227779455184938,0.0766568100929259
0.19442761962447,0.0980645424842835,0.0336474984169006,-0.0383041274070741
0.195033313143549,-0.0552167075157165,0.17016361169815097,0.0503115952491759
0.195639006662629,0.107644620609283,-0.09328853673934939,-0.131709889125824
0.196244700181708,0.22500057764053302,0.040832557010650604,0.059891673374175905
0.196850393700787,0.110039640140533,-0.177114220333099,0.17724763040542602
0.197456087219867,0.0741143471717835,-0.0765234000205994,-0.174820240688324
0.198061780738946,-0.13904239110946698,0.253989295291901,-0.0478842055320741
0.198667474258025,0.0501641518592835,0.0312524788856506,0.20598786478042602
0.199273167777105,0.102854581546783,0.09352298669815061,0.0766568100929259
0.199878861296184,0.0549541909217835,0.050412635135650606,0.004806224155425851
0.200484554815263,0.0190288979530335,0.160583533573151,0.19161774759292602
0.201090248334343,-0.22765811376571699,0.177348670291901,0.17724763040542602
0.201695941853422,-0.0600067465782165,-0.0741283804893494,0.0407315171241759
0.202301635372502,-0.036056551265716504,0.186928748416901,0.00959626321792585
0.202907328891581,-0.107907137203217,-0.0597582633018494,0.0742617905616759
0.20351302241066,0.19147030420303301,-0.143583946895599,-0.0933895766258241
0.20411871592974,-0.136647371578217,0.107893103885651,-0.148475025844574
0.204724409448819,-0.0863519614219665,0.040832557010650604,0.114977122592926
0.205330102967898,-0.00731631689071654,-0.14118892736434902,-0.0311190688133241
0.205935796486978,0.0765093667030335,-0.16513912267684902,-0.12212981100082401
0.206541490006057,0.0405840737342835,0.100708045291901,0.155692454624176
0.207147183525136,-0.105512117671967,-0.045388146114349395,-0.0023788344383241502
0.207752877044216,0.0741143471717835,-0.09328853673934939,0.0024112046241758496
0.208358570563295,-0.0600067465782165,0.040832557010650604,0.227543040561676
0.208964264082374,0.0214239174842835,0.107893103885651,0.23233307962417601
0.209569957601454,0.0357940346717835,-0.0645483023643494,0.28502350931167597
0.210175651120533,0.0142388588905335,-0.050178185176849396,0.103002024936676
0.210781344639612,-0.0624017661094665,-0.0118578726768494,0.114977122592926
0.211387038158692,-0.0240814536094665,-0.126818810176849,-0.208350514125824
0.211992731677771,0.0741143471717835,-0.0142528922080994,-0.205955494594574
0.21259842519685,-0.00252627782821654,-0.047783165645599396,-0.059859303188324095
0.21320411871593,-0.028871492671966502,-0.038203087520599394,-0.0790194594383241
0.213809812235009,0.0118438393592835,-0.08849849767684939,-0.0909945570945741
0.214415505754088,0.119619718265533,-0.14597896642684902,0.0527066147804259
0.215021199273168,0.13638485498428302,0.0312524788856506,0.18203766946792602
0.215626892792247,0.227395597171783,0.151003455448151,-0.210745533657074
0.216232586311326,0.0621392495155335,-0.13639888830184901,0.057496653842925904
0.216838279830406,-0.06479678564071649,-0.124423790645599,-0.06943938131332411
0.217443973349485,0.0573492104530335,0.141423377323151,-0.0862045180320741
0.218049666868565,-0.184547762203217,-0.040598107051849394,0.0718667710304259
0.218655360387644,-0.146227449703217,-0.08849849767684939,0.0766568100929259
0.219261053906723,-0.06958682470321649,0.115078162479401,-0.0167489516258241
0.219866747425803,0.0597442299842835,-0.03580806798934939,0.126952220249176
0.220472440944882,-0.00492129735946654,-0.0573632437705994,0.0407315171241759
0.221078134463961,-0.186942781734467,0.18453372888565098,0.019176341342925902
0.221683827983041,-0.15341250829696698,0.00730228357315062,0.440699778842926
0.22228952150212,0.0262139565467835,-0.08610347814559939,0.20119782571792602
0.222895215021199,-0.117487215328217,0.0815478890419006,-0.0311190688133241
0.223500908540279,-0.07437686376571649,0.23961917810440098,-0.00956389303207415
0.224106602059358,0.06453426904678351,0.08873294763565061,0.031151438999175902
0.224712295578437,-0.189337801265717,-0.241779747676849,0.105397044467926
0.225317989097517,-0.0168963950157165,-0.222619591426849,0.0455215561866759
0.225923682616596,-0.0432416098594665,-0.0525732047080994,0.0742617905616759
0.226529376135675,-0.115092195796967,0.0025122445106506197,0.055101634311675904
0.227135069654755,0.0453741127967835,-0.00227779455184938,-0.10057463521957401
0.227740763173834,-0.06479678564071649,-0.10047359533309899,-0.06464934225082411
0.228346456692913,-0.191732820796967,-0.181904259395599,-0.10057463521957401
0.228952150211993,0.110039640140533,-0.126818810176849,0.0838418686866759
0.229557843731072,0.0860894448280335,-0.16513912267684902,0.0383364975929259
0.230163537250151,0.114829679203033,-0.0262279898643494,0.158087474155426
0.230769230769231,-0.107907137203217,0.08394290857315061,0.021571360874175903
0.23137492428831,0.031003995609283498,-0.09328853673934939,-0.0574642836570741
0.231980617807389,0.263320890140533,-0.0621532828330994,0.0958169663429259
0.232586311326469,-0.00731631689071654,-0.153164025020599,-0.129314869594574
0.233192004845548,-0.0480316489219665,-0.045388146114349395,-0.0550692641258241
0.233797698364627,-0.0983270590782165,0.043227576541900604,0.162877513217926
0.234403391883707,-0.155807527828217,0.12944827966690098,-0.07422942037582411
0.235009085402786,-0.0384515707969665,-0.10047359533309899,0.143717356967926
0.235614778921866,0.153149991703033,-0.09089351720809939,0.0383364975929259
0.236220472440945,-0.0240814536094665,0.0743628304481506,0.0766568100929259
0.236826165960024,-0.0168963950157165,-0.12921382970809903,0.198802806186676
0.237431859479104,-0.009711336421966539,-0.10526363439559899,0.17245759134292601
0.238037552998183,-0.0480316489219665,-0.0310180289268494,-0.10296965475082401
0.238643246517262,-0.009711336421966539,0.110288123416901,-0.299361256313324
0.239248940036342,0.213025479984283,-0.10047359533309899,0.004806224155425851
0.239854633555421,0.12680477685928299,0.0216724007606506,0.100607005405426
0.2404603270745,0.107644620609283,-0.0286230093955994,0.0455215561866759
0.24106602059358,0.110039640140533,-0.0166479117393494,-0.0957845961570741
0.241671714112659,0.0741143471717835,-0.0118578726768494,0.18203766946792602
0.242277407631738,-0.00252627782821654,-0.12921382970809903,-0.0406991469383241
0.242883101150818,-0.0863519614219665,-0.0142528922080994,-0.0143539320945741
0.243488794669897,-0.0408465903282165,-0.0238329703330994,0.0239663804054259
0.244094488188976,0.122014737796783,0.107893103885651,-0.0574642836570741
0.244700181708056,-0.0121063559532165,-0.00467281408309938,0.0886319077491759
0.245305875227135,0.0214239174842835,-0.042993126583099395,-0.0550692641258241
0.245911568746214,0.0789043862342835,-0.119633751583099,0.0982119858741759
0.246517262265294,0.0621392495155335,-0.21543453283309902,0.11737214212417599
0.247122955784373,-0.028871492671966502,-0.217829552364349,-0.17721526021957398
0.247728649303452,-0.0576117270469665,0.045622596073150605,-0.0790194594383241
0.248334342822532,0.246555753421783,-0.0214379508018494,0.13653229837417602
0.248940036341611,0.0860894448280335,0.0360425179481506,0.0119912827491759
0.24954572986069,-0.0552167075157165,0.13423831872940098,-0.07183440084457411
0.25015142337977,-0.186942781734467,-0.22980465002059902,0.0886319077491759
0.250757116898849,0.119619718265533,-0.050178185176849396,0.12455720071792599
0.251362810417929,-0.0552167075157165,0.0336474984169006,0.155692454624176
0.251968503937008,-0.0408465903282165,-0.172324181270599,0.653856517124176
0.252574197456087,0.208235440921783,0.0120923226356506,0.158087474155426
0.253179890975167,-0.0600067465782165,0.0240674202919006,-0.18200529928207398
0.253785584494246,-0.06958682470321649,0.0647827523231506,0.29699860696792596
0.254391278013325,-0.0192914145469665,-0.0214379508018494,-0.0502792250633241
0.254996971532405,0.0477691323280335,0.0815478890419006,-0.198770436000824
0.255602665051484,-0.06479678564071649,0.103103064823151,-0.0191439711570741
0.256208358570563,-0.0552167075157165,-0.19627437658309901,-0.0502792250633241
0.256814052089643,-0.0168963950157165,-0.08370845861434939,-0.00716887350082415
0.257419745608722,-0.256398348140717,-0.08131343908309939,0.06468171243667589
0.258025439127801,0.0525591713905335,-0.050178185176849396,0.251493235874176
0.258631132646881,0.26092587060928296,0.00969730310440062,0.0239663804054259
0.25923682616596,-0.20849795751571698,-0.0525732047080994,-0.10296965475082401
0.259842519685039,-0.30908877782821703,-0.00946285314559938,0.129347239780426
0.260448213204119,0.0884844643592835,0.0168823616981506,0.19640778665542602
0.261053906723198,-0.103117098140717,0.08873294763565061,0.24191315774917602
0.261659600242277,0.186680265140533,-0.050178185176849396,-0.035909107875824096
0.262265293761357,0.318406339359283,-0.29686519689559904,-0.18679533834457399
0.262870987280436,-0.07916690282821649,-0.198669396114349,-0.0526742445945741
0.263476680799515,-0.0576117270469665,0.0767578499794006,0.0718667710304259
0.264082374318595,0.0405840737342835,0.151003455448151,0.158087474155426
0.264688067837674,0.0525591713905335,0.0791528695106506,-0.10296965475082401
0.265293761356753,-0.136647371578217,-0.00946285314559938,-0.184400318813324
0.265899454875833,-0.00731631689071654,0.141423377323151,0.129347239780426
0.266505148394912,0.0860894448280335,0.0384375374794006,0.0958169663429259
0.267110841913992,0.0357940346717835,0.004907264041900621,-0.10775969381332401
0.267716535433071,-0.0336615317344665,0.0192773812294006,-0.10536467428207401
0.26832222895215,0.0789043862342835,0.146213416385651,0.016781321811675902
0.26892792247123,-0.00731631689071654,0.273149451541901,-0.0430941664695741
0.269533615990309,-0.0839569418907165,-0.0525732047080994,-0.06943938131332411
0.270139309509388,0.0142388588905335,0.115078162479401,-0.028724049282074098
0.270745003028468,0.107644620609283,-0.14597896642684902,0.00959626321792585
0.271350696547547,0.100459562015533,-0.050178185176849396,0.129347239780426
0.271956390066626,-0.0456366293907165,-0.0717333609580994,-0.07422942037582411
0.272562083585706,-0.0815619223594665,-0.203459435176849,0.00959626321792585
0.273167777104785,-0.0887469809532165,0.0025122445106506197,-0.026329029750824098
0.273773470623864,0.0190288979530335,-0.03580806798934939,-0.239485768032074
0.274379164142944,-0.0432416098594665,0.0791528695106506,0.143717356967926
0.274984857662023,0.06453426904678351,0.045622596073150605,0.0622866929054259
0.275590551181102,-0.0192914145469665,-0.042993126583099395,0.0838418686866759
0.276196244700182,-0.0863519614219665,0.110288123416901,0.150902415561676
0.276801938219261,-0.189337801265717,-0.0525732047080994,0.273048411655426
0.27740763173834,-0.028871492671966502,-0.0693383414268494,0.143717356967926
0.27801332525742,0.179495206546783,0.160583533573151,-0.07183440084457411
0.278619018776499,-0.14383243017196698,-0.20106441564559902,-0.16284514303207398
0.279224712295578,-0.12706729345321702,-0.08131343908309939,-0.0790194594383241
0.279830405814658,-0.07916690282821649,-0.0262279898643494,0.7113369858741759
0.280436099333737,0.102854581546783,-0.143583946895599,0.138927317905426
0.281041792852816,0.169915128421783,-0.0980785758018494,0.110187083530426
0.281647486371896,-0.0240814536094665,0.122263221073151,0.682596751499176
0.282253179890975,-0.107907137203217,0.304284705448151,0.553265696811676
0.282858873410055,-0.172572664546967,-0.0238329703330994,0.0886319077491759
0.283464566929134,-0.0935370200157165,-0.0166479117393494,-0.11494475240707401
0.284070260448213,0.14596493310928302,0.136633338260651,0.213172923374176
0.284675953967293,0.0836944252967835,-0.172324181270599,0.0359414780616759
0.285281647486372,-0.0552167075157165,0.0384375374794006,-0.021538990688324097
0.285887341005451,-0.129462312984467,0.167768592166901,0.0622866929054259
0.286493034524531,0.0789043862342835,-0.20585445470809902,0.0383364975929259
0.28709872804361,-0.0504266684532165,0.220459021854401,0.00959626321792585
0.287704421562689,-0.14383243017196698,0.0312524788856506,0.27783845071792596
0.288310115081769,-0.06958682470321649,-0.10286861486434899,0.174852610874176
0.288915808600848,-0.0863519614219665,0.0815478890419006,-0.059859303188324095
0.289521502119927,-0.07437686376571649,-0.0334130484580994,0.06468171243667589
0.290127195639007,-0.105512117671967,0.25159427576065096,-0.00716887350082415
0.290732889158086,0.13159481592178301,0.09112796716690061,0.110187083530426
0.291338582677165,-0.028871492671966502,0.08394290857315061,-0.208350514125824
0.291944276196245,-0.0911420004844665,0.0120923226356506,-0.138894947719574
0.292549969715324,-0.12706729345321702,0.0743628304481506,0.210777903842926
0.293155663234403,-0.0480316489219665,0.110288123416901,0.016781321811675902
0.293761356753483,0.0789043862342835,-0.119633751583099,-0.021538990688324097
0.294367050272562,0.0621392495155335,0.196508826541901,-0.07183440084457411
0.294972743791641,-0.15341250829696698,-0.0310180289268494,0.0862368882179259
0.295578437310721,-0.0624017661094665,-0.208249474239349,0.215567942905426
0.2961841308298,-0.0216864340782165,-0.0525732047080994,0.20598786478042602
0.296789824348879,-0.07198184423446649,0.0025122445106506197,-0.06943938131332411
0.297395517867959,-0.0839569418907165,0.08873294763565061,-0.0957845961570741
0.298001211387038,-0.0887469809532165,-0.00467281408309938,-0.033514088344574096
0.298606904906118,0.22021053857803302,-0.0765234000205994,-0.143684986782074
0.299212598425197,0.157940030765533,-0.00467281408309938,-0.035909107875824096
0.299818291944276,0.0525591713905335,0.0815478890419006,0.17245759134292601
0.300423985463356,-0.273163484859467,0.0791528695106506,0.0766568100929259
0.301029678982435,0.0525591713905335,-0.0310180289268494,0.0503115952491759
0.301635372501514,0.12680477685928299,-0.047783165645599396,-0.0454891860008241
0.302241066020594,-0.00492129735946654,0.0192773812294006,0.00959626321792585
0.302846759539673,0.117224698734283,-0.038203087520599394,0.0742617905616759
0.303452453058752,0.0789043862342835,0.0144873421669006,0.0886319077491759
0.304058146577832,0.138779874515533,0.09352298669815061,0.270653392124176
0.304663840096911,-0.06958682470321649,0.0743628304481506,0.0766568100929259
0.30526953361599,-0.00492129735946654,-0.00227779455184938,0.0383364975929259
0.30587522713507,0.00705380029678346,0.0025122445106506197,0.26825837259292595
0.306480920654149,-0.0480316489219665,-0.217829552364349,0.31615876321792596
0.307086614173228,0.06692928857803351,-0.148373985958099,0.13653229837417602
0.307692307692308,0.0357940346717835,0.0216724007606506,0.24670319681167602
0.308298001211387,-0.10072207860946701,0.0192773812294006,-0.00716887350082415
0.308903694730466,0.0932745034217835,-0.0142528922080994,-0.160450123500824
0.309509388249546,0.107644620609283,0.0647827523231506,0.258678294467926
0.310115081768625,-0.0504266684532165,0.045622596073150605,0.380824290561676
0.310720775287704,0.0477691323280335,-0.0310180289268494,-0.00716887350082415
0.311326468806784,0.0262139565467835,-0.0597582633018494,-0.376001881313324
0.311932162325863,-0.0959320395469665,0.0168823616981506,-0.294571217250824
0.312537855844942,-0.0815619223594665,0.0216724007606506,0.0790518296241759
0.313143549364022,0.06692928857803351,0.00730228357315062,-0.0502792250633241
0.313749242883101,-0.0216864340782165,0.0623877327919006,-0.268226002407074
0.31435493640218,0.13159481592178301,0.0264624398231506,0.0263613999366759
0.31496062992126,-0.0528216879844665,-0.00467281408309938,-0.035909107875824096
0.315566323440339,-0.19891787939071698,-0.0645483023643494,0.00720124368667585
0.316172016959419,0.12680477685928299,0.122263221073151,0.06707673196792589
0.316777710478498,0.00705380029678346,0.0743628304481506,0.217962962436676
0.317383403997577,0.0765093667030335,-0.0525732047080994,0.138927317905426
0.317989097516657,0.153149991703033,0.0575976937294006,0.06707673196792589
0.318594791035736,0.0118438393592835,0.08633792810440061,0.160482493686676
0.319200484554815,-0.0839569418907165,-0.03580806798934939,0.0862368882179259
0.319806178073895,0.0621392495155335,-0.23938472814559902,0.114977122592926
0.320411871592974,0.0741143471717835,-0.0549682242393494,-0.0406991469383241
0.321017565112053,0.143569913578033,0.0719678109169006,0.143717356967926
0.321623258631133,-0.0935370200157165,-0.18429927892684903,0.0527066147804259
0.322228952150212,-0.191732820796967,0.23003909997940097,0.0119912827491759
0.322834645669291,0.0884844643592835,0.141423377323151,0.0742617905616759
0.323440339188371,0.0549541909217835,-0.0741283804893494,-0.18200529928207398
0.32404603270745,0.110039640140533,-0.0310180289268494,0.194012767124176
0.324651726226529,-0.028871492671966502,-0.08131343908309939,0.174852610874176
0.325257419745609,-0.115092195796967,0.00969730310440062,-0.0023788344383241502
0.325863113264688,0.0908794838905335,-0.0310180289268494,0.0287564194679259
0.326468806783767,0.00705380029678346,-0.00467281408309938,0.18682770853042602
0.327074500302847,-0.0935370200157165,-0.0789184195518494,0.213172923374176
0.327680193821926,-0.000131258296966542,-0.265729942989349,-0.0191439711570741
0.328285887341005,0.016633878421783498,-0.12921382970809903,0.208382884311676
0.328891580860085,0.186680265140533,0.09831302576065061,-0.035909107875824096
0.329497274379164,-0.06719180517196649,0.0695727913856506,-0.0167489516258241
0.330102967898244,0.172310147953033,0.146213416385651,0.0934219468116759
0.330708661417323,0.14596493310928302,0.0144873421669006,0.143717356967926
0.331314354936402,-0.15341250829696698,0.136633338260651,0.27783845071792596
0.331920048455482,0.00465878076553346,-0.0621532828330994,0.18682770853042602
0.332525741974561,0.0789043862342835,0.141423377323151,0.112582103061676
0.33313143549364,0.00465878076553346,0.277939490604401,-0.131709889125824
0.33373712901272,-0.22765811376571699,-0.131608849239349,-0.0550692641258241
0.334342822531799,-0.000131258296966542,-0.0573632437705994,0.174852610874176
0.334948516050878,0.0381890542030335,-0.0310180289268494,0.26586335306167597
0.335554209569958,-0.182152742671967,-0.208249474239349,0.103002024936676
0.336159903089037,-0.0312665122032165,-0.16513912267684902,0.0455215561866759
0.336765596608116,0.0477691323280335,0.0575976937294006,0.299393626499176
0.337371290127196,-0.265978426265717,0.0647827523231506,0.105397044467926
0.337976983646275,-0.189337801265717,0.0599927132606506,-0.124524830532074
0.338582677165354,-0.00492129735946654,0.08394290857315061,0.143717356967926
0.339188370684434,-0.0959320395469665,0.122263221073151,-0.026329029750824098
0.339794064203513,0.0573492104530335,-0.0741283804893494,-0.136499928188324
0.340399757722592,-0.036056551265716504,0.0264624398231506,-0.42150725240707404
0.341005451241672,-0.0983270590782165,0.0168823616981506,-0.43108733053207404
0.341611144760751,0.0238189370155335,-0.124423790645599,0.28502350931167597
0.34221683827983,0.100459562015533,-0.110053673458099,0.431119700717926
0.34282253179891,0.308826261234283,0.0623877327919006,0.105397044467926
0.343428225317989,0.189075284671783,0.151003455448151,0.0766568100929259
0.344033918837068,-0.036056551265716504,0.0791528695106506,-0.059859303188324095
0.344639612356148,0.00465878076553346,-0.134003868770599,-0.0119589125633241
0.345245305875227,0.169915128421783,-0.16992916173934902,0.055101634311675904
0.345850999394306,0.114829679203033,0.0025122445106506197,0.110187083530426
0.346456692913386,-0.119882234859467,-0.138793907833099,0.26586335306167597
0.347062386432465,-0.0504266684532165,-0.0310180289268494,-0.06464934225082411
0.347668079951545,0.0836944252967835,0.0671777718544006,-0.0766244399070741
0.348273773470624,0.0262139565467835,-0.08131343908309939,0.14611237649917602
0.348879466989703,0.0429790932655335,-0.0262279898643494,0.129347239780426
0.349485160508783,-0.0145013754844665,0.107893103885651,-0.0957845961570741
0.350090854027862,-0.13425235204696698,0.186928748416901,-0.10057463521957401
0.350696547546941,-0.0408465903282165,-0.162744103145599,0.174852610874176
0.351302241066021,0.143569913578033,-0.038203087520599394,-0.023934010219574097
0.3519079345851,0.0741143471717835,0.105498084354401,-0.0478842055320741
0.352513628104179,0.112434659671783,-0.117238732051849,-0.134104908657074
0.353119321623259,0.0286089760780335,0.136633338260651,0.0359414780616759
0.353725015142338,0.0262139565467835,0.21327396326065098,0.13653229837417602
0.354330708661417,0.0501641518592835,-0.148373985958099,-0.0454891860008241
0.354936402180497,0.0238189370155335,0.131843299198151,-0.0119589125633241
0.355542095699576,0.246555753421783,0.136633338260651,-0.06704436178207411
0.356147789218655,0.138779874515533,-0.09328853673934939,-0.0526742445945741
0.356753482737735,-0.0145013754844665,0.165373572635651,0.11737214212417599
0.357359176256814,-0.0216864340782165,0.0240674202919006,0.261073313999176
0.357964869775893,0.0836944252967835,0.00730228357315062,-0.0167489516258241
0.358570563294973,0.13638485498428302,0.0192773812294006,-0.22272063131332398
0.359176256814052,-0.0240814536094665,-0.0573632437705994,-0.07183440084457411
0.359781950333131,-0.151017488765717,-0.131608849239349,-0.0838094985008241
0.360387643852211,0.0262139565467835,0.0552026741981506,0.0383364975929259
0.36099333737129,0.21063046045303302,0.09831302576065061,0.170062571811676
0.361599030890369,-0.0959320395469665,-0.0118578726768494,-0.124524830532074
0.362204724409449,0.0453741127967835,0.08633792810440061,-0.196375416469574
0.362810417928528,-0.0839569418907165,0.225249060916901,1.6185092925851098e-05
0.363416111447607,-0.0432416098594665,-0.25854488439559903,0.330528880405426
0.364021804966687,0.00705380029678346,-0.122028771114349,0.0503115952491759
0.364627498485766,-0.13904239110946698,-0.167534142208099,-0.00716887350082415
0.365233192004846,0.0741143471717835,-0.29686519689559904,0.00959626321792585
0.365838885523925,0.179495206546783,0.05280765466690061,0.00720124368667585
0.366444579043004,0.0860894448280335,-0.00227779455184938,-0.00477385396957415
0.367050272562084,-0.06719180517196649,0.0815478890419006,0.0383364975929259
0.367655966081163,-0.0312665122032165,-0.13639888830184901,0.134137278842926
0.368261659600242,0.0908794838905335,0.0120923226356506,0.239518138217926
0.368867353119322,0.0525591713905335,0.0695727913856506,0.234728099155426
0.369473046638401,-0.07916690282821649,-0.050178185176849396,0.103002024936676
0.37007874015748,0.124409757328033,-0.208249474239349,0.33771393899917596
0.37068443367656,-0.0145013754844665,-0.0669433218955994,0.538895579624176
0.371290127195639,-0.000131258296966542,0.0336474984169006,0.538895579624176
0.371895820714718,0.0477691323280335,-0.045388146114349395,-0.160450123500824
0.372501514233798,-0.0168963950157165,0.05280765466690061,-0.059859303188324095
0.373107207752877,-0.0312665122032165,0.08873294763565061,0.20119782571792602
0.373712901271956,-0.0216864340782165,-0.0717333609580994,-0.0766244399070741
0.374318594791036,-0.0600067465782165,-0.0980785758018494,0.00959626321792585
0.374924288310115,0.0429790932655335,0.0120923226356506,-0.07183440084457411
0.375529981829194,0.16512508935928302,-0.0765234000205994,-0.141289967250824
0.376135675348274,0.15075497217178302,0.08633792810440061,0.00720124368667585
0.376741368867353,0.0477691323280335,-0.00227779455184938,0.06468171243667589
0.377347062386432,0.0621392495155335,-0.29686519689559904,0.107792063999176
0.377952755905512,0.06453426904678351,-0.00467281408309938,0.0431265366554259
0.378558449424591,-0.0624017661094665,0.105498084354401,0.0958169663429259
0.379164142943671,0.0118438393592835,-0.138793907833099,0.016781321811675902
0.37976983646275,0.0860894448280335,-0.042993126583099395,-0.0862045180320741
0.380375529981829,-0.0121063559532165,-0.0741283804893494,0.174852610874176
0.380981223500909,0.031003995609283498,-0.0166479117393494,0.11976716165542599
0.381586917019988,-0.00731631689071654,-0.124423790645599,0.0239663804054259
0.382192610539067,-0.0600067465782165,0.08394290857315061,-0.0790194594383241
0.382798304058147,0.0884844643592835,-0.047783165645599396,0.0694717514991759
0.383403997577226,0.0214239174842835,-0.390270958614349,0.114977122592926
0.384009691096305,0.0789043862342835,-0.0214379508018494,-0.028724049282074098
0.384615384615385,0.0741143471717835,0.09112796716690061,-0.06704436178207411
0.385221078134464,0.0765093667030335,0.12944827966690098,0.059891673374175905
0.385826771653543,0.110039640140533,0.09352298669815061,-0.026329029750824098
0.386432465172623,0.0405840737342835,0.105498084354401,0.021571360874175903
0.387038158691702,0.0190288979530335,0.0168823616981506,0.0119912827491759
0.387643852210781,-0.06719180517196649,-0.0693383414268494,-0.141289967250824
0.388249545729861,-0.210892977046967,0.0120923226356506,-0.0502792250633241
0.38885523924894,-0.124672273921967,-0.10047359533309899,-0.0981796156883241
0.389460932768019,-0.0576117270469665,-0.181904259395599,-0.0406991469383241
0.390066626287099,0.00944881982803346,0.0336474984169006,0.0886319077491759
0.390672319806178,0.20105038232803302,0.0336474984169006,0.021571360874175903
0.391278013325257,0.12680477685928299,-0.126818810176849,-0.10296965475082401
0.391883706844337,-0.0384515707969665,-0.143583946895599,-0.0526742445945741
0.392489400363416,-0.29950869970321703,-0.0166479117393494,0.004806224155425851
0.393095093882495,-0.112697176265717,-0.045388146114349395,0.0119912827491759
0.393700787401575,0.110039640140533,-0.0621532828330994,0.107792063999176
0.394306480920654,0.0190288979530335,-0.08610347814559939,0.0766568100929259
0.394912174439733,-0.07677188329696649,0.045622596073150605,-0.150870045375824
0.395517867958813,-0.0576117270469665,0.08394290857315061,-0.0862045180320741
0.396123561477892,-0.105512117671967,-0.181904259395599,-0.00716887350082415
0.396729254996972,-0.0528216879844665,-0.00227779455184938,-0.150870045375824
0.397334948516051,-0.0408465903282165,0.14860843591690098,-0.131709889125824
0.39794064203513,-0.182152742671967,0.0240674202919006,0.0359414780616759
0.39854633555421,0.0812994057655335,0.0168823616981506,0.0694717514991759
0.399152029073289,0.229790616703033,0.100708045291901,-0.033514088344574096
0.399757722592368,0.0286089760780335,-0.0118578726768494,-0.021538990688324097
0.400363416111448,-0.0168963950157165,-0.162744103145599,0.0407315171241759
0.400969109630527,0.20584042139053302,-0.00467281408309938,0.0119912827491759
0.401574803149606,0.112434659671783,0.0815478890419006,0.44788483743667595
0.402180496668686,0.0405840737342835,0.0360425179481506,0.680201731967926
0.402786190187765,-0.00252627782821654,0.100708045291901,0.20598786478042602
0.403391883706844,-0.0863519614219665,-0.0693383414268494,0.031151438999175902
0.403997577225924,0.0836944252967835,-0.045388146114349395,0.0718667710304259
0.404603270745003,-0.0552167075157165,-0.27770504064559903,-0.146080006313324
0.405208964264082,-0.00492129735946654,-0.131608849239349,0.0455215561866759
0.405814657783162,0.0405840737342835,0.0552026741981506,-0.0167489516258241
0.406420351302241,-0.00252627782821654,-0.00227779455184938,0.059891673374175905
0.40702604482132,0.0381890542030335,-0.09089351720809939,-0.0143539320945741
0.4076317383404,-0.115092195796967,-0.0190429312705994,0.0359414780616759
0.408237431859479,-0.0456366293907165,0.196508826541901,0.227543040561676
0.408843125378558,-0.0576117270469665,0.117473182010651,0.00720124368667585
0.409448818897638,0.031003995609283498,-0.0238329703330994,0.12216218118667599
0.410054512416717,-0.107907137203217,-0.0765234000205994,0.26825837259292595
0.410660205935796,-0.105512117671967,-0.0166479117393494,0.0335464585304259
0.411265899454876,0.0741143471717835,-0.20585445470809902,0.17245759134292601
0.411871592973955,0.00944881982803346,-0.08849849767684939,0.14611237649917602
0.412477286493035,0.0765093667030335,-0.0310180289268494,-0.0406991469383241
0.413082980012114,-0.0384515707969665,-0.03580806798934939,0.153297435092926
0.413688673531193,0.0956695229530335,0.0599927132606506,0.304183665561676
0.414294367050273,0.0956695229530335,0.15339847497940098,0.167667552280426
0.414900060569352,-0.210892977046967,0.124658240604401,0.227543040561676
0.415505754088431,0.0884844643592835,-0.22022457189559902,0.11737214212417599
0.416111447607511,0.0908794838905335,-0.157954064083099,0.0239663804054259
0.41671714112659,-0.0240814536094665,0.0384375374794006,-0.0119589125633241
0.417322834645669,-0.0839569418907165,0.00730228357315062,-0.033514088344574096
0.417928528164749,-0.0983270590782165,0.0623877327919006,-0.0526742445945741
0.418534221683828,-0.0552167075157165,0.000117224979400624,-0.0191439711570741
0.419139915202907,-0.07437686376571649,0.167768592166901,0.138927317905426
0.419745608721987,-0.00492129735946654,0.0552026741981506,0.021571360874175903
0.420351302241066,-0.0408465903282165,-0.050178185176849396,-0.0454891860008241
0.420956995760145,0.0525591713905335,-0.23938472814559902,-0.16763518209457398
0.421562689279225,-0.0552167075157165,-0.10047359533309899,-0.028724049282074098
0.422168382798304,-0.15341250829696698,0.306679724979401,0.112582103061676
0.422774076317383,-0.201312898921967,-0.0621532828330994,-0.220325611782074
0.423379769836463,0.0717193276405335,0.0168823616981506,0.0383364975929259
0.423985463355542,0.169915128421783,0.15818851404190098,0.134137278842926
0.424591156874621,-0.0552167075157165,0.09591800622940061,-0.06464934225082411
0.425196850393701,-0.00492129735946654,0.000117224979400624,0.0143863022804259
0.42580254391278,-0.028871492671966502,-0.16034908361434902,-0.11733977193832401
0.426408237431859,0.102854581546783,0.00730228357315062,0.0383364975929259
0.427013930950939,0.0573492104530335,-0.198669396114349,-0.06704436178207411
0.427619624470018,-0.00252627782821654,-0.08370845861434939,0.0934219468116759
0.428225317989098,0.0501641518592835,0.08873294763565061,0.0838418686866759
0.428831011508177,0.15075497217178302,-0.232199669551849,0.114977122592926
0.429436705027256,0.0812994057655335,-0.03580806798934939,0.24191315774917602
0.430042398546336,-0.301903719234467,0.0240674202919006,0.165272532749176
0.430648092065415,-0.119882234859467,0.050412635135650606,-0.189190357875824
0.431253785584494,0.232185636234283,0.043227576541900604,-0.0167489516258241
0.431859479103574,-0.0432416098594665,0.0264624398231506,0.40716950540542596
0.432465172622653,-0.0264764731407165,0.232434119510651,0.165272532749176
0.433070866141732,0.0765093667030335,0.23961917810440098,0.11737214212417599
0.433676559660812,0.0405840737342835,0.004907264041900621,0.0383364975929259
0.434282253179891,0.16512508935928302,0.09591800622940061,-0.124524830532074
0.43488794669897,0.0118438393592835,-0.14597896642684902,0.210777903842926
0.43549364021805,-0.0168963950157165,0.110288123416901,0.004806224155425851
0.436099333737129,-0.0192914145469665,0.277939490604401,0.158087474155426
0.436705027256208,-0.07437686376571649,-0.0980785758018494,-0.148475025844574
0.437310720775288,-0.0815619223594665,0.26117435388565097,0.0455215561866759
0.437916414294367,0.00226376123428346,-0.0741283804893494,0.354479075717926
0.438522107813446,0.0238189370155335,-0.119633751583099,-0.0143539320945741
0.439127801332526,-0.0600067465782165,0.0144873421669006,0.20119782571792602
0.439733494851605,-0.0240814536094665,-0.0765234000205994,0.06707673196792589
0.440339188370684,0.06453426904678351,0.08633792810440061,-0.131709889125824
0.440944881889764,0.0477691323280335,0.0192773812294006,-0.244275807094574
0.441550575408843,-0.07677188329696649,-0.0142528922080994,-0.136499928188324
0.442156268927922,0.0980645424842835,-0.00227779455184938,-0.062254322719574096
0.442761962447002,0.0357940346717835,-0.0214379508018494,0.12455720071792599
0.443367655966081,-0.0911420004844665,-0.0549682242393494,0.13174225931167602
0.44397334948516,-0.0815619223594665,-0.0214379508018494,-0.0406991469383241
0.44457904300424,0.0597442299842835,-0.00946285314559938,-0.138894947719574
0.445184736523319,0.177100187015533,0.0623877327919006,0.0742617905616759
0.445790430042399,-0.15341250829696698,0.105498084354401,0.0431265366554259
0.446396123561478,-0.00731631689071654,-0.15076900548934902,0.0766568100929259
0.447001817080557,0.00705380029678346,-0.0334130484580994,0.021571360874175903
0.447607510599637,-0.16299258642196698,-0.0118578726768494,-0.170030201625824
0.448213204118716,-0.115092195796967,0.0767578499794006,0.0263613999366759
0.448818897637795,0.00226376123428346,0.08633792810440061,0.0407315171241759
0.449424591156875,-0.009711336421966539,0.0575976937294006,-0.035909107875824096
0.450030284675954,-0.0264764731407165,0.00730228357315062,0.0838418686866759
0.450635978195033,0.0525591713905335,-0.16513912267684902,-0.11015471334457401
0.451241671714113,0.0549541909217835,0.0767578499794006,-0.23709074850082398
0.451847365233192,0.143569913578033,-0.042993126583099395,0.0407315171241759
0.452453058752271,-0.028871492671966502,-0.0645483023643494,0.100607005405426
0.453058752271351,-0.115092195796967,0.146213416385651,-0.0311190688133241
0.45366444579043,0.0477691323280335,-0.0645483023643494,-0.06464934225082411
0.454270139309509,0.00465878076553346,-0.0597582633018494,0.229938060092926
0.454875832828589,-0.160597566890717,-0.0980785758018494,0.0958169663429259
0.455481526347668,-0.07198184423446649,0.0312524788856506,0.14132233743667602
0.456087219866747,-0.0624017661094665,0.23961917810440098,0.0766568100929259
0.456692913385827,-0.0576117270469665,0.0168823616981506,-0.21793059225082398
0.457298606904906,0.14117489404678302,0.100708045291901,0.0838418686866759
0.457904300423985,-0.0624017661094665,-0.10526363439559899,0.103002024936676
0.458509993943065,0.0333990151405335,-0.0334130484580994,0.055101634311675904
0.459115687462144,0.162730069828033,0.26117435388565097,0.0886319077491759
0.459721380981224,-0.00731631689071654,-0.18908931798934903,-0.033514088344574096
0.460327074500303,0.129199796390533,-0.08849849767684939,-0.15326506490707398
0.460932768019382,0.0621392495155335,0.048017615604400606,0.0622866929054259
0.461538461538462,-0.0168963950157165,0.206088904666901,0.469440013217926
0.462144155057541,0.16033505029678302,-0.050178185176849396,0.373639231967926
0.46274984857662,-0.0504266684532165,-0.114843712520599,0.12216218118667599
0.4633555420957,-0.06479678564071649,0.146213416385651,0.23712311868667602
0.463961235614779,0.16033505029678302,-0.203459435176849,-0.146080006313324
0.464566929133858,0.0980645424842835,0.0360425179481506,-0.033514088344574096
0.465172622652938,-0.131857332515717,-0.114843712520599,0.184432688999176
0.465778316172017,-0.0552167075157165,0.00969730310440062,-0.0885995375633241
0.466384009691096,0.198655362796783,0.050412635135650606,-0.129314869594574
0.466989703210176,-0.0863519614219665,-0.08131343908309939,0.0119912827491759
0.467595396729255,0.119619718265533,0.146213416385651,0.0622866929054259
0.468201090248334,0.193865323734283,-0.0645483023643494,0.0622866929054259
0.468806783767414,-0.174967684078217,0.0647827523231506,-0.0933895766258241
0.469412477286493,-0.036056551265716504,-0.03580806798934939,-0.0574642836570741
0.470018170805572,-0.230053133296967,-0.03580806798934939,0.0958169663429259
0.470623864324652,0.138779874515533,0.115078162479401,0.0383364975929259
0.471229557843731,0.236975675296783,-0.042993126583099395,0.112582103061676
0.47183525136281,-0.15820254735946698,-0.222619591426849,-0.11973479146957401
0.47244094488189,-0.0576117270469665,0.17495365076065097,-0.0406991469383241
0.473046638400969,-0.0480316489219665,0.00730228357315062,0.0982119858741759
0.473652331920048,0.102854581546783,-0.289680138301849,-0.0311190688133241
0.474258025439128,-0.124672273921967,0.0599927132606506,-0.021538990688324097
0.474863718958207,-0.105512117671967,0.0743628304481506,0.0287564194679259
0.475469412477286,0.13159481592178301,0.00730228357315062,-0.00477385396957415
0.476075105996366,-0.0528216879844665,-0.143583946895599,0.0407315171241759
0.476680799515445,-0.028871492671966502,-0.0070678336143493795,-0.136499928188324
0.477286493034525,-0.112697176265717,-0.08849849767684939,-0.07422942037582411
0.477892186553604,-0.10072207860946701,-0.363925743770599,-0.0838094985008241
0.478497880072683,0.0717193276405335,-0.107658653926849,-0.0191439711570741
0.479103573591763,-0.0456366293907165,0.265964392948151,0.0838418686866759
0.479709267110842,-0.07916690282821649,-0.0573632437705994,-0.06464934225082411
0.480314960629921,0.21542049951553302,0.16297855310440099,0.0455215561866759
0.480920654149001,0.105249601078033,0.16297855310440099,-0.11973479146957401
0.48152634766808,0.157940030765533,-0.00946285314559938,-0.0957845961570741
0.482132041187159,0.0549541909217835,-0.0741283804893494,0.0239663804054259
0.482737734706239,-0.22765811376571699,0.107893103885651,0.00959626321792585
0.483343428225318,-0.172572664546967,0.0168823616981506,0.0527066147804259
0.483949121744397,-0.107907137203217,-0.284890099239349,1.6185092925851098e-05
0.484554815263477,0.28008602685928297,0.0575976937294006,0.11737214212417599
0.485160508782556,0.15075497217178302,0.09831302576065061,0.0934219468116759
0.485766202301635,-0.0121063559532165,-0.042993126583099395,0.13174225931167602
0.486371895820715,0.0765093667030335,0.0623877327919006,0.0838418686866759
0.486977589339794,0.153149991703033,0.117473182010651,-0.155660084438324
0.487583282858873,0.102854581546783,0.0791528695106506,0.107792063999176
0.488188976377953,-0.000131258296966542,-0.045388146114349395,0.222753001499176
0.488794669897032,0.148359952640533,-0.08370845861434939,0.00959626321792585
0.489400363416111,0.102854581546783,0.20369388513565098,-0.026329029750824098
0.490006056935191,0.0549541909217835,0.05280765466690061,0.383219310092926
0.49061175045427,0.19147030420303301,0.043227576541900604,0.126952220249176
0.491217443973349,0.0980645424842835,0.186928748416901,-0.129314869594574
0.491823137492429,0.217815519046783,0.15818851404190098,0.18203766946792602
0.492428831011508,0.0118438393592835,-0.0262279898643494,0.0024112046241758496
0.493034524530587,-0.19891787939071698,0.0647827523231506,-0.033514088344574096
0.493640218049667,-0.07677188329696649,0.14860843591690098,-0.0191439711570741
0.494245911568746,0.112434659671783,-0.09089351720809939,0.28502350931167597
0.494851605087826,-0.0168963950157165,-0.0741283804893494,0.0790518296241759
0.495457298606905,-0.0528216879844665,0.0623877327919006,-0.07422942037582411
0.496062992125984,-0.0408465903282165,-0.213039513301849,0.0742617905616759
0.496668685645064,0.0286089760780335,-0.0717333609580994,-0.0574642836570741
0.497274379164143,0.0381890542030335,0.08394290857315061,-0.0909945570945741
0.497880072683222,-0.103117098140717,-0.31842037267684903,-0.0933895766258241
0.498485766202302,0.0262139565467835,-0.284890099239349,0.225148021030426
0.499091459721381,0.00705380029678346,-0.217829552364349,0.14611237649917602
0.49969715324046,0.167520108890533,-0.00227779455184938,0.153297435092926
0.50030284675954,-0.000131258296966542,0.0791528695106506,0.213172923374176
0.500908540278619,0.0812994057655335,0.105498084354401,0.239518138217926
0.501514233797698,0.016633878421783498,-0.00227779455184938,0.100607005405426
0.502119927316778,-0.155807527828217,-0.16992916173934902,-0.143684986782074
0.502725620835857,0.0190288979530335,-0.124423790645599,0.112582103061676
0.503331314354936,-0.189337801265717,0.0599927132606506,0.129347239780426
0.503937007874016,0.0190288979530335,-0.0765234000205994,0.174852610874176
0.504542701393095,0.248950772953033,-0.0286230093955994,0.019176341342925902
0.505148394912174,-0.0528216879844665,0.246804236698151,-0.0454891860008241
0.505754088431254,0.0525591713905335,0.0360425179481506,0.14611237649917602
0.506359781950333,0.0118438393592835,0.225249060916901,-0.07183440084457411
0.506965475469413,0.00465878076553346,-0.0166479117393494,-0.059859303188324095
0.507571168988492,0.0453741127967835,0.0240674202919006,-0.0933895766258241
0.508176862507571,-0.265978426265717,-0.0286230093955994,0.055101634311675904
0.50878255602665,0.0142388588905335,-0.21064449377059902,0.0359414780616759
0.50938824954573,0.117224698734283,0.0288574593544006,-0.11015471334457401
0.509993943064809,-0.191732820796967,-0.112448692989349,0.0766568100929259
0.510599636583889,-0.00252627782821654,0.040832557010650604,0.019176341342925902
0.511205330102968,-0.028871492671966502,-0.00467281408309938,0.239518138217926
0.511811023622047,-0.0552167075157165,-0.222619591426849,0.24670319681167602
0.512416717141127,-0.0504266684532165,-0.134003868770599,-0.344866627407074
0.513022410660206,-0.155807527828217,0.0336474984169006,-0.0550692641258241
0.513628104179285,0.0405840737342835,0.136633338260651,-0.138894947719574
0.514233797698365,0.19147030420303301,-0.0717333609580994,0.0431265366554259
0.514839491217444,0.00944881982803346,-0.191484337520599,0.189222728061676
0.515445184736523,-0.0480316489219665,-0.0286230093955994,0.0335464585304259
0.516050878255603,0.0812994057655335,0.237224158573151,-0.0526742445945741
0.516656571774682,0.0357940346717835,0.15818851404190098,-0.00716887350082415
0.517262265293761,0.00944881982803346,-0.222619591426849,0.198802806186676
0.517867958812841,-0.0624017661094665,0.0025122445106506197,-0.131709889125824
0.51847365233192,0.0118438393592835,0.112683142948151,0.0383364975929259
0.519079345850999,0.107644620609283,0.0384375374794006,-0.27062102193832405
0.519685039370079,-0.00252627782821654,-0.0262279898643494,0.18682770853042602
0.520290732889158,0.186680265140533,-0.119633751583099,0.19161774759292602
0.520896426408237,0.0789043862342835,0.0120923226356506,-0.059859303188324095
0.521502119927317,-0.0192914145469665,0.048017615604400606,0.641881419467926
0.522107813446396,-0.0863519614219665,-0.0214379508018494,-0.07183440084457411
0.522713506965475,-0.19891787939071698,0.0360425179481506,-0.296966236782074
0.523319200484555,0.0812994057655335,0.0312524788856506,0.184432688999176
0.523924894003634,0.117224698734283,-0.16992916173934902,-0.12212981100082401
0.524530587522714,0.0789043862342835,-0.00946285314559938,0.143717356967926
0.525136281041793,-0.244423250484467,0.040832557010650604,0.06468171243667589
0.525741974560872,-0.0240814536094665,0.0743628304481506,-0.028724049282074098
0.526347668079951,0.268110929203033,0.0743628304481506,0.12455720071792599
0.526953361599031,0.0238189370155335,-0.16513912267684902,-0.196375416469574
0.52755905511811,0.143569913578033,-0.263334923458099,-0.0119589125633241
0.52816474863719,0.222605558109283,-0.10526363439559899,0.055101634311675904
0.528770442156269,0.0333990151405335,0.09352298669815061,-0.136499928188324
0.529376135675348,0.0142388588905335,0.17495365076065097,0.004806224155425851
0.529981829194428,0.0142388588905335,-0.038203087520599394,0.100607005405426
0.530587522713507,-0.009711336421966539,0.09591800622940061,0.18203766946792602
0.531193216232586,0.15554501123428302,0.0815478890419006,-0.11015471334457401
0.531798909751666,0.0884844643592835,0.0791528695106506,0.100607005405426
0.532404603270745,0.0765093667030335,0.13902835779190098,0.294603587436676
0.533010296789824,-0.0624017661094665,-0.186694298458099,-0.028724049282074098
0.533615990308904,0.112434659671783,0.103103064823151,0.112582103061676
0.534221683827983,0.0860894448280335,-0.0238329703330994,0.105397044467926
0.534827377347062,0.0932745034217835,-0.256149864864349,-0.170030201625824
0.535433070866142,0.244160733890533,-0.0214379508018494,0.004806224155425851
0.536038764385221,-0.028871492671966502,0.0695727913856506,-0.0023788344383241502
0.5366444579043,0.133989835453033,-0.12921382970809903,-0.165240162563324
0.53725015142338,0.102854581546783,-0.0262279898643494,0.0455215561866759
0.537855844942459,0.0118438393592835,0.0312524788856506,-0.028724049282074098
0.538461538461538,-0.0863519614219665,-0.282495079708099,0.12455720071792599
0.539067231980618,-0.122277254390717,-0.09328853673934939,0.031151438999175902
0.539672925499697,0.174705167484283,0.24440921716690098,-0.129314869594574
0.540278619018776,0.21063046045303302,-0.0525732047080994,-0.06704436178207411
0.540884312537856,0.0501641518592835,-0.193879357051849,-0.325706471157074
0.541490006056935,-0.13425235204696698,0.0384375374794006,-0.10296965475082401
0.542095699576015,0.00226376123428346,0.0192773812294006,0.23233307962417601
0.542701393095094,0.306431241703033,0.146213416385651,-0.00716887350082415
0.543307086614173,-0.12706729345321702,0.13902835779190098,-0.0478842055320741
0.543912780133253,-0.0145013754844665,-0.047783165645599396,-0.033514088344574096
0.544518473652332,0.203445401859283,-0.16034908361434902,-0.131709889125824
0.545124167171411,0.0789043862342835,-0.119633751583099,0.0479165757179259
0.545729860690491,-0.107907137203217,-0.00946285314559938,0.105397044467926
0.54633555420957,-0.07198184423446649,0.05280765466690061,-0.11254973287582401
0.546941247728649,0.0956695229530335,-0.00227779455184938,0.227543040561676
0.547546941247729,0.0501641518592835,-0.124423790645599,0.208382884311676
0.548152634766808,-0.07677188329696649,-0.0645483023643494,-0.026329029750824098
0.548758328285887,-0.0600067465782165,0.043227576541900604,0.280233470249176
0.549364021804967,0.0405840737342835,-0.0525732047080994,-0.028724049282074098
0.549969715324046,-0.117487215328217,-0.0693383414268494,-0.12212981100082401
0.550575408843125,0.00226376123428346,0.045622596073150605,0.584400950717926
0.551181102362205,-0.0552167075157165,-0.0214379508018494,-0.0550692641258241
0.551786795881284,0.0741143471717835,0.206088904666901,0.174852610874176
0.552392489400363,0.34954159326553297,0.155793494510651,0.34729401712417596
0.552998182919443,-0.0408465903282165,0.0192773812294006,-0.131709889125824
0.553603876438522,0.00944881982803346,-0.038203087520599394,0.23712311868667602
0.554209569957601,-0.0815619223594665,0.048017615604400606,-0.0478842055320741
0.554815263476681,-0.191732820796967,-0.00946285314559938,0.055101634311675904
0.55542095699576,-0.0384515707969665,0.0623877327919006,0.0766568100929259
0.556026650514839,-0.129462312984467,-0.14597896642684902,-0.00477385396957415
0.556632344033919,-0.000131258296966542,-0.08370845861434939,-0.32091643209457404
0.557238037552998,-0.06719180517196649,-0.138793907833099,0.162877513217926
0.557843731072078,-0.07677188329696649,-0.191484337520599,-0.0191439711570741
0.558449424591157,0.0118438393592835,0.119868201541901,-0.23230070943832398
0.559055118110236,0.031003995609283498,-0.10526363439559899,0.160482493686676
0.559660811629316,-0.0168963950157165,0.0240674202919006,0.0862368882179259
0.560266505148395,0.00226376123428346,0.12944827966690098,0.0455215561866759
0.560872198667474,-0.0456366293907165,0.09112796716690061,-0.00716887350082415
0.561477892186554,-0.0576117270469665,0.004907264041900621,0.019176341342925902
0.562083585705633,-0.129462312984467,0.0192773812294006,-0.0766244399070741
0.562689279224712,-0.00252627782821654,0.13423831872940098,-0.023934010219574097
0.563294972743792,0.0597442299842835,0.15818851404190098,0.00959626321792585
0.563900666262871,-0.0600067465782165,0.0168823616981506,0.110187083530426
0.56450635978195,0.00944881982803346,0.160583533573151,0.153297435092926
0.56511205330103,-0.00252627782821654,-0.00467281408309938,1.6185092925851098e-05
0.565717746820109,0.153149991703033,-0.143583946895599,0.105397044467926
0.566323440339188,-0.009711336421966539,-0.107658653926849,0.227543040561676
0.566929133858268,0.100459562015533,0.0623877327919006,0.20119782571792602
0.567534827377347,0.148359952640533,0.151003455448151,0.0718667710304259
0.568140520896426,0.0812994057655335,0.09112796716690061,-0.225115650844574
0.568746214415506,0.0597442299842835,0.08873294763565061,0.213172923374176
0.569351907934585,0.0860894448280335,-0.241779747676849,-0.0383041274070741
0.569957601453664,0.33996151514053297,-0.143583946895599,-0.138894947719574
0.570563294972744,-0.14862246923446698,-0.040598107051849394,0.153297435092926
0.571168988491823,-0.07677188329696649,0.0144873421669006,0.0119912827491759
0.571774682010902,-0.14862246923446698,-0.045388146114349395,0.0958169663429259
0.572380375529982,-0.0192914145469665,-0.26812496252059903,0.0838418686866759
0.572986069049061,0.265715909671783,-0.0597582633018494,0.0934219468116759
0.57359176256814,-0.06479678564071649,-0.0190429312705994,-0.07183440084457411
0.57419745608722,-0.06719180517196649,0.045622596073150605,-0.16284514303207398
0.574803149606299,-0.0192914145469665,0.0025122445106506197,0.0335464585304259
0.575408843125379,0.119619718265533,-0.00227779455184938,-0.00956389303207415
0.576014536644458,0.0812994057655335,-0.045388146114349395,-0.06943938131332411
0.576620230163537,0.00465878076553346,0.0743628304481506,-0.028724049282074098
0.577225923682617,0.0118438393592835,0.09591800622940061,0.0886319077491759
0.577831617201696,0.0956695229530335,-0.042993126583099395,-0.0478842055320741
0.578437310720775,-0.0528216879844665,-0.0166479117393494,-0.146080006313324
0.579043004239855,-0.110302156734467,-0.10286861486434899,0.057496653842925904
0.579648697758934,0.0549541909217835,0.0025122445106506197,0.110187083530426
0.580254391278013,-0.0911420004844665,0.0767578499794006,0.36645417337417596
0.580860084797093,0.06453426904678351,0.105498084354401,0.239518138217926
0.581465778316172,-0.00731631689071654,0.201298865604401,0.459859935092926
0.582071471835251,-0.141437410640717,-0.0118578726768494,0.804742747592926
0.582677165354331,0.031003995609283498,-0.17471920080184902,0.0527066147804259
0.58328285887341,0.186680265140533,-0.0190429312705994,-0.11254973287582401
0.583888552392489,-0.0911420004844665,-0.21543453283309902,-0.0454891860008241
0.584494245911569,-0.00252627782821654,0.13423831872940098,0.06707673196792589
0.585099939430648,0.174705167484283,-0.0597582633018494,0.352084056186676
0.585705632949727,-0.0264764731407165,-0.15555904455184902,-0.0119589125633241
0.586311326468807,-0.0456366293907165,-0.191484337520599,-0.18200529928207398
0.586917019987886,-0.146227449703217,-0.270519982051849,0.059891673374175905
0.587522713506965,0.22500057764053302,0.297099646854401,0.031151438999175902
0.588128407026045,-0.07198184423446649,-0.167534142208099,-0.277806080532074
0.588734100545124,-0.07437686376571649,-0.16992916173934902,-0.021538990688324097
0.589339794064203,0.153149991703033,0.0264624398231506,-0.0143539320945741
0.589945487583283,-0.0576117270469665,0.0168823616981506,0.057496653842925904
0.590551181102362,0.14117489404678302,0.273149451541901,0.17724763040542602
0.591156874621442,0.0286089760780335,0.21327396326065098,-0.11973479146957401
0.591762568140521,-0.0528216879844665,-0.00946285314559938,-0.0430941664695741
0.5923682616596,0.217815519046783,0.050412635135650606,0.0742617905616759
0.59297395517868,0.102854581546783,-0.09089351720809939,-0.148475025844574
0.593579648697759,-0.009711336421966539,-0.0525732047080994,-0.23230070943832398
0.594185342216838,-0.0336615317344665,0.0120923226356506,0.0143863022804259
0.594791035735918,-0.00731631689071654,0.0360425179481506,0.059891673374175905
0.595396729254997,-0.07198184423446649,0.112683142948151,0.220357981967926
0.596002422774076,-0.0384515707969665,-0.191484337520599,0.0119912827491759
0.596608116293156,-0.07437686376571649,-0.10047359533309899,-0.17242522115707398
0.597213809812235,0.00705380029678346,-0.18429927892684903,0.234728099155426
0.597819503331314,0.22500057764053302,-0.0573632437705994,0.0239663804054259
0.598425196850394,0.177100187015533,0.050412635135650606,-0.170030201625824
0.599030890369473,0.0621392495155335,0.0791528695106506,0.0527066147804259
0.599636583888552,-0.141437410640717,0.0025122445106506197,-0.021538990688324097
0.600242277407632,-0.103117098140717,-0.232199669551849,-0.0167489516258241
0.600847970926711,0.0741143471717835,-0.265729942989349,0.0143863022804259
0.60145366444579,0.133989835453033,-0.22980465002059902,0.105397044467926
0.60205935796487,-0.256398348140717,-0.0717333609580994,0.0790518296241759
0.602665051483949,-0.0480316489219665,-0.20106441564559902,0.0407315171241759
0.603270745003028,0.0357940346717835,0.206088904666901,0.222753001499176
0.603876438522108,-0.07916690282821649,0.110288123416901,0.134137278842926
0.604482132041187,0.248950772953033,-0.110053673458099,0.194012767124176
0.605087825560267,0.117224698734283,0.0288574593544006,-0.0502792250633241
0.605693519079346,-0.07677188329696649,-0.15555904455184902,0.0934219468116759
0.606299212598425,-0.036056551265716504,0.12944827966690098,0.0407315171241759
0.606904906117504,0.129199796390533,0.0719678109169006,-0.06943938131332411
0.607510599636584,-0.0624017661094665,0.167768592166901,-0.00716887350082415
0.608116293155663,-0.07916690282821649,0.0336474984169006,0.110187083530426
0.608721986674743,0.318406339359283,-0.0693383414268494,0.031151438999175902
0.609327680193822,-0.0432416098594665,0.000117224979400624,-0.23230070943832398
0.609933373712901,-0.0815619223594665,-0.08131343908309939,0.680201731967926
0.610539067231981,0.0573492104530335,0.0647827523231506,0.0479165757179259
0.61114476075106,-0.036056551265716504,0.115078162479401,-0.459827564907074
0.611750454270139,-0.0624017661094665,0.0025122445106506197,0.34729401712417596
0.612356147789219,-0.124672273921967,-0.138793907833099,0.160482493686676
0.612961841308298,0.0980645424842835,0.0695727913856506,-0.0502792250633241
0.613567534827377,0.0836944252967835,-0.08370845861434939,0.138927317905426
0.614173228346457,-0.10072207860946701,0.0671777718544006,0.0431265366554259
0.614778921865536,0.00226376123428346,-0.0118578726768494,0.0766568100929259
0.615384615384615,0.0357940346717835,-0.0741283804893494,0.189222728061676
0.615990308903695,-0.16778262548446699,0.196508826541901,0.0886319077491759
0.616596002422774,-0.0624017661094665,-0.110053673458099,-0.0454891860008241
0.617201695941853,0.248950772953033,-0.153164025020599,-0.0119589125633241
0.617807389460933,0.0238189370155335,-0.10286861486434899,-0.0909945570945741
0.618413082980012,-0.0384515707969665,-0.193879357051849,-0.126919850063324
0.619018776499091,-0.186942781734467,0.0647827523231506,0.100607005405426
0.619624470018171,-0.07437686376571649,-0.0765234000205994,0.0479165757179259
0.62023016353725,0.177100187015533,-0.153164025020599,0.0838418686866759
0.620835857056329,-0.0624017661094665,0.000117224979400624,0.0383364975929259
0.621441550575409,0.203445401859283,-0.162744103145599,-0.11254973287582401
0.622047244094488,0.0573492104530335,-0.00467281408309938,-0.0454891860008241
0.622652937613568,-0.0815619223594665,0.09352298669815061,0.00959626321792585
0.623258631132647,-0.000131258296966542,0.18453372888565098,-0.18679533834457399
0.623864324651726,0.0238189370155335,0.00969730310440062,-0.10775969381332401
0.624470018170806,-0.172572664546967,0.177348670291901,-0.11494475240707401
0.625075711689885,0.0405840737342835,0.09831302576065061,-0.0430941664695741
0.625681405208964,0.110039640140533,-0.0334130484580994,0.055101634311675904
0.626287098728044,-0.0384515707969665,-0.126818810176849,0.057496653842925904
0.626892792247123,-0.0408465903282165,-0.371110802364349,-0.0909945570945741
0.627498485766202,-0.00731631689071654,-0.045388146114349395,-0.10296965475082401
0.628104179285282,0.14117489404678302,-0.198669396114349,-0.00477385396957415
0.628709872804361,-0.0815619223594665,-0.12921382970809903,0.14132233743667602
0.62931556632344,-0.10072207860946701,-0.0741283804893494,0.13174225931167602
0.62992125984252,-0.13425235204696698,-0.0190429312705994,0.0383364975929259
0.630526953361599,-0.0432416098594665,-0.00946285314559938,0.215567942905426
0.631132646880678,0.0549541909217835,0.00730228357315062,0.0958169663429259
0.631738340399758,-0.0911420004844665,-0.0717333609580994,-0.0167489516258241
0.632344033918837,-0.184547762203217,-0.304050255489349,0.114977122592926
0.632949727437916,0.0956695229530335,-0.045388146114349395,0.016781321811675902
0.633555420956996,-0.0959320395469665,0.14381839685440098,-0.15326506490707398
0.634161114476075,-0.0576117270469665,0.402480506229401,0.0742617905616759
0.634766807995154,0.143569913578033,0.043227576541900604,-0.059859303188324095
0.635372501514234,-0.0504266684532165,-0.0549682242393494,-0.0478842055320741
0.635978195033313,-0.122277254390717,0.103103064823151,0.057496653842925904
0.636583888552392,-0.174967684078217,-0.311235314083099,-0.059859303188324095
0.637189582071472,0.06453426904678351,0.0719678109169006,0.179642649936676
0.637795275590551,-0.119882234859467,0.09591800622940061,0.299393626499176
0.638400969109631,0.0286089760780335,-0.10047359533309899,0.138927317905426
0.63900666262871,0.16512508935928302,0.0671777718544006,0.12455720071792599
0.639612356147789,0.14117489404678302,-0.16034908361434902,0.0886319077491759
0.640218049666869,0.404627042484283,0.00730228357315062,-0.0119589125633241
0.640823743185948,0.031003995609283498,0.0767578499794006,-0.0454891860008241
0.641429436705027,-0.189337801265717,-0.256149864864349,-0.24667082662582399
0.642035130224107,0.129199796390533,-0.0549682242393494,0.138927317905426
0.642640823743186,0.0262139565467835,-0.23938472814559902,0.258678294467926
0.643246517262265,-0.0839569418907165,-0.236989708614349,0.0982119858741759
0.643852210781345,-0.0192914145469665,-0.00946285314559938,0.229938060092926
0.644457904300424,0.0381890542030335,-0.21064449377059902,0.263468333530426
0.645063597819503,0.203445401859283,-0.00467281408309938,0.138927317905426
0.645669291338583,0.0789043862342835,-0.0525732047080994,-0.148475025844574
0.646274984857662,0.0597442299842835,-0.122028771114349,0.158087474155426
0.646880678376741,0.14117489404678302,0.15339847497940098,-0.0383041274070741
0.647486371895821,-0.0839569418907165,0.0216724007606506,0.0742617905616759
0.6480920654149,0.117224698734283,-0.0717333609580994,0.110187083530426
0.648697758933979,0.117224698734283,-0.14597896642684902,-0.11733977193832401
0.649303452453059,0.00226376123428346,-0.232199669551849,0.150902415561676
0.649909145972138,0.0812994057655335,0.13423831872940098,-0.00956389303207415
0.650514839491217,0.0381890542030335,-0.09089351720809939,0.06468171243667589
0.651120533010297,0.00944881982803346,0.004907264041900621,0.0359414780616759
0.651726226529376,-0.0959320395469665,0.05280765466690061,0.179642649936676
0.652331920048455,-0.146227449703217,-0.10526363439559899,-0.0862045180320741
0.652937613567535,-0.0432416098594665,-0.0765234000205994,-0.06464934225082411
0.653543307086614,0.00944881982803346,-0.16513912267684902,0.0790518296241759
0.654149000605693,0.13159481592178301,-0.208249474239349,-0.15326506490707398
0.654754694124773,-0.131857332515717,-0.270519982051849,-0.0167489516258241
0.655360387643852,-0.215683016109467,-0.157954064083099,0.0383364975929259
0.655966081162932,-0.0552167075157165,-0.110053673458099,0.170062571811676
0.656571774682011,-0.0480316489219665,0.0168823616981506,-0.201165455532074
0.65717746820109,0.114829679203033,0.124658240604401,0.016781321811675902
0.65778316172017,0.12680477685928299,0.004907264041900621,0.20598786478042602
0.658388855239249,0.0621392495155335,-0.050178185176849396,0.12216218118667599
0.658994548758328,0.0956695229530335,0.23961917810440098,0.0886319077491759
0.659600242277408,0.253740812015533,-0.0166479117393494,0.0335464585304259
0.660205935796487,0.133989835453033,0.122263221073151,-0.38079192037582404
0.660811629315566,0.114829679203033,-0.00467281408309938,-0.12212981100082401
0.661417322834646,-0.0408465903282165,-0.203459435176849,0.244308177280426
0.662023016353725,-0.07198184423446649,0.103103064823151,-0.11733977193832401
0.662628709872804,-0.0504266684532165,-0.00227779455184938,0.138927317905426
0.663234403391884,-0.0528216879844665,0.0336474984169006,0.00959626321792585
0.663840096910963,0.0956695229530335,-0.0597582633018494,-0.0383041274070741
0.664445790430042,0.016633878421783498,0.0384375374794006,0.220357981967926
0.665051483949122,0.0573492104530335,-0.0717333609580994,0.203592845249176
0.665657177468201,-0.0384515707969665,0.0264624398231506,-0.11254973287582401
0.66626287098728,0.016633878421783498,0.08394290857315061,0.12455720071792599
0.66686856450636,0.138779874515533,0.0552026741981506,-0.035909107875824096
0.667474258025439,-0.0815619223594665,0.14381839685440098,-0.24188078756332398
0.668079951544518,0.124409757328033,-0.0525732047080994,0.0431265366554259
0.668685645063598,-0.230053133296967,-0.124423790645599,-0.275411061000824
0.669291338582677,0.0573492104530335,-0.0070678336143493795,-0.239485768032074
0.669897032101756,0.189075284671783,-0.143583946895599,0.0766568100929259
0.670502725620836,-0.0264764731407165,-0.119633751583099,-0.184400318813324
0.671108419139915,0.21063046045303302,0.0695727913856506,0.28502350931167597
0.671714112658994,-0.107907137203217,-0.162744103145599,0.215567942905426
0.672319806178074,0.110039640140533,-0.0980785758018494,0.30657868509292596
0.672925499697153,0.16512508935928302,0.09831302576065061,0.210777903842926
0.673531193216233,-0.06479678564071649,-0.00946285314559938,-0.287386158657074
0.674136886735312,0.0357940346717835,-0.0142528922080994,0.00720124368667585
0.674742580254391,0.20584042139053302,0.182138709354401,-0.160450123500824
0.675348273773471,0.0884844643592835,0.0360425179481506,-0.239485768032074
0.67595396729255,-0.0480316489219665,0.00969730310440062,-0.026329029750824098
0.676559660811629,-0.009711336421966539,-0.110053673458099,0.167667552280426
0.677165354330709,0.0333990151405335,0.0743628304481506,0.114977122592926
0.677771047849788,-0.06479678564071649,-0.0286230093955994,0.217962962436676
0.678376741368867,0.0118438393592835,0.050412635135650606,-0.06464934225082411
0.678982434887947,-0.07437686376571649,0.0312524788856506,0.138927317905426
0.679588128407026,-0.172572664546967,-0.227409630489349,0.0431265366554259
0.680193821926105,-0.0480316489219665,0.0168823616981506,-0.150870045375824
0.680799515445185,0.184285245609283,-0.00227779455184938,-0.11973479146957401
0.681405208964264,0.0932745034217835,-0.10047359533309899,0.00720124368667585
0.682010902483343,-0.0624017661094665,-0.124423790645599,0.134137278842926
0.682616596002423,-0.20370791845321698,0.0719678109169006,0.0814468491554259
0.683222289521502,-0.117487215328217,0.110288123416901,0.016781321811675902
0.683827983040581,0.0142388588905335,0.220459021854401,-0.131709889125824
0.684433676559661,0.0381890542030335,-0.0717333609580994,-0.00956389303207415
0.68503937007874,0.0693243081092835,-0.122028771114349,-0.340076588344574
0.68564506359782,-0.0887469809532165,0.08394290857315061,0.019176341342925902
0.686250757116899,0.016633878421783498,0.045622596073150605,0.23712311868667602
0.686856450635978,-0.0863519614219665,0.0384375374794006,-0.0790194594383241
0.687462144155058,0.13159481592178301,-0.138793907833099,0.0910269272804259
0.688067837674137,0.0142388588905335,-0.110053673458099,0.12216218118667599
0.688673531193216,-0.0192914145469665,-0.09568355627059939,1.6185092925851098e-05
0.689279224712296,0.14117489404678302,-0.198669396114349,0.004806224155425851
0.689884918231375,-0.036056551265716504,-0.162744103145599,1.6185092925851098e-05
0.690490611750454,0.0286089760780335,0.0767578499794006,-0.021538990688324097
0.691096305269534,0.198655362796783,0.323444861698151,0.174852610874176
0.691701998788613,0.208235440921783,0.09831302576065061,-0.10296965475082401
0.692307692307692,0.100459562015533,-0.13639888830184901,-0.366421803188324
0.692913385826772,-0.155807527828217,0.000117224979400624,0.059891673374175905
0.693519079345851,-0.20849795751571698,0.112683142948151,-0.035909107875824096
0.69412477286493,-0.00252627782821654,0.105498084354401,-0.0502792250633241
0.69473046638401,-0.0863519614219665,0.177348670291901,0.217962962436676
0.695336159903089,-0.028871492671966502,0.105498084354401,-0.11015471334457401
0.695941853422168,-0.06719180517196649,-0.0166479117393494,-0.10296965475082401
0.696547546941248,-0.028871492671966502,-0.08131343908309939,-0.165240162563324
0.697153240460327,-0.06719180517196649,-0.0238329703330994,0.194012767124176
0.697758933979406,-0.26837344579696704,0.0264624398231506,-0.062254322719574096
0.698364627498486,-0.0863519614219665,-0.0645483023643494,-0.160450123500824
0.698970321017565,-0.0168963950157165,-0.138793907833099,0.110187083530426
0.699576014536644,-0.122277254390717,0.0360425179481506,-0.0478842055320741
0.700181708055724,-0.07437686376571649,-0.138793907833099,-0.06464934225082411
0.700787401574803,-0.0600067465782165,-0.270519982051849,-0.155660084438324
0.701393095093882,0.00944881982803346,0.09112796716690061,0.11976716165542599
0.701998788612962,-0.00492129735946654,0.0623877327919006,0.0359414780616759
0.702604482132041,-0.265978426265717,0.0025122445106506197,0.0814468491554259
0.703210175651121,0.138779874515533,0.124658240604401,0.14132233743667602
0.7038158691702,0.169915128421783,-0.117238732051849,-0.0909945570945741
0.704421562689279,-0.07677188329696649,-0.045388146114349395,-0.0143539320945741
0.705027256208359,0.06692928857803351,-0.00467281408309938,0.0790518296241759
0.705632949727438,-0.0312665122032165,0.151003455448151,-0.18679533834457399
0.706238643246517,-0.0312665122032165,0.045622596073150605,-0.165240162563324
0.706844336765597,-0.177362703609467,-0.08849849767684939,-0.0766244399070741
0.707450030284676,-0.112697176265717,0.09352298669815061,-0.16763518209457398
0.708055723803755,0.102854581546783,-0.0525732047080994,-0.07183440084457411
0.708661417322835,-0.10072207860946701,0.151003455448151,-0.205955494594574
0.709267110841914,0.241765714359283,0.103103064823151,0.00720124368667585
0.709872804360993,0.0190288979530335,0.0336474984169006,0.06468171243667589
0.710478497880073,-0.103117098140717,-0.00946285314559938,-0.00716887350082415
0.711084191399152,0.0357940346717835,0.225249060916901,-0.10536467428207401
0.711689884918231,-0.06719180517196649,-0.08370845861434939,0.14132233743667602
0.712295578437311,-0.028871492671966502,0.0575976937294006,0.25628327493667596
0.71290127195639,-0.06719180517196649,0.23482913904190097,0.0766568100929259
0.713506965475469,0.0357940346717835,0.0791528695106506,0.198802806186676
0.714112658994549,-0.0911420004844665,0.048017615604400606,0.0479165757179259
0.714718352513628,0.0190288979530335,-0.16034908361434902,-0.0957845961570741
0.715324046032707,-0.0432416098594665,0.232434119510651,-0.11015471334457401
0.715929739551787,-0.20370791845321698,0.0815478890419006,0.100607005405426
0.716535433070866,-0.107907137203217,0.09112796716690061,0.0479165757179259
0.717141126589945,0.0525591713905335,0.15339847497940098,0.217962962436676
0.717746820109025,-0.0216864340782165,-0.20585445470809902,0.112582103061676
0.718352513628104,0.16512508935928302,0.0384375374794006,-0.062254322719574096
0.718958207147184,0.20584042139053302,0.0767578499794006,-0.0430941664695741
0.719563900666263,-0.105512117671967,-0.122028771114349,-0.18200529928207398
0.720169594185342,0.0980645424842835,-0.045388146114349395,0.0718667710304259
0.720775287704422,0.117224698734283,-0.107658653926849,0.194012767124176
0.721380981223501,0.0573492104530335,0.0719678109169006,0.189222728061676
0.72198667474258,-0.12706729345321702,0.0647827523231506,-0.0023788344383241502
0.72259236826166,-0.06958682470321649,-0.00946285314559938,-0.06464934225082411
0.723198061780739,0.172310147953033,0.232434119510651,-0.225115650844574
0.723803755299818,0.031003995609283498,0.0336474984169006,-0.0143539320945741
0.724409448818898,0.0836944252967835,0.124658240604401,0.158087474155426
0.725015142337977,0.0477691323280335,0.08633792810440061,0.189222728061676
0.725620835857056,-0.0408465903282165,0.00969730310440062,0.14611237649917602
0.726226529376136,0.0525591713905335,0.004907264041900621,0.0958169663429259
0.726832222895215,0.124409757328033,0.0192773812294006,0.129347239780426
0.727437916414294,0.179495206546783,0.0192773812294006,-0.0526742445945741
0.728043609933374,-0.00492129735946654,-0.265729942989349,-0.15326506490707398
0.728649303452453,-0.165387605953217,-0.12921382970809903,-0.0406991469383241
0.729254996971532,0.0238189370155335,-0.0741283804893494,0.0407315171241759
0.729860690490612,0.0429790932655335,-0.0310180289268494,0.019176341342925902
0.730466384009691,0.110039640140533,-0.162744103145599,0.5293155014991759
0.73107207752877,0.213025479984283,-0.16513912267684902,0.0934219468116759
0.73167777104785,-0.0384515707969665,-0.08370845861434939,0.25388825540542603
0.732283464566929,0.0405840737342835,-0.126818810176849,0.100607005405426
0.732889158086008,-0.0240814536094665,-0.246569786739349,-0.0430941664695741
0.733494851605088,-0.0600067465782165,0.0288574593544006,0.32573884134292597
0.734100545124167,0.00705380029678346,0.25159427576065096,0.0527066147804259
0.734706238643246,0.122014737796783,-0.10526363439559899,0.13653229837417602
0.735311932162326,0.0453741127967835,0.048017615604400606,0.0694717514991759
0.735917625681405,0.0405840737342835,0.0120923226356506,-0.0766244399070741
0.736523319200485,0.0333990151405335,-0.16992916173934902,-0.0454891860008241
0.737129012719564,-0.165387605953217,0.0815478890419006,-0.033514088344574096
0.737734706238643,0.102854581546783,0.172558631229401,0.0958169663429259
0.738340399757723,-0.0576117270469665,-0.09568355627059939,0.210777903842926
0.738946093276802,-0.206102937984467,-0.038203087520599394,0.13174225931167602
0.739551786795881,-0.117487215328217,0.12944827966690098,0.0143863022804259
0.740157480314961,-0.13425235204696698,-0.0310180289268494,0.105397044467926
0.74076317383404,0.251345792484283,-0.0262279898643494,0.112582103061676
0.741368867353119,0.0477691323280335,0.08633792810440061,-0.174820240688324
0.741974560872199,0.0836944252967835,-0.0142528922080994,-0.0814144789695741
0.742580254391278,0.0812994057655335,-0.0142528922080994,-0.00956389303207415
0.743185947910357,-0.0863519614219665,-0.09328853673934939,-0.138894947719574
0.743791641429437,0.129199796390533,0.040832557010650604,0.0503115952491759
0.744397334948516,-0.220473055171967,0.05280765466690061,0.0694717514991759
0.745003028467595,-0.0408465903282165,-0.08131343908309939,0.0119912827491759
0.745608721986675,0.119619718265533,0.043227576541900604,0.220357981967926
0.746214415505754,0.0357940346717835,0.050412635135650606,0.158087474155426
0.746820109024833,0.0932745034217835,0.0552026741981506,0.143717356967926
0.747425802543913,0.0765093667030335,0.14381839685440098,0.14132233743667602
0.748031496062992,0.0860894448280335,-0.040598107051849394,0.00720124368667585
0.748637189582071,0.27050594873428296,-0.110053673458099,-0.251460865688324
0.749242883101151,-0.0240814536094665,0.004907264041900621,-0.0957845961570741
0.74984857662023,-0.0839569418907165,0.00730228357315062,0.057496653842925904
0.75045427013931,0.0693243081092835,0.22285404138565099,0.019176341342925902
0.751059963658389,-0.0121063559532165,0.0312524788856506,-0.170030201625824
0.751665657177468,-0.0456366293907165,-0.124423790645599,0.059891673374175905
0.752271350696547,-0.10072207860946701,0.09352298669815061,0.0407315171241759
0.752877044215627,0.016633878421783498,0.356975135135651,0.019176341342925902
0.753482737734706,0.0381890542030335,0.0192773812294006,0.0910269272804259
0.754088431253786,0.0789043862342835,0.08873294763565061,0.0335464585304259
0.754694124772865,-0.0168963950157165,-0.0142528922080994,0.24191315774917602
0.755299818291944,-0.06719180517196649,-0.148373985958099,-0.035909107875824096
0.755905511811024,0.102854581546783,0.124658240604401,-0.10775969381332401
0.756511205330103,-0.0552167075157165,-0.18908931798934903,-0.18200529928207398
0.757116898849182,0.00705380029678346,-0.045388146114349395,0.0263613999366759
0.757722592368262,0.258530851078033,0.313864783573151,0.019176341342925902
0.758328285887341,-0.0839569418907165,0.0025122445106506197,-0.021538990688324097
0.75893397940642,0.12680477685928299,-0.0597582633018494,-0.028724049282074098
0.7595396729255,0.0860894448280335,-0.21064449377059902,-0.0119589125633241
0.760145366444579,-0.0456366293907165,-0.14118892736434902,0.304183665561676
0.760751059963658,0.203445401859283,0.0623877327919006,-0.0119589125633241
0.761356753482738,-0.215683016109467,-0.122028771114349,-0.294571217250824
0.761962447001817,-0.112697176265717,0.265964392948151,0.438304759311676
0.762568140520896,0.0333990151405335,0.0815478890419006,0.179642649936676
0.763173834039976,-0.13425235204696698,-0.148373985958099,-0.24188078756332398
0.763779527559055,-0.0983270590782165,0.00730228357315062,0.134137278842926
0.764385221078134,0.00226376123428346,0.165373572635651,-0.0526742445945741
0.764990914597214,0.184285245609283,0.263569373416901,-0.0167489516258241
0.765596608116293,0.105249601078033,0.117473182010651,-0.131709889125824
0.766202301635373,-0.0911420004844665,-0.10286861486434899,0.103002024936676
0.766807995154452,-0.0480316489219665,-0.0573632437705994,0.158087474155426
0.767413688673531,0.13638485498428302,-0.213039513301849,0.0766568100929259
0.768019382192611,0.227395597171783,-0.12921382970809903,0.25628327493667596
0.76862507571169,0.0621392495155335,0.0192773812294006,0.0431265366554259
0.769230769230769,-0.0983270590782165,-0.275310021114349,0.031151438999175902
0.769836462749849,0.0573492104530335,0.107893103885651,0.0263613999366759
0.770442156268928,0.00705380029678346,0.131843299198151,-0.0383041274070741
0.771047849788007,-0.0145013754844665,-0.13639888830184901,-0.205955494594574
0.771653543307087,0.0262139565467835,0.0695727913856506,0.12216218118667599
0.772259236826166,-0.151017488765717,-0.138793907833099,-0.0574642836570741
0.772864930345245,-0.0983270590782165,-0.10047359533309899,-0.17242522115707398
0.773470623864325,0.00226376123428346,0.227644080448151,0.299393626499176
0.774076317383404,0.0573492104530335,0.08394290857315061,0.239518138217926
0.774682010902483,0.06453426904678351,-0.08131343908309939,0.270653392124176
0.775287704421563,0.0381890542030335,-0.08370845861434939,0.0910269272804259
0.775893397940642,-0.009711336421966539,0.0312524788856506,0.12216218118667599
0.776499091459721,0.00944881982803346,-0.045388146114349395,0.100607005405426
0.777104784978801,0.0741143471717835,0.14381839685440098,-0.0550692641258241
0.77771047849788,-0.0935370200157165,0.16297855310440099,-0.07183440084457411
0.778316172016959,-0.0911420004844665,-0.17950923986434902,-0.138894947719574
0.778921865536039,0.133989835453033,0.155793494510651,-0.026329029750824098
0.779527559055118,-0.0312665122032165,0.23482913904190097,0.270653392124176
0.780133252574197,-0.215683016109467,0.19411380701065098,0.179642649936676
0.780738946093277,0.0693243081092835,0.119868201541901,0.0479165757179259
0.781344639612356,0.0908794838905335,-0.08131343908309939,0.150902415561676
0.781950333131435,0.06453426904678351,-0.038203087520599394,0.0359414780616759
0.782556026650515,0.0812994057655335,-0.0669433218955994,-0.12212981100082401
0.783161720169594,-0.225263094234467,0.08873294763565061,-0.138894947719574
0.783767413688674,0.0525591713905335,0.004907264041900621,0.0862368882179259
0.784373107207753,0.157940030765533,0.0623877327919006,-0.00956389303207415
0.784978800726832,0.0190288979530335,0.13902835779190098,-0.0814144789695741
0.785584494245912,-0.0216864340782165,0.0192773812294006,0.0359414780616759
0.786190187764991,0.143569913578033,-0.03580806798934939,0.0359414780616759
0.78679588128407,0.110039640140533,-0.0765234000205994,0.203592845249176
0.78740157480315,0.222605558109283,0.122263221073151,-0.021538990688324097
0.788007268322229,0.19147030420303301,-0.047783165645599396,-0.138894947719574
0.788612961841308,-0.00252627782821654,-0.0693383414268494,-0.0383041274070741
0.789218655360388,-0.00731631689071654,0.0360425179481506,0.004806224155425851
0.789824348879467,0.110039640140533,0.0216724007606506,-0.035909107875824096
0.790430042398546,0.15554501123428302,-0.0597582633018494,0.36645417337417596
0.791035735917626,0.00944881982803346,-0.0142528922080994,0.217962962436676
0.791641429436705,0.0525591713905335,0.0671777718544006,0.0814468491554259
0.792247122955784,-0.07916690282821649,-0.138793907833099,0.184432688999176
0.792852816474864,-0.112697176265717,-0.042993126583099395,-0.0550692641258241
0.793458509993943,-0.237238191890717,0.0743628304481506,-0.184400318813324
0.794064203513022,0.0405840737342835,-0.0980785758018494,-0.198770436000824
0.794669897032102,0.169915128421783,-0.10526363439559899,0.20598786478042602
0.795275590551181,0.0812994057655335,0.0719678109169006,0.134137278842926
0.79588128407026,0.15075497217178302,-0.00227779455184938,-0.0430941664695741
0.79648697758934,0.00226376123428346,0.13902835779190098,-0.0574642836570741
0.797092671108419,0.138779874515533,-0.00467281408309938,0.213172923374176
0.797698364627498,0.0789043862342835,-0.10047359533309899,0.0622866929054259
0.798304058146578,-0.27795352392196704,0.112683142948151,-0.028724049282074098
0.798909751665657,0.06692928857803351,0.103103064823151,0.06468171243667589
0.799515445184736,0.0142388588905335,-0.117238732051849,-0.06464934225082411
0.800121138703816,-0.06479678564071649,0.0791528695106506,0.0024112046241758496
0.800726832222895,0.0573492104530335,0.117473182010651,0.273048411655426
0.801332525741975,-0.0145013754844665,-0.13639888830184901,0.0455215561866759
0.801938219261054,0.124409757328033,-0.0334130484580994,-0.150870045375824
0.802543912780133,-0.115092195796967,0.0216724007606506,0.059891673374175905
0.803149606299213,0.184285245609283,0.131843299198151,0.13174225931167602
0.803755299818292,0.0789043862342835,0.000117224979400624,-0.15326506490707398
0.804360993337371,-0.335433992671967,0.115078162479401,0.0622866929054259
0.804966686856451,0.119619718265533,0.14860843591690098,0.208382884311676
0.80557238037553,-0.0336615317344665,-0.0693383414268494,0.11976716165542599
0.806178073894609,0.0693243081092835,0.0360425179481506,-0.0574642836570741
0.806783767413689,0.14596493310928302,0.19411380701065098,-0.0383041274070741
0.807389460932768,-0.0528216879844665,-0.153164025020599,0.129347239780426
0.807995154451847,0.0381890542030335,-0.0669433218955994,-0.062254322719574096
0.808600847970927,-0.0480316489219665,-0.193879357051849,-0.0311190688133241
0.809206541490006,-0.000131258296966542,-0.14118892736434902,0.0263613999366759
0.809812235009085,0.105249601078033,0.17495365076065097,-0.10296965475082401
0.810417928528165,0.100459562015533,-0.0741283804893494,0.0622866929054259
0.811023622047244,0.0693243081092835,0.0168823616981506,0.016781321811675902
0.811629315566323,0.124409757328033,0.000117224979400624,0.0383364975929259
0.812235009085403,-0.0480316489219665,0.0120923226356506,0.148507396030426
0.812840702604482,-0.124672273921967,0.0144873421669006,0.11737214212417599
0.813446396123562,0.13159481592178301,0.182138709354401,0.28502350931167597
0.814052089642641,-0.0863519614219665,0.000117224979400624,0.270653392124176
0.81465778316172,-0.0408465903282165,-0.0238329703330994,0.0335464585304259
0.815263476680799,0.0286089760780335,0.31146976404190096,0.150902415561676
0.815869170199879,-0.028871492671966502,0.151003455448151,0.0455215561866759
0.816474863718958,-0.0456366293907165,0.23961917810440098,-0.028724049282074098
0.817080557238038,-0.0456366293907165,-0.0262279898643494,0.0119912827491759
0.817686250757117,0.16033505029678302,0.0384375374794006,0.031151438999175902
0.818291944276196,-0.0145013754844665,-0.050178185176849396,0.18682770853042602
0.818897637795276,0.0357940346717835,-0.10526363439559899,1.6185092925851098e-05
0.819503331314355,-0.15820254735946698,0.206088904666901,0.0694717514991759
0.820109024833434,-0.151017488765717,-0.038203087520599394,0.419144603061676
0.820714718352514,0.114829679203033,0.08394290857315061,-0.0885995375633241
0.821320411871593,0.0118438393592835,-0.09089351720809939,-0.275411061000824
0.821926105390672,-0.0863519614219665,-0.134003868770599,0.766422435092926
0.822531798909752,-0.0192914145469665,0.34020999841690097,0.29699860696792596
0.823137492428831,-0.0983270590782165,0.0312524788856506,-0.196375416469574
0.82374318594791,0.0118438393592835,0.048017615604400606,-0.155660084438324
0.82434887946699,0.0501641518592835,0.172558631229401,0.0527066147804259
0.824954572986069,-0.15820254735946698,-0.107658653926849,0.0790518296241759
0.825560266505148,0.06453426904678351,-0.122028771114349,-0.00716887350082415
0.826165960024228,0.119619718265533,-0.24896480627059903,-0.193980396938324
0.826771653543307,-0.0216864340782165,0.0552026741981506,-0.191585377407074
0.827377347062386,-0.0959320395469665,-0.126818810176849,0.289813548374176
0.827983040581466,-0.10072207860946701,-0.198669396114349,0.0982119858741759
0.828588734100545,-0.07437686376571649,0.00969730310440062,-0.00716887350082415
0.829194427619624,-0.0815619223594665,-0.18908931798934903,0.244308177280426
0.829800121138704,-0.14383243017196698,-0.110053673458099,0.184432688999176
0.830405814657783,-0.136647371578217,0.155793494510651,0.103002024936676
0.831011508176863,-0.07437686376571649,-0.0717333609580994,0.294603587436676
0.831617201695942,0.143569913578033,-0.042993126583099395,-0.0167489516258241
0.832222895215021,0.244160733890533,0.119868201541901,0.0934219468116759
0.8328285887341,0.222605558109283,-0.172324181270599,-0.0383041274070741
0.83343428225318,-0.0456366293907165,-0.0190429312705994,-0.129314869594574
0.834039975772259,-0.112697176265717,0.0575976937294006,0.0455215561866759
0.834645669291339,0.0333990151405335,0.0168823616981506,-0.138894947719574
0.835251362810418,0.172310147953033,-0.08131343908309939,0.0527066147804259
0.835857056329497,0.33996151514053297,-0.162744103145599,-0.0454891860008241
0.836462749848577,-0.0240814536094665,0.0288574593544006,-0.136499928188324
0.837068443367656,-0.105512117671967,0.127053260135651,0.229938060092926
0.837674136886735,0.107644620609283,0.004907264041900621,0.19640778665542602
0.838279830405815,0.167520108890533,-0.0717333609580994,-0.00477385396957415
0.838885523924894,0.138779874515533,-0.10047359533309899,-0.10536467428207401
0.839491217443973,-0.036056551265716504,-0.148373985958099,-0.138894947719574
0.840096910963053,-0.0863519614219665,0.0767578499794006,0.17724763040542602
0.840702604482132,0.0621392495155335,-0.042993126583099395,0.0862368882179259
0.841308298001211,0.107644620609283,-0.107658653926849,-0.0119589125633241
0.841913991520291,0.0884844643592835,0.0264624398231506,0.155692454624176
0.84251968503937,-0.0815619223594665,-0.134003868770599,0.12216218118667599
0.843125378558449,-0.0911420004844665,-0.22980465002059902,0.0790518296241759
0.843731072077529,0.16512508935928302,0.0168823616981506,-0.062254322719574096
0.844336765596608,0.102854581546783,-0.09328853673934939,-0.021538990688324097
0.844942459115687,-0.160597566890717,-0.0621532828330994,0.143717356967926
0.845548152634767,0.00944881982803346,0.165373572635651,-0.00477385396957415
0.846153846153846,-0.0600067465782165,-0.047783165645599396,0.0838418686866759
0.846759539672925,-0.124672273921967,0.043227576541900604,-0.0526742445945741
0.847365233192005,-0.0576117270469665,-0.110053673458099,-0.16284514303207398
0.847970926711084,-0.00252627782821654,-0.0070678336143493795,-0.033514088344574096
0.848576620230164,0.265715909671783,0.16297855310440099,0.150902415561676
0.849182313749243,-0.0432416098594665,0.151003455448151,-0.0766244399070741
0.849788007268322,0.0405840737342835,0.103103064823151,-0.138894947719574
0.850393700787402,-0.0145013754844665,0.00969730310440062,0.500575267124176
0.850999394306481,-0.282743562984467,0.12944827966690098,0.0119912827491759
0.85160508782556,0.0573492104530335,-0.0190429312705994,0.107792063999176
0.85221078134464,-0.07198184423446649,-0.00946285314559938,0.742472239780426
0.852816474863719,-0.220473055171967,-0.0621532828330994,0.14132233743667602
0.853422168382798,-0.14383243017196698,-0.038203087520599394,-0.026329029750824098
0.854027861901878,0.110039640140533,-0.0765234000205994,-0.160450123500824
0.854633555420957,0.0621392495155335,-0.119633751583099,-0.035909107875824096
0.855239248940036,0.0381890542030335,0.045622596073150605,0.0479165757179259
0.855844942459116,0.06692928857803351,-0.15555904455184902,-0.244275807094574
0.856450635978195,-0.009711336421966539,0.0719678109169006,-0.06704436178207411
0.857056329497274,-0.103117098140717,0.155793494510651,0.0383364975929259
0.857662023016354,-0.07198184423446649,-0.09328853673934939,0.148507396030426
0.858267716535433,0.0405840737342835,0.05280765466690061,0.0838418686866759
0.858873410054512,-0.117487215328217,-0.047783165645599396,-0.0430941664695741
0.859479103573592,-0.009711336421966539,0.0671777718544006,-0.06943938131332411
0.860084797092671,-0.25160830907821696,0.136633338260651,-0.0191439711570741
0.86069049061175,-0.0528216879844665,-0.0693383414268494,0.059891673374175905
0.86129618413083,0.0501641518592835,-0.0334130484580994,0.165272532749176
0.861901877649909,-0.06479678564071649,-0.275310021114349,0.11737214212417599
0.862507571168988,0.16033505029678302,-0.0310180289268494,0.0359414780616759
0.863113264688068,-0.0839569418907165,0.0647827523231506,-0.16763518209457398
0.863718958207147,0.0932745034217835,-0.0693383414268494,0.0503115952491759
0.864324651726227,-0.0959320395469665,-0.0214379508018494,0.251493235874176
0.864930345245306,-0.0216864340782165,0.13902835779190098,0.057496653842925904
0.865536038764385,0.277691007328033,0.22285404138565099,0.0862368882179259
0.866141732283465,0.16512508935928302,0.09831302576065061,0.06707673196792589
0.866747425802544,0.287271085453033,-0.0334130484580994,-0.0766244399070741
0.867353119321623,0.0214239174842835,0.045622596073150605,-0.0574642836570741
0.867958812840703,0.19147030420303301,0.0719678109169006,0.27783845071792596
0.868564506359782,0.143569913578033,-0.15076900548934902,-0.0526742445945741
0.869170199878861,0.21063046045303302,0.0336474984169006,-0.265830982875824
0.869775893397941,0.016633878421783498,-0.18429927892684903,-0.131709889125824
0.87038158691702,-0.0552167075157165,-0.20585445470809902,-0.17721526021957398
0.870987280436099,0.323196378421783,-0.134003868770599,-0.0454891860008241
0.871592973955179,0.0884844643592835,-0.13639888830184901,-0.23709074850082398
0.872198667474258,0.133989835453033,-0.0310180289268494,-0.0502792250633241
0.872804360993337,0.124409757328033,-0.09328853673934939,0.126952220249176
0.873410054512417,-0.0839569418907165,-0.0286230093955994,-0.0383041274070741
0.874015748031496,-0.06719180517196649,-0.047783165645599396,0.0407315171241759
0.874621441550575,0.0238189370155335,0.045622596073150605,0.112582103061676
0.875227135069655,-0.115092195796967,0.0144873421669006,0.0862368882179259
0.875832828588734,-0.0312665122032165,-0.0789184195518494,-0.201165455532074
0.876438522107813,0.0477691323280335,-0.12921382970809903,-0.028724049282074098
0.877044215626893,0.0501641518592835,-0.09568355627059939,0.0790518296241759
0.877649909145972,-0.07677188329696649,0.131843299198151,0.332923899936676
0.878255602665051,0.0214239174842835,0.263569373416901,0.0239663804054259
0.878861296184131,0.13638485498428302,0.0815478890419006,-0.0143539320945741
0.87946698970321,0.0453741127967835,-0.0118578726768494,0.215567942905426
0.880072683222289,0.0381890542030335,-0.09328853673934939,0.126952220249176
0.880678376741369,-0.000131258296966542,-0.0597582633018494,-0.0383041274070741
0.881284070260448,-0.16778262548446699,0.0192773812294006,-0.5460482680320741
0.881889763779528,0.0717193276405335,0.000117224979400624,0.28502350931167597
0.882495457298607,0.0333990151405335,0.103103064823151,0.29699860696792596
0.883101150817686,-0.13425235204696698,-0.00227779455184938,-0.21793059225082398
0.883706844336766,0.138779874515533,-0.08849849767684939,-0.028724049282074098
0.884312537855845,-0.14862246923446698,0.17495365076065097,-0.0909945570945741
0.884918231374924,-0.0887469809532165,-0.0621532828330994,-0.0814144789695741
0.885523924894004,-0.0624017661094665,0.05280765466690061,-0.033514088344574096
0.886129618413083,-0.0121063559532165,0.282729529666901,-0.0430941664695741
0.886735311932162,0.0333990151405335,0.115078162479401,-0.18200529928207398
0.887341005451242,-0.0528216879844665,-0.045388146114349395,-0.0311190688133241
0.887946698970321,0.0405840737342835,-0.186694298458099,-0.11015471334457401
0.8885523924894,-0.0935370200157165,-0.112448692989349,-0.16763518209457398
0.88915808600848,0.0549541909217835,-0.12921382970809903,0.13174225931167602
0.889763779527559,-0.146227449703217,-0.08370845861434939,0.016781321811675902
0.890369473046638,-0.146227449703217,-0.0789184195518494,0.0263613999366759
0.890975166565718,0.19147030420303301,-0.117238732051849,0.0862368882179259
0.891580860084797,0.16512508935928302,-0.193879357051849,0.0455215561866759
0.892186553603876,-0.06479678564071649,-0.12921382970809903,-0.026329029750824098
0.892792247122956,0.0812994057655335,-0.208249474239349,-0.0119589125633241
0.893397940642035,0.162730069828033,-0.0765234000205994,-0.0909945570945741
0.894003634161115,-0.0384515707969665,-0.15555904455184902,0.0407315171241759
0.894609327680194,-0.206102937984467,-0.0669433218955994,-0.0478842055320741
0.895215021199273,-0.0600067465782165,0.0336474984169006,0.0024112046241758496
0.895820714718352,-0.103117098140717,-0.20585445470809902,-0.0454891860008241
0.896426408237432,0.0262139565467835,0.127053260135651,-0.0119589125633241
0.897032101756511,0.00705380029678346,-0.0070678336143493795,0.0790518296241759
0.897637795275591,-0.170177645015717,-0.222619591426849,0.0263613999366759
0.89824348879467,0.0286089760780335,-0.0669433218955994,0.165272532749176
0.898849182313749,-0.107907137203217,-0.00227779455184938,-0.0191439711570741
0.899454875832829,-0.036056551265716504,-0.0334130484580994,-0.028724049282074098
0.900060569351908,0.153149991703033,-0.0118578726768494,-0.0550692641258241
0.900666262870987,0.0453741127967835,0.00730228357315062,0.14132233743667602
0.901271956390067,-0.107907137203217,0.0384375374794006,0.107792063999176
0.901877649909146,0.00944881982803346,0.05280765466690061,-0.138894947719574
0.902483343428225,0.110039640140533,0.112683142948151,0.0862368882179259
0.903089036947305,0.153149991703033,0.105498084354401,0.14611237649917602
0.903694730466384,0.100459562015533,-0.17471920080184902,0.0383364975929259
0.904300423985463,0.124409757328033,0.09591800622940061,-0.0454891860008241
0.904906117504543,-0.151017488765717,-0.0789184195518494,-0.06704436178207411
0.905511811023622,-0.028871492671966502,0.00730228357315062,-0.17721526021957398
0.906117504542701,-0.0216864340782165,-0.00467281408309938,0.0431265366554259
0.906723198061781,0.0741143471717835,-0.236989708614349,-0.059859303188324095
0.90732889158086,0.122014737796783,0.045622596073150605,-0.22751067037582398
0.907934585099939,-0.036056551265716504,-0.0549682242393494,1.6185092925851098e-05
0.908540278619019,-0.0312665122032165,0.141423377323151,0.0742617905616759
0.909145972138098,-0.0552167075157165,0.21327396326065098,0.13653229837417602
0.909751665657177,0.153149991703033,0.0264624398231506,0.148507396030426
0.910357359176257,0.239370694828033,0.0168823616981506,0.342503978061676
0.910963052695336,0.14596493310928302,0.0575976937294006,0.414354563999176
0.911568746214416,0.0597442299842835,-0.12921382970809903,-0.15326506490707398
0.912174439733495,0.21063046045303302,-0.0142528922080994,-0.208350514125824
0.912780133252574,0.189075284671783,0.0312524788856506,0.110187083530426
0.913385826771653,0.14596493310928302,-0.0573632437705994,-0.275411061000824
0.913991520290733,0.0956695229530335,0.0384375374794006,0.100607005405426
0.914597213809812,0.0405840737342835,-0.0717333609580994,-0.12212981100082401
0.915202907328892,0.100459562015533,-0.21543453283309902,-0.10536467428207401
0.915808600847971,-0.009711336421966539,-0.0621532828330994,0.189222728061676
0.91641429436705,0.0549541909217835,-0.131608849239349,0.20119782571792602
0.91701998788613,-0.115092195796967,0.0767578499794006,0.0790518296241759
0.917625681405209,-0.215683016109467,0.0623877327919006,0.0287564194679259
0.918231374924288,0.0812994057655335,-0.0310180289268494,-0.0383041274070741
0.918837068443368,0.186680265140533,-0.08131343908309939,0.0407315171241759
0.919442761962447,-0.0336615317344665,-0.275310021114349,0.055101634311675904
0.920048455481526,-0.13425235204696698,-0.17950923986434902,-0.035909107875824096
0.920654149000606,0.00226376123428346,-0.198669396114349,0.251493235874176
0.921259842519685,0.102854581546783,0.043227576541900604,-0.0885995375633241
0.921865536038764,-0.0456366293907165,-0.0525732047080994,0.0527066147804259
0.922471229557844,0.0214239174842835,0.0360425179481506,0.282628489780426
0.923076923076923,0.00944881982803346,0.20369388513565098,0.0143863022804259
0.923682616596002,-0.0264764731407165,0.15818851404190098,-0.10775969381332401
0.924288310115082,-0.103117098140717,0.0743628304481506,-0.026329029750824098
0.924894003634161,-0.0192914145469665,0.0743628304481506,-0.193980396938324
0.92549969715324,0.0142388588905335,-0.08610347814559939,-0.10296965475082401
0.92610539067232,-0.232448152828217,0.0120923226356506,0.0958169663429259
0.926711084191399,0.0717193276405335,-0.00946285314559938,-0.026329029750824098
0.927316777710478,0.179495206546783,-0.246569786739349,-0.0574642836570741
0.927922471229558,-0.0312665122032165,-0.0286230093955994,-0.148475025844574
0.928528164748637,-0.0911420004844665,-0.0741283804893494,0.0479165757179259
0.929133858267717,-0.0839569418907165,0.0719678109169006,0.105397044467926
0.929739551786796,-0.06719180517196649,-0.313630333614349,-0.215535572719574
0.930345245305875,-0.0432416098594665,-0.17471920080184902,-0.0191439711570741
0.930950938824954,-0.0815619223594665,0.0743628304481506,-0.028724049282074098
0.931556632344034,0.0812994057655335,-0.09568355627059939,-0.148475025844574
0.932162325863113,0.0381890542030335,0.0312524788856506,0.0455215561866759
0.932768019382193,-0.0240814536094665,0.115078162479401,0.004806224155425851
0.933373712901272,-0.00252627782821654,0.242014197635651,0.100607005405426
0.933979406420351,0.0836944252967835,-0.186694298458099,0.194012767124176
0.934585099939431,0.0118438393592835,0.0120923226356506,0.17724763040542602
0.93519079345851,0.00465878076553346,0.0025122445106506197,0.165272532749176
0.935796486977589,-0.206102937984467,-0.0262279898643494,0.0143863022804259
0.936402180496669,-0.141437410640717,0.09591800622940061,0.004806224155425851
0.937007874015748,-0.105512117671967,-0.191484337520599,0.0455215561866759
0.937613567534827,-0.0624017661094665,-0.119633751583099,-0.059859303188324095
0.938219261053907,-0.06719180517196649,0.20848392419815098,0.0335464585304259
0.938824954572986,-0.00731631689071654,-0.0286230093955994,-0.00956389303207415
0.939430648092065,0.153149991703033,-0.186694298458099,0.019176341342925902
0.940036341611145,-0.06958682470321649,0.115078162479401,-0.0119589125633241
0.940642035130224,-0.07677188329696649,-0.0118578726768494,-0.193980396938324
0.941247728649303,0.0190288979530335,-0.153164025020599,-0.0574642836570741
0.941853422168383,0.19147030420303301,0.0025122445106506197,0.12216218118667599
0.942459115687462,0.21063046045303302,0.0216724007606506,0.562845774936676
0.943064809206541,-0.0504266684532165,-0.00467281408309938,0.0119912827491759
