Time (s),Accel X (m/s^2),Accel Y (m/s^2),Accel Z (m/s^2)
0.0,-0.12807179832458498,0.168759625053406,-0.0246198652267452
0.000605693519079346,-0.022690938949585,0.0897239805221558,-0.0365949628829952
0.00121138703815869,-0.12807179832458498,0.0729588438034058,-0.16353099803924498
0.00181708055723804,-0.147231954574585,0.221450054740906,0.0592058183670048
0.00242277407631738,-0.24782277488708498,-0.0276319765090942,0.0544157793045048
0.00302846759539673,-0.17836720848083498,-0.28150404682159397,0.23643726367950502
0.00363416111447607,-0.087356466293335,-0.0180518983840942,0.193326912117005
0.00423985463355542,0.087479959487915,0.123254253959656,-0.07012523632049521
0.00484554815263477,-0.135256856918335,-0.0300269960403442,0.109501228523255
0.00545124167171411,-0.322068380355835,-0.130617816352844,0.0783659746170048
0.00605693519079346,-0.14962697410583498,-0.197678363227844,0.164586677742005
0.0066626287098728,0.00365427589416503,-0.0731373476028442,0.128661384773255
0.00726832222895215,0.161725564956665,-0.0683473085403442,0.00651538867950479
0.0078740157480315,0.087479959487915,-0.0491871522903442,-0.0006696699142452131
0.00847970926711084,0.013234354019165,0.178339703178406,0.028070564460754798
0.00908540278619019,-0.070591329574585,0.0921190000534058,0.514259529304505
0.00969109630526953,-0.137651876449585,0.183129742240906,0.691490974617005
0.0102967898243489,-0.025085958480835,-0.116247699165344,-0.127605705070495
0.0109024833434282,-0.034666036605835,0.0537986875534058,0.126266365242005
0.0115081768625076,-0.130466817855835,0.15438950786590602,0.178956794929505
0.0121138703815869,-0.166392110824585,0.041823589897155795,0.0735759355545048
0.0127195639006663,-0.00592580223083497,-0.0539771913528442,0.16698169727325501
0.0133252574197456,0.056344705581665,-0.192888324165344,-0.16832103710174498
0.013930950938825,0.113825174331665,0.0274534727096558,0.037650642585754804
0.0145366444579043,0.14017038917541502,-0.259948871040344,0.147821541023255
0.0151423379769836,0.080294900894165,-0.190493304634094,0.152611580085755
0.015748031496063,0.12101023292541499,-0.022841937446594202,0.17177173633575502
0.0163537250151423,0.046764627456665,-0.0587672304153442,0.0544157793045048
0.0169594185342217,-0.015505880355835,0.0681688047409058,0.042440681648254805
0.017565112053301,-0.13286183738708499,0.118464214897156,0.16698169727325501
0.0181708055723804,-0.130466817855835,-0.0851124452590942,0.207697029304505
0.0187764990914597,-0.063406270980835,-0.161753070259094,0.0759709550857548
0.0193821926105391,0.07071482276916499,-0.0515821718215942,0.23164722461700502
0.0199878861296184,0.24076120948791502,-0.0827174257278442,0.11429126758575499
0.0205935796486978,0.010839334487915,0.0753538633346558,-0.199456291007995
0.0211992731677771,-0.11609670066833501,0.0154783750534058,0.0592058183670048
0.0218049666868564,0.07310984230041499,-0.0132618593215942,0.0639958574295048
0.0224106602059358,0.013234354019165,-0.06355726947784421,-0.10844554882049501
0.0230163537250151,-0.080171407699585,-0.16414808979034398,0.0783659746170048
0.0236220472440945,0.106640115737915,-0.288689105415344,0.0759709550857548
0.0242277407631738,0.20483591651916502,-0.046792132759094204,0.00891040821075479
0.0248334342822532,0.0012592563629150299,0.142414410209656,-0.11563060741424501
0.0254391278013325,0.061134744644165004,0.0945140195846558,-0.053360099601745196
0.0260448213204119,0.214415994644165,0.0250584531784058,-0.07252025585174521
0.0266505148394912,0.109035135269165,-0.190493304634094,-0.10605052928924501
0.0272562083585706,0.13538035011291502,-0.0539771913528442,0.0735759355545048
0.0278619018776499,0.015629373550415,0.00110825786590575,0.0879460527420048
0.0284675953967293,0.142565408706665,-0.0276319765090942,-0.146765861320495
0.0290732889158086,-0.00113576316833497,0.151994488334656,0.044835701179504805
0.0296789824348879,-0.199922384262085,-0.0491871522903442,0.11908130664825499
0.0302846759539673,-0.063406270980835,-0.0587672304153442,-0.189876212882995
0.0308903694730466,0.104245096206665,0.151994488334656,-0.0270148847579952
0.031496062992126,0.17130564308166502,0.0993040586471558,-0.0341999433517452
0.0321017565112053,0.07071482276916499,0.156784527397156,0.286732673835755
0.0327074500302847,0.183280740737915,-0.0420020936965942,-0.0222248456954952
0.033313143549364,0.23118113136291502,-0.0899024843215942,-0.0270148847579952
0.0339188370684434,0.018024393081665,0.022663433647155798,0.0879460527420048
0.0345245305875227,-0.199922384262085,-0.00607680072784425,-0.0006696699142452131
0.0351302241066021,0.027604471206665,0.173549664115906,0.229252205085755
0.0357359176256814,0.075504861831665,0.19989487895965602,0.174166755867005
0.0363416111447607,-0.092146505355835,-0.00128676166534425,0.267572517585755
0.0369473046638401,0.214415994644165,-0.0348170351028442,0.0687858964920048
0.0375529981829194,0.233576150894165,-0.0108668397903442,-0.07731029491424521
0.0381586917019988,0.027604471206665,-0.0180518983840942,0.0544157793045048
0.0387643852210781,-0.104121603012085,-0.32221937885284396,-0.0126447675704952
0.0393700787401575,-0.049036153793334994,-0.0132618593215942,0.430433845710755
0.0399757722592368,0.094665018081665,0.14001939067840602,0.23164722461700502
0.0405814657783162,0.075504861831665,-0.0755323671340942,0.456779060554505
0.0411871592973955,0.202440896987915,0.13043931255340602,0.653170662117005
0.0417928528164749,0.07310984230041499,0.101699078178406,-0.213826408195495
0.0423985463355542,0.147355447769165,0.00589829692840575,0.19572193164825502
0.0430042398546336,0.264711404800415,-0.0539771913528442,0.289127693367005
0.0436099333737129,0.015629373550415,-0.00128676166534425,-0.07970531444549521
0.0442156268927922,-0.130466817855835,-0.0132618593215942,-0.156345939445495
0.0448213204118716,-0.087356466293335,-0.0396070741653442,0.13105640430450502
0.0454270139309509,-0.072986349105835,-0.13540785541534398,0.11668628711700499
0.0460327074500303,0.132985330581665,-0.21923353900909398,0.150216560554505
0.0466384009691096,-0.017900899887085,-0.0036817811965942503,0.0352556230545048
0.047244094488189,-0.051431173324584994,0.0897239805221558,0.12387134571075499
0.0478497880072683,-0.18794728660583498,0.0154783750534058,0.267572517585755
0.0484554815263477,-0.070591329574585,-0.17372816791534398,-0.156345939445495
0.049061175045427,0.087479959487915,-0.0563722108840942,0.040045662117004804
0.0496668685645064,-0.020295919418335,0.013083355522155801,0.133451423835755
0.0502725620835857,0.00604929542541503,0.0106883359909058,-0.16353099803924498
0.050878255602665,-0.18315724754333498,0.0561937070846558,-0.0653351972579952
0.0514839491217444,-0.075381368637085,0.0490086484909058,0.0592058183670048
0.0520896426408237,-0.11370168113708501,-0.0827174257278442,0.042440681648254805
0.0526953361599031,-0.087356466293335,-0.106667621040344,-0.0365949628829952
0.0533010296789824,0.142565408706665,0.0250584531784058,-0.130000724601745
0.0539067231980618,0.077899881362915,-0.00847182025909425,0.0232805253982548
0.0545124167171411,-0.14962697410583498,-0.0204469179153442,0.102316169929505
0.0551181102362205,0.051554666519165,-0.183308246040344,0.0831560136795048
0.0557238037552998,0.20962595558166502,0.008293316459655751,0.0616008378982548
0.0563294972743792,0.077899881362915,0.0825389219284058,-0.0940754316329952
0.0569351907934585,-0.00353078269958497,-0.0132618593215942,0.011305427742004801
0.0575408843125379,-0.070591329574585,-0.0611622499465942,0.255597419929505
0.0581465778316172,0.16651560401916501,-0.133012835884094,0.169376716804505
0.0587522713506965,-0.053826192855834995,0.008293316459655751,-0.12281566600799501
0.0593579648697759,-0.039456075668335,-0.0300269960403442,0.0879460527420048
0.0599636583888552,0.00844431495666502,-0.142592914009094,-0.0677302167892452
0.0605693519079346,-0.204712423324585,0.0250584531784058,-0.165926017570495
0.0611750454270139,-0.11609670066833501,0.00110825786590575,-0.053360099601745196
0.0617807389460933,-0.029875997543335,-0.118642718696594,-0.0270148847579952
0.0623864324651726,0.173700662612915,-0.00128676166534425,0.0232805253982548
0.062992125984252,0.056344705581665,0.0657737852096558,0.011305427742004801
0.0635978195033313,0.010839334487915,0.168759625053406,0.198116951179505
0.0642035130224107,-0.137651876449585,-0.0611622499465942,0.0592058183670048
0.06480920654149,-0.025085958480835,0.151994488334656,0.0208855058670048
0.0654149000605694,0.216811014175415,0.041823589897155795,0.138241462898255
0.0660205935796487,0.085084939956665,-0.202468402290344,-0.0892853925704952
0.066626287098728,-0.063406270980835,0.101699078178406,-0.0150397871017452
0.0672319806178074,0.037184549331665005,0.041823589897155795,0.11429126758575499
0.0678376741368867,0.137775369644165,-0.202468402290344,-0.053360099601745196
0.0684433676559661,0.06831980323791499,-0.22881361713409398,0.0735759355545048
0.0690490611750454,-0.032271017074585,-0.06355726947784421,0.485519294929505
0.0696547546941248,-0.020295919418335,-0.15456801166534398,0.205302009773255
0.0702604482132041,0.07310984230041499,0.0561937070846558,-0.170716056632995
0.0708661417322835,-0.025085958480835,-0.06355726947784421,0.09513111133575479
0.0714718352513628,-0.025085958480835,-0.142592914009094,0.0520207597732548
0.0720775287704422,0.022814432144165,-0.0108668397903442,0.19572193164825502
0.0726832222895215,0.046764627456665,-0.0755323671340942,-0.048570060539245195
0.0732889158086008,0.12101023292541499,0.0274534727096558,0.037650642585754804
0.0738946093276802,0.161725564956665,-0.14498793354034398,0.09273609180450479
0.0745003028467595,0.053949686050415,-0.22402357807159398,0.0544157793045048
0.0751059963658389,0.125800271987915,0.0346385313034058,0.205302009773255
0.0757116898849182,0.06592478370666499,-0.0946925233840942,0.11189624805450499
0.0763173834039976,0.027604471206665,0.0154783750534058,0.207697029304505
0.0769230769230769,0.029999490737915,0.111279156303406,0.17656177539825502
0.0775287704421563,-0.10651662254333501,-0.15935805072784398,-0.0365949628829952
0.0781344639612356,0.020419412612915,-0.0659522890090942,0.164586677742005
0.078740157480315,-0.11130666160583501,0.0753538633346558,0.104711189460755
0.0793458509993943,0.056344705581665,0.0250584531784058,-0.0916804121017452
0.0799515445184737,0.147355447769165,-0.226418597602844,0.0879460527420048
0.080557238037553,-0.039456075668335,0.173549664115906,0.0568107988357548
0.0811629315566323,-0.12807179832458498,-0.0396070741653442,0.145426521492005
0.0817686250757117,0.101850076675415,-0.13540785541534398,-0.0270148847579952
0.082374318594791,0.092269998550415,0.123254253959656,0.0687858964920048
0.0829800121138704,-0.171182149887085,0.0154783750534058,-0.00785472850799521
0.0835857056329497,0.075504861831665,-0.116247699165344,-0.0246198652267452
0.0841913991520291,0.202440896987915,0.0993040586471558,0.222067146492005
0.0847970926711084,-0.008320821762084981,0.13522935161590602,-0.0365949628829952
0.0854027861901878,-0.080171407699585,-0.0946925233840942,-0.06294017772674519
0.0860084797092671,0.058739725112915,0.0729588438034058,-0.134790763664245
0.0866141732283465,-0.068196310043335,-0.109062640571594,-0.10844554882049501
0.0872198667474258,0.018024393081665,-0.0300269960403442,0.0544157793045048
0.0878255602665051,-0.029875997543335,-0.0156568788528442,0.18135181446075502
0.0884312537855845,0.082689920425415,-0.185703265571594,-0.11802562694549501
0.0890369473046638,0.00604929542541503,-0.185703265571594,0.0304655839920048
0.0896426408237432,-0.156812032699585,0.0537986875534058,0.0520207597732548
0.0902483343428225,-0.18315724754333498,0.0274534727096558,-0.101260490226745
0.0908540278619019,-0.199922384262085,0.147204449272156,0.0592058183670048
0.0914597213809812,-0.084961446762085,0.13522935161590602,0.0184904863357548
0.0920654149000606,-0.082566427230835,-0.0372120546340942,0.126266365242005
0.0926711084191399,0.039579568862915006,0.022663433647155798,0.0759709550857548
0.0932768019382193,0.101850076675415,-0.121037738227844,0.198116951179505
0.0938824954572986,0.0012592563629150299,-0.137802874946594,0.0807609941482548
0.094488188976378,-0.099331563949585,-0.00128676166534425,-0.017434806632995202
0.0950938824954573,-0.029875997543335,-0.00128676166534425,-0.0294099042892452
0.0956995760145366,-0.065801290512085,-0.022841937446594202,0.0352556230545048
0.096305269533616,0.027604471206665,0.013083355522155801,0.025675544929504798
0.0969109630526953,0.14496042823791502,-0.044397113227844204,-0.08210033397674521
0.0975166565717747,0.16651560401916501,-0.0731373476028442,0.159796638679505
0.098122350090854,-0.008320821762084981,-0.0324220155715942,-0.048570060539245195
0.0987280436099334,-0.125676778793335,0.0993040586471558,-0.019829826164245203
0.0993337371290127,0.034789529800415005,0.156784527397156,-0.050965080070495196
0.0999394306480921,0.037184549331665005,0.0035032773971557496,-0.254541740226745
0.100545124167171,-0.020295919418335,-0.0611622499465942,0.356188240242005
0.101150817686251,-0.015505880355835,0.0873289609909058,0.222067146492005
0.10175651120533,-0.120886739730835,0.19031480083465602,0.188536873054505
0.102362204724409,-0.104121603012085,0.106489117240906,0.0783659746170048
0.102967898243489,0.00844431495666502,-0.133012835884094,0.0184904863357548
0.103573591762568,0.022814432144165,-0.20965346088409398,0.17177173633575502
0.104179285281647,0.147355447769165,0.0585887266159058,0.193326912117005
0.104784978800727,-0.10651662254333501,-0.111457660102844,0.291522712898255
0.105390672319806,0.125800271987915,-0.0851124452590942,-0.08210033397674521
0.105996365838886,0.192860818862915,0.101699078178406,0.025675544929504798
0.106602059357965,-0.04664113426208499,0.0537986875534058,0.11189624805450499
0.107207752877044,0.00365427589416503,-0.0731373476028442,-0.17311107616424498
0.107813446396124,0.116220193862915,-0.0563722108840942,-0.170716056632995
0.108419139915203,0.094665018081665,0.341201031303406,0.12147632617950499
0.109024833434282,0.041974588394165006,0.14001939067840602,0.0568107988357548
0.109630526953362,-0.00113576316833497,-0.121037738227844,-0.0677302167892452
0.110236220472441,0.061134744644165004,-0.183308246040344,-0.00545970897674521
0.11084191399152,0.097060037612915,-0.0515821718215942,0.12147632617950499
0.1114476075106,-0.16399709129333498,0.123254253959656,-0.0677302167892452
0.112053301029679,-0.008320821762084981,0.0298484922409058,-0.07731029491424521
0.112658994548758,-0.11370168113708501,0.14959946880340602,0.133451423835755
0.113264688067838,0.013234354019165,0.0897239805221558,0.217277107429505
0.113870381586917,0.142565408706665,0.13043931255340602,0.0472307207107548
0.114476075105996,0.04436960792541501,0.125649273490906,-0.130000724601745
0.115081768625076,-0.17357716941833498,0.0729588438034058,0.205302009773255
0.115687462144155,-0.04664113426208499,0.00589829692840575,0.23643726367950502
0.116293155663234,0.049159646987915,0.0849339414596558,-0.07731029491424521
0.116898849182314,-0.175972188949585,-0.0036817811965942503,0.13584644336700502
0.117504542701393,0.010839334487915,-0.0372120546340942,0.214882087898255
0.118110236220472,0.132985330581665,0.259770367240906,0.0137004472732548
0.118715929739552,-0.029875997543335,0.0585887266159058,-0.017434806632995202
0.119321623258631,-0.056221212387084996,0.0585887266159058,0.0735759355545048
0.11992731677771,-0.058616231918334996,-0.0875074647903442,0.11189624805450499
0.12053301029679,-0.077776388168335,-0.0779273866653442,0.0520207597732548
0.121138703815869,0.0012592563629150299,-0.0755323671340942,0.09273609180450479
0.121744397334949,0.118615213394165,-0.192888324165344,0.13105640430450502
0.122350090854028,0.00365427589416503,-0.16893812885284398,0.341818123054505
0.122955784373107,0.022814432144165,-0.0922975038528442,0.188536873054505
0.123561477892187,-0.15920705223083498,0.175944683647156,0.18135181446075502
0.124167171411266,0.056344705581665,-0.15456801166534398,0.0831560136795048
0.124772864930345,0.293451639175415,-0.192888324165344,-0.12281566600799501
0.125378558449425,0.029999490737915,0.151994488334656,-0.0389899824142452
0.125984251968504,0.075504861831665,-0.0707423280715942,-0.00545970897674521
0.126589945487583,0.101850076675415,-0.171333148384094,0.188536873054505
0.127195639006663,0.173700662612915,-0.0922975038528442,0.0232805253982548
0.127801332525742,0.022814432144165,-0.14498793354034398,-0.11563060741424501
0.128407026044821,0.022814432144165,0.0969090391159058,0.025675544929504798
0.129012719563901,-0.135256856918335,0.0681688047409058,0.504679451179505
0.12961841308298,0.154540506362915,0.132834332084656,-0.0365949628829952
0.130224106602059,0.037184549331665005,-0.0707423280715942,-0.07252025585174521
0.130829800121139,-0.032271017074585,-0.240788714790344,0.31307788867950503
0.131435493640218,0.058739725112915,-0.0563722108840942,-0.07252025585174521
0.132041187159297,0.053949686050415,-0.0563722108840942,0.188536873054505
0.132646880678377,0.104245096206665,-0.0108668397903442,0.0903410722732548
0.133252574197456,0.104245096206665,-0.0180518983840942,-0.170716056632995
0.133858267716535,0.082689920425415,-0.274318988227844,-0.151555900382995
0.134463961235615,-0.12807179832458498,-0.13540785541534398,-0.00545970897674521
0.135069654754694,0.037184549331665005,0.0298484922409058,-0.21861644725799498
0.135675348273773,0.092269998550415,0.008293316459655751,0.0160954668045048
0.136281041792853,0.12340525245666499,0.173549664115906,0.162191658210755
0.136886735311932,0.17130564308166502,-0.0851124452590942,-0.0964704511642452
0.137492428831012,0.147355447769165,-0.025236956977844203,0.157401619148255
0.138098122350091,-0.063406270980835,0.013083355522155801,-0.11563060741424501
0.13870381586917,-0.11130666160583501,-0.192888324165344,-0.0988654706954952
0.13930950938825,-0.11370168113708501,-0.23360365619659398,-0.010249748039245199
0.139915202907329,0.022814432144165,-0.128222796821594,-0.08210033397674521
0.140520896426408,0.147355447769165,-0.0420020936965942,0.193326912117005
0.141126589945488,0.00604929542541503,-0.0324220155715942,0.152611580085755
0.141732283464567,0.04436960792541501,0.22384507427215602,0.18135181446075502
0.142337976983646,-0.049036153793334994,0.0154783750534058,-0.0413850019454952
0.142943670502726,0.094665018081665,-0.0827174257278442,-0.0246198652267452
0.143549364021805,0.077899881362915,0.041823589897155795,0.212487068367005
0.144155057540884,-0.094541524887085,0.0035032773971557496,0.164586677742005
0.144760751059964,0.06592478370666499,0.00589829692840575,0.037650642585754804
0.145366444579043,0.116220193862915,-0.0300269960403442,-0.0246198652267452
0.145972138098122,0.23118113136291502,0.13043931255340602,0.00891040821075479
0.146577831617202,0.051554666519165,0.0681688047409058,0.0783659746170048
0.147183525136281,0.037184549331665005,0.0537986875534058,-0.127605705070495
0.14778921865536,0.104245096206665,0.142414410209656,-0.0222248456954952
0.14839491217444,0.058739725112915,0.151994488334656,0.109501228523255
0.149000605693519,0.06592478370666499,-0.0132618593215942,-0.048570060539245195
0.149606299212598,0.106640115737915,-0.0036817811965942503,0.104711189460755
0.150211992731678,-0.013110860824585,-0.022841937446594202,0.0568107988357548
0.150817686250757,-0.022690938949585,0.0106883359909058,-0.170716056632995
0.151423379769836,0.06592478370666499,0.0801439023971558,-0.0389899824142452
0.152029073288916,-0.072986349105835,0.0346385313034058,-0.0270148847579952
0.152634766807995,-0.092146505355835,0.0753538633346558,-0.101260490226745
0.153240460327075,0.080294900894165,0.0370335508346558,0.18614185352325502
0.153846153846154,0.029999490737915,-0.30066420307159397,0.147821541023255
0.154451847365233,-0.027480978012085,-0.0946925233840942,-0.00785472850799521
0.155057540884313,0.192860818862915,0.0609837461471558,-0.048570060539245195
0.155663234403392,0.018024393081665,0.0801439023971558,-0.0988654706954952
0.156268927922471,0.20483591651916502,0.101699078178406,0.025675544929504798
0.156874621441551,0.022814432144165,-0.0276319765090942,0.0184904863357548
0.15748031496063,-0.137651876449585,-0.00847182025909425,-0.0318049238204952
0.158086008479709,0.20962595558166502,-0.044397113227844204,0.138241462898255
0.158691701998789,-0.025085958480835,0.0490086484909058,-0.0006696699142452131
0.159297395517868,0.077899881362915,0.0777488828659058,-0.07491527538299521
0.159903089036947,-0.10651662254333501,0.022663433647155798,-0.0246198652267452
0.160508782556027,-0.094541524887085,0.013083355522155801,0.437618904304505
0.161114476075106,0.147355447769165,-0.26234389057159396,0.12387134571075499
0.161720169594185,-0.051431173324584994,-0.130617816352844,-0.046175041007995195
0.162325863113265,0.106640115737915,-0.0851124452590942,0.250807380867005
0.162931556632344,-0.190342306137085,0.020268414115905797,-0.23298656444549498
0.163537250151423,0.034789529800415005,0.142414410209656,0.0137004472732548
0.164142943670503,0.207230936050415,0.0729588438034058,-0.165926017570495
0.164748637189582,-0.11370168113708501,0.00589829692840575,-0.369502677726745
0.165354330708661,-0.041851095199585,-0.111457660102844,-0.0940754316329952
0.165960024227741,0.046764627456665,-0.121037738227844,-0.134790763664245
0.16656571774682,0.154540506362915,-0.274318988227844,0.14063648242950502
0.167171411265899,-0.044246114730835,0.15917954692840602,0.0663908769607548
0.167777104784979,0.125800271987915,0.116069195365906,0.025675544929504798
0.168382798304058,0.04436960792541501,-0.161753070259094,0.222067146492005
0.168988491823137,-0.037061056137085,-0.235998675727844,0.0879460527420048
0.169594185342217,0.00604929542541503,0.226240093803406,0.257992439460755
0.170199878861296,-0.11370168113708501,0.151994488334656,0.0639958574295048
0.170805572380376,-0.032271017074585,0.0537986875534058,-0.197061271476745
0.171411265899455,-0.053826192855834995,0.166364605522156,0.0711809160232548
0.172016959418534,0.12101023292541499,-0.14977797260284398,0.126266365242005
0.172622652937614,0.113825174331665,0.020268414115905797,0.12387134571075499
0.173228346456693,-0.084961446762085,0.0178733945846558,-0.0557551191329952
0.173834039975772,0.085084939956665,-0.106667621040344,0.13105640430450502
0.174439733494852,0.0012592563629150299,0.022663433647155798,0.0711809160232548
0.175045427013931,-0.041851095199585,0.0609837461471558,-0.19227123241424499
0.17565112053301,0.147355447769165,-0.216838519477844,-0.046175041007995195
0.17625681405209,-0.10651662254333501,-0.16414808979034398,0.0352556230545048
0.176862507571169,-0.240637716293335,0.108884136772156,0.11429126758575499
0.177468201090248,0.087479959487915,-0.0539771913528442,0.0496257402420048
0.178073894609328,0.07071482276916499,-0.137802874946594,0.09513111133575479
0.178679588128407,0.013234354019165,-0.207258441352844,0.13105640430450502
0.179285281647486,-0.18794728660583498,-0.0899024843215942,0.09513111133575479
0.179890975166566,0.00604929542541503,-0.0899024843215942,0.0735759355545048
0.180496668685645,0.010839334487915,-0.10187758197784401,0.00891040821075479
0.181102362204724,-0.082566427230835,0.008293316459655751,0.0304655839920048
0.181708055723804,0.015629373550415,0.0250584531784058,0.219672126960755
0.182313749242883,0.039579568862915006,0.0705638242721558,0.0687858964920048
0.182919442761962,0.156935525894165,-0.00607680072784425,0.09273609180450479
0.183525136281042,-0.147231954574585,0.113674175834656,0.17656177539825502
0.184130829800121,-0.029875997543335,-0.116247699165344,0.332238044929505
0.1847365233192,0.116220193862915,0.0298484922409058,-0.11084056835174501
0.18534221683828,0.188070779800415,0.15917954692840602,-0.125210685539245
0.185947910357359,-0.077776388168335,-0.0994825624465942,-0.103655509757995
0.186553603876439,0.06831980323791499,0.0777488828659058,-0.08449535350799521
0.187159297395518,0.14975046730041502,0.0250584531784058,0.24122730274200502
0.187764990914597,-0.18794728660583498,0.0370335508346558,0.178956794929505
0.188370684433677,0.020419412612915,-0.0515821718215942,0.222067146492005
0.188976377952756,0.092269998550415,-0.0611622499465942,-0.0557551191329952
0.189582071471835,-0.092146505355835,-0.00847182025909425,-0.170716056632995
0.190187764990915,-0.068196310043335,-0.156963031196594,-0.048570060539245195
0.190793458509994,0.118615213394165,0.00110825786590575,0.600480232429505
0.191399152029073,0.049159646987915,0.0753538633346558,0.159796638679505
0.192004845548153,-0.027480978012085,0.28611558208465604,0.042440681648254805
0.192610539067232,0.025209451675415,-0.0851124452590942,0.16698169727325501
0.193216232586311,0.04436960792541501,-0.0707423280715942,-0.13239574413299499
0.193821926105391,-0.015505880355835,0.262165386772156,0.126266365242005
0.19442761962447,-0.053826192855834995,-0.111457660102844,0.0855510332107548
0.195033313143549,0.063529764175415,-0.00607680072784425,0.0687858964920048
0.195639006662629,0.00604929542541503,-0.20486342182159398,0.0232805253982548
0.196244700181708,-0.044246114730835,-0.0348170351028442,0.0759709550857548
0.196850393700787,-0.010715841293335,0.123254253959656,0.17656177539825502
0.197456087219867,0.159330545425415,0.0490086484909058,0.00651538867950479
0.198061780738946,0.06592478370666499,0.123254253959656,0.0544157793045048
0.198667474258025,-0.142441915512085,-0.0970875429153442,-0.12281566600799501
0.199273167777105,-0.010715841293335,-0.0156568788528442,-0.11563060741424501
0.199878861296184,0.125800271987915,-0.0372120546340942,0.0807609941482548
0.200484554815263,0.111430154800415,-0.0683473085403442,0.00412036914825479
0.201090248334343,0.051554666519165,-0.21923353900909398,0.0472307207107548
0.201695941853422,0.058739725112915,-0.0372120546340942,-0.050965080070495196
0.202301635372502,0.010839334487915,0.113674175834656,0.150216560554505
0.202907328891581,0.041974588394165006,-0.116247699165344,-0.144370841789245
0.20351302241066,-0.013110860824585,-0.152172992134094,-0.0916804121017452
0.20411871592974,0.00365427589416503,0.0561937070846558,0.133451423835755
0.204724409448819,0.104245096206665,-0.0396070741653442,0.0831560136795048
0.205330102967898,-0.235847677230835,0.207079937553406,0.0711809160232548
0.205935796486978,-0.152021993637085,0.0394285703659058,-0.0581501386642452
0.206541490006057,0.075504861831665,-0.188098285102844,0.16698169727325501
0.207147183525136,0.010839334487915,0.24061021099090601,0.09513111133575479
0.207752877044216,-0.00353078269958497,-0.176123187446594,0.0639958574295048
0.208358570563295,0.053949686050415,-0.123432757759094,-0.08449535350799521
0.208964264082374,0.094665018081665,-0.0108668397903442,0.028070564460754798
0.209569957601454,0.020419412612915,-0.0539771913528442,0.198116951179505
0.210175651120533,0.025209451675415,0.022663433647155798,0.138241462898255
0.210781344639612,0.12340525245666499,-0.106667621040344,0.157401619148255
0.211387038158692,0.147355447769165,0.0154783750534058,0.16698169727325501
0.211992731677771,0.018024393081665,-0.0587672304153442,0.138241462898255
0.21259842519685,0.039579568862915006,-0.20486342182159398,0.157401619148255
0.21320411871593,0.092269998550415,-0.0587672304153442,0.0304655839920048
0.213809812235009,0.022814432144165,0.0945140195846558,-0.16353099803924498
0.214415505754088,-0.22387257957458498,0.0705638242721558,0.0232805253982548
0.215021199273168,-0.056221212387084996,-0.243183734321594,0.0879460527420048
0.215626892792247,0.113825174331665,-0.06355726947784421,-0.0341999433517452
0.216232586311326,-0.049036153793334994,0.142414410209656,0.0472307207107548
0.216838279830406,-0.15441701316833498,-0.0779273866653442,0.274757576179505
0.217443973349485,-0.00113576316833497,-0.0515821718215942,-0.0365949628829952
0.218049666868565,0.118615213394165,-0.14977797260284398,0.00651538867950479
0.218655360387644,0.058739725112915,-0.16414808979034398,0.23643726367950502
0.219261053906723,0.056344705581665,0.00589829692840575,0.0903410722732548
0.219866747425803,-0.065801290512085,-0.00607680072784425,-0.0581501386642452
0.220472440944882,0.085084939956665,-0.16893812885284398,0.212487068367005
0.221078134463961,0.061134744644165004,0.008293316459655751,0.748971443367005
0.221683827983041,0.018024393081665,0.171154644584656,0.0903410722732548
0.22228952150212,-0.190342306137085,0.0729588438034058,0.0184904863357548
0.222895215021199,-0.23824269676208498,0.197499859428406,-0.0318049238204952
0.223500908540279,-0.034666036605835,0.259770367240906,-0.0294099042892452
0.224106602059358,-0.027480978012085,-0.0108668397903442,0.11429126758575499
0.224712295578437,0.010839334487915,-0.121037738227844,-0.16353099803924498
0.225317989097517,0.109035135269165,-0.113852679634094,0.0831560136795048
0.225923682616596,0.156935525894165,-0.0731373476028442,0.162191658210755
0.226529376135675,0.089874979019165,-0.0420020936965942,0.028070564460754798
0.227135069654755,0.077899881362915,0.151994488334656,0.0639958574295048
0.227740763173834,-0.049036153793334994,0.0633787656784058,0.18614185352325502
0.228346456692913,0.14017038917541502,-0.19528334369659398,0.0328606035232548
0.228952150211993,0.147355447769165,-0.0300269960403442,-0.053360099601745196
0.229557843731072,-0.061011251449585,0.0394285703659058,0.09513111133575479
0.230163537250151,-0.065801290512085,-0.14498793354034398,0.174166755867005
0.230769230769231,0.094665018081665,-0.0180518983840942,0.155006599617005
0.23137492428831,-0.015505880355835,0.0561937070846558,0.202906990242005
0.231980617807389,-0.053826192855834995,0.15438950786590602,-0.0557551191329952
0.232586311326469,-0.082566427230835,-0.152172992134094,-0.0270148847579952
0.233192004845548,0.049159646987915,0.044218609428405796,-0.0006696699142452131
0.233797698364627,-0.096936544418335,0.20468491802215602,-0.00785472850799521
0.234403391883707,-0.120886739730835,-0.0515821718215942,0.0208855058670048
0.235009085402786,0.063529764175415,0.18073472270965601,-0.0988654706954952
0.235614778921866,0.118615213394165,-0.022841937446594202,0.0496257402420048
0.236220472440945,0.307821756362915,-0.044397113227844204,0.0496257402420048
0.236826165960024,0.13538035011291502,-0.00847182025909425,-0.0988654706954952
0.237431859479104,0.173700662612915,-0.0899024843215942,0.0831560136795048
0.238037552998183,0.0012592563629150299,0.0250584531784058,-0.017434806632995202
0.238643246517262,0.082689920425415,-0.0180518983840942,-0.07491527538299521
0.239248940036342,-0.144836935043335,-0.17372816791534398,0.0304655839920048
0.239854633555421,-0.022690938949585,-0.113852679634094,0.207697029304505
0.2404603270745,0.12101023292541499,-0.221628558540344,0.0879460527420048
0.24106602059358,-0.11130666160583501,-0.10187758197784401,-0.0222248456954952
0.241671714112659,0.046764627456665,0.123254253959656,0.0304655839920048
0.242277407631738,-0.061011251449585,-0.15456801166534398,0.0496257402420048
0.242883101150818,0.147355447769165,0.046613628959655797,0.238832283210755
0.243488794669897,0.085084939956665,0.274140484428406,0.12387134571075499
0.244094488188976,0.015629373550415,0.24540025005340602,-0.0341999433517452
0.244700181708056,0.13059031105041502,0.013083355522155801,-0.00785472850799521
0.245305875227135,0.085084939956665,-0.137802874946594,-0.0270148847579952
0.245911568746214,-0.099331563949585,0.044218609428405796,0.09992115039825479
0.246517262265294,-0.096936544418335,0.00110825786590575,0.183746833992005
0.247122955784373,-0.008320821762084981,-0.0156568788528442,-0.010249748039245199
0.247728649303452,0.147355447769165,-0.14019789447784398,0.042440681648254805
0.248334342822532,0.257526346206665,0.0585887266159058,0.12147632617950499
0.248940036341611,0.228786111831665,0.0705638242721558,0.509469490242005
0.24954572986069,-0.037061056137085,-0.0180518983840942,0.559764900398255
0.25015142337977,-0.072986349105835,0.156784527397156,0.0160954668045048
0.250757116898849,0.032394510269165004,0.0154783750534058,0.19572193164825502
0.251362810417929,-0.10651662254333501,-0.0946925233840942,0.00651538867950479
0.251968503937008,-0.125676778793335,-0.00607680072784425,-0.216221427726745
0.252574197456087,0.010839334487915,0.0705638242721558,0.0352556230545048
0.253179890975167,0.032394510269165004,-0.176123187446594,0.102316169929505
0.253785584494246,-0.140046895980835,0.0370335508346558,0.09273609180450479
0.254391278013325,0.010839334487915,0.0633787656784058,0.0520207597732548
0.254996971532405,-0.025085958480835,-0.23839369525909399,0.0017253496170047899
0.255602665051484,-0.025085958480835,-0.20486342182159398,0.159796638679505
0.256208358570563,0.020419412612915,-0.0108668397903442,0.040045662117004804
0.256814052089643,0.034789529800415005,0.22384507427215602,0.09992115039825479
0.257419745608722,0.19525583839416502,0.0729588438034058,-0.00785472850799521
0.258025439127801,-0.037061056137085,0.0035032773971557496,-0.271306876945495
0.258631132646881,-0.049036153793334994,0.0298484922409058,0.133451423835755
0.25923682616596,-0.075381368637085,0.0681688047409058,0.183746833992005
0.259842519685039,-0.058616231918334996,0.041823589897155795,0.0807609941482548
0.260448213204119,0.19046579933166502,0.128044293022156,0.0160954668045048
0.261053906723198,0.18088572120666502,-0.0563722108840942,0.0711809160232548
0.261659600242277,-0.072986349105835,-0.250368792915344,-0.16832103710174498
0.262265293761357,0.14496042823791502,0.19031480083465602,-0.08449535350799521
0.262870987280436,0.19046579933166502,-0.0180518983840942,0.0711809160232548
0.263476680799515,-0.123281759262085,-0.264738910102844,-0.0006696699142452131
0.264082374318595,-0.080171407699585,0.0753538633346558,0.0472307207107548
0.264688067837674,-0.065801290512085,-0.0180518983840942,0.09513111133575479
0.265293761356753,0.07071482276916499,0.0681688047409058,-0.048570060539245195
0.265899454875833,0.125800271987915,0.111279156303406,0.138241462898255
0.266505148394912,0.113825174331665,0.013083355522155801,0.212487068367005
0.267110841913992,0.075504861831665,0.0561937070846558,0.0831560136795048
0.267716535433071,0.04436960792541501,-0.0420020936965942,0.217277107429505
0.26832222895215,-0.104121603012085,-0.0539771913528442,0.217277107429505
0.26892792247123,0.075504861831665,0.022663433647155798,0.126266365242005
0.269533615990309,0.19046579933166502,-0.14498793354034398,0.0639958574295048
0.270139309509388,0.125800271987915,-0.0659522890090942,0.037650642585754804
0.270745003028468,0.06831980323791499,0.314855816459656,0.011305427742004801
0.271350696547547,-0.075381368637085,0.24061021099090601,-0.230591544914245
0.271956390066626,0.202440896987915,-0.185703265571594,-0.0318049238204952
0.272562083585706,-0.065801290512085,-0.113852679634094,-0.22340648632049498
0.273167777104785,-0.087356466293335,0.0753538633346558,-0.273701896476745
0.273773470623864,0.13059031105041502,-0.0659522890090942,0.370558357429505
0.274379164142944,-0.039456075668335,0.0873289609909058,0.29391773242950503
0.274984857662023,-0.04664113426208499,-0.00607680072784425,-0.11802562694549501
0.275590551181102,-0.144836935043335,0.0106883359909058,-0.07491527538299521
0.276196244700182,0.06831980323791499,0.00110825786590575,0.380138435554505
0.276801938219261,0.183280740737915,-0.276714007759094,-0.13239574413299499
0.27740763173834,-0.008320821762084981,0.0490086484909058,-0.017434806632995202
0.27801332525742,-0.21429250144958498,-0.171333148384094,0.09513111133575479
0.278619018776499,-0.142441915512085,-0.0683473085403442,-0.050965080070495196
0.279224712295578,0.18088572120666502,0.0537986875534058,0.250807380867005
0.279830405814658,-0.015505880355835,-0.142592914009094,-0.201851310539245
0.280436099333737,-0.008320821762084981,-0.06355726947784421,0.526234626960755
0.281041792852816,0.099455057144165,-0.0827174257278442,0.380138435554505
0.281647486371896,0.015629373550415,-0.0491871522903442,-0.0653351972579952
0.282253179890975,-0.00592580223083497,0.0993040586471558,0.147821541023255
0.282858873410055,-0.195132345199585,-0.00128676166534425,0.0160954668045048
0.283464566929134,0.06831980323791499,-0.104272601509094,-0.0294099042892452
0.284070260448213,0.080294900894165,0.022663433647155798,-0.046175041007995195
0.284675953967293,0.051554666519165,0.0729588438034058,0.133451423835755
0.285281647486372,0.061134744644165004,-0.166543109321594,-0.189876212882995
0.285887341005451,-0.025085958480835,-0.0491871522903442,0.042440681648254805
0.286493034524531,-0.125676778793335,0.0753538633346558,0.0208855058670048
0.28709872804361,0.06831980323791499,0.0585887266159058,0.0137004472732548
0.287704421562689,0.097060037612915,0.14001939067840602,0.174166755867005
0.288310115081769,-0.058616231918334996,-0.324614398384094,0.040045662117004804
0.288915808600848,0.034789529800415005,-0.0994825624465942,0.212487068367005
0.289521502119927,0.14017038917541502,0.0993040586471558,0.0184904863357548
0.290127195639007,-0.056221212387084996,0.0657737852096558,0.037650642585754804
0.290732889158086,-0.18315724754333498,-0.0132618593215942,0.284337654304505
0.291338582677165,0.061134744644165004,-0.346169574165344,0.0592058183670048
0.291944276196245,-0.125676778793335,-0.121037738227844,0.0208855058670048
0.292549969715324,0.022814432144165,-0.0587672304153442,0.147821541023255
0.293155663234403,0.147355447769165,-0.0659522890090942,-0.0294099042892452
0.293761356753483,0.20962595558166502,-0.116247699165344,0.238832283210755
0.294367050272562,0.099455057144165,-0.334194476509094,-0.07731029491424521
0.294972743791641,-0.084961446762085,0.0633787656784058,-0.043780021476745194
0.295578437310721,-0.10891164207458501,0.18073472270965601,0.12387134571075499
0.2961841308298,-0.058616231918334996,0.044218609428405796,-0.137185783195495
0.296789824348879,-0.147231954574585,-0.0659522890090942,0.0616008378982548
0.297395517867959,-0.142441915512085,0.044218609428405796,0.164586677742005
0.298001211387038,-0.135256856918335,0.104094097709656,0.150216560554505
0.298606904906118,-0.10891164207458501,-0.0611622499465942,0.0592058183670048
0.299212598425197,0.032394510269165004,0.0609837461471558,-0.0006696699142452131
0.299818291944276,-0.063406270980835,-0.0132618593215942,0.107106208992005
0.300423985463356,0.025209451675415,-0.00607680072784425,0.09992115039825479
0.301029678982435,-0.044246114730835,-0.044397113227844204,0.0137004472732548
0.301635372501514,0.080294900894165,-0.0875074647903442,-0.07491527538299521
0.302241066020594,0.039579568862915006,-0.0324220155715942,0.00891040821075479
0.302846759539673,0.032394510269165004,-0.0707423280715942,0.188536873054505
0.303452453058752,0.027604471206665,0.044218609428405796,0.0759709550857548
0.304058146577832,-0.025085958480835,-0.0803224061965942,0.210092048835755
0.304663840096911,0.192860818862915,-0.118642718696594,0.23164722461700502
0.30526953361599,-0.101726583480835,0.0106883359909058,-0.053360099601745196
0.30587522713507,-0.264587911605835,-0.044397113227844204,0.0184904863357548
0.306480920654149,0.039579568862915006,-0.0180518983840942,0.150216560554505
0.307086614173228,0.046764627456665,0.0777488828659058,-0.07731029491424521
0.307692307692308,-0.00353078269958497,0.137624371147156,-0.046175041007995195
0.308298001211387,0.00604929542541503,-0.0156568788528442,0.126266365242005
0.308903694730466,0.04436960792541501,0.0657737852096558,-0.206641349601745
0.309509388249546,0.020419412612915,0.0537986875534058,-0.307232169914245
0.310115081768625,-0.032271017074585,-0.06355726947784421,0.0208855058670048
0.310720775287704,0.104245096206665,0.0753538633346558,0.315472908210755
0.311326468806784,0.17130564308166502,-0.14498793354034398,0.150216560554505
0.311932162325863,0.080294900894165,0.0729588438034058,-0.10844554882049501
0.312537855844942,-0.084961446762085,0.13043931255340602,0.145426521492005
0.313143549364022,0.051554666519165,0.0585887266159058,-0.017434806632995202
0.313749242883101,0.106640115737915,-0.00607680072784425,0.387323494148255
0.31435493640218,0.013234354019165,0.013083355522155801,0.0663908769607548
0.31496062992126,0.020419412612915,0.101699078178406,-0.0988654706954952
0.315566323440339,0.161725564956665,0.168759625053406,0.0017253496170047899
0.316172016959419,0.06592478370666499,0.202289898490906,0.0137004472732548
0.316777710478498,-0.015505880355835,0.111279156303406,0.243622322273255
0.317383403997577,-0.051431173324584994,-0.0779273866653442,0.0879460527420048
0.317989097516657,0.029999490737915,-0.0420020936965942,-0.019829826164245203
0.318594791035736,0.041974588394165006,-0.123432757759094,0.210092048835755
0.319200484554815,-0.17357716941833498,-0.226418597602844,-0.0365949628829952
0.319806178073895,0.063529764175415,0.128044293022156,-0.0270148847579952
0.320411871592974,0.018024393081665,0.113674175834656,-0.0341999433517452
0.321017565112053,0.037184549331665005,-0.104272601509094,-0.06294017772674519
0.321623258631133,0.013234354019165,0.044218609428405796,0.147821541023255
0.322228952150212,-0.015505880355835,-0.022841937446594202,-0.050965080070495196
0.322834645669291,-0.075381368637085,-0.0803224061965942,0.13105640430450502
0.323440339188371,-0.00113576316833497,0.33641099224090604,0.028070564460754798
0.32404603270745,0.039579568862915006,-0.0036817811965942503,0.0639958574295048
0.324651726226529,-0.089751485824585,-0.0587672304153442,-0.050965080070495196
0.325257419745609,0.154540506362915,0.104094097709656,-0.12042064647674501
0.325863113264688,0.0012592563629150299,-0.0156568788528442,-0.0940754316329952
0.326468806783767,-0.041851095199585,0.020268414115905797,-0.101260490226745
0.327074500302847,-0.013110860824585,0.0298484922409058,-0.34555248241424497
0.327680193821926,0.013234354019165,0.0921190000534058,-0.225801505851745
0.328285887341005,0.109035135269165,-0.0779273866653442,0.0544157793045048
0.328891580860085,-0.013110860824585,0.0370335508346558,0.169376716804505
0.329497274379164,0.104245096206665,0.0274534727096558,0.0352556230545048
0.330102967898244,0.14975046730041502,-0.15935805072784398,-0.165926017570495
0.330708661417323,0.17609568214416502,-0.0204469179153442,0.162191658210755
0.331314354936402,0.056344705581665,-0.104272601509094,0.13105640430450502
0.331920048455482,0.113825174331665,-0.0683473085403442,0.0520207597732548
0.332525741974561,0.18567576026916502,-0.125827777290344,-0.0294099042892452
0.33313143549364,0.183280740737915,-0.111457660102844,-0.144370841789245
0.33373712901272,0.152145486831665,-0.0755323671340942,0.0472307207107548
0.334342822531799,0.082689920425415,0.0945140195846558,0.234042244148255
0.334948516050878,0.051554666519165,0.125649273490906,0.332238044929505
0.335554209569958,0.037184549331665005,-0.044397113227844204,0.0160954668045048
0.336159903089037,0.046764627456665,-0.17851820697784399,0.128661384773255
0.336765596608116,-0.015505880355835,-0.0875074647903442,0.198116951179505
0.337371290127196,0.07071482276916499,0.0322435117721558,0.104711189460755
0.337976983646275,0.010839334487915,-0.17372816791534398,0.157401619148255
0.338582677165354,0.12101023292541499,-0.0779273866653442,0.0879460527420048
0.339188370684434,0.025209451675415,-0.0875074647903442,0.011305427742004801
0.339794064203513,-0.125676778793335,-0.0707423280715942,0.401693611335755
0.340399757722592,0.13538035011291502,0.123254253959656,0.430433845710755
0.341005451241672,0.025209451675415,0.118464214897156,0.435223884773255
0.341611144760751,-0.04664113426208499,0.123254253959656,0.159796638679505
0.34221683827983,-0.166392110824585,-0.0755323671340942,0.00651538867950479
0.34282253179891,-0.051431173324584994,0.0705638242721558,-0.07012523632049521
0.343428225317989,0.07310984230041499,0.0633787656784058,-0.252146720695495
0.344033918837068,-0.056221212387084996,0.250190289115906,0.0520207597732548
0.344639612356148,0.111430154800415,0.0897239805221558,0.0568107988357548
0.345245305875227,-0.058616231918334996,0.00589829692840575,-0.137185783195495
0.345850999394306,0.125800271987915,0.13043931255340602,-0.0270148847579952
0.346456692913386,0.077899881362915,-0.00128676166534425,0.145426521492005
0.347062386432465,0.053949686050415,-0.0036817811965942503,-0.230591544914245
0.347668079951545,0.046764627456665,0.125649273490906,0.037650642585754804
0.348273773470624,0.085084939956665,0.0609837461471558,-0.010249748039245199
0.348879466989703,0.116220193862915,-0.0779273866653442,-0.0126447675704952
0.349485160508783,0.015629373550415,0.0394285703659058,-0.0892853925704952
0.350090854027862,0.00604929542541503,-0.0755323671340942,-0.170716056632995
0.350696547546941,-0.077776388168335,-0.0659522890090942,-0.00306468944549521
0.351302241066021,-0.056221212387084996,-0.118642718696594,-0.06294017772674519
0.3519079345851,0.020419412612915,0.101699078178406,-0.0892853925704952
0.352513628104179,-0.11130666160583501,0.020268414115905797,0.0520207597732548
0.353119321623259,-0.101726583480835,-0.00607680072784425,0.205302009773255
0.353725015142338,0.255131326675415,0.0801439023971558,0.0783659746170048
0.354330708661417,0.058739725112915,-0.0803224061965942,-0.197061271476745
0.354936402180497,0.020419412612915,-0.20965346088409398,-0.053360099601745196
0.355542095699576,0.0012592563629150299,-0.0875074647903442,-0.00545970897674521
0.356147789218655,-0.075381368637085,-0.0563722108840942,-0.0150397871017452
0.356753482737735,-0.00113576316833497,0.0250584531784058,0.09513111133575479
0.357359176256814,-0.084961446762085,0.0585887266159058,0.0639958574295048
0.357964869775893,0.13059031105041502,-0.226418597602844,0.0496257402420048
0.358570563294973,0.109035135269165,-0.0539771913528442,-0.053360099601745196
0.359176256814052,0.111430154800415,0.022663433647155798,0.040045662117004804
0.359781950333131,0.28147654151916496,0.0609837461471558,0.12387134571075499
0.360387643852211,-0.082566427230835,-0.0108668397903442,-0.249751701164245
0.36099333737129,-0.029875997543335,-0.0659522890090942,0.11668628711700499
0.361599030890369,0.058739725112915,0.0178733945846558,0.238832283210755
0.362204724409449,-0.216687520980835,-0.0491871522903442,-0.0581501386642452
0.362810417928528,0.049159646987915,0.0873289609909058,0.12147632617950499
0.363416111447607,0.00604929542541503,0.120859234428406,-0.07970531444549521
0.364021804966687,-0.077776388168335,-0.0396070741653442,0.102316169929505
0.364627498485766,0.125800271987915,-0.0324220155715942,0.13584644336700502
0.365233192004846,0.010839334487915,0.0322435117721558,0.011305427742004801
0.365838885523925,0.041974588394165006,0.13522935161590602,-0.0605451581954952
0.366444579043004,0.032394510269165004,-0.0731373476028442,-0.19227123241424499
0.367050272562084,-0.039456075668335,-0.0922975038528442,0.0903410722732548
0.367655966081163,-0.12807179832458498,0.0490086484909058,0.157401619148255
0.368261659600242,-0.068196310043335,0.046613628959655797,0.0544157793045048
0.368867353119322,0.061134744644165004,-0.16893812885284398,0.157401619148255
0.369473046638401,-0.072986349105835,0.0537986875534058,-0.206641349601745
0.37007874015748,-0.082566427230835,-0.00847182025909425,-0.00306468944549521
0.37068443367656,-0.041851095199585,0.0346385313034058,0.301102791023255
0.371290127195639,-0.080171407699585,0.202289898490906,0.238832283210755
0.371895820714718,0.274291482925415,-0.025236956977844203,0.20051197071075502
0.372501514233798,0.022814432144165,0.0945140195846558,-0.0988654706954952
0.373107207752877,-0.010715841293335,-0.0539771913528442,-0.12042064647674501
0.373712901271956,-0.013110860824585,0.15917954692840602,0.0855510332107548
0.374318594791036,-0.19273732566833499,0.013083355522155801,0.22685718555450501
0.374924288310115,0.101850076675415,0.0106883359909058,0.09513111133575479
0.375529981829194,0.061134744644165004,-0.0899024843215942,-0.175506095695495
0.376135675348274,0.16651560401916501,0.0250584531784058,-0.125210685539245
0.376741368867353,-0.13286183738708499,-0.0875074647903442,-0.170716056632995
0.377347062386432,-0.041851095199585,-0.125827777290344,-0.048570060539245195
0.377952755905512,-0.092146505355835,-0.0779273866653442,0.274757576179505
0.378558449424591,-0.00113576316833497,-0.0180518983840942,-0.0150397871017452
0.379164142943671,0.164120584487915,0.15917954692840602,0.0903410722732548
0.37976983646275,-0.072986349105835,-0.0755323671340942,0.109501228523255
0.380375529981829,-0.080171407699585,-0.0204469179153442,0.0879460527420048
0.380981223500909,0.094665018081665,-0.125827777290344,0.0687858964920048
0.381586917019988,0.154540506362915,-0.0875074647903442,0.11429126758575499
0.382192610539067,-0.099331563949585,0.0801439023971558,0.0496257402420048
0.382798304058147,-0.039456075668335,0.295695660209656,-0.0318049238204952
0.383403997577226,0.111430154800415,0.161574566459656,-0.12042064647674501
0.384009691096305,0.00844431495666502,0.14959946880340602,0.0759709550857548
0.384615384615385,-0.11370168113708501,0.0537986875534058,0.210092048835755
0.385221078134464,0.061134744644165004,-0.06355726947784421,0.0735759355545048
0.385826771653543,-0.092146505355835,-0.176123187446594,0.23643726367950502
0.386432465172623,-0.034666036605835,-0.0994825624465942,-0.0318049238204952
0.387038158691702,0.082689920425415,-0.0396070741653442,0.128661384773255
0.387643852210781,-0.00592580223083497,-0.10187758197784401,-0.0605451581954952
0.388249545729861,-0.00113576316833497,0.0561937070846558,-0.0006696699142452131
0.38885523924894,0.07310984230041499,-0.0180518983840942,0.174166755867005
0.389460932768019,0.137775369644165,-0.104272601509094,-0.046175041007995195
0.390066626287099,0.00365427589416503,-0.0803224061965942,-0.0557551191329952
0.390672319806178,0.025209451675415,0.00589829692840575,0.222067146492005
0.391278013325257,-0.15920705223083498,-0.109062640571594,0.044835701179504805
0.391883706844337,-0.032271017074585,-0.0779273866653442,0.0520207597732548
0.392489400363416,0.173700662612915,-0.166543109321594,0.18135181446075502
0.393095093882495,0.010839334487915,-0.14019789447784398,-0.053360099601745196
0.393700787401575,0.13538035011291502,0.0681688047409058,-0.017434806632995202
0.394306480920654,0.015629373550415,0.211869976615906,0.0496257402420048
0.394912174439733,0.039579568862915006,0.19510483989715602,0.11668628711700499
0.395517867958813,0.06831980323791499,0.104094097709656,-0.0988654706954952
0.396123561477892,0.037184549331665005,-0.0731373476028442,-0.0318049238204952
0.396729254996972,-0.065801290512085,-0.0899024843215942,0.104711189460755
0.397334948516051,-0.18794728660583498,0.0346385313034058,0.0687858964920048
0.39794064203513,-0.140046895980835,-0.0276319765090942,-0.134790763664245
0.39854633555421,0.18088572120666502,0.0490086484909058,0.037650642585754804
0.399152029073289,0.132985330581665,-0.0803224061965942,-0.0557551191329952
0.399757722592368,-0.017900899887085,0.041823589897155795,-0.08210033397674521
0.400363416111448,0.063529764175415,0.116069195365906,0.499889412117005
0.400969109630527,0.19046579933166502,-0.0587672304153442,0.00412036914825479
0.401574803149606,0.13538035011291502,0.116069195365906,-0.22340648632049498
0.402180496668686,-0.11130666160583501,0.044218609428405796,0.12147632617950499
0.402786190187765,0.116220193862915,0.0370335508346558,0.281942634773255
0.403391883706844,0.039579568862915006,-0.0396070741653442,0.104711189460755
0.403997577225924,-0.068196310043335,-0.00847182025909425,-0.16832103710174498
0.404603270745003,0.061134744644165004,-0.00847182025909425,0.18614185352325502
0.405208964264082,0.051554666519165,-0.192888324165344,0.0232805253982548
0.405814657783162,0.049159646987915,0.046613628959655797,-0.0222248456954952
0.406420351302241,-0.094541524887085,0.18073472270965601,0.133451423835755
0.40702604482132,-0.156812032699585,0.0681688047409058,-0.0294099042892452
0.4076317383404,-0.00353078269958497,0.0873289609909058,0.0807609941482548
0.408237431859479,-0.072986349105835,0.0514036680221558,0.210092048835755
0.408843125378558,-0.061011251449585,-0.0946925233840942,0.0879460527420048
0.409448818897638,0.022814432144165,0.0394285703659058,-0.0557551191329952
0.410054512416717,-0.077776388168335,0.233425152397156,-0.00306468944549521
0.410660205935796,0.022814432144165,0.0106883359909058,0.09513111133575479
0.411265899454876,-0.092146505355835,-0.14498793354034398,-0.08449535350799521
0.411871592973955,-0.013110860824585,-0.29108412494659397,-0.266516837882995
0.412477286493035,0.14017038917541502,-0.13540785541534398,-0.08689037303924521
0.413082980012114,0.013234354019165,-0.0707423280715942,0.00651538867950479
0.413688673531193,0.00844431495666502,0.020268414115905797,-0.046175041007995195
0.414294367050273,-0.04664113426208499,0.0945140195846558,0.0017253496170047899
0.414900060569352,-0.123281759262085,-0.104272601509094,0.0472307207107548
0.415505754088431,0.099455057144165,0.202289898490906,-0.00785472850799521
0.416111447607511,0.049159646987915,-0.118642718696594,0.0855510332107548
0.41671714112659,0.00365427589416503,-0.14019789447784398,0.12387134571075499
0.417322834645669,0.022814432144165,-0.125827777290344,0.289127693367005
0.417928528164749,-0.180762228012085,-0.0994825624465942,0.0544157793045048
0.418534221683828,0.025209451675415,0.19031480083465602,-0.046175041007995195
0.419139915202907,-0.058616231918334996,-0.0970875429153442,0.169376716804505
0.419745608721987,-0.044246114730835,0.0298484922409058,0.126266365242005
0.420351302241066,0.07071482276916499,0.125649273490906,0.0544157793045048
0.420956995760145,0.013234354019165,0.254980328178406,0.12387134571075499
0.421562689279225,-0.094541524887085,0.0633787656784058,0.12147632617950499
0.422168382798304,-0.089751485824585,-0.161753070259094,-0.046175041007995195
0.422774076317383,-0.11609670066833501,0.116069195365906,0.13584644336700502
0.423379769836463,-0.008320821762084981,-0.0132618593215942,0.159796638679505
0.423985463355542,0.077899881362915,-0.197678363227844,0.0639958574295048
0.424591156874621,0.087479959487915,-0.279109027290344,0.0735759355545048
0.425196850393701,-0.16878713035583498,-0.0994825624465942,-0.0916804121017452
0.42580254391278,-0.18794728660583498,0.0274534727096558,0.00891040821075479
0.426408237431859,0.17609568214416502,-0.0348170351028442,0.042440681648254805
0.427013930950939,-0.104121603012085,0.123254253959656,0.143031501960755
0.427619624470018,0.221601053237915,-0.0755323671340942,0.210092048835755
0.428225317989098,0.238366189956665,0.128044293022156,-0.309627189445495
0.428831011508177,0.14975046730041502,-0.0563722108840942,-0.149160880851745
0.429436705027256,-0.00592580223083497,0.013083355522155801,0.0137004472732548
0.430042398546336,-0.025085958480835,0.353176128959656,-0.06294017772674519
0.430648092065415,0.053949686050415,0.0969090391159058,0.339423103523255
0.431253785584494,-0.11370168113708501,0.0993040586471558,0.574135017585755
0.431859479103574,0.104245096206665,-0.0946925233840942,0.16698169727325501
0.432465172622653,0.104245096206665,0.0370335508346558,-0.10844554882049501
0.433070866141732,-0.056221212387084996,-0.109062640571594,-0.07970531444549521
0.433676559660812,-0.084961446762085,-0.21444349994659398,0.0903410722732548
0.434282253179891,0.051554666519165,0.0178733945846558,0.0759709550857548
0.43488794669897,0.00604929542541503,0.020268414115905797,-0.0940754316329952
0.43549364021805,-0.053826192855834995,-0.106667621040344,0.011305427742004801
0.436099333737129,0.029999490737915,-0.0779273866653442,0.143031501960755
0.436705027256208,-0.16399709129333498,-0.0755323671340942,0.09752613086700479
0.437310720775288,-0.053826192855834995,0.0035032773971557496,-0.141975822257995
0.437916414294367,0.188070779800415,-0.152172992134094,-0.046175041007995195
0.438522107813446,-0.089751485824585,-0.046792132759094204,0.0687858964920048
0.439127801332526,-0.058616231918334996,-0.0970875429153442,0.0687858964920048
0.439733494851605,0.080294900894165,0.0514036680221558,-0.0318049238204952
0.440339188370684,0.053949686050415,0.156784527397156,-0.019829826164245203
0.440944881889764,-0.032271017074585,-0.0515821718215942,-0.00545970897674521
0.441550575408843,-0.10891164207458501,0.020268414115905797,-0.149160880851745
0.442156268927922,-0.089751485824585,-0.0875074647903442,-0.130000724601745
0.442761962447002,0.056344705581665,-0.0707423280715942,-0.07731029491424521
0.443367655966081,0.037184549331665005,0.0681688047409058,-0.0581501386642452
0.44397334948516,0.015629373550415,0.041823589897155795,-0.137185783195495
0.44457904300424,-0.084961446762085,-0.123432757759094,0.133451423835755
0.445184736523319,-0.175972188949585,-0.10187758197784401,0.09513111133575479
0.445790430042399,-0.034666036605835,0.0106883359909058,0.143031501960755
0.446396123561478,-0.199922384262085,0.013083355522155801,-0.0126447675704952
0.447001817080557,-0.008320821762084981,0.046613628959655797,-0.11084056835174501
0.447607510599637,0.16651560401916501,0.0346385313034058,0.011305427742004801
0.448213204118716,-0.087356466293335,0.0753538633346558,-0.0605451581954952
0.448818897637795,-0.013110860824585,0.0274534727096558,-0.0246198652267452
0.449424591156875,0.00365427589416503,-0.0659522890090942,0.0304655839920048
0.450030284675954,0.058739725112915,0.202289898490906,-0.0413850019454952
0.450635978195033,-0.137651876449585,0.044218609428405796,0.0855510332107548
0.451241671714113,-0.094541524887085,-0.0539771913528442,0.29391773242950503
0.451847365233192,0.089874979019165,-0.0899024843215942,0.0184904863357548
0.452453058752271,0.283871561050415,-0.0994825624465942,0.238832283210755
0.453058752271351,0.164120584487915,-0.161753070259094,0.155006599617005
0.45366444579043,0.029999490737915,0.0849339414596558,0.0568107988357548
0.454270139309509,-0.025085958480835,-0.14019789447784398,0.044835701179504805
0.454875832828589,0.17130564308166502,-0.192888324165344,-0.0150397871017452
0.455481526347668,0.080294900894165,0.0945140195846558,0.262782478523255
0.456087219866747,-0.039456075668335,-0.16893812885284398,-0.0294099042892452
0.456692913385827,0.020419412612915,-0.046792132759094204,-0.0341999433517452
0.457298606904906,-0.21429250144958498,0.15438950786590602,0.107106208992005
0.457904300423985,0.07071482276916499,-0.0515821718215942,0.044835701179504805
0.458509993943065,-0.053826192855834995,0.0322435117721558,0.09752613086700479
0.459115687462144,0.041974588394165006,-0.00128676166534425,-0.221011466789245
0.459721380981224,0.056344705581665,0.0777488828659058,-0.209036369132995
0.460327074500303,-0.068196310043335,0.104094097709656,-0.0365949628829952
0.460932768019382,0.027604471206665,-0.0276319765090942,-0.153950919914245
0.461538461538462,0.06592478370666499,0.106489117240906,-0.08449535350799521
0.462144155057541,-0.096936544418335,-0.0180518983840942,-0.08449535350799521
0.46274984857662,-0.144836935043335,-0.0707423280715942,-0.153950919914245
0.4633555420957,-0.123281759262085,-0.0348170351028442,0.028070564460754798
0.463961235614779,-0.04664113426208499,-0.0587672304153442,0.0616008378982548
0.464566929133858,0.125800271987915,-0.259948871040344,0.040045662117004804
0.465172622652938,-0.00113576316833497,0.0035032773971557496,0.09992115039825479
0.465778316172017,0.041974588394165006,-0.0851124452590942,0.193326912117005
0.466384009691096,-0.044246114730835,-0.0827174257278442,0.0520207597732548
0.466989703210176,-0.020295919418335,0.0993040586471558,-0.0653351972579952
0.467595396729255,0.109035135269165,-0.025236956977844203,0.183746833992005
0.468201090248334,0.099455057144165,0.0250584531784058,0.0496257402420048
0.468806783767414,0.082689920425415,-0.156963031196594,0.11908130664825499
0.469412477286493,0.14017038917541502,0.0921190000534058,0.193326912117005
0.470018170805572,0.13538035011291502,0.0705638242721558,-0.0294099042892452
0.470623864324652,0.104245096206665,-0.20965346088409398,-0.046175041007995195
0.471229557843731,0.116220193862915,0.0609837461471558,-0.043780021476745194
0.47183525136281,-0.10651662254333501,-0.111457660102844,0.09273609180450479
0.47244094488189,0.12340525245666499,-0.0755323671340942,0.00891040821075479
0.473046638400969,-0.032271017074585,-0.0324220155715942,-0.185086173820495
0.473652331920048,0.037184549331665005,-0.0372120546340942,-0.0294099042892452
0.474258025439128,0.06831980323791499,0.0681688047409058,0.214882087898255
0.474863718958207,-0.020295919418335,-0.288689105415344,-0.0318049238204952
0.475469412477286,0.018024393081665,-0.207258441352844,-0.0318049238204952
0.476075105996366,-0.017900899887085,-0.044397113227844204,0.308287849617005
0.476680799515445,0.097060037612915,-0.121037738227844,0.12147632617950499
0.477286493034525,-0.084961446762085,-0.0132618593215942,-0.010249748039245199
0.477892186553604,0.061134744644165004,-0.0611622499465942,-0.043780021476745194
0.478497880072683,0.12101023292541499,0.0274534727096558,0.0687858964920048
0.479103573591763,-0.101726583480835,0.0106883359909058,0.0711809160232548
0.479709267110842,-0.039456075668335,-0.192888324165344,-0.101260490226745
0.480314960629921,-0.04664113426208499,-0.06355726947784421,0.24122730274200502
0.480920654149001,-0.041851095199585,-0.0276319765090942,0.0879460527420048
0.48152634766808,0.168910623550415,-0.00847182025909425,0.09273609180450479
0.482132041187159,-0.032271017074585,0.00110825786590575,0.042440681648254805
0.482737734706239,0.025209451675415,-0.0156568788528442,-0.18269115428924498
0.483343428225318,-0.025085958480835,-0.106667621040344,0.11668628711700499
0.483949121744397,0.04436960792541501,0.0106883359909058,0.17177173633575502
0.484554815263477,0.087479959487915,0.183129742240906,0.0783659746170048
0.485160508782556,0.137775369644165,-0.0827174257278442,-0.0605451581954952
0.485766202301635,0.216811014175415,-0.176123187446594,-0.0341999433517452
0.486371895820715,-0.075381368637085,-0.0779273866653442,-0.0413850019454952
0.486977589339794,0.056344705581665,0.0945140195846558,0.042440681648254805
0.487583282858873,0.058739725112915,0.0801439023971558,0.16698169727325501
0.488188976377953,0.04436960792541501,0.125649273490906,-0.019829826164245203
0.488794669897032,0.247946268081665,0.18552476177215602,0.0160954668045048
0.489400363416111,0.16651560401916501,0.247795269584656,-0.323997306632995
0.490006056935191,-0.084961446762085,0.104094097709656,-0.386267814445495
0.49061175045427,-0.00592580223083497,-0.0036817811965942503,0.14063648242950502
0.491217443973349,-0.140046895980835,0.0561937070846558,0.538209724617005
0.491823137492429,-0.092146505355835,0.106489117240906,0.257992439460755
0.492428831011508,0.137775369644165,0.0729588438034058,0.0328606035232548
0.493034524530587,0.025209451675415,-0.188098285102844,0.040045662117004804
0.493640218049667,0.032394510269165004,0.0705638242721558,-0.137185783195495
0.494245911568746,0.082689920425415,0.0657737852096558,-0.08449535350799521
0.494851605087826,0.161725564956665,0.022663433647155798,-0.050965080070495196
0.495457298606905,0.142565408706665,0.0274534727096558,0.128661384773255
0.496062992125984,0.087479959487915,0.113674175834656,0.0496257402420048
0.496668685645064,-0.25979787254333503,0.0561937070846558,0.0807609941482548
0.497274379164143,-0.15920705223083498,0.0849339414596558,0.107106208992005
0.497880072683222,0.032394510269165004,0.008293316459655751,0.011305427742004801
0.498485766202302,0.049159646987915,-0.190493304634094,-0.0940754316329952
0.499091459721381,0.085084939956665,0.00110825786590575,-0.216221427726745
0.49969715324046,0.116220193862915,-0.231208636665344,-0.22340648632049498
0.50030284675954,0.116220193862915,-0.0731373476028442,0.09752613086700479
0.500908540278619,-0.017900899887085,-0.113852679634094,0.0472307207107548
0.501514233797698,-0.152021993637085,-0.109062640571594,-0.0413850019454952
0.502119927316778,-0.207107442855835,0.264560406303406,0.042440681648254805
0.502725620835857,-0.013110860824585,0.046613628959655797,-0.151555900382995
0.503331314354936,-0.135256856918335,0.137624371147156,-0.165926017570495
0.503937007874016,0.018024393081665,0.19989487895965602,0.104711189460755
0.504542701393095,0.037184549331665005,-0.0587672304153442,0.147821541023255
0.505148394912174,0.125800271987915,-0.0204469179153442,-0.0294099042892452
0.505754088431254,0.178490701675415,-0.0132618593215942,-0.0126447675704952
0.506359781950333,0.13059031105041502,-0.0396070741653442,-0.213826408195495
0.506965475469413,0.07310984230041499,0.128044293022156,-0.189876212882995
0.507571168988492,-0.080171407699585,0.00110825786590575,0.0879460527420048
0.508176862507571,0.013234354019165,0.00589829692840575,0.11429126758575499
0.50878255602665,0.039579568862915006,0.0825389219284058,0.09513111133575479
0.50938824954573,0.089874979019165,0.202289898490906,0.222067146492005
0.509993943064809,-0.00113576316833497,0.0873289609909058,0.0568107988357548
0.510599636583889,0.197650857925415,-0.15456801166534398,0.044835701179504805
0.511205330102968,0.20962595558166502,-0.0372120546340942,-0.0940754316329952
0.511811023622047,0.099455057144165,0.044218609428405796,-0.259331779289245
0.512416717141127,0.018024393081665,0.0825389219284058,0.0663908769607548
0.513022410660206,0.00604929542541503,-0.00128676166534425,-0.13239574413299499
0.513628104179285,0.07071482276916499,-0.161753070259094,-0.0988654706954952
0.514233797698365,0.0012592563629150299,0.0969090391159058,0.22685718555450501
0.514839491217444,-0.008320821762084981,0.125649273490906,0.0735759355545048
0.515445184736523,0.080294900894165,0.0250584531784058,0.0184904863357548
0.516050878255603,0.029999490737915,-0.123432757759094,0.202906990242005
0.516656571774682,-0.061011251449585,-0.147382953071594,-0.0222248456954952
0.517262265293761,-0.034666036605835,0.00589829692840575,0.00891040821075479
0.517867958812841,0.128195291519165,0.0250584531784058,0.257992439460755
0.51847365233192,-0.013110860824585,0.173549664115906,-0.0940754316329952
0.519079345850999,0.049159646987915,-0.0396070741653442,-0.362317619132995
0.519685039370079,0.085084939956665,-0.0204469179153442,0.47354419727325503
0.520290732889158,-0.175972188949585,0.0561937070846558,0.380138435554505
0.520896426408237,0.104245096206665,0.0969090391159058,0.162191658210755
0.521502119927317,0.286266580581665,-0.16893812885284398,0.219672126960755
0.522107813446396,-0.020295919418335,0.020268414115905797,-0.0892853925704952
0.522713506965475,-0.025085958480835,0.254980328178406,-0.07012523632049521
0.523319200484555,0.159330545425415,-0.0156568788528442,-0.16353099803924498
0.523924894003634,0.089874979019165,-0.0803224061965942,0.0687858964920048
0.524530587522714,0.022814432144165,-0.152172992134094,0.037650642585754804
0.525136281041793,0.101850076675415,-0.104272601509094,0.0807609941482548
0.525741974560872,0.037184549331665005,0.125649273490906,0.00412036914825479
0.526347668079951,-0.099331563949585,-0.0659522890090942,-0.0006696699142452131
0.526953361599031,0.051554666519165,0.008293316459655751,0.0137004472732548
0.52755905511811,0.097060037612915,0.0035032773971557496,0.207697029304505
0.52816474863719,0.156935525894165,0.0633787656784058,0.00891040821075479
0.528770442156269,-0.00113576316833497,0.0681688047409058,0.143031501960755
0.529376135675348,0.037184549331665005,-0.267133929634094,0.289127693367005
0.529981829194428,-0.020295919418335,0.0633787656784058,0.0328606035232548
0.530587522713507,-0.025085958480835,0.113674175834656,0.0160954668045048
0.531193216232586,0.168910623550415,0.0921190000534058,0.0160954668045048
0.531798909751666,0.037184549331665005,0.175944683647156,0.162191658210755
0.532404603270745,-0.020295919418335,0.173549664115906,-0.08210033397674521
0.533010296789824,-0.152021993637085,0.0154783750534058,-0.08449535350799521
0.533615990308904,-0.039456075668335,-0.161753070259094,0.152611580085755
0.534221683827983,0.077899881362915,0.0490086484909058,0.11429126758575499
0.534827377347062,-0.025085958480835,-0.104272601509094,0.09513111133575479
0.535433070866142,-0.04664113426208499,0.0681688047409058,0.14063648242950502
0.536038764385221,-0.053826192855834995,0.0298484922409058,0.040045662117004804
0.5366444579043,-0.140046895980835,-0.0922975038528442,-0.07252025585174521
0.53725015142338,0.04436960792541501,0.161574566459656,0.0855510332107548
0.537855844942459,-0.04664113426208499,-0.0803224061965942,0.0807609941482548
0.538461538461538,-0.120886739730835,-0.0755323671340942,-0.10844554882049501
0.539067231980618,0.099455057144165,0.0250584531784058,0.17656177539825502
0.539672925499697,0.142565408706665,0.20947495708465602,-0.08449535350799521
0.540278619018776,0.22639109230041501,0.13043931255340602,0.00651538867950479
0.540884312537856,0.147355447769165,-0.0108668397903442,-0.019829826164245203
0.541490006056935,-0.037061056137085,0.0035032773971557496,-0.0940754316329952
0.542095699576015,-0.161602071762085,-0.0420020936965942,0.0783659746170048
0.542701393095094,0.080294900894165,-0.259948871040344,-0.06294017772674519
0.543307086614173,0.075504861831665,-0.133012835884094,0.145426521492005
0.543912780133253,0.0012592563629150299,0.123254253959656,0.18614185352325502
0.544518473652332,-0.096936544418335,-0.106667621040344,0.0568107988357548
0.545124167171411,-0.089751485824585,-0.0875074647903442,0.0208855058670048
0.545729860690491,-0.11849172019958501,0.104094097709656,0.12387134571075499
0.54633555420957,-0.008320821762084981,0.008293316459655751,-0.125210685539245
0.546941247728649,0.075504861831665,0.118464214897156,-0.11323558788299501
0.547546941247729,-0.12807179832458498,-0.0611622499465942,0.217277107429505
0.548152634766808,-0.065801290512085,-0.0994825624465942,-0.053360099601745196
0.548758328285887,-0.051431173324584994,0.132834332084656,0.0616008378982548
0.549364021804967,0.027604471206665,0.0657737852096558,0.614850349617005
0.549969715324046,0.111430154800415,-0.128222796821594,0.159796638679505
0.550575408843125,-0.195132345199585,-0.109062640571594,0.368163337898255
0.551181102362205,-0.180762228012085,-0.190493304634094,0.360978279304505
0.551786795881284,0.034789529800415005,-0.283899066352844,-0.07491527538299521
0.552392489400363,0.07071482276916499,0.123254253959656,0.20051197071075502
0.552998182919443,0.17130564308166502,0.118464214897156,0.0831560136795048
0.553603876438522,0.092269998550415,-0.0276319765090942,0.037650642585754804
0.554209569957601,0.06831980323791499,0.13043931255340602,0.0687858964920048
0.554815263476681,0.07310984230041499,0.044218609428405796,-0.0318049238204952
0.55542095699576,-0.077776388168335,-0.20486342182159398,0.0232805253982548
0.556026650514839,-0.044246114730835,0.0921190000534058,0.09992115039825479
0.556632344033919,-0.077776388168335,-0.0994825624465942,0.0352556230545048
0.557238037552998,-0.041851095199585,-0.255158831977844,0.0232805253982548
0.557843731072078,0.13538035011291502,0.0561937070846558,-0.0916804121017452
0.558449424591157,0.0012592563629150299,0.118464214897156,0.23643726367950502
0.559055118110236,0.125800271987915,0.020268414115905797,-0.0653351972579952
0.559660811629316,0.14496042823791502,-0.0372120546340942,-0.189876212882995
0.560266505148395,0.12340525245666499,0.0106883359909058,0.13105640430450502
0.560872198667474,-0.056221212387084996,-0.123432757759094,-0.017434806632995202
0.561477892186554,-0.195132345199585,0.0274534727096558,-0.0294099042892452
0.562083585705633,-0.087356466293335,0.137624371147156,0.0352556230545048
0.562689279224712,-0.092146505355835,0.0370335508346558,0.0831560136795048
0.563294972743792,0.056344705581665,0.0274534727096558,0.037650642585754804
0.563900666262871,0.010839334487915,-0.0563722108840942,0.0903410722732548
0.56450635978195,-0.049036153793334994,-0.216838519477844,-0.101260490226745
0.56511205330103,0.07071482276916499,-0.16414808979034398,-0.266516837882995
0.565717746820109,0.101850076675415,-0.0491871522903442,-0.0413850019454952
0.566323440339188,-0.010715841293335,-0.025236956977844203,-0.07970531444549521
0.566929133858268,0.022814432144165,0.254980328178406,0.0017253496170047899
0.567534827377347,0.216811014175415,0.0514036680221558,0.250807380867005
0.568140520896426,0.037184549331665005,-0.0731373476028442,-0.22340648632049498
0.568746214415506,0.101850076675415,-0.180913226509094,-0.0270148847579952
0.569351907934585,0.14975046730041502,-0.0156568788528442,0.24601734180450502
0.569957601453664,-0.18794728660583498,0.18073472270965601,0.0616008378982548
0.570563294972744,-0.12807179832458498,-0.10187758197784401,0.0520207597732548
0.571168988491823,0.128195291519165,0.111279156303406,0.104711189460755
0.571774682010902,0.12340525245666499,-0.0348170351028442,0.11429126758575499
0.572380375529982,-0.010715841293335,-0.128222796821594,0.0160954668045048
0.572986069049061,0.104245096206665,-0.0970875429153442,0.0831560136795048
0.57359176256814,-0.044246114730835,-0.0611622499465942,0.0472307207107548
0.57419745608722,-0.226267599105835,-0.212048480415344,-0.08689037303924521
0.574803149606299,0.04436960792541501,0.0945140195846558,-0.0605451581954952
0.575408843125379,0.20004587745666502,0.183129742240906,0.159796638679505
0.576014536644458,0.00365427589416503,-0.00128676166534425,0.143031501960755
0.576620230163537,0.022814432144165,-0.0348170351028442,0.0639958574295048
0.577225923682617,-0.034666036605835,-0.0922975038528442,0.11908130664825499
0.577831617201696,-0.142441915512085,-0.202468402290344,-0.019829826164245203
0.578437310720775,-0.056221212387084996,-0.116247699165344,0.00412036914825479
0.579043004239855,0.010839334487915,-0.0132618593215942,-0.0006696699142452131
0.579648697758934,-0.034666036605835,-0.176123187446594,-0.13239574413299499
0.580254391278013,-0.185552267074585,0.0250584531784058,0.0352556230545048
0.580860084797093,0.029999490737915,-0.0420020936965942,0.375348396492005
0.581465778316172,0.085084939956665,-0.0539771913528442,0.0544157793045048
0.582071471835251,0.046764627456665,-0.0132618593215942,-0.0006696699142452131
0.582677165354331,0.188070779800415,0.0849339414596558,0.229252205085755
0.58328285887341,0.14975046730041502,0.21426499614715602,-0.00545970897674521
0.583888552392489,0.00604929542541503,-0.0803224061965942,-0.10605052928924501
0.584494245911569,-0.056221212387084996,-0.118642718696594,-0.139580802726745
0.585099939430648,0.032394510269165004,0.0561937070846558,0.028070564460754798
0.585705632949727,0.085084939956665,0.0274534727096558,-0.050965080070495196
0.586311326468807,-0.008320821762084981,0.00110825786590575,-0.06294017772674519
0.586917019987886,0.032394510269165004,-0.0946925233840942,0.13584644336700502
0.587522713506965,-0.130466817855835,-0.166543109321594,0.214882087898255
0.588128407026045,0.027604471206665,-0.118642718696594,0.0496257402420048
0.588734100545124,0.212020975112915,-0.0372120546340942,-0.017434806632995202
0.589339794064203,0.029999490737915,-0.0922975038528442,-0.050965080070495196
0.589945487583283,-0.070591329574585,-0.156963031196594,-0.256936759757995
0.590551181102362,0.063529764175415,-0.0539771913528442,-0.00306468944549521
0.591156874621442,0.00604929542541503,0.0681688047409058,-0.07252025585174521
0.591762568140521,-0.032271017074585,-0.0491871522903442,-0.0270148847579952
0.5923682616596,0.152145486831665,-0.128222796821594,0.178956794929505
0.59297395517868,-0.008320821762084981,-0.133012835884094,0.0855510332107548
0.593579648697759,-0.137651876449585,-0.0396070741653442,0.126266365242005
0.594185342216838,0.109035135269165,0.0681688047409058,0.0879460527420048
0.594791035735918,0.056344705581665,0.041823589897155795,-0.12281566600799501
0.595396729254997,-0.020295919418335,0.0154783750534058,-0.161135978507995
0.596002422774076,-0.082566427230835,0.008293316459655751,0.19093189258575502
0.596608116293156,0.106640115737915,-0.044397113227844204,0.267572517585755
0.597213809812235,0.025209451675415,0.0609837461471558,0.0807609941482548
0.597819503331314,-0.135256856918335,0.022663433647155798,-0.151555900382995
0.598425196850394,0.063529764175415,0.0825389219284058,0.152611580085755
0.599030890369473,-0.027480978012085,0.19031480083465602,0.193326912117005
0.599636583888552,0.034789529800415005,-0.0420020936965942,-0.16353099803924498
0.600242277407632,0.027604471206665,-0.156963031196594,0.044835701179504805
0.600847970926711,0.032394510269165004,-0.022841937446594202,0.0160954668045048
0.60145366444579,0.154540506362915,0.125649273490906,0.11668628711700499
0.60205935796487,0.104245096206665,0.161574566459656,0.128661384773255
0.602665051483949,0.06831980323791499,0.15917954692840602,0.0639958574295048
0.603270745003028,-0.017900899887085,-0.111457660102844,0.0616008378982548
0.603876438522108,-0.140046895980835,-0.176123187446594,-0.00545970897674521
0.604482132041187,0.111430154800415,0.0154783750534058,0.152611580085755
0.605087825560267,0.132985330581665,0.0897239805221558,0.157401619148255
0.605693519079346,-0.130466817855835,-0.121037738227844,0.109501228523255
0.606299212598425,-0.053826192855834995,-0.0587672304153442,0.09992115039825479
0.606904906117504,0.233576150894165,0.19510483989715602,0.162191658210755
0.607510599636584,0.027604471206665,-0.0803224061965942,0.128661384773255
0.608116293155663,-0.14962697410583498,-0.0420020936965942,0.14063648242950502
0.608721986674743,-0.075381368637085,-0.113852679634094,-0.0916804121017452
0.609327680193822,-0.00113576316833497,-0.00607680072784425,-0.125210685539245
0.609933373712901,-0.00592580223083497,0.022663433647155798,-0.283281974601745
0.610539067231981,0.13538035011291502,-0.0994825624465942,0.298707771492005
0.61114476075106,-0.029875997543335,-0.025236956977844203,0.104711189460755
0.611750454270139,-0.120886739730835,-0.0994825624465942,0.169376716804505
0.612356147789219,-0.226267599105835,-0.142592914009094,0.193326912117005
0.612961841308298,0.07071482276916499,-0.0899024843215942,-0.130000724601745
0.613567534827377,0.092269998550415,0.0705638242721558,0.351398201179505
0.614173228346457,-0.013110860824585,0.0993040586471558,-0.00785472850799521
0.614778921865536,0.137775369644165,0.274140484428406,0.042440681648254805
0.615384615384615,-0.077776388168335,-0.109062640571594,-0.048570060539245195
0.615990308903695,-0.032271017074585,-0.14498793354034398,0.00412036914825479
0.616596002422774,-0.063406270980835,-0.0611622499465942,0.0472307207107548
0.617201695941853,0.116220193862915,0.00589829692840575,0.0616008378982548
0.617807389460933,0.118615213394165,0.13043931255340602,0.0616008378982548
0.618413082980012,0.07071482276916499,-0.15935805072784398,-0.141975822257995
0.619018776499091,0.07071482276916499,-0.0204469179153442,0.0639958574295048
0.619624470018171,0.037184549331665005,-0.10187758197784401,-0.050965080070495196
0.62023016353725,0.013234354019165,-0.125827777290344,0.14063648242950502
0.620835857056329,-0.082566427230835,0.128044293022156,0.12147632617950499
0.621441550575409,-0.017900899887085,0.0921190000534058,-0.07970531444549521
0.622047244094488,0.097060037612915,-0.00847182025909425,0.17177173633575502
0.622652937613568,0.12101023292541499,-0.111457660102844,-0.0222248456954952
0.623258631132647,-0.041851095199585,0.0178733945846558,-0.0150397871017452
0.623864324651726,-0.135256856918335,0.168759625053406,-0.0318049238204952
0.624470018170806,0.097060037612915,0.0537986875534058,0.126266365242005
0.625075711689885,0.039579568862915006,0.00589829692840575,0.0544157793045048
0.625681405208964,-0.14962697410583498,-0.0300269960403442,0.0592058183670048
0.626287098728044,-0.120886739730835,0.13043931255340602,0.178956794929505
0.626892792247123,0.053949686050415,-0.0683473085403442,0.107106208992005
0.627498485766202,-0.120886739730835,-0.0108668397903442,-0.0006696699142452131
0.628104179285282,0.053949686050415,-0.0396070741653442,-0.00545970897674521
0.628709872804361,0.034789529800415005,-0.0539771913528442,0.178956794929505
0.62931556632344,-0.099331563949585,0.104094097709656,0.09752613086700479
0.62992125984252,-0.017900899887085,-0.14019789447784398,0.0496257402420048
0.630526953361599,0.07310984230041499,-0.0899024843215942,-0.08689037303924521
0.631132646880678,0.077899881362915,0.216660015678406,-0.017434806632995202
0.631738340399758,-0.015505880355835,0.238215191459656,0.150216560554505
0.632344033918837,0.082689920425415,0.00589829692840575,0.0711809160232548
0.632949727437916,-0.051431173324584994,-0.133012835884094,-0.146765861320495
0.633555420956996,-0.061011251449585,-0.264738910102844,-0.010249748039245199
0.634161114476075,-0.190342306137085,-0.0946925233840942,-0.07970531444549521
0.634766807995154,0.032394510269165004,0.0490086484909058,-0.019829826164245203
0.635372501514234,0.173700662612915,0.0657737852096558,0.392113533210755
0.635978195033313,-0.101726583480835,0.008293316459655751,-0.0246198652267452
0.636583888552392,0.097060037612915,-0.0539771913528442,-0.0270148847579952
0.637189582071472,0.039579568862915006,0.262165386772156,0.0639958574295048
0.637795275590551,0.032394510269165004,0.0801439023971558,-0.06294017772674519
0.638400969109631,-0.029875997543335,-0.113852679634094,0.11429126758575499
0.63900666262871,-0.087356466293335,0.041823589897155795,-0.141975822257995
0.639612356147789,0.087479959487915,0.0609837461471558,-0.407822990226745
0.640218049666869,-0.020295919418335,-0.0683473085403442,-0.249751701164245
0.640823743185948,0.029999490737915,-0.0156568788528442,0.466359138679505
0.641429436705027,0.029999490737915,0.0514036680221558,0.147821541023255
0.642035130224107,-0.037061056137085,-0.245578753852844,-0.199456291007995
0.642640823743186,-0.252612813949585,0.0035032773971557496,0.126266365242005
0.643246517262265,-0.051431173324584994,-0.0970875429153442,-0.10605052928924501
0.643852210781345,-0.087356466293335,-0.0755323671340942,-0.151555900382995
0.644457904300424,-0.063406270980835,0.14959946880340602,0.11668628711700499
0.645063597819503,0.101850076675415,-0.0707423280715942,0.104711189460755
0.645669291338583,0.080294900894165,-0.025236956977844203,0.0328606035232548
0.646274984857662,0.14017038917541502,0.216660015678406,-0.0413850019454952
0.646880678376741,-0.080171407699585,0.15438950786590602,-0.103655509757995
0.647486371895821,0.0012592563629150299,0.0849339414596558,0.265177498054505
0.6480920654149,0.104245096206665,-0.0827174257278442,0.0711809160232548
0.648697758933979,0.0012592563629150299,-0.0491871522903442,0.22685718555450501
0.649303452453059,0.082689920425415,-0.0946925233840942,0.155006599617005
0.649909145972138,0.07310984230041499,-0.257553851509094,-0.0126447675704952
0.650514839491217,0.238366189956665,0.0346385313034058,-0.11084056835174501
0.651120533010297,0.046764627456665,0.0633787656784058,-0.0892853925704952
0.651726226529376,-0.027480978012085,0.0322435117721558,0.13105640430450502
0.652331920048455,0.0012592563629150299,0.19031480083465602,0.00412036914825479
0.652937613567535,-0.10891164207458501,0.0274534727096558,-0.101260490226745
0.653543307086614,0.020419412612915,0.046613628959655797,-0.10844554882049501
0.654149000605693,-0.077776388168335,0.044218609428405796,0.0783659746170048
0.654754694124773,0.046764627456665,-0.10187758197784401,0.0735759355545048
0.655360387643852,0.142565408706665,0.238215191459656,0.00891040821075479
0.655966081162932,0.04436960792541501,0.0969090391159058,0.143031501960755
0.656571774682011,0.077899881362915,-0.207258441352844,0.210092048835755
0.65717746820109,-0.094541524887085,0.183129742240906,0.109501228523255
0.65778316172017,0.010839334487915,0.123254253959656,0.279547615242005
0.658388855239249,0.029999490737915,-0.0420020936965942,0.198116951179505
0.658994548758328,-0.10651662254333501,-0.0420020936965942,0.207697029304505
0.659600242277408,0.156935525894165,0.0035032773971557496,0.224462166023255
0.660205935796487,-0.123281759262085,-0.0276319765090942,0.042440681648254805
0.660811629315566,0.056344705581665,-0.279109027290344,-0.048570060539245195
0.661417322834646,0.27189646339416496,0.0394285703659058,-0.23298656444549498
0.662023016353725,0.06831980323791499,-0.0300269960403442,-0.08449535350799521
0.662628709872804,0.106640115737915,-0.0611622499465942,0.037650642585754804
0.663234403391884,-0.053826192855834995,0.0969090391159058,-0.204246330070495
0.663840096910963,-0.013110860824585,-0.0563722108840942,-0.161135978507995
0.664445790430042,0.025209451675415,0.14959946880340602,-0.010249748039245199
0.665051483949122,-0.171182149887085,0.14480942974090602,-0.08210033397674521
0.665657177468201,-0.013110860824585,-0.250368792915344,-0.0318049238204952
0.66626287098728,-0.020295919418335,0.0178733945846558,0.128661384773255
0.66686856450636,0.221601053237915,0.00589829692840575,-0.0389899824142452
0.667474258025439,0.17130564308166502,-0.0300269960403442,-0.0940754316329952
0.668079951544518,-0.044246114730835,0.166364605522156,0.0352556230545048
0.668685645063598,0.046764627456665,-0.0372120546340942,-0.10844554882049501
0.669291338582677,0.24555124855041502,-0.116247699165344,-0.23777660350799498
0.669897032101756,0.212020975112915,0.0394285703659058,-0.206641349601745
0.670502725620836,0.099455057144165,-0.121037738227844,-0.048570060539245195
0.671108419139915,0.118615213394165,-0.10187758197784401,0.217277107429505
0.671714112658994,-0.053826192855834995,-0.0587672304153442,0.126266365242005
0.672319806178074,-0.152021993637085,-0.338984515571594,0.0160954668045048
0.672925499697153,-0.10651662254333501,-0.046792132759094204,-0.156345939445495
0.673531193216233,-0.11370168113708501,0.120859234428406,-0.0940754316329952
0.674136886735312,-0.053826192855834995,0.0537986875534058,0.145426521492005
0.674742580254391,0.041974588394165006,-0.0611622499465942,0.0160954668045048
0.675348273773471,-0.044246114730835,0.0394285703659058,-0.019829826164245203
0.67595396729255,-0.065801290512085,0.118464214897156,0.0735759355545048
0.676559660811629,0.015629373550415,-0.0396070741653442,-0.271306876945495
0.677165354330709,-0.255007833480835,-0.14977797260284398,-0.08449535350799521
0.677771047849788,-0.161602071762085,0.0537986875534058,0.00412036914825479
0.678376741368867,-0.077776388168335,0.0298484922409058,-0.134790763664245
0.678982434887947,-0.101726583480835,-0.00128676166534425,0.0831560136795048
0.679588128407026,0.07310984230041499,-0.128222796821594,-0.0988654706954952
0.680193821926105,0.077899881362915,-0.0875074647903442,-0.189876212882995
0.680799515445185,0.097060037612915,0.0561937070846558,-0.0365949628829952
0.681405208964264,-0.10651662254333501,0.0394285703659058,-0.06294017772674519
0.682010902483343,-0.04664113426208499,0.0274534727096558,-0.101260490226745
0.682616596002423,-0.190342306137085,-0.0803224061965942,-0.23298656444549498
0.683222289521502,0.12340525245666499,-0.15456801166534398,-0.0964704511642452
0.683827983040581,0.125800271987915,0.0322435117721558,0.17177173633575502
0.684433676559661,-0.135256856918335,-0.0036817811965942503,0.157401619148255
0.68503937007874,0.075504861831665,-0.104272601509094,0.042440681648254805
0.68564506359782,0.22639109230041501,-0.0132618593215942,-0.0150397871017452
0.686250757116899,-0.013110860824585,-0.109062640571594,-0.00785472850799521
0.686856450635978,-0.020295919418335,-0.0899024843215942,-0.0006696699142452131
0.687462144155058,-0.025085958480835,0.137624371147156,-0.10844554882049501
0.688067837674137,-0.010715841293335,0.0298484922409058,-0.048570060539245195
0.688673531193216,0.04436960792541501,-0.123432757759094,0.102316169929505
0.689279224712296,-0.015505880355835,0.0250584531784058,0.0472307207107548
0.689884918231375,0.061134744644165004,0.137624371147156,0.13105640430450502
0.690490611750454,0.099455057144165,-0.0396070741653442,-0.11802562694549501
0.691096305269534,0.094665018081665,-0.269528949165344,-0.050965080070495196
0.691701998788613,0.00844431495666502,-0.0348170351028442,0.0831560136795048
0.692307692307692,0.092269998550415,-0.00128676166534425,0.0711809160232548
0.692913385826772,-0.022690938949585,-0.0132618593215942,-0.23777660350799498
0.693519079345851,0.020419412612915,-0.0180518983840942,0.0304655839920048
0.69412477286493,-0.029875997543335,0.281325543022156,0.17656177539825502
0.69473046638401,-0.120886739730835,0.18073472270965601,-0.139580802726745
0.695336159903089,0.14496042823791502,0.0346385313034058,-0.11563060741424501
0.695941853422168,0.099455057144165,0.21426499614715602,0.037650642585754804
0.696547546941248,-0.017900899887085,0.113674175834656,0.0903410722732548
0.697153240460327,-0.029875997543335,0.13522935161590602,-0.0581501386642452
0.697758933979406,0.104245096206665,0.132834332084656,0.0759709550857548
0.698364627498486,0.046764627456665,-0.0922975038528442,0.09752613086700479
0.698970321017565,-0.017900899887085,-0.00847182025909425,0.581320076179505
0.699576014536644,0.061134744644165004,0.0945140195846558,0.104711189460755
0.700181708055724,-0.049036153793334994,0.046613628959655797,0.178956794929505
0.700787401574803,-0.13286183738708499,-0.0803224061965942,0.499889412117005
0.701393095093882,-0.075381368637085,-0.0396070741653442,0.102316169929505
0.701998788612962,0.125800271987915,-0.0563722108840942,0.0568107988357548
0.702604482132041,0.317401834487915,-0.0899024843215942,-0.048570060539245195
0.703210175651121,0.252736307144165,-0.0659522890090942,-0.0557551191329952
0.7038158691702,0.046764627456665,-0.128222796821594,-0.197061271476745
0.704421562689279,0.109035135269165,-0.0994825624465942,0.0807609941482548
0.705027256208359,-0.013110860824585,-0.0156568788528442,0.207697029304505
0.705632949727438,0.250341287612915,-0.17372816791534398,0.234042244148255
0.706238643246517,0.207230936050415,-0.0659522890090942,-0.101260490226745
0.706844336765597,-0.125676778793335,0.0873289609909058,-0.12042064647674501
0.707450030284676,0.101850076675415,-0.245578753852844,0.13105640430450502
0.708055723803755,-0.041851095199585,-0.142592914009094,-0.130000724601745
0.708661417322835,0.147355447769165,0.118464214897156,0.0687858964920048
0.709267110841914,0.00604929542541503,-0.0132618593215942,0.011305427742004801
0.709872804360993,-0.010715841293335,-0.0396070741653442,-0.048570060539245195
0.710478497880073,0.22639109230041501,-0.0683473085403442,-0.0294099042892452
0.711084191399152,0.111430154800415,-0.0132618593215942,-0.11084056835174501
0.711689884918231,0.053949686050415,-0.0851124452590942,0.147821541023255
0.712295578437311,-0.032271017074585,-0.25276381244659396,0.00651538867950479
0.71290127195639,0.027604471206665,0.216660015678406,0.157401619148255
0.713506965475469,-0.068196310043335,0.0106883359909058,0.23643726367950502
0.714112658994549,-0.015505880355835,-0.156963031196594,0.0472307207107548
0.714718352513628,0.094665018081665,0.243005230522156,-0.050965080070495196
0.715324046032707,-0.104121603012085,0.0729588438034058,-0.0294099042892452
0.715929739551787,-0.14962697410583498,0.26695542583465603,0.0783659746170048
0.716535433070866,-0.061011251449585,0.281325543022156,0.174166755867005
0.717141126589945,-0.020295919418335,-0.128222796821594,-0.161135978507995
0.717746820109025,0.041974588394165006,-0.123432757759094,-0.15874095897674498
0.718352513628104,0.06831980323791499,0.228635113334656,0.291522712898255
0.718958207147184,-0.087356466293335,-0.0324220155715942,0.301102791023255
0.719563900666263,-0.00353078269958497,-0.264738910102844,0.0232805253982548
0.720169594185342,0.063529764175415,0.041823589897155795,0.00891040821075479
0.720775287704422,0.00604929542541503,-0.0994825624465942,-0.0126447675704952
0.721380981223501,0.159330545425415,0.19031480083465602,0.0352556230545048
0.72198667474258,-0.025085958480835,0.221450054740906,0.011305427742004801
0.72259236826166,-0.04664113426208499,0.0753538633346558,0.219672126960755
0.723198061780739,-0.156812032699585,0.0490086484909058,0.0783659746170048
0.723803755299818,-0.11609670066833501,0.0897239805221558,-0.0389899824142452
0.724409448818898,-0.075381368637085,0.0849339414596558,0.16698169727325501
0.725015142337977,0.113825174331665,-0.0491871522903442,0.037650642585754804
0.725620835857056,0.188070779800415,-0.0611622499465942,0.18135181446075502
0.726226529376136,0.0012592563629150299,0.151994488334656,-0.050965080070495196
0.726832222895215,0.094665018081665,0.00589829692840575,0.0160954668045048
0.727437916414294,0.041974588394165006,0.0705638242721558,0.11668628711700499
0.728043609933374,-0.00113576316833497,0.20947495708465602,0.19572193164825502
0.728649303452453,-0.096936544418335,0.274140484428406,0.18614185352325502
0.729254996971532,-0.020295919418335,0.0609837461471558,0.0017253496170047899
0.729860690490612,0.109035135269165,-0.044397113227844204,-0.17790111522674498
0.730466384009691,-0.034666036605835,0.26695542583465603,0.47354419727325503
0.73107207752877,-0.175972188949585,-0.025236956977844203,0.279547615242005
0.73167777104785,0.168910623550415,0.0035032773971557496,-0.230591544914245
0.732283464566929,0.046764627456665,-0.118642718696594,0.0496257402420048
0.732889158086008,-0.20950246238708498,0.0537986875534058,-0.312022208976745
0.733494851605088,-0.010715841293335,0.0514036680221558,-0.0341999433517452
0.734100545124167,0.046764627456665,-0.0036817811965942503,0.00412036914825479
0.734706238643246,-0.015505880355835,-0.137802874946594,-0.11084056835174501
0.735311932162326,-0.041851095199585,-0.19528334369659398,0.102316169929505
0.735917625681405,0.04436960792541501,0.106489117240906,0.0687858964920048
0.736523319200485,0.00844431495666502,-0.06355726947784421,0.0568107988357548
0.737129012719564,0.010839334487915,-0.142592914009094,0.0663908769607548
0.737734706238643,0.077899881362915,0.046613628959655797,0.0711809160232548
0.738340399757723,-0.12807179832458498,0.0777488828659058,0.19093189258575502
0.738946093276802,-0.293328145980835,0.046613628959655797,-0.161135978507995
0.739551786795881,-0.056221212387084996,0.192709820365906,-0.0006696699142452131
0.740157480314961,0.053949686050415,0.21905503520965602,0.037650642585754804
0.74076317383404,0.116220193862915,0.0753538633346558,-0.010249748039245199
0.741368867353119,0.029999490737915,0.0585887266159058,0.157401619148255
0.741974560872199,0.020419412612915,0.00110825786590575,0.11189624805450499
0.742580254391278,-0.008320821762084981,-0.23360365619659398,0.289127693367005
0.743185947910357,0.04436960792541501,0.041823589897155795,-0.0126447675704952
0.743791641429437,0.20004587745666502,0.14001939067840602,-0.144370841789245
0.744397334948516,0.14975046730041502,-0.0180518983840942,0.0017253496170047899
0.745003028467595,0.094665018081665,-0.0683473085403442,0.0831560136795048
0.745608721986675,-0.025085958480835,-0.046792132759094204,0.0711809160232548
0.746214415505754,-0.068196310043335,-0.0611622499465942,0.212487068367005
0.746820109024833,-0.00592580223083497,-0.00607680072784425,0.107106208992005
0.747425802543913,0.156935525894165,0.0585887266159058,-0.15874095897674498
0.748031496062992,-0.077776388168335,-0.00847182025909425,0.044835701179504805
0.748637189582071,0.125800271987915,0.116069195365906,0.188536873054505
0.749242883101151,0.099455057144165,-0.0372120546340942,0.202906990242005
0.74984857662023,-0.255007833480835,-0.0348170351028442,0.12387134571075499
0.75045427013931,0.075504861831665,0.156784527397156,-0.0605451581954952
0.751059963658389,-0.025085958480835,0.0035032773971557496,0.042440681648254805
0.751665657177468,-0.00113576316833497,0.0849339414596558,0.210092048835755
0.752271350696547,-0.075381368637085,0.22384507427215602,0.0520207597732548
0.752877044215627,-0.080171407699585,0.0729588438034058,0.0137004472732548
0.753482737734706,0.046764627456665,-0.166543109321594,-0.0964704511642452
0.754088431253786,-0.00592580223083497,0.142414410209656,-0.101260490226745
0.754694124772865,0.00844431495666502,0.137624371147156,0.128661384773255
0.755299818291944,0.06592478370666499,-0.0180518983840942,-0.0389899824142452
0.755905511811024,0.027604471206665,0.0322435117721558,0.13105640430450502
0.756511205330103,-0.037061056137085,0.0777488828659058,-0.017434806632995202
0.757116898849182,-0.152021993637085,-0.123432757759094,-0.13239574413299499
0.757722592368262,-0.084961446762085,-0.13540785541534398,0.329843025398255
0.758328285887341,-0.051431173324584994,0.008293316459655751,0.466359138679505
0.75893397940642,-0.00592580223083497,-0.0659522890090942,-0.11084056835174501
0.7595396729255,0.053949686050415,-0.0276319765090942,0.349003181648255
0.760145366444579,-0.065801290512085,0.0490086484909058,-0.010249748039245199
0.760751059963658,0.116220193862915,0.020268414115905797,0.0304655839920048
0.761356753482738,0.07071482276916499,-0.0970875429153442,0.612455330085755
0.761962447001817,0.13538035011291502,-0.118642718696594,0.11668628711700499
0.762568140520896,0.19525583839416502,0.0561937070846558,0.162191658210755
0.763173834039976,0.14496042823791502,0.24540025005340602,-0.161135978507995
0.763779527559055,-0.104121603012085,0.14001939067840602,0.147821541023255
0.764385221078134,0.14496042823791502,0.0969090391159058,-0.00545970897674521
0.764990914597214,0.202440896987915,0.192709820365906,-0.0365949628829952
0.765596608116293,0.128195291519165,0.0585887266159058,-0.0389899824142452
0.766202301635373,0.075504861831665,-0.123432757759094,-0.194666251945495
0.766807995154452,-0.11370168113708501,0.013083355522155801,-0.07731029491424521
0.767413688673531,0.197650857925415,0.238215191459656,-0.07970531444549521
0.768019382192611,0.085084939956665,0.14001939067840602,0.0232805253982548
0.76862507571169,0.034789529800415005,-0.190493304634094,-0.12281566600799501
0.769230769230769,0.013234354019165,-0.13540785541534398,0.042440681648254805
0.769836462749849,0.097060037612915,-0.104272601509094,0.155006599617005
0.770442156268928,0.118615213394165,0.168759625053406,-0.156345939445495
0.771047849788007,-0.041851095199585,0.0178733945846558,-0.0365949628829952
0.771653543307087,-0.010715841293335,0.0178733945846558,0.0520207597732548
0.772259236826166,-0.068196310043335,-0.0731373476028442,-0.019829826164245203
0.772864930345245,0.173700662612915,0.0825389219284058,-0.06294017772674519
0.773470623864325,0.12340525245666499,0.250190289115906,0.147821541023255
0.774076317383404,-0.21429250144958498,0.111279156303406,0.229252205085755
0.774682010902483,-0.017900899887085,-0.0108668397903442,-0.07252025585174521
0.775287704421563,0.039579568862915006,-0.269528949165344,0.17656177539825502
0.775893397940642,0.056344705581665,-0.0946925233840942,0.219672126960755
0.776499091459721,0.06831980323791499,0.0035032773971557496,0.11189624805450499
0.777104784978801,0.252736307144165,0.0849339414596558,-0.0270148847579952
0.77771047849788,0.128195291519165,-0.152172992134094,-0.134790763664245
0.778316172016959,-0.18315724754333498,-0.207258441352844,0.025675544929504798
0.778921865536039,0.027604471206665,0.14959946880340602,0.198116951179505
0.779527559055118,0.053949686050415,0.0322435117721558,0.037650642585754804
0.780133252574197,0.137775369644165,-0.0707423280715942,-0.15874095897674498
0.780738946093277,0.025209451675415,0.0681688047409058,-0.103655509757995
0.781344639612356,-0.123281759262085,0.13522935161590602,0.11908130664825499
0.781950333131435,0.010839334487915,-0.046792132759094204,0.044835701179504805
0.782556026650515,-0.037061056137085,-0.0372120546340942,-0.0964704511642452
0.783161720169594,0.018024393081665,0.113674175834656,-0.019829826164245203
0.783767413688674,0.00365427589416503,0.125649273490906,-0.0940754316329952
0.784373107207753,0.092269998550415,-0.0420020936965942,-0.07970531444549521
0.784978800726832,0.19046579933166502,-0.0204469179153442,0.0903410722732548
0.785584494245912,-0.010715841293335,-0.0348170351028442,-0.0246198652267452
0.786190187764991,-0.11130666160583501,-0.264738910102844,-0.0581501386642452
0.78679588128407,-0.068196310043335,0.0394285703659058,0.0328606035232548
0.78740157480315,-0.017900899887085,0.187919781303406,0.19572193164825502
0.788007268322229,0.051554666519165,-0.243183734321594,0.18614185352325502
0.788612961841308,0.092269998550415,0.0274534727096558,0.102316169929505
0.789218655360388,0.132985330581665,0.137624371147156,-0.144370841789245
0.789824348879467,-0.075381368637085,0.0035032773971557496,-0.07731029491424521
0.790430042398546,0.089874979019165,-0.0420020936965942,-0.0222248456954952
0.791035735917626,0.113825174331665,-0.10187758197784401,0.00891040821075479
0.791641429436705,-0.00592580223083497,-0.0707423280715942,0.044835701179504805
0.792247122955784,0.14496042823791502,-0.00128676166534425,-0.197061271476745
0.792852816474864,-0.013110860824585,0.21426499614715602,0.18135181446075502
0.793458509993943,0.159330545425415,0.161574566459656,0.0831560136795048
0.794064203513022,-0.070591329574585,0.106489117240906,-0.144370841789245
0.794669897032102,0.029999490737915,-0.00607680072784425,-0.146765861320495
0.795275590551181,0.018024393081665,0.0106883359909058,-0.053360099601745196
0.79588128407026,0.14017038917541502,-0.0132618593215942,-0.0605451581954952
0.79648697758934,0.06831980323791499,0.175944683647156,0.011305427742004801
0.797092671108419,-0.221477560043335,0.046613628959655797,0.12147632617950499
0.797698364627498,0.12340525245666499,0.0657737852096558,-0.0677302167892452
0.798304058146578,-0.044246114730835,-0.025236956977844203,-0.12042064647674501
0.798909751665657,-0.15920705223083498,-0.121037738227844,-0.0389899824142452
0.799515445184736,0.032394510269165004,0.046613628959655797,-0.21861644725799498
0.800121138703816,0.061134744644165004,-0.022841937446594202,-0.050965080070495196
0.800726832222895,-0.104121603012085,-0.044397113227844204,0.0711809160232548
0.801332525741975,0.053949686050415,0.0394285703659058,-0.0006696699142452131
0.801938219261054,-0.053826192855834995,0.142414410209656,0.037650642585754804
0.802543912780133,-0.216687520980835,-0.06355726947784421,-0.043780021476745194
0.803149606299213,0.097060037612915,-0.0036817811965942503,0.0328606035232548
0.803755299818292,0.051554666519165,-0.022841937446594202,0.0807609941482548
0.804360993337371,0.116220193862915,-0.123432757759094,0.219672126960755
0.804966686856451,0.255131326675415,0.128044293022156,-0.0653351972579952
0.80557238037553,-0.099331563949585,-0.0204469179153442,-0.12042064647674501
0.806178073894609,-0.15441701316833498,-0.104272601509094,0.0855510332107548
0.806783767413689,0.020419412612915,-0.0587672304153442,-0.0557551191329952
0.807389460932768,0.00365427589416503,0.013083355522155801,-0.017434806632995202
0.807995154451847,0.07071482276916499,0.13522935161590602,0.262782478523255
0.808600847970927,-0.11130666160583501,-0.16414808979034398,0.0160954668045048
0.809206541490006,-0.010715841293335,0.0729588438034058,0.0160954668045048
0.809812235009085,-0.044246114730835,0.18552476177215602,0.298707771492005
0.810417928528165,-0.020295919418335,-0.0372120546340942,-0.13239574413299499
0.811023622047244,0.063529764175415,-0.113852679634094,-0.0294099042892452
0.811629315566323,-0.10651662254333501,-0.00607680072784425,0.11429126758575499
0.812235009085403,0.010839334487915,-0.0779273866653442,0.11668628711700499
0.812840702604482,-0.025085958480835,-0.17851820697784399,-0.053360099601745196
0.813446396123562,-0.00113576316833497,0.0945140195846558,0.0184904863357548
0.814052089642641,0.00604929542541503,0.113674175834656,-0.07491527538299521
0.81465778316172,-0.056221212387084996,-0.0132618593215942,0.09992115039825479
0.815263476680799,0.020419412612915,-0.0300269960403442,0.11429126758575499
0.815869170199879,0.080294900894165,0.0154783750534058,-0.12042064647674501
0.816474863718958,0.039579568862915006,-0.104272601509094,0.13105640430450502
0.817080557238038,0.056344705581665,-0.113852679634094,-0.07491527538299521
0.817686250757117,-0.123281759262085,0.0178733945846558,0.0639958574295048
0.818291944276196,-0.013110860824585,0.041823589897155795,0.0616008378982548
0.818897637795276,-0.044246114730835,-0.0539771913528442,-0.048570060539245195
0.819503331314355,0.089874979019165,-0.0899024843215942,-0.07731029491424521
0.820109024833434,0.19046579933166502,-0.0324220155715942,-0.137185783195495
0.820714718352514,0.06592478370666499,-0.0156568788528442,0.389718513679505
0.821320411871593,0.082689920425415,0.0178733945846558,0.337028083992005
0.821926105390672,-0.130466817855835,-0.0611622499465942,-0.134790763664245
0.822531798909752,0.025209451675415,-0.0970875429153442,-0.0294099042892452
0.823137492428831,0.12101023292541499,-0.106667621040344,0.011305427742004801
0.82374318594791,0.0012592563629150299,-0.00847182025909425,-0.0605451581954952
0.82434887946699,0.00365427589416503,-0.0300269960403442,0.11189624805450499
0.824954572986069,-0.010715841293335,-0.0396070741653442,0.164586677742005
0.825560266505148,0.101850076675415,-0.0683473085403442,-0.0389899824142452
0.826165960024228,0.07310984230041499,0.0322435117721558,0.0544157793045048
0.826771653543307,0.137775369644165,-0.0132618593215942,-0.0653351972579952
0.827377347062386,0.137775369644165,0.00589829692840575,-0.053360099601745196
0.827983040581466,0.101850076675415,0.0154783750534058,0.0616008378982548
0.828588734100545,-0.089751485824585,0.008293316459655751,-0.017434806632995202
0.829194427619624,-0.252612813949585,-0.10187758197784401,-0.141975822257995
0.829800121138704,0.00604929542541503,-0.0132618593215942,0.0687858964920048
0.830405814657783,0.034789529800415005,0.111279156303406,0.0711809160232548
0.831011508176863,-0.020295919418335,-0.16893812885284398,-0.201851310539245
0.831617201695942,-0.00592580223083497,0.101699078178406,-0.07252025585174521
0.832222895215021,-0.058616231918334996,0.13522935161590602,0.042440681648254805
0.8328285887341,-0.101726583480835,0.0178733945846558,0.346608162117005
0.83343428225318,0.109035135269165,-0.0276319765090942,0.0831560136795048
0.834039975772259,0.04436960792541501,-0.0875074647903442,0.0831560136795048
0.834645669291339,-0.037061056137085,-0.0922975038528442,0.274757576179505
0.835251362810418,0.154540506362915,-0.00847182025909425,-0.07012523632049521
0.835857056329497,0.092269998550415,0.0154783750534058,-0.07252025585174521
0.836462749848577,0.032394510269165004,0.111279156303406,0.0184904863357548
0.837068443367656,0.039579568862915006,0.137624371147156,-0.010249748039245199
0.837674136886735,-0.068196310043335,0.111279156303406,-0.0246198652267452
0.838279830405815,0.082689920425415,-0.133012835884094,-0.048570060539245195
0.838885523924894,-0.096936544418335,-0.152172992134094,-0.359922599601745
0.839491217443973,-0.10891164207458501,0.0657737852096558,-0.137185783195495
0.840096910963053,0.032394510269165004,0.101699078178406,0.107106208992005
0.840702604482132,0.027604471206665,0.0537986875534058,-0.0126447675704952
0.841308298001211,0.053949686050415,-0.152172992134094,0.0352556230545048
0.841913991520291,-0.065801290512085,0.123254253959656,0.11668628711700499
0.84251968503937,0.039579568862915006,-0.0539771913528442,0.0616008378982548
0.843125378558449,0.17130564308166502,-0.0922975038528442,-0.10605052928924501
0.843731072077529,-0.056221212387084996,-0.0204469179153442,-0.0150397871017452
0.844336765596608,0.132985330581665,0.0801439023971558,-0.010249748039245199
0.844942459115687,0.23118113136291502,0.0801439023971558,0.31307788867950503
0.845548152634767,-0.072986349105835,-0.022841937446594202,-0.06294017772674519
0.846153846153846,-0.025085958480835,0.137624371147156,-0.07731029491424521
0.846759539672925,0.04436960792541501,0.0633787656784058,-0.0341999433517452
0.847365233192005,-0.11370168113708501,0.0106883359909058,-0.153950919914245
0.847970926711084,-0.11849172019958501,0.022663433647155798,0.0855510332107548
0.848576620230164,0.063529764175415,0.0609837461471558,-0.156345939445495
0.849182313749243,0.109035135269165,-0.147382953071594,0.042440681648254805
0.849788007268322,0.010839334487915,-0.0970875429153442,-0.29525707225799497
0.850393700787402,-0.104121603012085,-0.0276319765090942,0.13584644336700502
0.850999394306481,0.142565408706665,0.0969090391159058,0.281942634773255
0.85160508782556,0.168910623550415,0.046613628959655797,0.037650642585754804
0.85221078134464,-0.00592580223083497,-0.022841937446594202,0.159796638679505
0.852816474863719,-0.013110860824585,-0.15935805072784398,-0.0940754316329952
0.853422168382798,-0.166392110824585,-0.0204469179153442,-0.16832103710174498
0.854027861901878,-0.039456075668335,0.101699078178406,-0.08449535350799521
0.854633555420957,-0.161602071762085,0.0514036680221558,0.028070564460754798
0.855239248940036,-0.077776388168335,-0.0156568788528442,-0.07012523632049521
0.855844942459116,-0.008320821762084981,0.0993040586471558,-0.185086173820495
0.856450635978195,-0.147231954574585,-0.0036817811965942503,0.00651538867950479
0.857056329497274,0.128195291519165,-0.137802874946594,0.0663908769607548
0.857662023016354,0.075504861831665,0.0561937070846558,-0.0318049238204952
0.858267716535433,0.032394510269165004,0.0035032773971557496,0.0807609941482548
0.858873410054512,-0.051431173324584994,-0.0396070741653442,-0.23298656444549498
0.859479103573592,-0.027480978012085,-0.0994825624465942,0.037650642585754804
0.860084797092671,0.046764627456665,0.0657737852096558,0.157401619148255
0.86069049061175,0.212020975112915,0.0897239805221558,-0.0365949628829952
0.86129618413083,-0.00113576316833497,0.0609837461471558,-0.0605451581954952
0.861901877649909,-0.096936544418335,-0.0899024843215942,-0.189876212882995
0.862507571168988,0.092269998550415,-0.0324220155715942,-0.0126447675704952
0.863113264688068,0.111430154800415,0.202289898490906,0.126266365242005
0.863718958207147,0.075504861831665,0.008293316459655751,0.0639958574295048
0.864324651726227,-0.092146505355835,-0.123432757759094,-0.00785472850799521
0.864930345245306,-0.034666036605835,-0.171333148384094,-0.0150397871017452
0.865536038764385,0.118615213394165,0.250190289115906,0.126266365242005
0.866141732283465,0.037184549331665005,-0.00128676166534425,0.224462166023255
0.866747425802544,-0.032271017074585,0.101699078178406,-0.103655509757995
0.867353119321623,0.061134744644165004,0.0322435117721558,0.152611580085755
0.867958812840703,-0.049036153793334994,-0.161753070259094,0.0472307207107548
0.868564506359782,0.094665018081665,0.20947495708465602,0.028070564460754798
0.869170199878861,0.053949686050415,-0.0420020936965942,0.107106208992005
0.869775893397941,0.022814432144165,-0.0994825624465942,-0.08210033397674521
0.87038158691702,-0.034666036605835,0.041823589897155795,0.128661384773255
0.870987280436099,-0.130466817855835,0.14959946880340602,0.212487068367005
0.871592973955179,-0.020295919418335,-0.21923353900909398,0.0639958574295048
0.872198667474258,0.051554666519165,0.0897239805221558,-0.07252025585174521
0.872804360993337,0.013234354019165,0.20947495708465602,-0.161135978507995
0.873410054512417,-0.16399709129333498,-0.13540785541534398,0.011305427742004801
0.874015748031496,0.00365427589416503,0.19031480083465602,0.392113533210755
0.874621441550575,0.14975046730041502,-0.0994825624465942,-0.0006696699142452131
0.875227135069655,-0.008320821762084981,-0.16414808979034398,-0.0413850019454952
0.875832828588734,0.00844431495666502,0.108884136772156,0.0735759355545048
0.876438522107813,0.010839334487915,-0.0300269960403442,0.0184904863357548
0.877044215626893,-0.058616231918334996,0.0993040586471558,-0.134790763664245
0.877649909145972,0.022814432144165,-0.104272601509094,-0.175506095695495
0.878255602665051,0.013234354019165,0.044218609428405796,-0.101260490226745
0.878861296184131,-0.252612813949585,-0.044397113227844204,-0.197061271476745
0.87946698970321,-0.161602071762085,-0.0420020936965942,-0.235381583976745
0.880072683222289,-0.032271017074585,0.137624371147156,-0.357527580070495
0.880678376741369,0.13059031105041502,-0.00607680072784425,0.0544157793045048
0.881284070260448,0.041974588394165006,-0.0539771913528442,0.13584644336700502
0.881889763779528,0.12340525245666499,0.013083355522155801,0.0592058183670048
0.882495457298607,0.168910623550415,-0.0324220155715942,0.133451423835755
0.883101150817686,0.013234354019165,0.020268414115905797,0.17177173633575502
0.883706844336766,0.20962595558166502,0.13043931255340602,-0.0341999433517452
0.884312537855845,0.041974588394165006,0.111279156303406,-0.0988654706954952
0.884918231374924,-0.22866261863708498,0.0346385313034058,-0.235381583976745
0.885523924894004,-0.032271017074585,0.166364605522156,0.0496257402420048
0.886129618413083,0.027604471206665,-0.025236956977844203,0.229252205085755
0.886735311932162,0.168910623550415,0.0370335508346558,-0.08449535350799521
0.887341005451242,0.207230936050415,-0.20965346088409398,0.174166755867005
0.887946698970321,-0.034666036605835,0.0394285703659058,-0.319207267570495
0.8885523924894,0.164120584487915,0.15438950786590602,0.207697029304505
0.88915808600848,-0.049036153793334994,-0.130617816352844,0.19093189258575502
0.889763779527559,0.07310984230041499,0.221450054740906,-0.0677302167892452
0.890369473046638,0.17130564308166502,-0.15456801166534398,0.162191658210755
0.890975166565718,0.228786111831665,-0.0132618593215942,0.0639958574295048
0.891580860084797,0.12101023292541499,0.151994488334656,-0.07252025585174521
0.892186553603876,0.07071482276916499,-0.0851124452590942,-0.149160880851745
0.892792247122956,-0.13286183738708499,-0.116247699165344,0.09513111133575479
0.893397940642035,-0.15441701316833498,0.0753538633346558,0.107106208992005
0.894003634161115,-0.027480978012085,0.0250584531784058,0.0639958574295048
0.894609327680194,-0.21429250144958498,0.18552476177215602,-0.017434806632995202
0.895215021199273,-0.008320821762084981,-0.0276319765090942,0.150216560554505
0.895820714718352,0.089874979019165,-0.0420020936965942,0.0352556230545048
0.896426408237432,0.034789529800415005,-0.00847182025909425,0.11429126758575499
0.897032101756511,-0.041851095199585,-0.00847182025909425,0.18614185352325502
0.897637795275591,0.053949686050415,0.013083355522155801,0.09273609180450479
0.89824348879467,-0.101726583480835,0.101699078178406,0.17656177539825502
0.898849182313749,0.20962595558166502,0.0873289609909058,0.028070564460754798
0.899454875832829,0.101850076675415,-0.118642718696594,-0.0270148847579952
0.900060569351908,0.015629373550415,-0.343774554634094,-0.0677302167892452
0.900666262870987,0.164120584487915,-0.111457660102844,0.00412036914825479
0.901271956390067,-0.039456075668335,0.118464214897156,0.0783659746170048
0.901877649909146,0.132985330581665,-0.0827174257278442,-0.197061271476745
0.902483343428225,0.097060037612915,-0.0946925233840942,-0.010249748039245199
0.903089036947305,-0.082566427230835,0.0035032773971557496,0.044835701179504805
0.903694730466384,-0.166392110824585,0.0394285703659058,-0.17311107616424498
0.904300423985463,-0.211897481918335,-0.15456801166534398,0.0759709550857548
0.904906117504543,-0.16878713035583498,-0.0803224061965942,-0.0581501386642452
0.905511811023622,0.061134744644165004,0.0609837461471558,-0.0581501386642452
0.906117504542701,-0.140046895980835,-0.00128676166534425,0.0759709550857548
0.906723198061781,-0.11609670066833501,0.020268414115905797,-0.10605052928924501
0.90732889158086,-0.15441701316833498,0.120859234428406,0.0616008378982548
0.907934585099939,-0.17357716941833498,0.0178733945846558,-0.017434806632995202
0.908540278619019,0.101850076675415,0.0633787656784058,0.0137004472732548
0.909145972138098,0.049159646987915,0.0657737852096558,0.128661384773255
0.909751665657177,-0.041851095199585,-0.106667621040344,0.0735759355545048
0.910357359176257,0.04436960792541501,-0.0348170351028442,-0.249751701164245
0.910963052695336,0.077899881362915,0.0537986875534058,0.18614185352325502
0.911568746214416,-0.013110860824585,-0.142592914009094,0.193326912117005
0.912174439733495,0.082689920425415,-0.0324220155715942,-0.309627189445495
0.912780133252574,0.097060037612915,0.14480942974090602,-0.103655509757995
0.913385826771653,-0.070591329574585,-0.13540785541534398,-0.139580802726745
0.913991520290733,-0.025085958480835,-0.0946925233840942,-0.319207267570495
0.914597213809812,0.13538035011291502,-0.202468402290344,-0.333577384757995
0.915202907328892,-0.120886739730835,-0.17372816791534398,-0.16353099803924498
0.915808600847971,-0.070591329574585,-0.00847182025909425,-0.019829826164245203
0.91641429436705,-0.00353078269958497,-0.0851124452590942,0.0735759355545048
0.91701998788613,0.154540506362915,0.31725083599090603,0.574135017585755
0.917625681405209,-0.22387257957458498,-0.425205218696594,-0.206641349601745
0.918231374924288,0.04436960792541501,0.274140484428406,-0.185086173820495
0.918837068443368,-0.204712423324585,-0.0875074647903442,-0.357527580070495
0.919442761962447,0.212020975112915,-0.022841937446594202,-0.0150397871017452
0.920048455481526,0.087479959487915,0.0825389219284058,0.0232805253982548
0.920654149000606,-0.166392110824585,-0.0348170351028442,0.0879460527420048
0.921259842519685,0.197650857925415,0.156784527397156,0.169376716804505
0.921865536038764,-0.072986349105835,-0.0994825624465942,-0.48446361522674497
0.922471229557844,0.212020975112915,0.0537986875534058,0.490309333992005
0.923076923076923,-0.5016948451995851,-0.652732074165344,-0.22819652538299498
0.923682616596002,0.425177713394165,0.41784165630340603,-0.271306876945495
0.924288310115082,-0.204712423324585,0.14480942974090602,-0.410218009757995
0.924894003634161,-0.080171407699585,-0.226418597602844,-0.23777660350799498
0.92549969715324,0.173700662612915,-0.0875074647903442,0.0616008378982548
0.92610539067232,-0.271772970199585,-0.20486342182159398,0.0520207597732548
0.926711084191399,0.202440896987915,0.480112164115906,0.308287849617005
0.927316777710478,-0.26937795066833503,-0.0994825624465942,0.042440681648254805
0.927922471229558,0.595224100112915,-0.528191058540344,0.370558357429505
0.928528164748637,-0.717246603012085,-0.317429339790344,-1.3299055097580001
0.929133858267717,0.456312967300415,0.7818846250534061,0.612455330085755
0.929739551786796,-0.362783712387085,-0.295874164009094,-0.695225333976745
0.930345245305875,0.183280740737915,-0.0300269960403442,0.332238044929505
0.930950938824954,0.23118113136291502,-0.130617816352844,0.25320240039825503
0.931556632344034,-0.27895802879333503,-0.221628558540344,-0.642534904289245
0.932162325863113,0.487448221206665,0.499272320365906,0.418458748054505
0.932768019382193,0.159330545425415,0.156784527397156,-0.11084056835174501
0.933373712901272,-0.47774464988708504,-0.602436664009094,-0.328787345695495
0.933979406420351,0.058739725112915,0.530407574272156,-0.0557551191329952
0.934585099939431,0.147355447769165,-0.247973773384094,0.49270435352325503
0.93519079345851,-0.46816457176208504,-0.0827174257278442,-0.747915763664245
0.935796486977589,0.504213357925415,0.384311382865906,0.691490974617005
0.936402180496669,-0.6885063686370849,-0.0132618593215942,-0.850901603507995
0.937007874015748,0.518583475112915,0.9399559141159061,1.01002857227325
0.937613567534827,0.025209451675415,-1.75923109760284,-0.515598869132995
0.938219261053907,-0.374758810043335,0.975881207084656,-0.685645255851745
0.938824954572986,0.06592478370666499,-0.940134417915344,0.873512458992005
0.939430648092065,-0.063406270980835,1.10281724224091,-1.37062084178925
0.940036341611145,0.307821756362915,-0.0803224061965942,0.24601734180450502
0.940642035130224,0.056344705581665,-0.688657367134094,0.478334236335755
0.941247728649303,-0.384338888168335,0.884870464897156,-0.673670158195495
0.941853422168383,0.956872049331665,0.305275738334656,1.3860466386794998
0.942459115687462,-1.62735402488708,-0.327009417915344,-0.678460197257995
0.943064809206541,1.19158396339417,-1.72091078510284,0.758551521492005
0.943670502725621,-0.602285665512085,1.72312730083466,-3.083059806633
0.9442761962447,0.334166971206665,-0.537771136665344,1.6686589433669998
0.94488188976378,-0.346018575668335,0.0537986875534058,-0.951492423820495
0.945487583282859,-0.029875997543335,-0.46113051166534397,-0.671275138664245
0.946093276801938,0.6718647251129151,-0.13540785541534398,1.7333244707107498
0.946698970321018,-1.0166240444183299,1.27286362895966,-1.8639948652267502
0.947304663840097,1.40953074073792,0.499272320365906,1.6303386308669998
0.947910357359176,-1.11002980613708,-2.45139174213409,-1.5454572675705
0.948516050878256,-0.281353048324585,0.271745464897156,0.128661384773255
0.949121744397335,0.8275409946441651,1.58900620708466,0.751366462898255
0.949727437916414,-0.920823263168335,-0.717397601509094,-2.393294181633
0.950333131435494,0.6862348423004151,-0.0156568788528442,2.03509693164825
