Time (s),Accel X (m/s^2),Accel Y (m/s^2),Accel Z (m/s^2)
0.0,-0.0812269002914429,-0.30672042160034196,-0.0471874045372013
0.000606060606060606,-0.0213514120101929,-0.000157921600341806,-0.025632228755951298
0.00121212121212121,-0.11954721279144301,0.100432898712158,0.276140232181549
0.00181818181818182,-0.0644617635726929,-0.0121330192565918,-0.0663475607872013
0.00242424242424242,-0.0213514120101929,0.0190022346496582,-0.0591625021934513
0.00303030303030303,-0.0381165487289429,-0.103143761444092,0.118068943119049
0.00363636363636364,-0.174632662010193,-0.0193180778503418,-0.0591625021934513
0.00424242424242424,-0.059671724510192904,-0.158229210662842,-0.0639525412559513
0.00484848484848485,0.179830228614807,0.220183875274658,-0.0495824240684513
0.00545454545454545,0.0504991739273071,0.052532508087158196,0.0773536110877987
0.00606060606060606,-0.200977876853943,-0.163019249725342,-0.10945791234970101
0.00666666666666667,0.060079252052307096,0.07648270339965821,0.09651376733779869
0.00727272727272727,0.31395132236480705,0.0501374885559082,0.158784275150299
0.00787878787878788,-0.016561372947692898,-0.0121330192565918,0.0031080056190487203
0.00848484848484848,0.0816344278335571,-0.11751387863159199,-0.15017324438095098
0.00909090909090909,0.0145738809585571,-0.309115441131592,-0.0567674826622013
0.0096969696969697,0.0169689004898071,-0.155834191131592,-0.042397365474701305
0.0103030303030303,0.0385240762710571,0.105222937774658,-0.08790273656845131
0.0109090909090909,0.00020376377105711798,0.133963172149658,0.371941013431549
0.0115151515151515,0.0361290567398071,0.0692976448059082,-0.0519774435997013
0.0121212121212121,0.0672643106460571,-0.00255294113159181,-0.202863674068451
0.0127272727272727,0.0936095254898071,-0.0336881950378418,-0.044792385005951306
0.0133333333333333,-0.035721529197692906,-0.127093956756592,-0.0280272482872013
0.0139393939393939,-0.0524866659164429,0.00463211746215819,-0.0495824240684513
0.0145454545454545,0.060079252052307096,0.145938269805908,0.043823337650298694
0.0151515151515152,0.0864244668960571,-0.179784386444092,0.103698825931549
0.0157575757575758,0.112769681739807,-0.25642501144409197,0.0055030251502987204
0.0163636363636364,-0.0524866659164429,0.217788855743408,0.197104587650299
0.016969696969697,0.117559720802307,0.0213972541809082,0.0797486306190487
0.0175757575757576,0.0337340372085571,-0.0720085075378418,0.125254001712799
0.0181818181818182,-0.009376314353942879,-0.100748741912842,0.127649021244049
0.0187878787878788,0.37382681064605705,-0.148649132537842,-0.0304222678184513
0.0193939393939394,0.112769681739807,-0.014528038787841799,-0.0711375998497013
0.02,-0.129127290916443,-0.129488976287842,0.0677735329627987
0.0206060606060606,0.012178861427307099,-0.016923058319091803,0.0294532204627987
0.0212121212121212,0.131929837989807,-0.0696134880065918,0.0222681618690487
0.0218181818181818,0.0385240762710571,-0.239659874725342,0.106093845462799
0.0224242424242424,-0.057276704978942904,-0.158229210662842,0.106093845462799
0.023030303030303,0.177435209083557,-0.165414269256592,0.09651376733779869
0.0236363636363636,0.0960045450210571,-0.17259932785034202,0.0342432595252987
0.0242424242424242,-0.00698129482269288,0.0357673713684082,0.0653785134315487
0.0248484848484848,0.0983995645523071,-0.0600334098815918,0.201894626712799
0.0254545454545455,-0.109967134666443,0.052532508087158196,0.0749585915565487
0.0260606060606061,-0.059671724510192904,-0.00255294113159181,-0.0519774435997013
0.0266666666666667,-0.0932019979476929,-0.11511885910034199,0.08932870874404869
0.0272727272727273,-0.11475717372894301,-0.038478234100341804,0.0174781228065487
0.0278787878787879,0.06965933017730709,0.11480301589965801,0.113278904056549
0.0284848484848485,-0.0453016073226929,-0.09116866378784179,0.19470956811904902
0.0290909090909091,0.0457091348648071,-0.201339562225342,0.115673923587799
0.0296969696969697,0.129534818458557,-0.17259932785034202,0.043823337650298694
0.0303030303030303,0.0504991739273071,-0.146254113006592,0.14920419702529902
0.0309090909090909,0.230125638771057,0.133963172149658,0.13483407983779902
0.0315151515151515,0.0840294473648071,-0.146254113006592,-0.0471874045372013
0.0321212121212121,-0.0668567831039429,-0.014528038787841799,0.223449802494049
0.0327272727272727,0.012178861427307099,-0.0480583122253418,0.142019138431549
0.0333333333333333,0.165460111427307,-0.11751387863159199,0.106093845462799
0.0339393939393939,0.0049938028335571195,0.27287430496215803,0.13004404077529902
0.0345454545454545,-0.11475717372894301,0.00702713699340819,0.000712986087798724
0.0351515151515151,-0.179422701072693,0.0381623908996582,0.12285898218154899
0.0357575757575758,-0.009376314353942879,0.141148230743408,-0.0280272482872013
0.0363636363636364,-0.11475717372894301,-0.134279015350342,0.0055030251502987204
0.036969696969697,-0.212952974510193,0.0213972541809082,0.108488864994049
0.0375757575757576,0.06965933017730709,-0.09356368331909179,-0.040002345943451305
0.0381818181818182,-0.030931490135192898,-0.038478234100341804,-0.15496328344345098
0.0387878787878788,0.136719877052307,-0.155834191131592,0.0701685524940487
0.0393939393939394,0.0337340372085571,-0.143859093475342,0.165969333744049
0.04,0.0481041543960571,0.10761795730590801,-0.226813869380951
0.0406060606060606,0.0481041543960571,0.0381623908996582,0.27853525171279897
0.0412121212121212,-0.018956392478942898,-0.0265031364440918,0.690478611087799
0.0418181818181818,-0.00698129482269288,-0.165414269256592,-0.0759276389122013
0.0424242424242424,0.155880033302307,-0.0600334098815918,0.048613376712798695
0.043030303030303,0.136719877052307,0.13156815261840799,0.019873142337798702
0.0436363636363636,-0.14828744716644301,-0.12469893722534199,-0.040002345943451305
0.0442424242424242,0.112769681739807,-0.0767985466003418,0.285720310306549
0.0448484848484848,0.15108999423980699,0.0501374885559082,-0.0926927756309513
0.0454545454545455,0.0361290567398071,0.0573225471496582,0.0174781228065487
0.0460606060606061,0.0792394083023071,0.0980378791809082,0.0653785134315487
0.0466666666666667,-0.109967134666443,-0.170204308319092,0.156389255619049
0.0472727272727273,0.0433141153335571,-0.146254113006592,0.051008396244048695
0.0478787878787879,0.177435209083557,0.07648270339965821,0.0557984353065487
0.0484848484848485,-0.059671724510192904,0.0501374885559082,0.0869336892127987
0.0490909090909091,-0.14828744716644301,0.07887772293090821,-0.00407705297470128
0.0496969696969697,-0.14828744716644301,-0.11272383956909199,0.261770114994049
0.0503030303030303,0.0217589395523071,0.016607215118408198,0.17075937280654901
0.0509090909090909,-0.0453016073226929,-0.230079796600342,0.17554941186904902
0.0515151515151515,-0.169842622947693,-0.014528038787841799,-0.0519774435997013
0.0521212121212121,0.163065091896057,0.18186356277465798,-0.0328172873497013
0.0527272727272727,0.062474271583557096,-0.25882003097534195,-0.0591625021934513
0.0533333333333333,0.0169689004898071,0.268084265899658,-0.0519774435997013
0.0539393939393939,-0.018956392478942898,0.0118171760559082,0.0557984353065487
0.0545454545454545,-0.016561372947692898,0.105222937774658,-0.0639525412559513
0.0551515151515152,-0.030931490135192898,0.052532508087158196,0.053403415775298696
0.0557575757575758,-0.009376314353942879,-0.0696134880065918,0.00789804468154872
0.0563636363636364,-0.0453016073226929,0.0573225471496582,0.0725635720252987
0.056969696969697,-0.270433443260193,-0.0408732536315918,-0.0160521506309513
0.0575757575757576,-0.0381165487289429,0.18665360183715798,-0.171728420162201
0.0581818181818182,-0.0716468221664429,-0.0600334098815918,0.0581934548377987
0.0587878787878788,0.153485013771057,-0.0408732536315918,0.09411874780654869
0.0593939393939394,-0.0453016073226929,0.174678504180908,0.19470956811904902
0.06,-0.0117713338851929,0.0501374885559082,0.14920419702529902
0.0606060606060606,0.012178861427307099,-0.139069054412842,-0.08071767797470131
0.0612121212121212,-0.11954721279144301,-0.12230391769409199,0.132439060306549
0.0618181818181818,0.07205434970855709,0.198628699493408,0.225844822025299
0.0624242424242424,-0.124337251853943,0.0237922737121582,0.0821436501502987
0.063030303030303,0.0193639200210571,-0.222894738006592,-0.16933340063095098
0.0636363636363636,0.170250150489807,-0.08877364425659179,-0.0543724631309513
0.0642424242424242,-0.0237464315414429,0.0692976448059082,0.14920419702529902
0.0648484848484848,-0.196187837791443,-0.038478234100341804,-0.013657131099701299
0.0654545454545455,-0.145892427635193,-0.203734581756592,0.0174781228065487
0.0660606060606061,-0.124337251853943,0.0573225471496582,0.14441415796279902
0.0666666666666667,-0.11475717372894301,0.08366776199340821,0.115673923587799
0.0672727272727273,0.160670072364807,-0.184574425506592,0.0222681618690487
0.0678787878787879,0.153485013771057,-0.11511885910034199,-0.0735326193809513
0.0684848484848485,-0.26085336513519297,0.08845780105590821,0.0821436501502987
0.0690909090909091,-0.138707369041443,-0.129488976287842,0.177944431400299
0.0696969696969697,0.11995474033355699,-0.220499718475342,0.20428964624404902
0.0703030303030303,-0.0764368612289429,-0.000157921600341806,-0.00407705297470128
0.0709090909090909,-0.157867525291443,-0.0815885856628418,0.352780857181549
0.0715151515151515,0.0648692911148071,0.0429524299621582,-0.0495824240684513
0.0721212121212121,-0.018956392478942898,0.174678504180908,-0.15017324438095098
0.0727272727272727,-0.143497408103943,-0.13188399581909202,0.347990818119049
0.0733333333333333,0.12234975986480699,-0.299535363006592,0.0102930642127987
0.0739393939393939,0.134324857521057,-0.10553878097534199,0.137229099369049
0.0745454545454545,-0.009376314353942879,-0.0552433708190918,0.051008396244048695
0.0751515151515151,0.131929837989807,-0.0432682731628418,0.108488864994049
0.0757575757575758,0.206175443458557,0.212998816680908,0.0701685524940487
0.0763636363636364,-0.0237464315414429,0.11719803543090801,-0.140593166255951
0.076969696969697,0.143904935646057,-0.11511885910034199,-0.0543724631309513
0.0775757575757576,0.131929837989807,-0.0600334098815918,0.17075937280654901
0.0781818181818182,0.139114896583557,-0.028898155975341802,0.051008396244048695
0.0787878787878788,0.112769681739807,-0.0504533317565918,0.0294532204627987
0.0793939393939394,-0.0955970174789429,-0.17259932785034202,-0.0543724631309513
0.08,0.00020376377105711798,-0.0552433708190918,0.0031080056190487203
0.0806060606060606,-0.0860169393539429,0.150728308868408,0.256980075931549
0.0812121212121212,0.0960045450210571,-0.0791935661315918,-0.0280272482872013
0.0818181818181818,-0.0955970174789429,-0.0815885856628418,0.27853525171279897
0.0824242424242424,-0.157867525291443,0.0333723518371582,0.103698825931549
0.083030303030303,-0.00219125576019288,-0.09116866378784179,-0.162148342037201
0.0836363636363636,-0.11954721279144301,0.00463211746215819,0.118068943119049
0.0842424242424242,0.00738882236480712,0.0980378791809082,-0.0950877951622013
0.0848484848484849,-0.057276704978942904,0.18186356277465798,0.12046396265029899
0.0854545454545454,0.00738882236480712,0.08127274246215821,0.0653785134315487
0.0860606060606061,-0.057276704978942904,-0.08877364425659179,0.08932870874404869
0.0866666666666667,-0.0261414510726929,0.129173133087158,0.173154392337799
0.0872727272727273,0.107979642677307,0.138753211212158,0.106093845462799
0.0878787878787879,0.07444936923980709,-0.141464073944092,0.163574314212799
0.0884848484848485,-0.0237464315414429,-0.0193180778503418,-0.09029775609970131
0.0890909090909091,-0.0932019979476929,0.136358191680908,0.13962411890029902
0.0896969696969697,0.055289212989807095,0.0645076057434082,0.0869336892127987
0.0903030303030303,-0.035721529197692906,0.0213972541809082,-0.0471874045372013
0.0909090909090909,0.0385240762710571,-0.11990889816284199,-0.013657131099701299
0.0915151515151515,0.06965933017730709,-0.0791935661315918,-0.126223049068451
0.0921212121212121,-0.179422701072693,0.0429524299621582,-0.0160521506309513
0.0927272727272727,-0.102782076072693,0.10761795730590801,0.29051034936904896
0.0933333333333333,-0.0524866659164429,-0.129488976287842,0.285720310306549
0.0939393939393939,0.105584623146057,-0.198944542694092,-0.0160521506309513
0.0945454545454545,0.12234975986480699,-0.0265031364440918,0.19949960718154902
0.0951515151515152,-0.035721529197692906,0.0621125862121582,0.09890878686904869
0.0957575757575758,-0.0405115682601929,0.0573225471496582,-0.0567674826622013
0.0963636363636364,-0.0932019979476929,0.265689246368408,0.0270582009315487
0.096969696969697,0.112769681739807,0.193838660430908,-0.0208421896934513
0.0975757575757576,-0.220138033103943,-0.0648234489440918,-0.0112621115684513
0.0981818181818182,-0.222533052635193,-0.09356368331909179,-0.11903799047470101
0.0987878787878788,-0.016561372947692898,-0.08398360519409179,0.08932870874404869
0.0993939393939394,-0.246483247947693,0.0453474494934082,0.0390332985877987
0.1,-0.0812269002914429,0.00223709793090819,0.0414283181190487
0.100606060606061,0.146299955177307,-0.00255294113159181,0.333620700931549
0.101212121212121,0.175040189552307,0.08127274246215821,0.494087009525299
0.101818181818182,0.00978384189605712,0.09085282058715821,0.25937509546279897
0.102424242424242,-0.11715219326019301,-0.09835372238159179,0.0366382790565487
0.103030303030303,-0.0884119588851929,-0.0600334098815918,0.053403415775298696
0.103636363636364,0.11995474033355699,-0.165414269256592,-0.10466787328720101
0.104242424242424,0.0361290567398071,-0.09356368331909179,-0.0998778342247013
0.104848484848485,-0.167447603416443,0.38065018386840804,-0.035212306880951304
0.105454545454545,0.15108999423980699,0.0477424690246582,-0.0783226584434513
0.106060606060606,0.057684232521057095,-0.194154503631592,-0.10706289281845101
0.106666666666667,-0.0476966268539429,-0.0312931755065918,0.137229099369049
0.107272727272727,-0.167447603416443,-0.141464073944092,0.187524509525299
0.107878787878788,-0.131522310447693,-0.213314659881592,0.0174781228065487
0.108484848484848,0.194200345802307,-0.0504533317565918,0.132439060306549
0.109090909090909,0.062474271583557096,-0.0121330192565918,0.0557984353065487
0.10969696969697,-0.186607759666443,0.16749344558715798,-0.08550771703720131
0.11030303030303,-0.0405115682601929,0.09085282058715821,0.12285898218154899
0.110909090909091,0.07444936923980709,0.016607215118408198,-0.0735326193809513
0.111515151515152,0.0313390176773071,0.08845780105590821,0.19470956811904902
0.112121212121212,-0.143497408103943,0.07408768386840821,0.326435642337799
0.112727272727273,0.0433141153335571,-0.09835372238159179,-0.0543724631309513
0.113333333333333,0.00738882236480712,-0.127093956756592,0.0821436501502987
0.113939393939394,-0.27282846279144296,0.0405574104309082,0.326435642337799
0.114545454545455,-0.0476966268539429,-0.10793380050659199,0.14920419702529902
0.115151515151515,-0.018956392478942898,-0.0504533317565918,-0.0567674826622013
0.115757575757576,0.11995474033355699,-0.18217940597534202,0.13962411890029902
0.116363636363636,0.00020376377105711798,-0.0480583122253418,0.288115329837799
0.116969696969697,-0.0548816854476929,0.0669026252746582,-0.0280272482872013
0.117575757575758,0.107979642677307,-0.0121330192565918,0.0174781228065487
0.118181818181818,0.0193639200210571,-0.016923058319091803,0.165969333744049
0.118787878787879,-0.112362154197693,0.0669026252746582,0.0653785134315487
0.119393939393939,-0.0117713338851929,-0.0576383903503418,0.125254001712799
0.12,0.249285795021057,-0.08877364425659179,0.197104587650299
0.120606060606061,-0.0405115682601929,0.00223709793090819,0.192314548587799
0.121212121212121,-0.138707369041443,0.0669026252746582,-0.0639525412559513
0.121818181818182,0.0983995645523071,0.0453474494934082,0.221054782962799
0.122424242424242,-0.0860169393539429,-0.134279015350342,0.297695407962799
0.123030303030303,-0.0740418416976929,0.18186356277465798,-0.025632228755951298
0.123636363636364,-0.0141663534164429,0.0357673713684082,0.0246631814002987
0.124242424242424,-0.009376314353942879,-0.139069054412842,-0.18849355688095099
0.124848484848485,-0.00219125576019288,-0.11032882003784199,0.127649021244049
0.125454545454545,-0.016561372947692898,0.00702713699340819,0.115673923587799
0.126060606060606,0.0049938028335571195,0.11959305496215801,-0.044792385005951306
0.126666666666667,0.0672643106460571,-0.00255294113159181,-0.0160521506309513
0.127272727272727,0.0936095254898071,-0.0552433708190918,-0.126223049068451
0.127878787878788,-0.0141663534164429,-0.0552433708190918,0.12046396265029899
0.128484848484848,0.0361290567398071,-0.11272383956909199,0.043823337650298694
0.129090909090909,0.057684232521057095,-0.0504533317565918,0.0055030251502987204
0.12969696969697,0.0433141153335571,-0.127093956756592,-0.11664297094345101
0.13030303030303,0.134324857521057,-0.165414269256592,0.247399997806549
0.130909090909091,-0.109967134666443,0.08845780105590821,0.383916111087799
0.131515151515152,0.055289212989807095,-0.220499718475342,0.053403415775298696
0.132121212121212,0.0912145059585571,-0.11272383956909199,0.165969333744049
0.132727272727273,-0.0237464315414429,-0.323485558319092,0.0102930642127987
0.133333333333333,0.131929837989807,-0.11272383956909199,0.000712986087798724
0.133939393939394,0.0481041543960571,0.234553992462158,0.108488864994049
0.134545454545455,0.163065091896057,-0.0696134880065918,-0.00886709203720128
0.135151515151515,0.07205434970855709,0.205813758087158,0.0821436501502987
0.135757575757576,-0.11475717372894301,0.07648270339965821,0.0653785134315487
0.136363636363636,-0.100387056541443,0.08366776199340821,0.019873142337798702
0.136969696969697,0.026548978614807102,-0.000157921600341806,0.223449802494049
0.137575757575758,-0.016561372947692898,-0.0576383903503418,0.18512948999404902
0.138181818181818,0.012178861427307099,-0.0193180778503418,-0.00407705297470128
0.138787878787879,-0.0500916463851929,-0.12469893722534199,0.103698825931549
0.139393939393939,-0.0860169393539429,0.165098426055908,-0.037607326412201304
0.14,-0.0405115682601929,0.0477424690246582,0.216264743900299
0.140606060606061,-0.0381165487289429,-0.12469893722534199,0.019873142337798702
0.141212121212121,0.0409190958023071,0.129173133087158,-0.0950877951622013
0.141818181818182,0.0313390176773071,0.105222937774658,0.13004404077529902
0.142424242424242,-0.0764368612289429,0.030977332305908198,0.113278904056549
0.143030303030303,-0.059671724510192904,-0.000157921600341806,0.158784275150299
0.143636363636364,0.191805326271057,0.054927527618408196,0.206684665775299
0.144242424242424,0.0433141153335571,-0.016923058319091803,0.0605884743690487
0.144848484848485,0.0528941934585571,0.0333723518371582,0.048613376712798695
0.145454545454545,0.227730619239807,0.205813758087158,0.09172372827529869
0.146060606060606,0.062474271583557096,0.100432898712158,-0.21962881078720098
0.146666666666667,0.0385240762710571,-0.000157921600341806,-0.15496328344345098
0.147272727272727,0.215755521583557,-0.0456632926940918,0.048613376712798695
0.147878787878788,0.0960045450210571,-0.00255294113159181,-0.10227285375595101
0.148484848484848,0.062474271583557096,0.00223709793090819,-0.26034414281845103
0.149090909090909,0.198990384864807,0.11240799636840801,-0.0280272482872013
0.14969696969697,-0.018956392478942898,0.126778113555908,-0.17412343969345098
0.15030303030303,0.0049938028335571195,-0.143859093475342,-0.00647207250595128
0.150909090909091,0.100794584083557,-0.028898155975341802,0.17075937280654901
0.151515151515152,-0.0213514120101929,0.028582312774658197,-0.0280272482872013
0.152121212121212,0.062474271583557096,-0.158229210662842,0.132439060306549
0.152727272727273,-0.0836219198226929,-0.08637862472534179,-0.0112621115684513
0.153333333333333,-0.00698129482269288,0.00223709793090819,-0.152568263912201
0.153939393939394,0.0864244668960571,-0.014528038787841799,0.046218357181548694
0.154545454545455,-0.157867525291443,-0.014528038787841799,0.115673923587799
0.155151515151515,0.0983995645523071,0.133963172149658,0.18033945093154902
0.155757575757576,0.160670072364807,0.0333723518371582,-0.0328172873497013
0.156363636363636,0.00738882236480712,-0.136674034881592,-0.202863674068451
0.156969696969697,0.0217589395523071,0.0118171760559082,0.103698825931549
0.157575757575758,-0.057276704978942904,0.0357673713684082,0.17554941186904902
0.158181818181818,0.0193639200210571,-0.163019249725342,0.048613376712798695
0.158787878787879,-0.0213514120101929,0.052532508087158196,-0.181308498287201
0.159393939393939,-0.129127290916443,-0.0600334098815918,0.336015720462799
0.16,0.012178861427307099,-0.13188399581909202,0.29051034936904896
0.160606060606061,-0.153077486228943,-0.10553878097534199,-0.0735326193809513
0.161212121212121,-0.016561372947692898,-0.158229210662842,0.33122568140029895
0.161818181818182,0.115164701271057,-0.0193180778503418,0.156389255619049
0.162424242424242,-0.0764368612289429,0.126778113555908,0.206684665775299
0.163030303030303,0.179830228614807,0.08366776199340821,0.422236423587799
0.163636363636364,0.07205434970855709,-0.103143761444092,0.0725635720252987
0.164242424242424,-0.29438363857269295,0.0237922737121582,0.0845386696815487
0.164848484848485,-0.0213514120101929,0.210603797149658,0.12285898218154899
0.165454545454545,0.062474271583557096,0.0621125862121582,-0.0184471701622013
0.166060606060606,-0.0285364706039429,-0.155834191131592,0.225844822025299
0.166666666666667,-0.033326509666442905,-0.134279015350342,0.106093845462799
0.167272727272727,0.0145738809585571,0.0429524299621582,0.0605884743690487
0.167878787878788,0.0840294473648071,-0.0552433708190918,0.0126880837440487
0.168484848484848,0.0481041543960571,-0.0672184684753418,0.17075937280654901
0.169090909090909,0.0049938028335571195,-0.0121330192565918,-0.025632228755951298
0.16969696969697,0.0241539590835571,-0.174994347381592,0.151599216556549
0.17030303030303,-0.059671724510192904,-0.09835372238159179,0.30009042749404896
0.170909090909091,-0.0716468221664429,-0.151044152069092,-0.0591625021934513
0.171515151515152,0.0960045450210571,-0.00255294113159181,-0.152568263912201
0.172121212121212,0.141509916114807,0.0333723518371582,-0.0112621115684513
0.172727272727273,-0.0836219198226929,0.0213972541809082,0.221054782962799
0.173333333333333,0.194200345802307,0.179468543243408,0.108488864994049
0.173939393939394,0.00738882236480712,0.150728308868408,-0.142988185787201
0.174545454545455,-0.205767915916443,0.0333723518371582,0.0845386696815487
0.175151515151515,0.177435209083557,-0.000157921600341806,0.110883884525299
0.175757575757576,0.0983995645523071,0.0333723518371582,-0.166938381099701
0.176363636363636,0.208570462989807,-0.00255294113159181,0.12285898218154899
0.176969696969697,0.07684438877105709,-0.18217940597534202,0.118068943119049
0.177575757575758,0.0864244668960571,-0.0480583122253418,0.0653785134315487
0.178181818181818,0.012178861427307099,0.19144364089965799,-0.0687425803184513
0.178787878787879,0.028943998146057102,-0.09595870285034179,-0.0567674826622013
0.179393939393939,0.028943998146057102,0.030977332305908198,0.137229099369049
0.18,-0.0716468221664429,0.136358191680908,0.09651376733779869
0.180606060606061,0.07444936923980709,0.155518347930908,0.146809177494049
0.181212121212121,-0.00219125576019288,-0.165414269256592,-0.0567674826622013
0.181818181818182,0.028943998146057102,0.052532508087158196,-0.08790273656845131
0.182424242424242,0.00738882236480712,0.11001297683715801,0.137229099369049
0.183030303030303,-0.205767915916443,-0.16780928878784201,0.14441415796279902
0.183636363636364,0.141509916114807,0.08845780105590821,-0.0639525412559513
0.184242424242424,0.07684438877105709,-0.0265031364440918,-0.0711375998497013
0.184848484848485,0.055289212989807095,0.24652909011840798,-0.0208421896934513
0.185454545454545,0.0912145059585571,-0.12230391769409199,0.283325290775299
0.186060606060606,-0.229718111228943,-0.179784386444092,0.110883884525299
0.186666666666667,0.0337340372085571,-0.016923058319091803,0.0581934548377987
0.187272727272727,-0.030931490135192898,0.054927527618408196,0.0246631814002987
0.187878787878788,0.00259878330230712,0.0405574104309082,0.14920419702529902
0.188484848484848,-0.0788318807601929,-0.280375206756592,0.019873142337798702
0.189090909090909,-0.217743013572693,-0.0720085075378418,-0.00407705297470128
0.18969696969697,0.160670072364807,0.0357673713684082,0.35038583765029896
0.19030303030303,0.175040189552307,0.0190022346496582,0.132439060306549
0.190909090909091,0.0409190958023071,0.0213972541809082,0.587492771244049
0.191515151515152,0.213360502052307,0.0190022346496582,0.798254489994049
0.192121212121212,0.0960045450210571,0.0645076057434082,0.101303806400299
0.192727272727273,0.0504991739273071,0.0453474494934082,0.09890878686904869
0.193333333333333,0.026548978614807102,0.09324784011840821,0.256980075931549
0.193939393939394,-0.059671724510192904,0.014212195587158201,-0.0974828146934513
0.194545454545455,0.0433141153335571,-0.00973799972534181,0.0318482399940487
0.195151515151515,-0.172237642478943,0.0405574104309082,0.225844822025299
0.195757575757576,-0.174632662010193,0.00702713699340819,0.182734470462799
0.196363636363636,0.00738882236480712,0.0405574104309082,0.019873142337798702
0.196969696969697,0.110374662208557,0.0381623908996582,-0.11664297094345101
0.197575757575758,0.0960045450210571,0.0501374885559082,0.0222681618690487
0.198181818181818,0.0936095254898071,0.0429524299621582,0.106093845462799
0.198787878787879,0.07444936923980709,0.0261872932434082,0.197104587650299
0.199393939393939,0.00978384189605712,0.08366776199340821,0.0342432595252987
0.2,0.189410306739807,-0.000157921600341806,0.12285898218154899
0.200606060606061,0.100794584083557,0.0453474494934082,0.0749585915565487
0.201212121212121,-0.0213514120101929,-0.0312931755065918,-0.10945791234970101
0.201818181818182,0.0169689004898071,-0.0480583122253418,-0.040002345943451305
0.202424242424242,-0.121942232322693,0.054927527618408196,-0.08550771703720131
0.203030303030303,0.028943998146057102,0.100432898712158,0.247399997806549
0.203636363636364,0.0504991739273071,0.0118171760559082,0.292905368900299
0.204242424242424,0.0361290567398071,0.0477424690246582,0.09411874780654869
0.204848484848485,-0.0668567831039429,0.160308386993408,-0.176518459224701
0.205454545454545,0.0840294473648071,0.0621125862121582,0.0629834939002987
0.206060606060606,0.163065091896057,-0.0432682731628418,0.24979501733779902
0.206666666666667,0.0169689004898071,0.0501374885559082,0.0102930642127987
0.207272727272727,-0.145892427635193,0.0645076057434082,0.0701685524940487
0.207878787878788,-0.157867525291443,0.054927527618408196,0.108488864994049
0.208484848484848,0.155880033302307,-0.016923058319091803,-0.0639525412559513
0.209090909090909,0.100794584083557,0.00942215652465819,-0.025632228755951298
0.20969696969697,0.230125638771057,0.265689246368408,-0.00647207250595128
0.21030303030303,-0.016561372947692898,0.0692976448059082,0.127649021244049
0.210909090909091,-0.109967134666443,0.08845780105590821,0.24021493921279902
0.211515151515152,0.0217589395523071,0.08606278152465821,0.206684665775299
0.212121212121212,0.00020376377105711798,0.169888465118408,0.09172372827529869
0.212727272727273,-0.100387056541443,-0.160624230194092,0.127649021244049
0.213333333333333,-0.0884119588851929,0.0980378791809082,0.048613376712798695
0.213939393939394,0.143904935646057,0.17228348464965798,0.13483407983779902
0.214545454545455,0.191805326271057,-0.198944542694092,0.0318482399940487
0.215151515151515,0.0337340372085571,-0.00255294113159181,-0.044792385005951306
0.215757575757576,-0.00698129482269288,0.0692976448059082,0.00789804468154872
0.216363636363636,0.110374662208557,-0.11511885910034199,0.18512948999404902
0.216969696969697,0.177435209083557,-0.00255294113159181,0.12046396265029899
0.217575757575758,0.00738882236480712,0.0453474494934082,-0.0495824240684513
0.218181818181818,0.110374662208557,-0.0767985466003418,0.043823337650298694
0.218787878787879,0.062474271583557096,0.198628699493408,0.216264743900299
0.219393939393939,-0.0979920370101929,-0.0576383903503418,0.0749585915565487
0.22,-0.0213514120101929,-0.028898155975341802,0.218659763431549
0.220606060606061,-0.0836219198226929,-0.0480583122253418,0.324040622806549
0.221212121212121,-0.0979920370101929,0.100432898712158,0.39828622827529897
0.221818181818182,0.0936095254898071,0.215393836212158,0.405471286869049
0.222424242424242,-0.0141663534164429,-0.160624230194092,-0.0280272482872013
0.223030303030303,-0.0453016073226929,-0.0744035270690918,0.0055030251502987204
0.223636363636364,0.112769681739807,0.016607215118408198,0.218659763431549
0.224242424242424,-0.0500916463851929,-0.12469893722534199,0.0414283181190487
0.224848484848485,-0.0429065877914429,-0.13188399581909202,-0.255554103755951
0.225454545454545,0.0313390176773071,-0.0480583122253418,0.046218357181548694
0.226060606060606,0.15108999423980699,-0.24205489425659202,0.12285898218154899
0.226666666666667,-0.234508150291443,-0.100748741912842,-0.0184471701622013
0.227272727272727,-0.0740418416976929,0.248924109649658,-0.0471874045372013
0.227878787878788,0.11995474033355699,0.0118171760559082,0.09651376733779869
0.228484848484848,-0.102782076072693,-0.215709679412842,0.137229099369049
0.229090909090909,0.0504991739273071,-0.163019249725342,0.053403415775298696
0.22969696969697,0.0816344278335571,0.0645076057434082,0.0414283181190487
0.23030303030303,-0.00698129482269288,-0.09116866378784179,0.0725635720252987
0.230909090909091,-0.0932019979476929,-0.225289757537842,0.09651376733779869
0.231515151515152,-0.150682466697693,0.165098426055908,0.27135019311904895
0.232121212121212,-0.191397798728943,0.07169266433715821,0.015083103275298701
0.232727272727273,-0.0261414510726929,-0.036083214569091804,-0.0471874045372013
0.233333333333333,0.055289212989807095,-0.0552433708190918,0.18991952905654902
0.233939393939394,0.012178861427307099,-0.0432682731628418,0.09651376733779869
0.234545454545455,-0.0381165487289429,-0.0744035270690918,-0.0112621115684513
0.235151515151515,-0.062066744041442905,-0.0193180778503418,0.0174781228065487
0.235757575757576,0.12474477939605699,0.136358191680908,0.256980075931549
0.236363636363636,0.055289212989807095,0.07648270339965821,0.0366382790565487
0.236969696969697,-0.181817720603943,0.014212195587158201,0.0629834939002987
0.237575757575758,-0.315938814353943,0.102827918243408,0.17075937280654901
0.238181818181818,0.00259878330230712,0.0429524299621582,0.051008396244048695
0.238787878787879,-0.0764368612289429,-0.280375206756592,0.00789804468154872
0.239393939393939,-0.0117713338851929,-0.0265031364440918,-0.0759276389122013
0.24,0.0792394083023071,0.11719803543090801,-0.0519774435997013
0.240606060606061,-0.141102388572693,0.12198807449340801,-0.0208421896934513
0.241212121212121,0.07684438877105709,0.13156815261840799,0.0581934548377987
0.241818181818182,-0.0812269002914429,-0.0552433708190918,-0.121433010005951
0.242424242424242,-0.121942232322693,-0.0312931755065918,-0.133408107662201
0.243030303030303,0.028943998146057102,-0.0720085075378418,0.0773536110877987
0.243636363636364,-0.00458627529144288,-0.179784386444092,0.046218357181548694
0.244242424242424,-0.0955970174789429,-0.0600334098815918,-0.035212306880951304
0.244848484848485,-0.0908069784164429,-0.0504533317565918,0.08932870874404869
0.245454545454545,0.110374662208557,-0.0456632926940918,0.0390332985877987
0.246060606060606,-0.00458627529144288,-0.00255294113159181,-0.0735326193809513
0.246666666666667,-0.20816293544769301,-0.0672184684753418,-0.0519774435997013
0.247272727272727,0.112769681739807,0.09085282058715821,0.0581934548377987
0.247878787878788,0.0528941934585571,0.12198807449340801,0.127649021244049
0.248484848484848,-0.133917329978943,0.054927527618408196,0.0677735329627987
0.249090909090909,-0.030931490135192898,-0.11751387863159199,-0.10227285375595101
0.24969696969697,-0.0213514120101929,-0.0696134880065918,0.295300388431549
0.25030303030303,0.177435209083557,-0.0121330192565918,-0.0783226584434513
0.250909090909091,0.11995474033355699,0.16749344558715798,0.0749585915565487
0.251515151515152,0.00020376377105711798,0.11480301589965801,0.568332614994049
0.252121212121212,-0.143497408103943,-0.11272383956909199,-0.0160521506309513
0.252727272727273,0.00978384189605712,-0.08398360519409179,0.0318482399940487
0.253333333333333,0.143904935646057,0.0333723518371582,0.168364353275299
0.253939393939394,0.0528941934585571,0.205813758087158,0.0653785134315487
0.254545454545455,0.0792394083023071,-0.0480583122253418,-0.0567674826622013
0.255151515151515,0.0960045450210571,-0.230079796600342,0.14920419702529902
0.255757575757576,0.0840294473648071,-0.014528038787841799,-0.0016820334434512801
0.256363636363636,0.0361290567398071,0.12438309402465801,0.046218357181548694
0.256969696969697,0.0912145059585571,-0.0504533317565918,0.046218357181548694
0.257575757575758,0.0313390176773071,-0.11511885910034199,0.000712986087798724
0.258181818181818,0.07205434970855709,-0.0600334098815918,-0.013657131099701299
0.258787878787879,0.0672643106460571,-0.11990889816284199,0.0414283181190487
0.259393939393939,0.026548978614807102,0.0237922737121582,-0.0160521506309513
0.26,-0.035721529197692906,0.0980378791809082,0.0557984353065487
0.260606060606061,0.0169689004898071,0.0477424690246582,0.153994236087799
0.261212121212121,-0.100387056541443,0.0357673713684082,-0.10466787328720101
0.261818181818182,0.160670072364807,-0.00255294113159181,-0.11185293188095101
0.262424242424242,-0.129127290916443,0.0453474494934082,0.0629834939002987
0.263030303030303,-0.0908069784164429,-0.146254113006592,0.0342432595252987
0.263636363636364,0.131929837989807,-0.18696944503784202,-0.15017324438095098
0.264242424242424,-0.0644617635726929,0.0333723518371582,0.165969333744049
0.264848484848485,0.06965933017730709,0.203418738555908,0.36954599390029896
0.265454545454545,-0.009376314353942879,-0.129488976287842,0.0845386696815487
0.266060606060606,0.0217589395523071,0.016607215118408198,-0.11664297094345101
0.266666666666667,0.0457091348648071,0.19144364089965799,0.14441415796279902
0.267272727272727,-0.00458627529144288,-0.17738936691284202,0.113278904056549
0.267878787878788,0.0169689004898071,0.10761795730590801,-0.08071767797470131
0.268484848484848,-0.009376314353942879,0.09564285964965821,0.153994236087799
0.269090909090909,-0.11475717372894301,-0.12469893722534199,0.051008396244048695
0.26969696969697,0.012178861427307099,-0.0648234489440918,-0.08311269750595131
0.27030303030303,-0.00698129482269288,0.11240799636840801,0.0318482399940487
0.270909090909091,0.0313390176773071,0.07169266433715821,0.168364353275299
0.271515151515151,-0.016561372947692898,0.16749344558715798,0.09890878686904869
0.272121212121212,-0.0740418416976929,0.18186356277465798,0.0102930642127987
0.272727272727273,-0.229718111228943,0.11240799636840801,0.0246631814002987
0.273333333333333,-0.157867525291443,0.09085282058715821,-0.0184471701622013
0.273939393939394,0.0337340372085571,0.00463211746215819,0.113278904056549
0.274545454545455,-0.0740418416976929,0.028582312774658197,0.0126880837440487
0.275151515151515,-0.035721529197692906,0.0118171760559082,-0.190888576412201
0.275757575757576,0.0169689004898071,0.014212195587158201,0.115673923587799
0.276363636363636,0.0481041543960571,0.08127274246215821,0.08932870874404869
0.276969696969697,0.184620267677307,-0.0576383903503418,-0.0615575217247013
0.277575757575758,0.215755521583557,-0.0648234489440918,-0.11664297094345101
0.278181818181818,-0.0213514120101929,0.203418738555908,-0.147778224849701
0.278787878787879,0.0960045450210571,0.12198807449340801,0.053403415775298696
0.279393939393939,0.0840294473648071,-0.038478234100341804,-0.217233791255951
0.28,-0.018956392478942898,-0.270795128631592,0.20428964624404902
0.280606060606061,0.0504991739273071,0.0118171760559082,-0.265134181880951
0.281212121212121,0.06965933017730709,0.138753211212158,0.156389255619049
0.281818181818182,-0.033326509666442905,-0.0720085075378418,0.45816171655654897
0.282424242424242,-0.0884119588851929,-0.189364464569092,-0.24357900609970098
0.283030303030303,0.107979642677307,-0.13188399581909202,0.151599216556549
0.283636363636364,0.0217589395523071,0.203418738555908,0.0174781228065487
0.284242424242424,-0.009376314353942879,0.100432898712158,0.00789804468154872
0.284848484848485,-0.0788318807601929,0.0573225471496582,0.106093845462799
0.285454545454545,-0.0788318807601929,-0.08398360519409179,0.051008396244048695
0.286060606060606,0.0457091348648071,0.0669026252746582,0.156389255619049
0.286666666666667,-0.0740418416976929,0.11240799636840801,0.163574314212799
0.287272727272727,-0.0500916463851929,-0.0648234489440918,0.225844822025299
0.287878787878788,0.0936095254898071,0.0669026252746582,0.161179294681549
0.288484848484849,0.0864244668960571,0.07887772293090821,0.0821436501502987
0.289090909090909,-0.0668567831039429,-0.0312931755065918,0.0557984353065487
0.28969696969697,-0.0429065877914429,-0.220499718475342,-0.0160521506309513
0.29030303030303,0.134324857521057,-0.0576383903503418,0.13483407983779902
0.290909090909091,-0.0644617635726929,0.09564285964965821,0.00789804468154872
0.291515151515152,0.0361290567398071,-0.134279015350342,-0.121433010005951
0.292121212121212,0.00020376377105711798,-0.139069054412842,0.137229099369049
0.292727272727273,-0.0524866659164429,-0.100748741912842,0.221054782962799
0.293333333333333,-0.062066744041442905,0.054927527618408196,0.0390332985877987
0.293939393939394,-0.0117713338851929,-0.00494796066284181,0.197104587650299
0.294545454545455,-0.0117713338851929,-0.146254113006592,0.201894626712799
0.295151515151515,-0.035721529197692906,0.0190022346496582,-0.0950877951622013
0.295757575757576,-0.00698129482269288,-0.0696134880065918,0.142019138431549
0.296363636363636,0.167855130958557,-0.0336881950378418,-0.11903799047470101
0.296969696969697,0.184620267677307,0.18186356277465798,-0.044792385005951306
0.297575757575758,-0.0764368612289429,-0.0672184684753418,0.051008396244048695
0.298181818181818,0.00978384189605712,-0.28756026535034196,0.019873142337798702
0.298787878787879,0.0409190958023071,-0.0456632926940918,0.051008396244048695
0.299393939393939,-0.0141663534164429,0.0645076057434082,-0.025632228755951298
0.3,-0.009376314353942879,0.0597175666809082,0.19470956811904902
0.300606060606061,-0.035721529197692906,-0.0528483512878418,-0.145383205318451
0.301212121212121,-0.222533052635193,0.07887772293090821,-0.037607326412201304
0.301818181818182,-0.0261414510726929,0.014212195587158201,-0.0759276389122013
0.302424242424242,-0.0237464315414429,-0.12469893722534199,0.197104587650299
0.303030303030303,0.0433141153335571,0.0261872932434082,-0.0232372092247013
0.303636363636364,0.0983995645523071,-0.0432682731628418,-0.0759276389122013
0.304242424242424,-0.018956392478942898,0.08366776199340821,0.23063486108779901
0.304848484848485,-0.0860169393539429,0.0333723518371582,0.237819919681549
0.305454545454545,0.0049938028335571195,-0.09356368331909179,0.187524509525299
0.306060606060606,-0.0908069784164429,-0.189364464569092,-0.0950877951622013
0.306666666666667,-0.126732271385193,-0.09835372238159179,0.0294532204627987
0.307272727272727,0.100794584083557,0.157913367462158,-0.0232372092247013
0.307878787878788,-0.0644617635726929,-0.201339562225342,-0.0783226584434513
0.308484848484848,-0.0979920370101929,-0.0241081169128418,0.0845386696815487
0.309090909090909,0.057684232521057095,-0.0767985466003418,-0.0591625021934513
0.30969696969697,-0.00458627529144288,-0.09835372238159179,-0.24357900609970098
0.31030303030303,-0.129127290916443,-0.11751387863159199,-0.231603908443451
0.310909090909091,-0.009376314353942879,-0.263610070037842,0.36954599390029896
0.311515151515152,0.167855130958557,-0.00494796066284181,0.740774021244049
0.312121212121212,-0.030931490135192898,-0.000157921600341806,0.115673923587799
0.312727272727273,0.0912145059585571,-0.10553878097534199,0.14441415796279902
0.313333333333333,0.11995474033355699,-0.0217130973815918,-0.09029775609970131
0.313939393939394,-0.136312349510193,-0.0791935661315918,0.0031080056190487203
0.314545454545455,-0.062066744041442905,-0.10793380050659199,0.256980075931549
0.315151515151515,0.0936095254898071,0.07169266433715821,-0.0615575217247013
0.315757575757576,0.07684438877105709,-0.141464073944092,0.0629834939002987
0.316363636363636,-0.229718111228943,-0.0528483512878418,0.043823337650298694
0.316969696969697,0.0241539590835571,0.148333289337158,0.19470956811904902
0.317575757575758,0.0672643106460571,0.126778113555908,0.182734470462799
0.318181818181818,-0.121942232322693,0.07169266433715821,-0.0112621115684513
0.318787878787879,-0.0836219198226929,0.0190022346496582,0.19949960718154902
0.319393939393939,-0.0524866659164429,-0.0696134880065918,-0.025632228755951298
0.32,0.0385240762710571,-0.0552433708190918,-0.042397365474701305
0.320606060606061,-0.145892427635193,-0.146254113006592,0.0366382790565487
0.321212121212121,-0.0908069784164429,-0.00494796066284181,-0.040002345943451305
0.321818181818182,0.0409190958023071,0.0357673713684082,0.09172372827529869
0.322424242424242,-0.138707369041443,-0.0241081169128418,0.137229099369049
0.323030303030303,0.028943998146057102,0.198628699493408,-0.152568263912201
0.323636363636364,0.175040189552307,-0.12469893722534199,0.158784275150299
0.324242424242424,-0.11475717372894301,0.016607215118408198,0.33122568140029895
0.324848484848485,-0.167447603416443,0.0118171760559082,0.25937509546279897
0.325454545454545,-0.030931490135192898,-0.19175948410034202,-0.0208421896934513
0.326060606060606,-0.0117713338851929,-0.0528483512878418,-0.11185293188095101
0.326666666666667,-0.0261414510726929,-0.203734581756592,0.19949960718154902
0.327272727272727,0.0193639200210571,-0.239659874725342,0.0797486306190487
0.327878787878788,0.00020376377105711798,-0.0767985466003418,0.127649021244049
0.328484848484848,-0.0548816854476929,-0.09595870285034179,0.273745212650299
0.329090909090909,-0.0860169393539429,-0.163019249725342,0.321645603275299
0.32969696969697,0.0840294473648071,-0.0504533317565918,0.019873142337798702
0.33030303030303,0.0361290567398071,0.00942215652465819,0.08932870874404869
0.330909090909091,-0.033326509666442905,-0.143859093475342,0.0294532204627987
0.331515151515152,-0.00698129482269288,-0.09595870285034179,0.0581934548377987
0.332121212121212,0.07684438877105709,0.030977332305908198,0.254585056400299
0.332727272727273,0.062474271583557096,-0.170204308319092,0.12046396265029899
0.333333333333333,0.0385240762710571,0.0692976448059082,-0.0735326193809513
0.333939393939394,0.012178861427307099,0.16749344558715798,0.24979501733779902
0.334545454545455,0.028943998146057102,-0.0815885856628418,0.142019138431549
0.335151515151515,0.177435209083557,0.07887772293090821,-0.145383205318451
0.335757575757576,0.0648692911148071,0.0261872932434082,-0.15017324438095098
0.336363636363636,-0.030931490135192898,-0.0528483512878418,-0.0112621115684513
0.336969696969697,-0.0213514120101929,-0.09116866378784179,0.0845386696815487
0.337575757575758,-0.0716468221664429,-0.0193180778503418,0.0414283181190487
0.338181818181818,0.0193639200210571,0.196233679962158,-0.042397365474701305
0.338787878787879,0.172645170021057,0.07169266433715821,0.0270582009315487
0.339393939393939,0.282816068458557,0.028582312774658197,0.115673923587799
0.34,0.026548978614807102,-0.0552433708190918,-0.205258693599701
0.340606060606061,-0.059671724510192904,0.08127274246215821,0.285720310306549
0.341212121212121,0.112769681739807,0.193838660430908,0.561147556400299
0.341818181818182,0.177435209083557,0.00223709793090819,0.158784275150299
0.342424242424242,0.0433141153335571,0.12198807449340801,-0.042397365474701305
0.343030303030303,-0.11715219326019301,-0.09595870285034179,-0.040002345943451305
0.343636363636364,0.15108999423980699,0.0405574104309082,0.0055030251502987204
0.344242424242424,-0.0429065877914429,-0.016923058319091803,-0.0160521506309513
0.344848484848485,-0.150682466697693,0.0333723518371582,-0.08311269750595131
0.345454545454545,-0.030931490135192898,0.0333723518371582,-0.08311269750595131
0.346060606060606,0.227730619239807,-0.0241081169128418,-0.126223049068451
0.346666666666667,0.165460111427307,0.10761795730590801,0.0294532204627987
0.347272727272727,-0.198582857322693,-0.0504533317565918,0.161179294681549
0.347878787878788,-0.0644617635726929,-0.194154503631592,0.0581934548377987
0.348484848484849,0.0816344278335571,-0.0720085075378418,0.18512948999404902
0.349090909090909,-0.00698129482269288,0.0621125862121582,0.0869336892127987
0.34969696969697,0.07444936923980709,0.0477424690246582,-0.0280272482872013
0.35030303030303,0.0313390176773071,0.169888465118408,-0.140593166255951
0.350909090909091,-0.062066744041442905,-0.0600334098815918,-0.15496328344345098
0.351515151515152,-0.033326509666442905,-0.10793380050659199,0.0797486306190487
0.352121212121212,-0.0548816854476929,0.0621125862121582,-0.10227285375595101
0.352727272727273,0.00738882236480712,0.10761795730590801,-0.0112621115684513
0.353333333333333,0.00020376377105711798,-0.0720085075378418,-0.00407705297470128
0.353939393939394,0.060079252052307096,0.105222937774658,0.0366382790565487
0.354545454545455,0.07444936923980709,0.08606278152465821,0.233029880619049
0.355151515151515,0.0193639200210571,-0.014528038787841799,-0.08071767797470131
0.355757575757576,0.103189603614807,0.12198807449340801,0.110883884525299
0.356363636363636,0.012178861427307099,0.11001297683715801,0.23063486108779901
0.356969696969697,0.0960045450210571,-0.0312931755065918,0.0797486306190487
0.357575757575758,0.153485013771057,0.052532508087158196,0.295300388431549
0.358181818181818,0.0241539590835571,0.0429524299621582,0.161179294681549
0.358787878787879,-0.0932019979476929,-0.155834191131592,0.127649021244049
0.359393939393939,-0.150682466697693,-0.0217130973815918,0.216264743900299
0.36,-0.145892427635193,0.184258582305908,0.14441415796279902
0.360606060606061,0.100794584083557,-0.0241081169128418,0.0126880837440487
0.361212121212121,0.218150541114807,-0.0528483512878418,0.20428964624404902
0.361818181818182,-0.121942232322693,-0.146254113006592,-0.0711375998497013
0.362424242424242,0.0049938028335571195,-0.038478234100341804,-0.23399892797470098
0.363030303030303,-0.0476966268539429,-0.11272383956909199,0.146809177494049
0.363636363636364,0.0145738809585571,-0.028898155975341802,0.09172372827529869
0.364242424242424,0.0840294473648071,-0.00494796066284181,0.18512948999404902
0.364848484848485,-0.325518892478943,-0.08877364425659179,0.12046396265029899
0.365454545454545,-0.11475717372894301,0.184258582305908,0.0174781228065487
0.366060606060606,0.00259878330230712,0.0669026252746582,-0.00407705297470128
0.366666666666667,-0.0884119588851929,0.169888465118408,0.0677735329627987
0.367272727272727,0.0193639200210571,0.054927527618408196,0.0773536110877987
0.367878787878788,-0.0884119588851929,-0.08398360519409179,0.09411874780654869
0.368484848484848,-0.174632662010193,-0.0815885856628418,0.0366382790565487
0.369090909090909,0.31395132236480705,-0.0720085075378418,0.0414283181190487
0.36969696969697,0.060079252052307096,-0.18217940597534202,0.0701685524940487
0.37030303030303,0.0864244668960571,0.00702713699340819,0.051008396244048695
0.370909090909091,0.249285795021057,-0.028898155975341802,0.606652927494049
0.371515151515152,0.0241539590835571,0.133963172149658,0.589887790775299
0.372121212121212,0.0433141153335571,0.09085282058715821,0.0031080056190487203
0.372727272727273,0.189410306739807,-0.0624284294128418,0.142019138431549
0.373333333333333,0.167855130958557,-0.163019249725342,0.015083103275298701
0.373939393939394,-0.169842622947693,-0.311510460662842,0.0581934548377987
0.374545454545455,0.026548978614807102,0.0501374885559082,0.118068943119049
0.375151515151515,0.165460111427307,0.0213972541809082,-0.195678615474701
0.375757575757576,0.139114896583557,-0.014528038787841799,0.051008396244048695
0.376363636363636,-0.0237464315414429,0.12438309402465801,-0.126223049068451
0.376969696969697,0.0528941934585571,-0.10793380050659199,-0.00647207250595128
0.377575757575758,0.12474477939605699,0.0261872932434082,0.228239841556549
0.378181818181818,0.131929837989807,0.129173133087158,0.158784275150299
0.378787878787879,0.060079252052307096,-0.08877364425659179,0.046218357181548694
0.379393939393939,-0.059671724510192904,-0.00973799972534181,0.101303806400299
0.38,0.0433141153335571,-0.11990889816284199,0.132439060306549
0.380606060606061,0.165460111427307,-0.0672184684753418,0.043823337650298694
0.381212121212121,0.060079252052307096,0.11240799636840801,-0.08790273656845131
0.381818181818182,0.0313390176773071,0.0357673713684082,0.0126880837440487
0.382424242424242,0.0504991739273071,-0.014528038787841799,0.046218357181548694
0.383030303030303,0.0816344278335571,0.054927527618408196,0.0797486306190487
0.383636363636364,0.0361290567398071,0.030977332305908198,0.17075937280654901
0.384242424242424,-0.057276704978942904,-0.0576383903503418,0.0055030251502987204
0.384848484848485,-0.016561372947692898,-0.0312931755065918,-0.08550771703720131
0.385454545454545,0.00259878330230712,0.0669026252746582,0.13483407983779902
0.386060606060606,0.0936095254898071,-0.036083214569091804,0.27853525171279897
0.386666666666667,0.0648692911148071,-0.0121330192565918,0.0821436501502987
0.387272727272727,0.0504991739273071,0.11001297683715801,-0.0998778342247013
0.387878787878788,-0.0524866659164429,0.0381623908996582,0.158784275150299
0.388484848484848,-0.153077486228943,0.07648270339965821,0.0270582009315487
0.389090909090909,0.0504991739273071,0.174678504180908,-0.17891347875595098
0.38969696969697,0.160670072364807,0.153123328399658,0.0845386696815487
0.39030303030303,-0.0261414510726929,0.054927527618408196,0.177944431400299
0.390909090909091,0.112769681739807,-0.139069054412842,0.17075937280654901
0.391515151515152,0.27802602939605703,-0.00734298019409181,0.233029880619049
0.392121212121212,-0.0955970174789429,0.07169266433715821,0.043823337650298694
0.392727272727273,-0.191397798728943,-0.10793380050659199,-0.042397365474701305
0.393333333333333,0.00978384189605712,-0.00734298019409181,0.0055030251502987204
0.393939393939394,0.12234975986480699,0.10761795730590801,-0.0495824240684513
0.394545454545455,0.0337340372085571,0.10761795730590801,0.158784275150299
0.395151515151515,0.012178861427307099,-0.11990889816284199,-0.0184471701622013
0.395757575757576,0.0960045450210571,-0.179784386444092,0.0773536110877987
0.396363636363636,0.242100736427307,0.11001297683715801,-0.042397365474701305
0.396969696969697,-0.0500916463851929,0.18665360183715798,-0.0184471701622013
0.397575757575758,-0.0884119588851929,-0.036083214569091804,-0.0783226584434513
0.398181818181818,0.311556302833557,-0.203734581756592,0.00789804468154872
0.398787878787879,0.0385240762710571,0.0237922737121582,-0.152568263912201
0.399393939393939,0.0433141153335571,0.0621125862121582,0.0342432595252987
0.4,-0.00458627529144288,0.105222937774658,0.561147556400299
0.400606060606061,0.0049938028335571195,-0.0265031364440918,0.0222681618690487
0.401212121212121,-0.0812269002914429,-0.11990889816284199,0.18512948999404902
0.401818181818182,-0.102782076072693,0.160308386993408,0.0749585915565487
0.402424242424242,0.0840294473648071,0.23215897293090798,0.0701685524940487
0.403030303030303,-0.030931490135192898,0.160308386993408,0.12046396265029899
0.403636363636364,0.012178861427307099,-0.12230391769409199,-0.10466787328720101
0.404242424242424,0.0504991739273071,-0.194154503631592,0.103698825931549
0.404848484848485,0.00259878330230712,-0.213314659881592,0.053403415775298696
0.405454545454545,0.00259878330230712,-0.038478234100341804,0.09651376733779869
0.406060606060606,-0.112362154197693,0.129173133087158,0.223449802494049
0.406666666666667,-0.0237464315414429,-0.0312931755065918,0.173154392337799
0.407272727272727,0.07444936923980709,0.133963172149658,0.0725635720252987
0.407878787878788,-0.150682466697693,0.248924109649658,-0.00647207250595128
0.408484848484849,0.0504991739273071,0.0453474494934082,-0.0208421896934513
0.409090909090909,-0.00698129482269288,-0.19175948410034202,0.158784275150299
0.40969696969697,-0.0836219198226929,-0.0312931755065918,0.0581934548377987
0.41030303030303,0.105584623146057,-0.00255294113159181,-0.0304222678184513
0.410909090909091,0.0912145059585571,0.0453474494934082,-0.10466787328720101
0.411515151515152,0.0313390176773071,-0.0791935661315918,0.0701685524940487
0.412121212121212,0.026548978614807102,-0.129488976287842,0.053403415775298696
0.412727272727273,-0.0716468221664429,0.0980378791809082,-0.025632228755951298
0.413333333333333,-0.0261414510726929,0.0237922737121582,0.118068943119049
0.413939393939394,-0.033326509666442905,-0.198944542694092,0.132439060306549
0.414545454545455,0.0960045450210571,-0.28756026535034196,0.168364353275299
0.415151515151515,-0.0261414510726929,-0.09116866378784179,0.0653785134315487
0.415757575757576,-0.057276704978942904,-0.0312931755065918,0.101303806400299
0.416363636363636,0.0888194864273071,-0.251634972381592,-0.0926927756309513
0.416969696969697,-0.136312349510193,0.251319129180908,-0.00647207250595128
0.417575757575758,0.220545560646057,-0.0241081169128418,0.161179294681549
0.418181818181818,0.06965933017730709,-0.16780928878784201,0.137229099369049
0.418787878787879,0.0912145059585571,0.00942215652465819,0.163574314212799
0.419393939393939,0.028943998146057102,-0.134279015350342,-0.0112621115684513
0.42,-0.0860169393539429,0.054927527618408196,-0.10466787328720101
0.420606060606061,0.0049938028335571195,0.0645076057434082,-0.00647207250595128
0.421212121212121,-0.181817720603943,0.26329422683715803,0.0605884743690487
0.421818181818182,-0.0884119588851929,-0.11032882003784199,0.106093845462799
0.422424242424242,0.0528941934585571,-0.153439171600342,0.153994236087799
0.423030303030303,-0.0788318807601929,-0.00973799972534181,-0.0495824240684513
0.423636363636364,-0.0237464315414429,0.17707352371215798,0.0653785134315487
0.424242424242424,-0.0261414510726929,0.18665360183715798,0.0773536110877987
0.424848484848485,-0.0476966268539429,-0.127093956756592,0.0246631814002987
0.425454545454545,-0.0788318807601929,-0.153439171600342,0.0366382790565487
0.426060606060606,-0.14828744716644301,0.102827918243408,0.053403415775298696
0.426666666666667,-0.222533052635193,0.0405574104309082,0.223449802494049
0.427272727272727,-0.217743013572693,-0.0408732536315918,-0.040002345943451305
0.427878787878788,-0.155472505760193,0.014212195587158201,0.048613376712798695
0.428484848484848,-0.253668306541443,-0.0696134880065918,0.0222681618690487
0.429090909090909,-0.287198579978943,-0.203734581756592,-0.0615575217247013
0.42969696969697,-0.105177095603943,-0.100748741912842,0.5156421853065489
0.43030303030303,-0.220138033103943,0.054927527618408196,0.0342432595252987
0.430909090909091,-0.232113130760193,-0.00494796066284181,0.27853525171279897
0.431515151515152,0.0481041543960571,-0.11032882003784199,0.371941013431549
0.432121212121212,-0.222533052635193,-0.23247481613159202,0.0629834939002987
0.432727272727273,-0.11715219326019301,-0.0480583122253418,0.13483407983779902
0.433333333333333,-0.167447603416443,-0.127093956756592,0.0414283181190487
0.433939393939394,-0.179422701072693,-0.153439171600342,-0.16454336156845098
0.434545454545455,-0.157867525291443,0.0692976448059082,0.053403415775298696
0.435151515151515,-0.385394380760193,0.08845780105590821,0.0869336892127987
0.435757575757576,-0.390184419822693,0.0980378791809082,-0.15975332250595098
0.436363636363636,-0.45484994716644295,0.284849402618408,0.0749585915565487
0.436969696969697,-0.20816293544769301,0.07648270339965821,-0.0519774435997013
0.437575757575758,-0.27522348232269295,0.0477424690246582,0.0102930642127987
0.438181818181818,-0.375814302635193,0.0573225471496582,0.216264743900299
0.438787878787879,-0.193792818260193,0.0980378791809082,0.12046396265029899
0.439393939393939,-0.248878267478943,0.0597175666809082,-0.11903799047470101
0.44,-0.210557954978943,0.016607215118408198,0.0677735329627987
0.440606060606061,-0.318333833885193,0.0333723518371582,0.12285898218154899
0.441212121212121,-0.29198861904144296,-0.0456632926940918,0.0725635720252987
0.441818181818182,-0.330308931541443,-0.0720085075378418,-0.08550771703720131
0.442424242424242,-0.258458345603943,-0.12230391769409199,0.213869724369049
0.443030303030303,-0.34228402919769296,-0.0312931755065918,-0.044792385005951306
0.443636363636364,-0.466825044822693,0.0645076057434082,-0.11664297094345101
0.444242424242424,-0.268038423728943,-0.103143761444092,0.28093027124404896
0.444848484848485,-0.426109712791443,-0.134279015350342,-0.11424795141220101
0.445454545454545,-0.397369478416443,0.0573225471496582,0.0414283181190487
0.446060606060606,-0.280013521385193,-0.038478234100341804,-0.0304222678184513
0.446666666666667,-0.29198861904144296,0.129173133087158,-0.0950877951622013
0.447272727272727,-0.397369478416443,0.09324784011840821,0.0390332985877987
0.447878787878788,-0.450059908103943,-0.12230391769409199,-0.16454336156845098
0.448484848484848,-0.368629244041443,0.014212195587158201,0.0773536110877987
0.449090909090909,-0.33509897060394295,0.0237922737121582,0.0031080056190487203
0.44969696969697,-0.32312387294769296,-0.210919640350342,-0.10466787328720101
0.45030303030303,-0.27522348232269295,-0.028898155975341802,0.0246631814002987
0.450909090909091,-0.296778658103943,0.0621125862121582,0.09411874780654869
0.451515151515152,-0.121942232322693,0.0692976448059082,0.0246631814002987
0.452121212121212,-0.162657564353943,-0.311510460662842,0.0821436501502987
0.452727272727273,-0.36144418544769297,-0.17738936691284202,-0.0471874045372013
0.453333333333333,-0.418924654197693,0.016607215118408198,-0.22920888891220098
0.453939393939394,-0.38060434169769297,0.0333723518371582,0.08932870874404869
0.454545454545455,-0.28240854091644296,0.09085282058715821,0.211474704837799
0.455151515151515,-0.349469087791443,-0.153439171600342,0.046218357181548694
0.455757575757576,-0.29198861904144296,-0.11272383956909199,-0.10227285375595101
0.456363636363636,-0.409344576072693,-0.0265031364440918,0.101303806400299
0.456969696969697,-0.318333833885193,0.11959305496215801,-0.0016820334434512801
0.457575757575758,-0.38060434169769297,0.189048621368408,-0.123828029537201
0.458181818181818,-0.406949556541443,0.0645076057434082,0.24979501733779902
0.458787878787879,-0.33270395107269296,-0.0432682731628418,-0.126223049068451
0.459393939393939,-0.40455453701019295,0.0381623908996582,-0.0495824240684513
0.46,-0.196187837791443,-0.09835372238159179,0.156389255619049
0.460606060606061,-0.337493990135193,-0.00494796066284181,-0.16454336156845098
0.461212121212121,-0.241693208885193,0.0118171760559082,0.403076267337799
0.461818181818182,-0.102782076072693,-0.158229210662842,0.5156421853065489
0.462424242424242,-0.399764497947693,0.0381623908996582,0.08932870874404869
0.463030303030303,-0.280013521385193,0.052532508087158196,0.233029880619049
0.463636363636364,-0.239298189353943,0.145938269805908,0.0557984353065487
0.464242424242424,-0.0860169393539429,0.09324784011840821,-0.21004873266220098
0.464848484848485,-0.212952974510193,-0.00734298019409181,0.0174781228065487
0.465454545454545,-0.248878267478943,-0.143859093475342,-0.123828029537201
0.466060606060606,-0.232113130760193,-0.0624284294128418,-0.00647207250595128
0.466666666666667,-0.325518892478943,-0.038478234100341804,0.13962411890029902
0.467272727272727,0.0193639200210571,-0.100748741912842,0.0174781228065487
0.467878787878788,-0.157867525291443,-0.0456632926940918,0.0869336892127987
0.468484848484849,-0.105177095603943,-0.141464073944092,-0.00647207250595128
0.469090909090909,0.141509916114807,-0.0193180778503418,-0.0543724631309513
0.46969696969697,-0.162657564353943,-0.0552433708190918,0.0246631814002987
0.47030303030303,-0.136312349510193,-0.12230391769409199,0.118068943119049
0.470909090909091,-0.0860169393539429,-0.00734298019409181,-0.035212306880951304
0.471515151515151,-0.174632662010193,0.17707352371215798,-0.135803127193451
0.472121212121212,0.055289212989807095,0.016607215118408198,-0.09029775609970131
0.472727272727273,-0.11475717372894301,-0.148649132537842,0.115673923587799
0.473333333333333,-0.033326509666442905,-0.0265031364440918,0.156389255619049
0.473939393939394,0.0361290567398071,0.129173133087158,0.0174781228065487
0.474545454545455,-0.191397798728943,-0.0552433708190918,-0.11424795141220101
0.475151515151515,0.0193639200210571,-0.155834191131592,0.177944431400299
0.475757575757576,0.0217589395523071,-0.0432682731628418,0.103698825931549
0.476363636363636,0.0217589395523071,-0.028898155975341802,-0.08311269750595131
0.476969696969697,0.103189603614807,-0.0265031364440918,0.0653785134315487
0.477575757575758,0.160670072364807,-0.0408732536315918,0.00789804468154872
0.478181818181818,0.0864244668960571,0.0597175666809082,0.206684665775299
0.478787878787879,0.057684232521057095,0.174678504180908,0.0390332985877987
0.479393939393939,-0.0692518026351929,0.016607215118408198,0.20907968530654902
0.48,-0.00458627529144288,0.11240799636840801,0.0821436501502987
0.480606060606061,0.107979642677307,0.0237922737121582,-0.025632228755951298
0.481212121212121,0.155880033302307,-0.00734298019409181,-0.0208421896934513
0.481818181818182,0.057684232521057095,0.11719803543090801,-0.044792385005951306
0.482424242424242,0.00978384189605712,-0.014528038787841799,0.108488864994049
0.483030303030303,0.0504991739273071,-0.0265031364440918,0.0845386696815487
0.483636363636364,-0.0908069784164429,-0.09595870285034179,-0.10227285375595101
0.484242424242424,-0.016561372947692898,-0.220499718475342,-0.0208421896934513
0.484848484848485,0.0816344278335571,-0.194154503631592,0.0366382790565487
0.485454545454545,-0.0524866659164429,0.141148230743408,0.0653785134315487
0.486060606060606,0.184620267677307,0.165098426055908,0.213869724369049
0.486666666666667,0.0241539590835571,0.0118171760559082,-0.0328172873497013
0.487272727272727,0.07684438877105709,0.0477424690246582,0.000712986087798724
0.487878787878788,0.311556302833557,-0.0456632926940918,0.0677735329627987
0.488484848484848,-0.0860169393539429,-0.165414269256592,0.0318482399940487
0.489090909090909,-0.062066744041442905,-0.0720085075378418,0.0318482399940487
0.48969696969697,-0.009376314353942879,0.102827918243408,-0.293874416255951
0.49030303030303,0.055289212989807095,0.0190022346496582,0.254585056400299
0.490909090909091,0.012178861427307099,-0.139069054412842,0.254585056400299
0.491515151515152,0.0313390176773071,0.0477424690246582,-0.411230373287201
0.492121212121212,0.0960045450210571,0.0237922737121582,-0.162148342037201
0.492727272727273,-0.11954721279144301,0.11959305496215801,0.019873142337798702
0.493333333333333,-0.11954721279144301,0.054927527618408196,0.0294532204627987
0.493939393939394,0.0169689004898071,-0.11751387863159199,0.0342432595252987
0.494545454545455,-0.0548816854476929,0.09085282058715821,0.0869336892127987
0.495151515151515,-0.062066744041442905,0.07408768386840821,0.151599216556549
0.495757575757576,0.0241539590835571,-0.09835372238159179,0.0414283181190487
0.496363636363636,0.0433141153335571,0.08845780105590821,-0.0735326193809513
0.496969696969697,-0.0261414510726929,-0.0480583122253418,0.0725635720252987
0.497575757575758,-0.0237464315414429,-0.0576383903503418,0.0294532204627987
0.498181818181818,0.00738882236480712,0.00463211746215819,-0.11185293188095101
0.498787878787879,-0.105177095603943,-0.08398360519409179,-0.00647207250595128
0.499393939393939,0.129534818458557,0.0573225471496582,0.295300388431549
0.5,0.107979642677307,0.028582312774658197,-0.044792385005951306
0.500606060606061,-0.11475717372894301,0.09324784011840821,-0.0160521506309513
0.501212121212121,0.0145738809585571,-0.12230391769409199,0.0102930642127987
0.501818181818182,0.189410306739807,0.0237922737121582,-0.0519774435997013
0.502424242424242,0.160670072364807,0.141148230743408,-0.0232372092247013
0.503030303030303,-0.0476966268539429,0.028582312774658197,-0.0112621115684513
0.503636363636364,-0.009376314353942879,0.162703406524658,-0.00647207250595128
0.504242424242424,0.131929837989807,-0.0193180778503418,-0.10945791234970101
0.504848484848485,0.182225248146057,-0.148649132537842,0.23063486108779901
0.505454545454545,0.105584623146057,-0.208524620819092,0.146809177494049
0.506060606060606,0.057684232521057095,-0.08637862472534179,-0.22441884984970098
0.506666666666667,0.0888194864273071,0.17228348464965798,-0.198073635005951
0.507272727272727,-0.203372896385193,-0.0504533317565918,0.146809177494049
0.507878787878788,-0.062066744041442905,-0.0241081169128418,0.27135019311904895
0.508484848484849,0.12234975986480699,-0.00734298019409181,0.173154392337799
0.509090909090909,-0.0932019979476929,-0.0744035270690918,0.161179294681549
0.50969696969697,-0.035721529197692906,-0.028898155975341802,0.000712986087798724
0.51030303030303,-0.0644617635726929,0.052532508087158196,-0.147778224849701
0.510909090909091,0.057684232521057095,0.00942215652465819,0.0318482399940487
0.511515151515151,0.00978384189605712,0.00463211746215819,0.0773536110877987
0.512121212121212,0.0648692911148071,0.07648270339965821,0.046218357181548694
0.512727272727273,-0.11954721279144301,-0.016923058319091803,0.192314548587799
0.513333333333333,-0.0405115682601929,-0.0336881950378418,0.127649021244049
0.513939393939394,0.0648692911148071,-0.0576383903503418,-0.200468654537201
0.514545454545455,-0.030931490135192898,-0.11990889816284199,0.0797486306190487
0.515151515151515,-0.102782076072693,-0.0336881950378418,0.383916111087799
0.515757575757576,-0.131522310447693,0.19144364089965799,0.142019138431549
0.516363636363636,0.00259878330230712,0.141148230743408,-0.00886709203720128
0.516969696969697,0.170250150489807,0.0381623908996582,0.173154392337799
0.517575757575758,0.146299955177307,0.13156815261840799,0.221054782962799
0.518181818181818,-0.00458627529144288,0.102827918243408,0.0294532204627987
0.518787878787879,0.131929837989807,0.16749344558715798,-0.123828029537201
0.519393939393939,-0.0524866659164429,0.07887772293090821,0.161179294681549
0.52,-0.00698129482269288,-0.100748741912842,0.048613376712798695
0.520606060606061,0.0528941934585571,0.0213972541809082,-0.157358302974701
0.521212121212121,-0.124337251853943,-0.08398360519409179,-0.0184471701622013
0.521818181818182,-0.0932019979476929,-0.00255294113159181,0.43900156030654897
0.522424242424242,0.167855130958557,0.126778113555908,0.206684665775299
0.523030303030303,0.0912145059585571,0.016607215118408198,-0.142988185787201
0.523636363636364,0.100794584083557,-0.127093956756592,0.0174781228065487
0.524242424242424,0.117559720802307,-0.016923058319091803,0.09172372827529869
0.524848484848485,-0.143497408103943,0.0573225471496582,0.106093845462799
0.525454545454546,0.100794584083557,-0.0265031364440918,0.0701685524940487
0.526060606060606,-0.121942232322693,-0.016923058319091803,0.118068943119049
0.526666666666667,-0.220138033103943,0.0213972541809082,-0.0495824240684513
0.527272727272727,0.0840294473648071,0.189048621368408,0.14441415796279902
0.527878787878788,0.012178861427307099,-0.028898155975341802,-0.00886709203720128
0.528484848484848,-0.165052583885193,-0.0624284294128418,-0.0160521506309513
0.529090909090909,0.00259878330230712,-0.038478234100341804,-0.0112621115684513
0.52969696969697,0.012178861427307099,0.0237922737121582,-0.040002345943451305
0.53030303030303,0.117559720802307,0.17707352371215798,0.228239841556549
0.530909090909091,-0.0764368612289429,0.13156815261840799,0.000712986087798724
0.531515151515151,-0.0237464315414429,0.344724890899658,-0.013657131099701299
0.532121212121212,0.131929837989807,0.10761795730590801,0.053403415775298696
0.532727272727273,-0.0884119588851929,0.09564285964965821,0.053403415775298696
0.533333333333333,-0.189002779197693,-0.0217130973815918,0.165969333744049
0.533939393939394,-0.0955970174789429,-0.0193180778503418,-0.013657131099701299
0.534545454545455,0.0912145059585571,0.138753211212158,0.0390332985877987
0.535151515151515,-0.0812269002914429,0.16749344558715798,0.0821436501502987
0.535757575757576,0.160670072364807,0.102827918243408,-0.035212306880951304
0.536363636363636,0.165460111427307,-0.160624230194092,-0.0687425803184513
0.536969696969697,-0.0884119588851929,0.0405574104309082,0.0102930642127987
0.537575757575758,-0.186607759666443,-0.0408732536315918,0.0605884743690487
0.538181818181818,-0.0740418416976929,-0.11032882003784199,0.015083103275298701
0.538787878787879,-0.00219125576019288,0.0190022346496582,-0.0232372092247013
0.539393939393939,0.0049938028335571195,0.054927527618408196,0.0797486306190487
0.54,0.0912145059585571,-0.10553878097534199,0.168364353275299
0.540606060606061,-0.0141663534164429,0.277664344024658,0.0318482399940487
0.541212121212121,-0.0117713338851929,0.23215897293090798,-0.21483877172470098
0.541818181818182,0.146299955177307,-0.170204308319092,-0.0711375998497013
0.542424242424242,-0.0405115682601929,0.0692976448059082,0.25937509546279897
0.543030303030303,0.0864244668960571,0.07648270339965821,0.24021493921279902
0.543636363636364,0.012178861427307099,0.0501374885559082,0.30009042749404896
0.544242424242424,-0.0836219198226929,-0.0241081169128418,0.0653785134315487
0.544848484848485,0.0840294473648071,-0.0552433708190918,-0.035212306880951304
0.545454545454545,-0.143497408103943,-0.0336881950378418,0.113278904056549
0.546060606060606,-0.0692518026351929,0.0213972541809082,0.0342432595252987
0.546666666666667,0.0840294473648071,-0.11751387863159199,-0.0711375998497013
0.547272727272727,-0.0213514120101929,0.00942215652465819,-0.0998778342247013
0.547878787878788,0.028943998146057102,0.09324784011840821,0.14441415796279902
0.548484848484848,0.280421048927307,-0.12230391769409199,-0.0783226584434513
0.549090909090909,0.232520658302307,0.11719803543090801,0.0629834939002987
0.54969696969697,0.172645170021057,-0.0672184684753418,0.35038583765029896
0.55030303030303,0.0433141153335571,0.102827918243408,-0.126223049068451
0.550909090909091,0.00738882236480712,0.0645076057434082,0.142019138431549
0.551515151515152,0.0648692911148071,-0.0696134880065918,-0.0759276389122013
0.552121212121212,-0.0429065877914429,0.27287430496215803,0.0055030251502987204
0.552727272727273,-0.105177095603943,-0.038478234100341804,-0.162148342037201
0.553333333333333,-0.062066744041442905,-0.155834191131592,0.00789804468154872
0.553939393939394,0.0672643106460571,-0.0528483512878418,0.20907968530654902
0.554545454545455,-0.0764368612289429,-0.270795128631592,-0.00886709203720128
0.555151515151515,-0.0117713338851929,-0.100748741912842,0.0366382790565487
0.555757575757576,-0.0668567831039429,0.0333723518371582,-0.10706289281845101
0.556363636363636,0.062474271583557096,-0.09116866378784179,0.0821436501502987
0.556969696969697,0.107979642677307,-0.0408732536315918,-0.123828029537201
0.557575757575758,-0.059671724510192904,-0.13188399581909202,0.048613376712798695
0.558181818181818,0.0337340372085571,-0.0600334098815918,0.225844822025299
0.558787878787879,0.0816344278335571,-0.0193180778503418,-0.00647207250595128
0.559393939393939,-0.030931490135192898,-0.158229210662842,-0.186098537349701
0.56,0.127139798927307,-0.016923058319091803,0.20428964624404902
0.560606060606061,0.0648692911148071,-0.0217130973815918,0.118068943119049
0.561212121212121,-0.0979920370101929,0.0501374885559082,0.00789804468154872
0.561818181818182,0.273235990333557,0.0692976448059082,0.206684665775299
0.562424242424242,0.12234975986480699,-0.09356368331909179,0.106093845462799
0.563030303030303,0.100794584083557,-0.189364464569092,0.153994236087799
0.563636363636364,0.115164701271057,0.0597175666809082,0.24500497827529902
0.564242424242424,0.00259878330230712,0.0405574104309082,0.316855564212799
0.564848484848485,0.0672643106460571,0.00702713699340819,0.019873142337798702
0.565454545454545,0.136719877052307,-0.165414269256592,-0.0735326193809513
0.566060606060606,0.148694974708557,-0.0696134880065918,0.182734470462799
0.566666666666667,0.0840294473648071,0.162703406524658,0.25937509546279897
0.567272727272727,0.194200345802307,0.0381623908996582,0.252190036869049
0.567878787878788,0.028943998146057102,0.28245438308715803,-0.217233791255951
0.568484848484848,0.0169689004898071,-0.100748741912842,-0.236393947505951
0.569090909090909,-0.0644617635726929,-0.103143761444092,0.146809177494049
0.56969696969697,-0.191397798728943,0.17228348464965798,-0.013657131099701299
0.57030303030303,0.0193639200210571,-0.10793380050659199,0.0055030251502987204
0.570909090909091,0.0361290567398071,-0.24684493331909202,0.252190036869049
0.571515151515152,0.012178861427307099,-0.014528038787841799,0.30967050561904896
0.572121212121212,0.062474271583557096,-0.00255294113159181,-0.0112621115684513
0.572727272727273,-0.00698129482269288,-0.08877364425659179,-0.040002345943451305
0.573333333333333,-0.0836219198226929,-0.143859093475342,0.13962411890029902
0.573939393939394,0.026548978614807102,0.07408768386840821,-0.0735326193809513
0.574545454545455,0.0409190958023071,0.141148230743408,0.0797486306190487
0.575151515151515,-0.00219125576019288,-0.143859093475342,0.12285898218154899
0.575757575757576,-0.141102388572693,-0.00734298019409181,0.0031080056190487203
0.576363636363636,-0.11475717372894301,0.138753211212158,0.0629834939002987
0.576969696969697,-0.0884119588851929,0.210603797149658,0.24979501733779902
0.577575757575758,-0.186607759666443,0.016607215118408198,0.0318482399940487
0.578181818181818,-0.107572115135193,0.0118171760559082,-0.0016820334434512801
0.578787878787879,0.110374662208557,-0.0791935661315918,0.156389255619049
0.579393939393939,0.0960045450210571,-0.0624284294128418,0.24021493921279902
0.58,0.0816344278335571,-0.174994347381592,0.048613376712798695
0.580606060606061,0.0361290567398071,-0.12230391769409199,0.113278904056549
0.581212121212121,-0.0668567831039429,0.138753211212158,-0.23399892797470098
0.581818181818182,0.0145738809585571,-0.27798018722534196,0.407866306400299
0.582424242424242,0.07205434970855709,-0.143859093475342,0.297695407962799
0.583030303030303,0.12474477939605699,-0.016923058319091803,-0.123828029537201
0.583636363636364,-0.00219125576019288,0.11480301589965801,0.242609958744049
0.584242424242424,0.0385240762710571,0.00223709793090819,0.09411874780654869
0.584848484848485,0.0337340372085571,-0.036083214569091804,0.19470956811904902
0.585454545454545,-0.0548816854476929,0.229763953399658,0.0701685524940487
0.586060606060606,-0.0860169393539429,0.014212195587158201,-0.0735326193809513
0.586666666666667,-0.0860169393539429,0.0333723518371582,-0.0328172873497013
0.587272727272727,0.0504991739273071,0.12438309402465801,0.0869336892127987
0.587878787878788,-0.0644617635726929,0.09564285964965821,0.0629834939002987
0.588484848484848,0.0361290567398071,0.0453474494934082,0.304880466556549
0.589090909090909,0.136719877052307,-0.09116866378784179,-0.12861806859970099
0.58969696969697,0.0241539590835571,-0.215709679412842,-0.0711375998497013
0.59030303030303,0.0433141153335571,-0.198944542694092,0.0126880837440487
0.590909090909091,0.0960045450210571,0.212998816680908,0.0222681618690487
0.591515151515152,0.15108999423980699,0.150728308868408,0.0845386696815487
0.592121212121212,0.0792394083023071,0.07887772293090821,-0.0016820334434512801
0.592727272727273,0.0504991739273071,0.00223709793090819,0.168364353275299
0.593333333333333,0.0145738809585571,-0.014528038787841799,-0.025632228755951298
0.593939393939394,0.107979642677307,0.0645076057434082,-0.0519774435997013
0.594545454545455,0.0888194864273071,-0.11272383956909199,0.101303806400299
0.595151515151515,-0.11475717372894301,0.155518347930908,0.0222681618690487
0.595757575757576,-0.0213514120101929,0.37107010574340804,-0.162148342037201
0.596363636363636,-0.0285364706039429,0.100432898712158,-0.10706289281845101
0.596969696969697,0.057684232521057095,-0.11511885910034199,0.0797486306190487
0.597575757575758,0.189410306739807,0.07648270339965821,0.156389255619049
0.598181818181818,0.100794584083557,0.07169266433715821,0.19470956811904902
0.598787878787879,0.0385240762710571,-0.0744035270690918,-0.0112621115684513
0.599393939393939,-0.14828744716644301,-0.0767985466003418,0.0174781228065487
0.6,0.0457091348648071,-0.00494796066284181,-0.0471874045372013
0.600606060606061,-0.0285364706039429,0.0597175666809082,0.221054782962799
0.601212121212121,-0.0117713338851929,-0.100748741912842,0.23063486108779901
0.601818181818182,0.134324857521057,-0.09356368331909179,0.18033945093154902
0.602424242424242,0.0337340372085571,0.07408768386840821,0.261770114994049
0.603030303030303,0.170250150489807,0.016607215118408198,0.206684665775299
0.603636363636364,0.12474477939605699,-0.17259932785034202,-0.040002345943451305
0.604242424242424,0.179830228614807,-0.0552433708190918,-0.0543724631309513
0.604848484848485,0.0840294473648071,-0.23726485519409202,-0.0328172873497013
0.605454545454545,0.057684232521057095,-0.22768477706909201,-0.284294338130951
0.606060606060606,0.07684438877105709,0.0621125862121582,-0.0783226584434513
0.606666666666667,-0.0141663534164429,0.11719803543090801,-0.0495824240684513
0.607272727272727,0.0145738809585571,0.193838660430908,0.0318482399940487
0.607878787878788,-0.0524866659164429,-0.028898155975341802,0.20428964624404902
0.608484848484849,-0.018956392478942898,-0.10553878097534199,0.0869336892127987
0.609090909090909,-0.018956392478942898,-0.340250695037842,-0.10706289281845101
0.60969696969697,0.0481041543960571,-0.19175948410034202,-0.370515041255951
0.61030303030303,0.172645170021057,-0.09835372238159179,-0.190888576412201
0.610909090909091,0.146299955177307,-0.163019249725342,0.48929697046279896
0.611515151515152,0.07444936923980709,-0.0624284294128418,0.015083103275298701
0.612121212121212,0.0313390176773071,-0.09595870285034179,-0.0567674826622013
0.612727272727273,-0.11954721279144301,0.00702713699340819,-0.0304222678184513
0.613333333333333,0.062474271583557096,-0.18696944503784202,-0.013657131099701299
0.613939393939394,-0.016561372947692898,0.0118171760559082,0.132439060306549
0.614545454545455,-0.155472505760193,-0.0456632926940918,0.0557984353065487
0.615151515151515,-0.062066744041442905,-0.23247481613159202,0.312065525150299
0.615757575757576,-0.0476966268539429,-0.09356368331909179,-0.0328172873497013
0.616363636363636,0.136719877052307,-0.222894738006592,-0.0711375998497013
0.616969696969697,-0.0548816854476929,0.0573225471496582,0.24979501733779902
0.617575757575758,-0.35425912685394295,0.0381623908996582,0.101303806400299
0.618181818181818,-0.0716468221664429,-0.141464073944092,-0.08071767797470131
0.618787878787879,-0.00458627529144288,-0.134279015350342,0.108488864994049
0.619393939393939,0.0193639200210571,-0.0576383903503418,0.151599216556549
0.62,0.230125638771057,-0.00734298019409181,-0.025632228755951298
0.620606060606061,0.0049938028335571195,-0.11032882003784199,-0.255554103755951
0.621212121212121,-0.0117713338851929,0.00702713699340819,-0.28908437719345104
0.621818181818182,0.100794584083557,-0.141464073944092,-0.040002345943451305
0.622424242424242,-0.0548816854476929,0.07408768386840821,0.106093845462799
0.623030303030303,-0.0500916463851929,-0.028898155975341802,-0.0160521506309513
0.623636363636364,0.06965933017730709,-0.23247481613159202,0.08932870874404869
0.624242424242424,0.055289212989807095,-0.103143761444092,0.048613376712798695
0.624848484848485,-0.0476966268539429,-0.0312931755065918,0.019873142337798702
0.625454545454545,-0.0908069784164429,-0.11511885910034199,0.13004404077529902
0.626060606060606,0.0864244668960571,-0.00255294113159181,0.13483407983779902
0.626666666666667,-0.100387056541443,0.11480301589965801,0.0318482399940487
0.627272727272727,0.026548978614807102,0.0477424690246582,-0.190888576412201
0.627878787878788,0.21096548252105699,0.0692976448059082,0.163574314212799
0.628484848484849,0.131929837989807,-0.0815885856628418,0.0701685524940487
0.629090909090909,0.0960045450210571,0.054927527618408196,0.09890878686904869
0.62969696969697,-0.0500916463851929,-0.09356368331909179,0.0653785134315487
0.63030303030303,-0.00698129482269288,0.030977332305908198,0.0773536110877987
0.630909090909091,0.12234975986480699,0.0237922737121582,0.137229099369049
0.631515151515151,-0.0237464315414429,-0.13188399581909202,0.09651376733779869
0.632121212121212,0.0888194864273071,-0.036083214569091804,0.000712986087798724
0.632727272727273,-0.0429065877914429,-0.0791935661315918,0.18991952905654902
0.633333333333333,0.136719877052307,-0.08398360519409179,0.161179294681549
0.633939393939394,0.273235990333557,-0.11511885910034199,0.0342432595252987
0.634545454545455,-0.0692518026351929,0.030977332305908198,0.019873142337798702
0.635151515151515,-0.129127290916443,0.22736893386840798,-0.037607326412201304
0.635757575757576,-0.033326509666442905,0.08127274246215821,0.0581934548377987
0.636363636363636,0.0361290567398071,-0.0576383903503418,-0.040002345943451305
0.636969696969697,0.0241539590835571,-0.25882003097534195,0.048613376712798695
0.637575757575758,0.112769681739807,-0.028898155975341802,-0.0016820334434512801
0.638181818181818,-0.016561372947692898,0.0669026252746582,-0.171728420162201
0.638787878787879,-0.030931490135192898,-0.239659874725342,-0.044792385005951306
0.639393939393939,-0.009376314353942879,-0.225289757537842,-0.0495824240684513
0.64,-0.035721529197692906,-0.0408732536315918,-0.11424795141220101
0.640606060606061,-0.107572115135193,-0.0648234489440918,-0.138198146724701
0.641212121212121,0.0888194864273071,-0.036083214569091804,0.09411874780654869
0.641818181818182,-0.035721529197692906,0.0118171760559082,0.6928736306190489
0.642424242424242,0.00259878330230712,-0.08877364425659179,0.24979501733779902
0.643030303030303,-0.0884119588851929,-0.16780928878784201,0.0318482399940487
0.643636363636364,0.0193639200210571,-0.0121330192565918,-0.044792385005951306
0.644242424242424,0.239705716896057,0.12198807449340801,0.0725635720252987
0.644848484848485,-0.0237464315414429,0.100432898712158,-0.0759276389122013
0.645454545454546,0.11995474033355699,-0.0121330192565918,-0.0974828146934513
0.646060606060606,-0.0908069784164429,0.0405574104309082,0.019873142337798702
0.646666666666667,0.0193639200210571,0.13156815261840799,0.00789804468154872
0.647272727272727,0.318741361427307,-0.0552433708190918,0.206684665775299
0.647878787878788,0.0241539590835571,0.184258582305908,-0.0184471701622013
0.648484848484848,-0.0812269002914429,-0.0480583122253418,0.0557984353065487
0.649090909090909,-0.0213514120101929,-0.208524620819092,0.09651376733779869
0.64969696969697,-0.0285364706039429,0.129173133087158,0.0557984353065487
0.65030303030303,-0.033326509666442905,0.0357673713684082,0.163574314212799
0.650909090909091,0.0840294473648071,-0.10553878097534199,0.000712986087798724
0.651515151515151,0.117559720802307,0.0692976448059082,-0.025632228755951298
0.652121212121212,0.0241539590835571,0.0645076057434082,0.18512948999404902
0.652727272727273,-0.0141663534164429,-0.00973799972534181,0.0653785134315487
0.653333333333333,-0.121942232322693,-0.014528038787841799,-0.0471874045372013
0.653939393939394,0.0313390176773071,-0.0121330192565918,0.14441415796279902
0.654545454545455,-0.016561372947692898,0.0645076057434082,0.048613376712798695
0.655151515151515,-0.165052583885193,0.22736893386840798,0.0557984353065487
0.655757575757576,0.139114896583557,0.0477424690246582,0.153994236087799
0.656363636363636,0.0792394083023071,-0.0241081169128418,-0.0591625021934513
0.656969696969697,-0.0261414510726929,-0.09835372238159179,-0.08550771703720131
0.657575757575758,0.0217589395523071,-0.0480583122253418,-0.193283595943451
0.658181818181818,-0.215347994041443,0.054927527618408196,-0.16454336156845098
0.658787878787879,-0.100387056541443,-0.0504533317565918,-0.10466787328720101
0.659393939393939,0.127139798927307,-0.0121330192565918,-0.0208421896934513
0.66,0.110374662208557,0.030977332305908198,0.146809177494049
0.660606060606061,0.12234975986480699,-0.261215050506592,0.18033945093154902
0.661212121212121,0.158275052833557,-0.0504533317565918,0.20428964624404902
0.661818181818182,-0.0476966268539429,0.157913367462158,0.00789804468154872
0.662424242424242,-0.121942232322693,-0.201339562225342,-0.10706289281845101
0.663030303030303,-0.0836219198226929,-0.184574425506592,0.0366382790565487
0.663636363636364,-0.0285364706039429,-0.160624230194092,0.051008396244048695
0.664242424242424,0.227730619239807,-0.0504533317565918,0.14441415796279902
0.664848484848485,-0.0500916463851929,0.07887772293090821,0.0366382790565487
0.665454545454545,-0.224928072166443,0.0237922737121582,0.0869336892127987
0.666060606060606,-0.0261414510726929,-0.0193180778503418,0.13004404077529902
0.666666666666667,-0.105177095603943,-0.0576383903503418,-0.11424795141220101
0.667272727272727,-0.062066744041442905,-0.0312931755065918,0.142019138431549
0.667878787878788,-0.0453016073226929,0.030977332305908198,0.127649021244049
0.668484848484848,0.00020376377105711798,-0.0456632926940918,0.09411874780654869
0.669090909090909,0.117559720802307,-0.016923058319091803,0.31925058374404897
0.66969696969697,0.105584623146057,0.11240799636840801,0.0629834939002987
0.67030303030303,-0.145892427635193,0.09324784011840821,-0.336984767818451
0.670909090909091,-0.0429065877914429,0.0501374885559082,-0.36812002172470104
0.671515151515152,0.00020376377105711798,-0.12469893722534199,-0.157358302974701
0.672121212121212,-0.167447603416443,0.0501374885559082,0.0366382790565487
0.672727272727273,0.136719877052307,-0.136674034881592,0.153994236087799
0.673333333333333,-0.035721529197692906,-0.100748741912842,-0.08311269750595131
0.673939393939394,0.026548978614807102,0.07887772293090821,-0.0232372092247013
0.674545454545455,0.301976224708557,-0.158229210662842,0.0701685524940487
0.675151515151515,-0.222533052635193,0.0261872932434082,0.00789804468154872
0.675757575757576,0.0888194864273071,-0.13188399581909202,0.127649021244049
0.676363636363636,0.282816068458557,0.0429524299621582,-0.0663475607872013
0.676969696969697,0.196595365333557,0.0477424690246582,-0.0687425803184513
0.677575757575758,-0.0381165487289429,-0.103143761444092,-0.17891347875595098
0.678181818181818,0.0169689004898071,0.0453474494934082,-0.11664297094345101
0.678787878787879,0.06965933017730709,0.08127274246215821,0.0869336892127987
0.679393939393939,-0.327913912010193,-0.0791935661315918,-0.0615575217247013
0.68,-0.0788318807601929,0.0190022346496582,0.0629834939002987
0.680606060606061,0.115164701271057,0.19144364089965799,0.113278904056549
0.681212121212121,0.0145738809585571,0.09564285964965821,-0.0112621115684513
0.681818181818182,0.07205434970855709,-0.0217130973815918,0.0270582009315487
0.682424242424242,0.148694974708557,-0.19175948410034202,0.146809177494049
0.683030303030303,0.0504991739273071,-0.09835372238159179,-0.0016820334434512801
0.683636363636364,-0.0548816854476929,-0.09356368331909179,-0.035212306880951304
0.684242424242424,-0.00458627529144288,-0.153439171600342,0.23542490015029902
0.684848484848485,0.00738882236480712,0.0237922737121582,0.00789804468154872
0.685454545454545,-0.0476966268539429,0.0405574104309082,0.0845386696815487
0.686060606060606,0.206175443458557,-0.141464073944092,0.223449802494049
0.686666666666667,0.057684232521057095,-0.134279015350342,-0.0519774435997013
0.687272727272727,0.0337340372085571,0.248924109649658,-0.0232372092247013
0.687878787878788,0.0816344278335571,0.17228348464965798,0.0126880837440487
0.688484848484848,0.127139798927307,-0.00255294113159181,-0.09029775609970131
0.689090909090909,-0.0860169393539429,-0.134279015350342,-0.00886709203720128
0.68969696969697,-0.131522310447693,-0.0456632926940918,0.0605884743690487
0.69030303030303,0.07205434970855709,0.08606278152465821,-0.0639525412559513
0.690909090909091,-0.057276704978942904,0.052532508087158196,0.14441415796279902
0.691515151515152,-0.059671724510192904,0.19144364089965799,0.137229099369049
0.692121212121212,0.134324857521057,0.17707352371215798,-0.0495824240684513
0.692727272727273,-0.143497408103943,-0.0193180778503418,0.13483407983779902
0.693333333333333,0.0792394083023071,-0.103143761444092,0.0557984353065487
0.693939393939394,0.27802602939605703,-0.09116866378784179,0.108488864994049
0.694545454545455,-0.0836219198226929,0.11959305496215801,0.0725635720252987
0.695151515151515,-0.018956392478942898,0.0333723518371582,0.0414283181190487
0.695757575757576,-0.0979920370101929,-0.148649132537842,-0.176518459224701
0.696363636363636,-0.0884119588851929,0.133963172149658,-0.0639525412559513
0.696969696969697,-0.0141663534164429,-0.0121330192565918,0.0629834939002987
0.697575757575758,0.0145738809585571,0.00702713699340819,-0.09029775609970131
0.698181818181818,0.0169689004898071,0.016607215118408198,-0.0328172873497013
0.698787878787879,0.148694974708557,-0.136674034881592,-0.0591625021934513
0.699393939393939,-0.200977876853943,0.0237922737121582,-0.040002345943451305
0.7,-0.143497408103943,0.00463211746215819,-0.15496328344345098
0.700606060606061,-0.035721529197692906,-0.014528038787841799,0.0031080056190487203
0.701212121212121,-0.00698129482269288,0.08845780105590821,0.26895517358779897
0.701818181818182,-0.00458627529144288,-0.13188399581909202,0.43900156030654897
0.702424242424242,-0.174632662010193,-0.141464073944092,0.106093845462799
0.703030303030303,-0.0237464315414429,-0.00734298019409181,0.151599216556549
0.703636363636364,0.0193639200210571,-0.0408732536315918,-0.0687425803184513
0.704242424242424,-0.009376314353942879,-0.0432682731628418,0.0246631814002987
0.704848484848485,0.0193639200210571,-0.0408732536315918,-0.0184471701622013
0.705454545454545,-0.0213514120101929,0.18665360183715798,-0.0567674826622013
0.706060606060606,0.110374662208557,0.373465125274658,0.31925058374404897
0.706666666666667,-0.00458627529144288,0.11001297683715801,0.0749585915565487
0.707272727272727,0.107979642677307,-0.12230391769409199,-0.0974828146934513
0.707878787878788,0.201385404396057,0.0453474494934082,-0.00407705297470128
0.708484848484848,-0.030931490135192898,-0.11272383956909199,-0.123828029537201
0.709090909090909,-0.109967134666443,0.0645076057434082,-0.042397365474701305
0.70969696969697,-0.102782076072693,0.09085282058715821,0.228239841556549
0.71030303030303,0.117559720802307,-0.08637862472534179,-0.123828029537201
0.710909090909091,-0.009376314353942879,0.0597175666809082,0.127649021244049
0.711515151515152,0.12234975986480699,-0.0624284294128418,0.0581934548377987
0.712121212121212,0.0337340372085571,-0.10553878097534199,0.09411874780654869
0.712727272727273,-0.0860169393539429,-0.00734298019409181,0.161179294681549
0.713333333333333,0.0193639200210571,0.129173133087158,0.048613376712798695
0.713939393939394,-0.009376314353942879,0.160308386993408,-0.0687425803184513
0.714545454545455,0.12234975986480699,0.153123328399658,0.0126880837440487
0.715151515151515,-0.11475717372894301,0.0213972541809082,0.015083103275298701
0.715757575757576,-0.0908069784164429,-0.129488976287842,-0.044792385005951306
0.716363636363636,0.222940580177307,-0.0744035270690918,-0.0711375998497013
0.716969696969697,0.0672643106460571,0.0381623908996582,-0.121433010005951
0.717575757575758,0.0481041543960571,-0.11511885910034199,0.046218357181548694
0.718181818181818,-0.0524866659164429,-0.148649132537842,-0.24836904516220099
0.718787878787879,0.062474271583557096,0.100432898712158,-0.11664297094345101
0.719393939393939,0.129534818458557,0.07887772293090821,-0.10227285375595101
0.72,0.0385240762710571,-0.0312931755065918,0.17075937280654901
0.720606060606061,-0.145892427635193,0.12438309402465801,0.0294532204627987
0.721212121212121,-0.0429065877914429,0.09564285964965821,0.0366382790565487
0.721818181818182,0.167855130958557,-0.12469893722534199,0.053403415775298696
0.722424242424242,-0.0453016073226929,-0.09835372238159179,-0.17412343969345098
0.723030303030303,-0.0812269002914429,0.00702713699340819,-0.042397365474701305
0.723636363636364,-0.0453016073226929,-0.0312931755065918,-0.176518459224701
0.724242424242424,0.012178861427307099,0.00702713699340819,-0.0495824240684513
0.724848484848485,0.0983995645523071,-0.0528483512878418,0.101303806400299
0.725454545454545,0.0385240762710571,0.193838660430908,0.14441415796279902
0.726060606060606,0.0457091348648071,-0.0767985466003418,0.046218357181548694
0.726666666666667,-0.00458627529144288,-0.24684493331909202,0.000712986087798724
0.727272727272727,-0.062066744041442905,0.0405574104309082,-0.035212306880951304
0.727878787878788,-0.0237464315414429,-0.222894738006592,-0.0567674826622013
0.728484848484849,0.141509916114807,-0.158229210662842,-0.0519774435997013
0.729090909090909,0.07684438877105709,0.00223709793090819,0.0222681618690487
0.72969696969697,-0.0812269002914429,-0.014528038787841799,0.434211521244049
0.73030303030303,0.0912145059585571,0.0429524299621582,0.18991952905654902
0.730909090909091,0.0409190958023071,-0.201339562225342,-0.231603908443451
0.731515151515152,-0.00219125576019288,-0.09116866378784179,0.527617282962799
0.732121212121212,-0.00698129482269288,0.0381623908996582,0.125254001712799
0.732727272727273,0.00738882236480712,-0.014528038787841799,-0.00647207250595128
0.733333333333333,-0.0692518026351929,-0.09116866378784179,0.115673923587799
0.733939393939394,0.026548978614807102,-0.08637862472534179,-0.0016820334434512801
0.734545454545455,0.131929837989807,0.0237922737121582,0.156389255619049
0.735151515151515,-0.0405115682601929,-0.141464073944092,-0.0519774435997013
0.735757575757576,-0.0955970174789429,-0.0193180778503418,0.28093027124404896
0.736363636363636,0.146299955177307,0.07887772293090821,-0.013657131099701299
0.736969696969697,0.0504991739273071,0.160308386993408,-0.08311269750595131
0.737575757575758,-0.36144418544769297,-0.0312931755065918,-0.013657131099701299
0.738181818181818,0.0217589395523071,0.12198807449340801,-0.0591625021934513
0.738787878787879,0.0217589395523071,0.0980378791809082,0.0629834939002987
0.739393939393939,-0.160262544822693,-0.0336881950378418,0.225844822025299
0.74,-0.035721529197692906,-0.0576383903503418,0.115673923587799
0.740606060606061,0.105584623146057,-0.0193180778503418,0.0222681618690487
0.741212121212121,0.0433141153335571,0.0573225471496582,0.218659763431549
0.741818181818182,-0.0836219198226929,-0.0408732536315918,0.051008396244048695
0.742424242424242,-0.112362154197693,0.07169266433715821,0.0869336892127987
0.743030303030303,-0.0237464315414429,0.00702713699340819,0.288115329837799
0.743636363636364,0.12234975986480699,-0.10793380050659199,0.264165134525299
0.744242424242424,-0.0453016073226929,-0.08637862472534179,0.0557984353065487
0.744848484848485,-0.145892427635193,-0.0432682731628418,-0.00647207250595128
0.745454545454545,-0.0548816854476929,0.00463211746215819,0.115673923587799
0.746060606060606,0.00738882236480712,-0.383361046600342,-0.135803127193451
0.746666666666667,-0.102782076072693,-0.26600508956909197,-0.166938381099701
0.747272727272727,0.163065091896057,0.100432898712158,0.146809177494049
0.747878787878788,0.163065091896057,-0.0791935661315918,0.304880466556549
0.748484848484849,0.0049938028335571195,-0.10553878097534199,0.0845386696815487
0.749090909090909,0.170250150489807,0.0573225471496582,0.132439060306549
0.74969696969697,0.0457091348648071,0.016607215118408198,0.0773536110877987
0.75030303030303,-0.129127290916443,-0.0241081169128418,-0.08790273656845131
0.750909090909091,-0.0788318807601929,-0.0767985466003418,-0.0663475607872013
0.751515151515151,0.0792394083023071,-0.198944542694092,0.09890878686904869
0.752121212121212,0.131929837989807,0.0333723518371582,0.0653785134315487
0.752727272727273,0.0504991739273071,-0.0576383903503418,0.0318482399940487
0.753333333333333,0.0936095254898071,-0.12230391769409199,0.08932870874404869
0.753939393939394,-0.00458627529144288,-0.19175948410034202,0.12046396265029899
0.754545454545455,0.062474271583557096,0.016607215118408198,-0.00407705297470128
0.755151515151515,-0.0405115682601929,-0.0121330192565918,-0.0232372092247013
0.755757575757576,0.0983995645523071,-0.11990889816284199,0.182734470462799
0.756363636363636,0.15108999423980699,0.215393836212158,-0.11424795141220101
0.756969696969697,-0.033326509666442905,0.169888465118408,0.132439060306549
0.757575757575758,-0.133917329978943,0.0429524299621582,0.156389255619049
0.758181818181818,-0.0524866659164429,-0.00734298019409181,-0.0519774435997013
0.758787878787879,0.0504991739273071,-0.08877364425659179,0.146809177494049
0.759393939393939,-0.0524866659164429,-0.148649132537842,0.0677735329627987
0.76,0.0840294473648071,-0.014528038787841799,0.053403415775298696
0.760606060606061,0.0361290567398071,0.00942215652465819,0.19949960718154902
0.761212121212121,-0.009376314353942879,0.0501374885559082,0.551567478275299
0.761818181818182,-0.0692518026351929,-0.0456632926940918,-0.18370351781845098
0.762424242424242,-0.141102388572693,-0.198944542694092,-0.519006252193451
0.763030303030303,-0.0476966268539429,0.13156815261840799,0.113278904056549
0.763636363636364,0.0145738809585571,0.18186356277465798,0.0222681618690487
0.764242424242424,0.163065091896057,0.126778113555908,-0.0495824240684513
0.764848484848485,0.127139798927307,-0.028898155975341802,-0.035212306880951304
0.765454545454545,-0.11954721279144301,-0.10793380050659199,0.0222681618690487
0.766060606060606,0.107979642677307,-0.0767985466003418,0.20907968530654902
0.766666666666667,0.0337340372085571,0.08606278152465821,0.252190036869049
0.767272727272727,0.15108999423980699,-0.139069054412842,0.053403415775298696
0.767878787878788,0.218150541114807,-0.00734298019409181,-0.11903799047470101
0.768484848484848,-0.018956392478942898,0.09564285964965821,-0.135803127193451
0.769090909090909,-0.198582857322693,-0.000157921600341806,-0.0112621115684513
0.76969696969697,-0.28240854091644296,0.0645076057434082,0.118068943119049
0.77030303030303,0.012178861427307099,0.102827918243408,0.019873142337798702
0.770909090909091,-0.0979920370101929,-0.0265031364440918,0.0294532204627987
0.771515151515151,-0.181817720603943,-0.09835372238159179,0.000712986087798724
0.772121212121212,0.057684232521057095,0.203418738555908,0.101303806400299
0.772727272727273,0.0528941934585571,0.0333723518371582,0.156389255619049
0.773333333333333,0.0672643106460571,0.0237922737121582,-0.10945791234970101
0.773939393939394,0.0481041543960571,0.0405574104309082,0.118068943119049
0.774545454545455,-0.0979920370101929,0.016607215118408198,0.304880466556549
0.775151515151515,0.00020376377105711798,-0.036083214569091804,0.0869336892127987
0.775757575757576,0.148694974708557,-0.158229210662842,0.0414283181190487
0.776363636363636,-0.0524866659164429,0.0381623908996582,-0.10945791234970101
0.776969696969697,-0.165052583885193,-0.016923058319091803,-0.0735326193809513
0.777575757575758,0.012178861427307099,-0.196549523162842,-0.0519774435997013
0.778181818181818,0.0983995645523071,-0.10793380050659199,-0.24836904516220099
0.778787878787879,-0.141102388572693,-0.00734298019409181,0.053403415775298696
0.779393939393939,0.100794584083557,-0.143859093475342,0.20907968530654902
0.78,0.0145738809585571,-0.0408732536315918,0.182734470462799
0.780606060606061,0.00259878330230712,0.129173133087158,0.14441415796279902
0.781212121212121,0.100794584083557,-0.12469893722534199,0.283325290775299
0.781818181818182,-0.155472505760193,0.126778113555908,0.019873142337798702
0.782424242424242,0.00738882236480712,-0.00973799972534181,0.0174781228065487
0.783030303030303,-0.0381165487289429,-0.143859093475342,0.221054782962799
0.783636363636364,-0.0285364706039429,-0.0265031364440918,-0.0160521506309513
0.784242424242424,-0.035721529197692906,-0.0624284294128418,0.201894626712799
0.784848484848485,-0.0884119588851929,-0.016923058319091803,0.09651376733779869
0.785454545454545,0.153485013771057,-0.136674034881592,-0.190888576412201
0.786060606060606,-0.009376314353942879,-0.0217130973815918,0.09411874780654869
0.786666666666667,0.07684438877105709,-0.0552433708190918,-0.0783226584434513
0.787272727272727,0.062474271583557096,-0.0312931755065918,-0.08550771703720131
0.787878787878788,-0.0405115682601929,-0.0600334098815918,0.0677735329627987
0.788484848484848,0.0864244668960571,-0.165414269256592,0.110883884525299
0.789090909090909,-0.0788318807601929,0.09085282058715821,0.0342432595252987
0.78969696969697,-0.0237464315414429,0.08845780105590821,-0.0495824240684513
0.79030303030303,0.07444936923980709,-0.00255294113159181,-0.08071767797470131
0.790909090909091,0.0313390176773071,-0.0791935661315918,0.326435642337799
0.791515151515152,0.0385240762710571,-0.0504533317565918,0.556357517337799
0.792121212121212,0.191805326271057,0.054927527618408196,0.206684665775299
0.792727272727273,-0.059671724510192904,-0.35701583175659196,-0.0974828146934513
0.793333333333333,-0.0812269002914429,-0.0552433708190918,0.177944431400299
0.793939393939394,0.057684232521057095,0.08127274246215821,0.103698825931549
0.794545454545455,-0.105177095603943,-0.11272383956909199,0.110883884525299
0.795151515151515,-0.131522310447693,-0.208524620819092,0.31925058374404897
0.795757575757576,0.00020376377105711798,-0.289955284881592,-0.025632228755951298
0.796363636363636,-0.0764368612289429,-0.0648234489440918,0.051008396244048695
0.796969696969697,0.055289212989807095,-0.0241081169128418,-0.013657131099701299
0.797575757575758,0.179830228614807,-0.0648234489440918,0.13004404077529902
0.798181818181818,0.0049938028335571195,0.12198807449340801,-0.147778224849701
0.798787878787879,-0.0117713338851929,-0.038478234100341804,-0.0016820334434512801
0.799393939393939,0.0433141153335571,0.0357673713684082,0.09172372827529869
0.8,0.153485013771057,0.0190022346496582,0.0725635720252987
0.800606060606061,0.100794584083557,-0.174994347381592,0.0055030251502987204
0.801212121212121,-0.0117713338851929,0.184258582305908,0.106093845462799
0.801818181818182,-0.057276704978942904,0.054927527618408196,0.118068943119049
0.802424242424242,0.0648692911148071,-0.00255294113159181,-0.0232372092247013
0.803030303030303,0.0816344278335571,0.08366776199340821,0.173154392337799
0.803636363636364,-0.018956392478942898,-0.0217130973815918,0.0845386696815487
0.804242424242424,0.026548978614807102,0.208208777618408,0.110883884525299
0.804848484848485,0.177435209083557,-0.11990889816284199,0.17075937280654901
0.805454545454545,0.028943998146057102,-0.32827559738159195,-0.140593166255951
0.806060606060606,-0.11954721279144301,0.133963172149658,-0.08790273656845131
0.806666666666667,-0.0740418416976929,-0.0432682731628418,0.046218357181548694
0.807272727272727,0.0193639200210571,0.11959305496215801,0.046218357181548694
0.807878787878788,0.0912145059585571,0.0190022346496582,0.25937509546279897
0.808484848484848,0.00978384189605712,0.0645076057434082,0.0366382790565487
0.809090909090909,-0.0716468221664429,0.0573225471496582,0.053403415775298696
0.80969696969697,-0.0285364706039429,-0.11990889816284199,0.0749585915565487
0.81030303030303,-0.102782076072693,0.0692976448059082,0.163574314212799
0.810909090909091,-0.198582857322693,-0.0815885856628418,-0.0543724631309513
0.811515151515152,0.160670072364807,-0.163019249725342,0.103698825931549
0.812121212121212,0.0840294473648071,0.0645076057434082,0.24500497827529902
0.812727272727273,0.0241539590835571,-0.0552433708190918,-0.15496328344345098
0.813333333333333,-0.0476966268539429,-0.158229210662842,0.0605884743690487
0.813939393939394,-0.0453016073226929,0.014212195587158201,0.106093845462799
0.814545454545455,0.0313390176773071,0.0237922737121582,0.17554941186904902
0.815151515151515,0.0361290567398071,-0.11990889816284199,0.0270582009315487
0.815757575757576,-0.0237464315414429,-0.0217130973815918,0.14920419702529902
0.816363636363636,0.028943998146057102,0.138753211212158,0.27853525171279897
0.816969696969697,-0.0740418416976929,-0.0744035270690918,0.18033945093154902
0.817575757575758,0.0409190958023071,-0.17738936691284202,0.0677735329627987
0.818181818181818,0.189410306739807,-0.016923058319091803,0.08932870874404869
0.818787878787879,-0.126732271385193,0.0453474494934082,0.0845386696815487
0.819393939393939,-0.0692518026351929,0.0261872932434082,-0.171728420162201
0.82,0.026548978614807102,0.184258582305908,-0.222023830318451
0.820606060606061,0.0864244668960571,0.00942215652465819,-0.325009670162201
0.821212121212121,-0.009376314353942879,-0.028898155975341802,0.343200779056549
0.821818181818182,0.0672643106460571,0.030977332305908198,0.0821436501502987
0.822424242424242,-0.00698129482269288,0.251319129180908,-0.044792385005951306
0.823030303030303,-0.059671724510192904,0.07887772293090821,0.163574314212799
0.823636363636364,-0.057276704978942904,0.0357673713684082,0.0797486306190487
0.824242424242424,-0.0141663534164429,0.100432898712158,0.0246631814002987
0.824848484848485,0.00020376377105711798,-0.170204308319092,-0.121433010005951
0.825454545454545,-0.179422701072693,0.09324784011840821,0.146809177494049
0.826060606060606,0.0672643106460571,0.10761795730590801,0.0773536110877987
0.826666666666667,0.127139798927307,-0.0504533317565918,0.115673923587799
0.827272727272727,0.0648692911148071,-0.18217940597534202,-0.035212306880951304
0.827878787878788,0.242100736427307,-0.00255294113159181,-0.044792385005951306
0.828484848484848,0.143904935646057,0.169888465118408,-0.138198146724701
0.829090909090909,-0.062066744041442905,0.145938269805908,-0.222023830318451
0.82969696969697,-0.0237464315414429,-0.09835372238159179,0.163574314212799
0.83030303030303,-0.0500916463851929,-0.17259932785034202,0.20428964624404902
0.830909090909091,-0.212952974510193,-0.155834191131592,-0.08311269750595131
0.831515151515152,-0.169842622947693,-0.12230391769409199,-0.123828029537201
0.832121212121212,-0.0405115682601929,0.0261872932434082,0.0246631814002987
0.832727272727273,0.07684438877105709,0.198628699493408,0.09411874780654869
0.833333333333333,-0.0141663534164429,0.102827918243408,0.19470956811904902
0.833939393939394,-0.0429065877914429,-0.0720085075378418,-0.157358302974701
0.834545454545455,0.012178861427307099,-0.0552433708190918,0.0390332985877987
0.835151515151515,-0.059671724510192904,-0.146254113006592,0.0749585915565487
0.835757575757576,-0.14828744716644301,-0.0504533317565918,-0.10945791234970101
0.836363636363636,0.00259878330230712,0.0429524299621582,0.118068943119049
0.836969696969697,0.0361290567398071,0.00463211746215819,0.14441415796279902
0.837575757575758,0.06965933017730709,0.0429524299621582,-0.17891347875595098
0.838181818181818,-0.0429065877914429,0.016607215118408198,0.13004404077529902
0.838787878787879,-0.057276704978942904,-0.218104698944092,0.237819919681549
0.839393939393939,0.07684438877105709,-0.139069054412842,-0.037607326412201304
0.84,-0.062066744041442905,0.0357673713684082,0.09172372827529869
0.840606060606061,-0.00219125576019288,0.0669026252746582,-0.313034572505951
0.841212121212121,0.026548978614807102,-0.0672184684753418,-0.10466787328720101
0.841818181818182,0.107979642677307,-0.0241081169128418,0.0246631814002987
0.842424242424242,0.00978384189605712,-0.00973799972534181,0.0605884743690487
0.843030303030303,-0.105177095603943,-0.0744035270690918,0.0821436501502987
0.843636363636364,0.062474271583557096,0.028582312774658197,0.0222681618690487
0.844242424242424,0.028943998146057102,-0.0767985466003418,-0.08550771703720131
0.844848484848485,-0.0381165487289429,-0.028898155975341802,-0.0471874045372013
0.845454545454545,0.0193639200210571,-0.0504533317565918,-0.0160521506309513
0.846060606060606,-0.0548816854476929,-0.0121330192565918,-0.15017324438095098
0.846666666666667,0.11995474033355699,0.07648270339965821,0.0414283181190487
0.847272727272727,-0.0213514120101929,-0.13188399581909202,0.0031080056190487203
0.847878787878788,0.11995474033355699,-0.10553878097534199,-0.162148342037201
0.848484848484849,0.06965933017730709,-0.0767985466003418,-0.241183986568451
0.849090909090909,-0.033326509666442905,0.0405574104309082,-0.0184471701622013
0.84969696969697,0.0936095254898071,-0.08637862472534179,-0.013657131099701299
0.85030303030303,0.00738882236480712,-0.261215050506592,0.142019138431549
0.850909090909091,-0.0141663534164429,0.07408768386840821,-0.176518459224701
0.851515151515152,-0.0668567831039429,0.10761795730590801,-0.198073635005951
0.852121212121212,0.00259878330230712,-0.0504533317565918,0.24500497827529902
0.852727272727273,-0.0548816854476929,-0.000157921600341806,-0.190888576412201
0.853333333333333,-0.0955970174789429,0.169888465118408,-0.00647207250595128
0.853939393939394,0.057684232521057095,-0.17259932785034202,-0.0184471701622013
0.854545454545454,0.0672643106460571,-0.203734581756592,-0.035212306880951304
0.855151515151515,-0.0213514120101929,-0.0241081169128418,0.168364353275299
0.855757575757576,-0.018956392478942898,-0.304325402069092,-0.10466787328720101
0.856363636363636,0.0145738809585571,0.0573225471496582,-0.0759276389122013
0.856969696969697,-0.0979920370101929,0.18665360183715798,0.13004404077529902
0.857575757575758,-0.030931490135192898,-0.174994347381592,0.0342432595252987
0.858181818181818,0.103189603614807,-0.08637862472534179,0.28093027124404896
0.858787878787879,-0.0908069784164429,-0.19175948410034202,0.0773536110877987
0.859393939393939,0.0409190958023071,-0.13188399581909202,0.000712986087798724
0.86,-0.11715219326019301,0.030977332305908198,0.0318482399940487
0.860606060606061,-0.018956392478942898,-0.0336881950378418,-0.21483877172470098
0.861212121212121,0.0840294473648071,-0.194154503631592,0.09890878686904869
0.861818181818182,0.105584623146057,-0.165414269256592,0.101303806400299
0.862424242424242,0.100794584083557,0.12198807449340801,-0.11664297094345101
0.863030303030303,-0.100387056541443,0.07408768386840821,-0.193283595943451
0.863636363636364,-0.030931490135192898,-0.0648234489440918,0.0869336892127987
0.864242424242424,-0.0908069784164429,-0.08398360519409179,0.019873142337798702
0.864848484848485,0.177435209083557,0.0669026252746582,0.153994236087799
0.865454545454545,-0.00458627529144288,-0.036083214569091804,-0.152568263912201
0.866060606060606,-0.018956392478942898,0.27287430496215803,-0.147778224849701
0.866666666666667,0.00259878330230712,0.189048621368408,0.0414283181190487
0.867272727272727,-0.033326509666442905,-0.00255294113159181,0.106093845462799
0.867878787878788,-0.0548816854476929,0.09324784011840821,0.221054782962799
0.868484848484849,0.00738882236480712,0.105222937774658,0.0390332985877987
0.869090909090909,0.07684438877105709,0.198628699493408,0.218659763431549
0.86969696969697,0.0169689004898071,0.0453474494934082,-0.0495824240684513
0.87030303030303,0.127139798927307,0.014212195587158201,0.0773536110877987
0.870909090909091,0.0528941934585571,0.160308386993408,0.0725635720252987
0.871515151515151,-0.057276704978942904,-0.0193180778503418,0.0629834939002987
0.872121212121212,0.07444936923980709,-0.0576383903503418,0.125254001712799
0.872727272727273,-0.059671724510192904,0.0477424690246582,0.09651376733779869
0.873333333333333,-0.184212740135193,-0.11272383956909199,-0.121433010005951
0.873939393939394,-0.0644617635726929,-0.0600334098815918,-0.042397365474701305
0.874545454545455,0.105584623146057,-0.141464073944092,0.106093845462799
0.875151515151515,0.00020376377105711798,-0.0312931755065918,-0.0639525412559513
0.875757575757576,-0.121942232322693,-0.141464073944092,0.0629834939002987
0.876363636363636,0.0960045450210571,-0.0408732536315918,-0.0663475607872013
0.876969696969697,-0.0740418416976929,-0.12230391769409199,0.0797486306190487
0.877575757575758,0.201385404396057,-0.134279015350342,-0.121433010005951
0.878181818181818,0.172645170021057,0.0692976448059082,-0.26752920141220105
0.878787878787879,-0.0788318807601929,-0.163019249725342,-0.135803127193451
0.879393939393939,0.0457091348648071,-0.234869835662842,0.0342432595252987
0.88,0.290001127052307,-0.0480583122253418,0.46055673608779896
0.880606060606061,0.148694974708557,0.0645076057434082,0.690478611087799
0.881212121212121,-0.018956392478942898,-0.158229210662842,0.33122568140029895
0.881818181818182,0.0816344278335571,0.00463211746215819,0.5755176735877989
0.882424242424242,-0.0979920370101929,0.052532508087158196,0.115673923587799
0.883030303030303,0.0457091348648071,0.0429524299621582,-0.296269435787201
0.883636363636364,-0.030931490135192898,0.0501374885559082,0.13004404077529902
0.884242424242424,0.00020376377105711798,0.00942215652465819,-0.145383205318451
0.884848484848485,0.0481041543960571,0.09324784011840821,-0.037607326412201304
0.885454545454545,0.026548978614807102,-0.134279015350342,0.0581934548377987
0.886060606060606,0.110374662208557,0.18186356277465798,0.0174781228065487
0.886666666666667,-0.162657564353943,0.09324784011840821,0.0773536110877987
0.887272727272727,0.00978384189605712,-0.24684493331909202,0.0366382790565487
0.887878787878788,0.07444936923980709,0.12198807449340801,-0.138198146724701
0.888484848484848,-0.102782076072693,-0.0720085075378418,0.0031080056190487203
0.889090909090909,-0.232113130760193,0.150728308868408,0.0629834939002987
0.88969696969697,0.00259878330230712,-0.0696134880065918,-0.0471874045372013
0.89030303030303,0.057684232521057095,-0.000157921600341806,-0.037607326412201304
0.890909090909091,0.055289212989807095,0.133963172149658,0.0701685524940487
0.891515151515151,-0.0117713338851929,-0.163019249725342,0.053403415775298696
0.892121212121212,0.0337340372085571,-0.0624284294128418,0.053403415775298696
0.892727272727273,-0.0764368612289429,-0.0504533317565918,-0.162148342037201
0.893333333333333,-0.0261414510726929,0.145938269805908,-0.265134181880951
0.893939393939394,0.246890775489807,-0.09116866378784179,0.0773536110877987
0.894545454545455,0.0864244668960571,0.0477424690246582,0.0031080056190487203
0.895151515151515,0.148694974708557,0.17228348464965798,-0.0950877951622013
0.895757575757576,0.0481041543960571,-0.139069054412842,0.106093845462799
0.896363636363636,0.026548978614807102,0.09564285964965821,-0.0519774435997013
0.896969696969697,0.155880033302307,0.00463211746215819,0.0557984353065487
0.897575757575758,-0.0117713338851929,-0.230079796600342,-0.11903799047470101
0.898181818181818,-0.11475717372894301,0.11001297683715801,-0.0112621115684513
0.898787878787879,0.0361290567398071,-0.0648234489440918,0.20907968530654902
0.899393939393939,-0.0668567831039429,0.0190022346496582,-0.00886709203720128
0.9,-0.143497408103943,-0.08398360519409179,0.048613376712798695
0.900606060606061,0.055289212989807095,-0.127093956756592,-0.181308498287201
0.901212121212121,0.0313390176773071,-0.038478234100341804,0.0869336892127987
0.901818181818182,-0.189002779197693,0.00463211746215819,0.0749585915565487
0.902424242424242,-0.00458627529144288,0.155518347930908,0.09411874780654869
0.903030303030303,0.07205434970855709,0.165098426055908,0.137229099369049
0.903636363636364,0.0672643106460571,0.0118171760559082,0.053403415775298696
0.904242424242424,0.026548978614807102,-0.134279015350342,0.0629834939002987
0.904848484848485,-0.062066744041442905,0.09085282058715821,-0.11185293188095101
0.905454545454545,0.055289212989807095,0.028582312774658197,0.0869336892127987
0.906060606060606,-0.0548816854476929,-0.0432682731628418,0.233029880619049
0.906666666666667,0.0193639200210571,0.129173133087158,0.177944431400299
0.907272727272727,-0.030931490135192898,0.09085282058715821,0.0797486306190487
0.907878787878788,-0.0524866659164429,0.00463211746215819,0.09172372827529869
0.908484848484848,0.0840294473648071,0.030977332305908198,0.09411874780654869
0.909090909090909,0.00020376377105711798,0.00223709793090819,0.216264743900299
0.90969696969697,0.012178861427307099,0.054927527618408196,0.0342432595252987
0.91030303030303,-0.062066744041442905,0.189048621368408,-0.157358302974701
0.910909090909091,-0.0884119588851929,0.028582312774658197,0.434211521244049
0.911515151515152,0.143904935646057,0.00223709793090819,0.47013681421279896
0.912121212121212,0.244495755958557,0.12438309402465801,0.173154392337799
0.912727272727273,0.0193639200210571,0.07408768386840821,0.0031080056190487203
0.913333333333333,0.0481041543960571,-0.0504533317565918,0.118068943119049
0.913939393939394,0.163065091896057,0.0333723518371582,0.256980075931549
0.914545454545455,0.0169689004898071,0.054927527618408196,-0.11903799047470101
0.915151515151515,-0.0429065877914429,-0.18696944503784202,-0.10227285375595101
0.915757575757576,-0.059671724510192904,-0.09116866378784179,-0.0232372092247013
0.916363636363636,-0.105177095603943,-0.00973799972534181,0.14920419702529902
0.916969696969697,0.00738882236480712,-0.11990889816284199,-0.0591625021934513
0.917575757575758,0.012178861427307099,0.11719803543090801,-0.198073635005951
0.918181818181818,0.107979642677307,0.205813758087158,0.0869336892127987
0.918787878787879,0.155880033302307,-0.0265031364440918,0.051008396244048695
0.919393939393939,-0.035721529197692906,0.201023719024658,-0.205258693599701
0.92,-0.018956392478942898,-0.000157921600341806,0.0581934548377987
0.920606060606061,-0.107572115135193,-0.196549523162842,0.24979501733779902
0.921212121212121,-0.0812269002914429,-0.00734298019409181,0.019873142337798702
0.921818181818182,0.0361290567398071,0.17228348464965798,0.0773536110877987
0.922424242424242,0.012178861427307099,0.0501374885559082,0.173154392337799
0.923030303030303,0.028943998146057102,-0.0241081169128418,-0.11903799047470101
0.923636363636364,-0.0716468221664429,0.016607215118408198,0.0126880837440487
0.924242424242424,0.110374662208557,0.0573225471496582,0.182734470462799
0.924848484848485,0.0983995645523071,0.08606278152465821,0.08932870874404869
0.925454545454545,-0.109967134666443,0.07887772293090821,0.233029880619049
0.926060606060606,0.155880033302307,0.08366776199340821,0.0677735329627987
0.926666666666667,-0.0453016073226929,0.0213972541809082,0.0773536110877987
0.927272727272727,-0.100387056541443,-0.00494796066284181,-0.0543724631309513
0.927878787878788,0.15108999423980699,0.0597175666809082,0.000712986087798724
0.928484848484848,0.172645170021057,0.165098426055908,0.165969333744049
0.929090909090909,-0.136312349510193,0.0597175666809082,0.053403415775298696
0.92969696969697,-0.11954721279144301,0.0621125862121582,0.09890878686904869
0.93030303030303,0.105584623146057,0.014212195587158201,-0.22441884984970098
0.930909090909091,-0.126732271385193,0.102827918243408,-0.0639525412559513
0.931515151515152,-0.0476966268539429,0.0190022346496582,-0.0735326193809513
0.932121212121212,0.115164701271057,-0.038478234100341804,-0.0208421896934513
0.932727272727273,0.0960045450210571,0.0692976448059082,0.146809177494049
0.933333333333333,0.0409190958023071,-0.0265031364440918,-0.0567674826622013
0.933939393939394,0.155880033302307,-0.11032882003784199,-0.277109279537201
0.934545454545455,0.134324857521057,-0.09835372238159179,0.0629834939002987
0.935151515151515,0.139114896583557,0.0980378791809082,0.18033945093154902
0.935757575757576,0.225335599708557,-0.0696134880065918,0.0677735329627987
0.936363636363636,-0.126732271385193,-0.160624230194092,0.12285898218154899
0.936969696969697,-0.0908069784164429,-0.134279015350342,0.142019138431549
0.937575757575758,0.0193639200210571,0.07648270339965821,0.252190036869049
0.938181818181818,-0.124337251853943,0.138753211212158,-0.12861806859970099
0.938787878787879,0.0409190958023071,-0.10793380050659199,-0.00407705297470128
0.939393939393939,0.12234975986480699,0.0381623908996582,0.0701685524940487
0.94,-0.0692518026351929,0.016607215118408198,-0.341774806880951
0.940606060606061,-0.107572115135193,-0.208524620819092,-0.346564845943451
0.941212121212121,0.0983995645523071,0.0597175666809082,0.30009042749404896
0.941818181818182,0.148694974708557,0.0597175666809082,0.731193943119049
0.942424242424242,-0.009376314353942879,0.00463211746215819,0.09890878686904869
0.943030303030303,-0.105177095603943,-0.0600334098815918,-0.08071767797470131
0.943636363636364,0.110374662208557,-0.143859093475342,0.211474704837799
0.944242424242424,-0.059671724510192904,-0.09835372238159179,-0.166938381099701
0.944848484848485,0.055289212989807095,-0.0696134880065918,0.18033945093154902
0.945454545454545,0.12474477939605699,-0.100748741912842,0.0797486306190487
0.946060606060606,-0.138707369041443,-0.0576383903503418,0.14920419702529902
0.946666666666667,0.131929837989807,-0.00734298019409181,0.283325290775299
