Time (s),Accel X (m/s^2),Accel Y (m/s^2),Accel Z (m/s^2)
0.0,0.222880798244476,0.0648278460502624,-0.07454124069213851
0.000605693519079346,-0.0118311158180237,0.0384826312065124,0.428412860870362
0.00121138703815869,-0.136372131443024,-0.0022327008247375597,0.234416278839112
0.00181708055723804,-0.0285962525367737,0.19415890073776199,-0.14160178756713798
0.00242277407631738,0.0240941771507263,0.07201290464401239,0.15777565383911202
0.00302846759539673,-0.045361389255523694,0.0983581194877624,-0.203872295379638
0.00363416111447607,0.036069274806976304,0.0121374163627624,0.210466083526612
0.00423985463355542,0.103129821681976,-0.0213928570747376,0.200886005401612
0.00484554815263477,0.0240941771507263,0.0145324358940124,0.0715549507141115
0.00545124167171411,0.14624017324447602,0.08159298276901239,0.0116794624328615
0.00605693519079346,0.163005309963226,-0.033367954730987595,-0.00269065475463845
0.0066626287098728,0.0480443724632263,-0.16988406801223802,0.0404196968078615
0.00726832222895215,-0.0980518189430237,-0.145933872699738,-0.112861553192138
0.0078740157480315,-0.0309912720680237,-0.220179478168488,-0.0889113578796385
0.00847970926711084,0.0121190794944763,-0.100428501605988,-0.115256572723388
0.00908540278619019,-0.0166211548805237,0.0696178851127624,-0.0410109672546385
0.00969109630526953,0.014514099025726299,0.055247767925262405,-0.172737041473388
0.0102967898243489,0.038464294338226304,-0.105218540668488,0.200886005401612
0.0109024833434282,0.0887597044944763,-0.09803348207473761,-0.165551982879638
0.0115081768625076,0.258806091213226,-0.126773716449738,0.36374733352661204
0.0121138703815869,-0.0381763306617737,0.016927455425262403,0.727790302276612
0.0127195639006663,-0.17708746347427398,0.07919796323776239,-0.115256572723388
0.0133252574197456,0.00972405996322631,-0.155513950824738,-0.0625661430358885
0.013930950938825,-0.08128668222427371,0.196553920269012,0.10508522415161199
0.0145366444579043,-0.0980518189430237,-0.136353794574738,-0.00987571334838845
0.0151423379769836,-0.11002691659927401,-0.284845005512238,-0.0793312797546385
0.015748031496063,0.0791796263694763,0.136678431987762,0.17214577102661202
0.0163537250151423,0.107919860744476,-0.0022327008247375597,0.124245380401612
0.0169594185342217,-0.0932617798805237,-0.181859165668488,-0.0458010063171385
0.017565112053301,0.0552294310569763,-0.014207798480987601,0.026049579620361498
0.0181708055723804,0.14624017324447602,0.146258510112762,0.248786396026612
0.0187764990914597,-0.019016174411773702,-0.157908970355988,-0.00508567428588845
0.0193821926105391,-0.00943609628677369,-0.0764783062934876,-0.127231670379638
0.0199878861296184,-0.11481695566177401,-0.038157993793487596,0.18172584915161202
0.0205935796486978,0.105524841213226,-0.00702273988723756,0.0284445991516115
0.0211992731677771,0.170190368556976,0.050457728862762403,0.188910907745362
0.0218049666868564,-0.15792730722427398,-0.193834263324738,0.248786396026612
0.0224106602059358,-0.11721197519302401,0.131888392925262,-0.0625661430358885
0.0230163537250151,-0.08607672128677371,0.127098353862762,0.0571848335266115
0.0236220472440945,-0.10763189706802401,-0.09803348207473761,-0.00269065475463845
0.0242277407631738,-0.08368170175552371,-0.105218540668488,-0.163156963348388
0.0248334342822532,-0.145952209568024,-0.0429480328559876,0.126640399932862
0.0254391278013325,-0.160322326755524,-0.016602818012237598,0.313451923370362
0.0260448213204119,-0.00225103769302369,-0.0237878766059876,0.14340553665161201
0.0266505148394912,0.117499938869476,-0.22496951723098801,0.033234638214111496
0.0272562083585706,0.194140563869476,-0.030972935199737598,0.0380246772766115
0.0278619018776499,-0.07170660409927371,-0.105218540668488,-0.213452373504638
0.0284675953967293,-0.050151428318023696,-0.215389439105988,-0.110466533660888
0.0290732889158086,-0.0214111939430237,-0.105218540668488,0.0116794624328615
0.0296789824348879,-0.0956567994117737,-0.155513950824738,-0.239797588348388
0.0302846759539673,-0.0118311158180237,-0.0189978375434876,0.0452097358703615
0.0308903694730466,-0.00225103769302369,0.0121374163627624,0.0547898139953615
0.031496062992126,0.014514099025726299,0.0480627093315124,0.0140744819641115
0.0321017565112053,-0.0645215455055237,-0.0213928570747376,-0.139206768035888
0.0327074500302847,0.316286559963226,0.0600378069877624,0.0547898139953615
0.033313143549364,0.18216546621322602,0.050457728862762403,-0.0889113578796385
0.0339188370684434,-0.189062561130524,0.0217174944877624,-0.29488303756713796
0.0345245305875227,0.0648095091819763,-0.014207798480987601,0.0715549507141115
0.0351302241066021,0.117499938869476,0.0217174944877624,-0.0434059867858885
0.0357359176256814,0.036069274806976304,-0.0716882672309876,-0.0673561820983885
0.0363416111447607,0.0911547240257263,0.0265075335502624,0.0835300483703615
0.0369473046638401,-0.014226135349273701,-0.028577915668487597,0.0835300483703615
0.0375529981829194,-0.0333862915992737,-0.129168735980988,-0.07454124069213851
0.0381586917019988,0.0695995482444763,0.0648278460502624,0.10269020462036199
0.0387643852210781,0.0121190794944763,-0.145933872699738,-0.163156963348388
0.0393700787401575,0.129475036525726,-0.150723911762238,0.160170673370362
0.0399757722592368,0.117499938869476,0.10314815855026199,0.14340553665161201
0.0405814657783162,0.0695995482444763,-0.0477380719184876,-0.227822490692138
0.0411871592973955,0.0576244505882263,-0.014207798480987601,0.0691599311828615
0.0417928528164749,0.0216991576194763,-0.0022327008247375597,-0.381103740692138
0.0423985463355542,-0.0238062134742737,0.0672228655815124,-0.019455791473388502
0.0430042398546336,-0.18666754159927398,-0.220179478168488,0.34458717727661203
0.0436099333737129,-0.0285962525367737,-0.09084842348098761,-0.148786846160888
0.0442156268927922,0.179770446681976,-0.016602818012237598,-0.0266408500671385
0.0448213204118716,-0.155532287693024,-0.0429480328559876,-0.0769362602233885
0.0454270139309509,-0.119606994724274,0.028902553081512402,0.14819557571411202
0.0460327074500303,0.105524841213226,-0.0549231305122376,-0.0505910453796385
0.0466384009691096,0.143845153713226,-0.08845340394973761,-0.0625661430358885
0.047244094488189,0.129475036525726,-0.08845340394973761,0.0811350288391115
0.0478497880072683,-0.25372808847427397,0.00255733823776244,-0.275722881317138
0.0484554815263477,-0.050151428318023696,0.055247767925262405,-0.0889113578796385
0.049061175045427,0.0480443724632263,0.167813685894012,0.337402118682862
0.0496668685645064,-0.244148010349274,0.10314815855026199,0.15777565383911202
0.0502725620835857,0.112709899806976,0.009742396831512441,-0.139206768035888
0.050878255602665,0.0169091185569763,0.00495235776901244,0.121850360870362
0.0514839491217444,0.09354974355697629,-0.016602818012237598,0.0476047554016115
0.0520896426408237,0.359396911525726,-0.117193638324738,0.10748024368286199
0.0526953361599031,0.043254333400726305,0.0456676898002624,-0.239797588348388
0.0533010296789824,-0.0597315064430237,-0.0764783062934876,0.0308396186828615
0.0539067231980618,-0.00225103769302369,-0.028577915668487597,0.141010517120362
0.0545124167171411,0.09594476308822629,0.0408776507377624,-0.179922100067138
0.0551181102362205,0.165400329494476,-0.00702273988723756,0.059579853057861495
0.0557238037552998,0.0025390013694763097,0.0384826312065124,0.188910907745362
0.0563294972743792,0.0216991576194763,-0.0836633648872376,0.023654560089111498
0.0569351907934585,-0.00225103769302369,0.08877804136276239,-0.0553810844421385
0.0575408843125379,0.15103021230697602,0.0624328265190124,0.0763449897766115
0.0581465778316172,0.139055114650726,-0.09803348207473761,-0.0146657524108885
0.0587522713506965,-0.0908667603492737,-0.0453430523872376,0.0140744819641115
0.0593579648697759,0.189350524806976,-0.232154575824738,-0.060171123504638505
0.0599636583888552,0.0887597044944763,-0.014207798480987601,0.20328102493286201
0.0605693519079346,0.00972405996322631,0.146258510112762,0.169750751495362
0.0611750454270139,-0.00225103769302369,0.07201290464401239,0.023654560089111498
0.0617807389460933,0.038464294338226304,0.10075313901901199,-0.170342021942138
0.0623864324651726,0.0552294310569763,-0.0549231305122376,-0.172737041473388
0.062992125984252,0.043254333400726305,0.12949337339401198,0.10029518508911199
0.0635978195033313,-0.0285962525367737,0.0384826312065124,0.0499997749328615
0.0642035130224107,0.100734802150726,-0.026182896137237597,-0.0410109672546385
0.06480920654149,0.184560485744476,0.0600378069877624,-0.0793312797546385
0.0654149000605694,0.014514099025726299,-0.112403599262238,-0.153576885223388
0.0660205935796487,0.265991149806976,-0.004627720355987561,-0.0362209281921385
0.066626287098728,0.0839696654319763,0.163023646831512,-0.15118186569213798
0.0672319806178074,-0.0645215455055237,0.07201290464401239,0.10748024368286199
0.0678376741368867,-0.11002691659927401,0.0648278460502624,-0.0242458305358885
0.0684433676559661,-0.203432678318024,-0.0453430523872376,-0.170342021942138
0.0690490611750454,-0.0166211548805237,-0.117193638324738,-0.0481960258483885
0.0696547546941248,-0.0645215455055237,0.0336925921440124,-0.165551982879638
0.0702604482132041,0.0815746459007263,0.0217174944877624,-0.0625661430358885
0.0708661417322835,0.139055114650726,0.179788783550262,-0.220637432098388
0.0714718352513628,-0.0381763306617737,0.127098353862762,0.428412860870362
0.0720775287704422,-0.0166211548805237,0.00255733823776244,0.663124774932862
0.0726832222895215,0.287546325588226,-0.0716882672309876,0.141010517120362
0.0732889158086008,0.170190368556976,0.0241125140190124,-0.0913063774108885
0.0738946093276802,-0.042966369724273694,-0.107613560199738,-0.0913063774108885
0.0745003028467595,-0.0693115845680237,-0.155513950824738,-0.0913063774108885
0.0751059963658389,0.038464294338226304,0.000162318706512438,0.234416278839112
0.0757116898849182,0.103129821681976,-0.035762974262237596,0.193700946807862
0.0763173834039976,0.0815746459007263,0.0360876116752624,0.17693581008911202
0.0769230769230769,0.014514099025726299,0.0336925921440124,0.0883200874328615
0.0775287704421563,-0.143557190036774,-0.102823521137238,-0.0553810844421385
0.0781344639612356,-0.0238062134742737,-0.100428501605988,0.0859250679016115
0.078740157480315,0.0648095091819763,0.0696178851127624,-0.00987571334838845
0.0793458509993943,0.0719945677757263,0.055247767925262405,0.16735573196411202
0.0799515445184737,-0.00225103769302369,-0.0716882672309876,-0.0865163383483885
0.080557238037553,0.105524841213226,-0.0189978375434876,-0.0146657524108885
0.0811629315566323,-0.102841858005524,-0.0764783062934876,0.229626239776612
0.0817686250757117,-0.0980518189430237,-0.105218540668488,0.00928444290161155
0.082374318594791,-0.07889166269302371,0.174998744487762,0.021259540557861497
0.0829800121138704,0.170190368556976,0.00495235776901244,-0.000295635223388454
0.0835857056329497,0.0911547240257263,-0.0836633648872376,-0.0625661430358885
0.0841913991520291,-0.193852600193024,0.0456676898002624,-0.0984914360046385
0.0847970926711084,0.000143981838226313,0.0241125140190124,-0.18710715866088798
0.0854027861901878,-0.0549414673805237,0.0265075335502624,0.210466083526612
0.0860084797092671,0.14145013418197602,0.07201290464401239,0.188910907745362
0.0866141732283465,-0.0597315064430237,-0.17467410707473802,0.0356296577453615
0.0872198667474258,-0.150742248630524,-0.143538853168488,-0.0865163383483885
0.0878255602665051,-0.224987854099274,-0.0525281109809876,-0.0170607719421385
0.0884312537855845,-0.138767150974274,0.10075313901901199,0.0380246772766115
0.0890369473046638,0.0288842162132263,0.146258510112762,-0.0434059867858885
0.0896426408237432,-0.0285962525367737,0.115123256206512,0.0356296577453615
0.0902483343428225,-0.0333862915992737,-0.0118127789497376,-0.0865163383483885
0.0908540278619019,-0.122002014255524,-0.368670689105988,-0.07214622116088851
0.0914597213809812,-0.0405713501930237,0.0336925921440124,-0.127231670379638
0.0920654149000606,-0.11721197519302401,0.10075313901901199,-0.0553810844421385
0.0926711084191399,0.0025390013694763097,-0.0597131695747376,0.00928444290161155
0.0932768019382193,0.179770446681976,0.0959630999565124,0.191305927276612
0.0938824954572986,-0.155532287693024,0.09356808042526239,-0.0362209281921385
0.094488188976378,-0.0956567994117737,-0.028577915668487597,-0.108071514129638
0.0950938824954573,0.00972405996322631,-0.035762974262237596,0.0787400093078615
0.0956995760145366,0.107919860744476,0.09356808042526239,0.0883200874328615
0.096305269533616,-0.00225103769302369,0.0145324358940124,-0.021850811004638503
0.0969109630526953,0.004934020900726309,-0.0213928570747376,0.188910907745362
0.0975166565717747,0.134265075588226,0.0360876116752624,0.023654560089111498
0.098122350090854,-0.100446838474274,-0.150723911762238,-0.0673561820983885
0.0987280436099334,-0.18666754159927398,-0.114798618793488,0.0499997749328615
0.0993337371290127,-0.11721197519302401,-0.117193638324738,-0.232612529754638
0.0999394306480921,0.287546325588226,0.07680294370651239,-0.0841213188171385
0.100545124167171,0.0576244505882263,-0.08845340394973761,-0.342783428192138
0.101150817686251,-0.0357813111305237,-0.203414341449738,-0.110466533660888
0.10175651120533,-0.15313726816177398,0.0576427874565124,-0.00987571334838845
0.102362204724409,-0.119606994724274,-0.0525281109809876,-0.000295635223388454
0.102967898243489,0.0480443724632263,-0.0573181500434876,0.24160133743286202
0.103573591762568,-0.143557190036774,0.08398800230026239,-0.0242458305358885
0.104179285281647,0.043254333400726305,-0.0118127789497376,0.16735573196411202
0.104784978800727,-0.0381763306617737,-0.0621081891059876,0.138615497589112
0.105390672319806,0.00732904043197631,-0.131563755512238,0.114665302276612
0.105996365838886,0.16779534902572601,-0.117193638324738,0.164960712432862
0.106602059357965,0.0240941771507263,0.0432726702690124,-0.19668723678588798
0.107207752877044,0.16779534902572601,-0.0405530133247376,-0.0984914360046385
0.107813446396124,0.148635192775726,-0.0621081891059876,0.117060321807862
0.108419139915203,-0.0645215455055237,0.110333217144012,-0.0505910453796385
0.109024833434282,0.0025390013694763097,0.0624328265190124,-0.163156963348388
0.109630526953362,0.0025390013694763097,-0.0645032086372376,-0.0769362602233885
0.110236220472441,-0.15792730722427398,-0.105218540668488,0.136220478057862
0.11084191399152,-0.0381763306617737,-0.08845340394973761,0.026049579620361498
0.1114476075106,-0.0285962525367737,0.12949337339401198,-0.0242458305358885
0.112053301029679,-0.14834722909927398,-0.0525281109809876,0.0547898139953615
0.112658994548758,0.014514099025726299,-0.0213928570747376,-0.0673561820983885
0.113264688067838,0.163005309963226,0.172603724956512,-0.153576885223388
0.113870381586917,0.0504393919944763,-0.117193638324738,-0.139206768035888
0.114476075105996,-0.0214111939430237,-0.205809360980988,0.0667649116516115
0.115081768625076,0.299521423244476,-0.0213928570747376,0.061974872589111496
0.115687462144155,0.25401605215072603,-0.124378696918488,0.0523947944641115
0.116293155663234,-0.0549414673805237,0.00495235776901244,0.0476047554016115
0.116898849182314,-0.07170660409927371,-0.0022327008247375597,-0.00508567428588845
0.117504542701393,-0.0621265259742737,-0.193834263324738,0.121850360870362
0.118110236220472,-0.102841858005524,0.016927455425262403,-0.13202170944213798
0.118715929739552,-0.15313726816177398,0.136678431987762,-0.0960964164733885
0.119321623258631,-0.0166211548805237,0.0312975726127624,0.17214577102661202
0.11992731677771,0.0480443724632263,0.07919796323776239,-0.00987571334838845
0.12053301029679,0.004934020900726309,0.0360876116752624,-0.0673561820983885
0.121138703815869,-0.0669165650367737,-0.09324344301223761,-0.0386159477233885
0.121744397334949,-0.08607672128677371,0.174998744487762,0.21286110305786202
0.122350090854028,-0.141162170505524,0.0959630999565124,0.119455341339112
0.122955784373107,0.043254333400726305,0.0480627093315124,0.0715549507141115
0.123561477892187,-0.014226135349273701,0.170208705425262,0.0691599311828615
0.124167171411266,-0.133977111911774,-0.153118931293488,0.0476047554016115
0.124772864930345,0.0719945677757263,-0.148328892230988,0.22244118118286202
0.125378558449425,-0.0118311158180237,-0.0716882672309876,-0.24698264694213798
0.125984251968504,0.0121190794944763,-0.100428501605988,-0.0529860649108885
0.126589945487583,0.0193041380882263,0.227689174175262,0.198490985870362
0.127195639006663,-0.00943609628677369,0.12949337339401198,-0.019455791473388502
0.127801332525742,-0.136372131443024,0.18457882261276198,-0.00748069381713845
0.128407026044821,-0.0621265259742737,0.0217174944877624,0.131430438995362
0.129012719563901,0.0672045287132263,-0.026182896137237597,-0.00508567428588845
0.12961841308298,-0.0549414673805237,-0.143538853168488,0.14340553665161201
0.130224106602059,0.038464294338226304,-0.08605838441848761,-0.060171123504638505
0.130829800121139,0.0767846068382263,0.0456676898002624,-0.00987571334838845
0.131435493640218,0.189350524806976,0.10314815855026199,0.0452097358703615
0.132041187159297,0.0791796263694763,0.08877804136276239,0.493078388214112
0.132646880678377,-0.0166211548805237,-0.0836633648872376,0.258366474151612
0.133252574197456,0.105524841213226,-0.102823521137238,-0.462534404754638
0.133858267716535,-0.136372131443024,-0.033367954730987595,-0.00748069381713845
0.134463961235615,-0.13158209238052399,0.009742396831512441,0.145800556182862
0.135069654754694,0.18216546621322602,-0.0764783062934876,0.0763449897766115
0.135675348273773,0.19653558340072602,0.050457728862762403,-0.158366924285888
0.136281041792853,0.0624144896507263,0.055247767925262405,0.0571848335266115
0.136886735311932,-0.0285962525367737,0.07440792417526239,0.023654560089111498
0.137492428831012,-0.0573364869117737,0.117518275737762,-0.14639182662963798
0.138098122350091,0.040859313869476305,-0.0477380719184876,0.0140744819641115
0.13870381586917,-0.0693115845680237,0.179788783550262,0.119455341339112
0.13930950938825,-0.0285962525367737,0.07201290464401239,0.0931101264953615
0.139915202907329,-0.0238062134742737,-0.0477380719184876,0.179330829620362
0.140520896426408,-0.11721197519302401,0.009742396831512441,0.155380634307862
0.141126589945488,0.19653558340072602,-0.0525281109809876,0.114665302276612
0.141732283464567,0.301916442775726,0.115123256206512,-0.208662334442138
0.142337976983646,0.0480443724632263,-0.227364536762238,-0.225427471160888
0.142943670502726,0.038464294338226304,-0.0501330914497376,0.0571848335266115
0.143549364021805,0.13666009511947602,-0.09084842348098761,0.10269020462036199
0.144155057540884,0.0025390013694763097,-0.028577915668487597,0.026049579620361498
0.144760751059964,-0.07889166269302371,-0.0022327008247375597,0.0188645210266115
0.145366444579043,-0.0932617798805237,-0.08845340394973761,0.0811350288391115
0.145972138098122,-0.150742248630524,-0.0189978375434876,-0.0505910453796385
0.146577831617202,-0.07649664316177371,-0.0453430523872376,0.129035419464112
0.147183525136281,-0.047756408786773695,0.0312975726127624,0.0188645210266115
0.14778921865536,-0.045361389255523694,-0.0764783062934876,0.10508522415161199
0.14839491217444,0.0672045287132263,-0.038157993793487596,0.0356296577453615
0.149000605693519,-0.122002014255524,0.0265075335502624,0.0380246772766115
0.149606299212598,-0.129187072849274,-0.212994419574738,0.205676044464112
0.150211992731678,0.0216991576194763,-0.0501330914497376,0.0907151069641115
0.150817686250757,0.043254333400726305,0.07919796323776239,0.121850360870362
0.151423379769836,-0.251333068943024,0.0480627093315124,0.0116794624328615
0.152029073288916,0.038464294338226304,-0.00941775941848756,-0.0362209281921385
0.152634766807995,0.0552294310569763,0.177393764019012,0.0979001655578615
0.153240460327075,-0.23696295175552398,0.10554317808151199,0.0859250679016115
0.153846153846154,-0.00704107675552369,-0.0716882672309876,-0.0529860649108885
0.154451847365233,0.0528344115257263,0.277984584331512,-0.0146657524108885
0.155057540884313,-0.0884717408180237,0.08398800230026239,-0.13202170944213798
0.155663234403392,-0.165112365818024,-0.160303989887238,0.00449440383911155
0.156268927922471,0.000143981838226313,0.0408776507377624,0.263156513214112
0.156874621441551,0.184560485744476,0.313909877300262,0.131430438995362
0.15748031496063,0.09354974355697629,-0.112403599262238,-0.129626689910888
0.158086008479709,-0.00464605722427369,-0.028577915668487597,-0.00987571334838845
0.158691701998789,0.0743895873069763,0.143863490581512,0.191305927276612
0.159297395517868,-0.0908667603492737,-0.119588657855988,0.112270282745362
0.159903089036947,0.100734802150726,0.08159298276901239,0.188910907745362
0.160508782556027,0.0480443724632263,0.0121374163627624,0.10269020462036199
0.161114476075106,-0.0645215455055237,-0.00941775941848756,-0.223032451629638
0.161720169594185,0.000143981838226313,0.016927455425262403,-0.115256572723388
0.162325863113265,0.0025390013694763097,-0.0237878766059876,-0.00987571334838845
0.162931556632344,-0.100446838474274,-0.0405530133247376,-0.0458010063171385
0.163537250151423,-0.08607672128677371,-0.09563846254348761,0.17214577102661202
0.164142943670503,-0.210617736911774,0.270799525737762,0.0907151069641115
0.164748637189582,-0.136372131443024,0.0648278460502624,0.0571848335266115
0.165354330708661,-0.244148010349274,0.227689174175262,-0.0314308891296385
0.165960024227741,-0.196247619724274,0.08398800230026239,-0.0505910453796385
0.16656571774682,-0.047756408786773695,-0.332745396137238,-0.108071514129638
0.167171411265899,-0.0908667603492737,0.24924434995651198,-0.0697512016296385
0.167777104784979,0.0528344115257263,0.196553920269012,0.0859250679016115
0.168382798304058,-0.0549414673805237,-0.0213928570747376,-0.07454124069213851
0.168988491823137,-0.251333068943024,-0.112403599262238,0.0571848335266115
0.169594185342217,-0.277678283786774,-0.0836633648872376,0.0452097358703615
0.170199878861296,-0.203432678318024,-0.102823521137238,-0.0242458305358885
0.170805572380376,-0.0262012330055237,-0.0573181500434876,-0.167947002410888
0.171411265899455,-0.160322326755524,0.09356808042526239,0.0859250679016115
0.172016959418534,-0.330368713474274,-0.0764783062934876,0.21765114212036202
0.172622652937614,-0.23696295175552398,-0.119588657855988,-0.0505910453796385
0.173228346456693,-0.277678283786774,0.18457882261276198,-0.0266408500671385
0.173834039975772,-0.239357971286774,-0.0453430523872376,-0.000295635223388454
0.174439733494852,-0.378269104099274,-0.117193638324738,0.10508522415161199
0.175045427013931,-0.248938049411774,0.19415890073776199,0.033234638214111496
0.17565112053301,-0.280073303318024,0.0265075335502624,0.00449440383911155
0.17625681405209,-0.224987854099274,0.0600378069877624,0.17214577102661202
0.176862507571169,-0.478859924411774,-0.0189978375434876,0.0571848335266115
0.177468201090248,-0.29444342050552397,0.115123256206512,-0.0458010063171385
0.178073894609328,-0.30402349863052397,0.0576427874565124,0.124245380401612
0.178679588128407,-0.320788635349274,-0.131563755512238,0.0859250679016115
0.179285281647486,-0.174692443943024,0.0312975726127624,-0.17752708053588798
0.179890975166566,-0.35431890878677397,0.18457882261276198,0.0476047554016115
0.180496668685645,-0.15313726816177398,0.115123256206512,-0.105676494598388
0.181102362204724,-0.0621265259742737,-0.124378696918488,0.0116794624328615
0.181708055723804,-0.30402349863052397,0.0384826312065124,-0.0122707328796385
0.182313749242883,-0.299233459568024,-0.0716882672309876,-0.0769362602233885
0.182919442761962,-0.24654302988052398,-0.0549231305122376,0.033234638214111496
0.183525136281042,-0.270493225193024,-0.100428501605988,-0.108071514129638
0.184130829800121,-0.15313726816177398,-0.126773716449738,0.18172584915161202
0.1847365233192,-0.447724670505524,-0.222574497699738,0.0859250679016115
0.18534221683828,-0.234567932224274,-0.112403599262238,0.0476047554016115
0.185947910357359,-0.289653381443024,0.050457728862762403,0.150590595245362
0.186553603876439,-0.126792053318024,-0.138748814105988,0.114665302276612
0.187159297395518,-0.351923889255524,0.07201290464401239,-0.0505910453796385
0.187764990914597,-0.392639221286774,-0.014207798480987601,-0.163156963348388
0.188370684433677,-0.28486334238052397,0.0432726702690124,0.0380246772766115
0.188976377952756,-0.505205139255524,-0.110008579730988,-0.0553810844421385
0.189582071471835,-0.457304748630524,-0.09563846254348761,-0.230217510223388
0.190187764990915,-0.308813537693024,0.0193224749565124,0.521818622589112
0.190793458509994,-0.375874084568024,-0.162699009418488,0.327822040557862
0.191399152029073,-0.296838440036774,0.0073473773002624395,-0.00269065475463845
0.192004845548153,-0.18187750253677398,0.325884974956512,0.627199481964112
0.192610539067232,-0.337553772068024,0.00495235776901244,-0.0481960258483885
0.193216232586311,-0.34473883066177397,-0.256104771137238,-0.120046611785888
0.193821926105391,-0.239357971286774,0.18457882261276198,0.15298561477661202
0.19442761962447,-0.311208557224274,0.0672228655815124,-0.0434059867858885
0.195033313143549,-0.5123901978492741,-0.205809360980988,0.023654560089111498
0.195639006662629,-0.14834722909927398,-0.236944614887238,-0.0793312797546385
0.196244700181708,-0.428564514255524,-0.033367954730987595,0.136220478057862
0.196850393700787,-0.430959533786774,-0.114798618793488,0.169750751495362
0.197456087219867,-0.258518127536774,-0.0477380719184876,0.14819557571411202
0.198061780738946,-0.5578955689430241,0.000162318706512438,0.287106708526612
0.198667474258025,-0.387849182224274,0.000162318706512438,0.10269020462036199
0.199273167777105,-0.20822271738052398,0.146258510112762,0.059579853057861495
0.199878861296184,-0.17229742441177398,0.09356808042526239,0.0428147163391115
0.200484554815263,-0.387849182224274,-0.08605838441848761,0.10987526321411199
0.201090248334343,-0.287258361911774,-0.157908970355988,0.0428147163391115
0.201695941853422,-0.380664123630524,0.165418666362762,0.0883200874328615
0.202301635372502,-0.407009338474274,0.208529017925262,0.0356296577453615
0.202907328891581,-0.263308166599274,0.052852748394012404,-0.13202170944213798
0.20351302241066,-0.224987854099274,0.0217174944877624,0.117060321807862
0.20411871592974,-0.0238062134742737,0.0073473773002624395,0.129035419464112
0.204724409448819,-0.17229742441177398,0.0959630999565124,-0.0266408500671385
0.205330102967898,-0.24175299081802398,-0.121983677387238,-0.170342021942138
0.205935796486978,-0.0932617798805237,0.0384826312065124,-0.105676494598388
0.206541490006057,0.0887597044944763,0.07680294370651239,-0.0817262992858885
0.207147183525136,0.000143981838226313,-0.201019321918488,-0.0984914360046385
0.207752877044216,-0.08607672128677371,0.237269252300262,0.026049579620361498
0.208358570563295,-0.165112365818024,-0.0716882672309876,-0.057776103973388504
0.208964264082374,-0.179482483005524,0.139073451519012,-0.0697512016296385
0.209569957601454,-0.045361389255523694,0.119913295269012,0.141010517120362
0.210175651120533,-0.22738287363052398,-0.141143833637238,0.0452097358703615
0.210781344639612,-0.18187750253677398,0.117518275737762,0.0308396186828615
0.211387038158692,-0.0309912720680237,0.0336925921440124,-0.117651592254638
0.211992731677771,-0.100446838474274,0.0456676898002624,0.0523947944641115
0.21259842519685,0.0719945677757263,0.0480627093315124,0.16256569290161202
0.21320411871593,0.0336742552757263,0.136678431987762,0.0883200874328615
0.213809812235009,0.0719945677757263,0.179788783550262,0.14819557571411202
0.214415505754088,-0.15792730722427398,0.115123256206512,-0.0410109672546385
0.215021199273168,-0.014226135349273701,0.0576427874565124,-0.0362209281921385
0.215626892792247,0.18216546621322602,-0.09563846254348761,0.119455341339112
0.216232586311326,0.0480443724632263,0.10075313901901199,-0.0529860649108885
0.216838279830406,0.0025390013694763097,-0.124378696918488,-0.0841213188171385
0.217443973349485,-0.100446838474274,-0.133958775043488,-0.0625661430358885
0.218049666868565,0.0839696654319763,0.08877804136276239,0.138615497589112
0.218655360387644,-0.0645215455055237,-0.0716882672309876,0.22723122024536202
0.219261053906723,-0.169902404880524,-0.110008579730988,0.188910907745362
0.219866747425803,-0.042966369724273694,-0.0405530133247376,-0.0673561820983885
0.220472440944882,-0.00464605722427369,0.09356808042526239,-0.208662334442138
0.221078134463961,-0.019016174411773702,-0.315980259418488,-0.179922100067138
0.221683827983041,0.014514099025726299,-0.241734653949738,0.28471168899536203
0.22228952150212,-0.0405713501930237,0.016927455425262403,0.126640399932862
0.222895215021199,-0.047756408786773695,0.0241125140190124,-0.115256572723388
0.223500908540279,0.160610290431976,0.0408776507377624,0.0811350288391115
0.224106602059358,0.040859313869476305,-0.004627720355987561,-0.165551982879638
0.224712295578437,-0.0693115845680237,-0.0213928570747376,0.0931101264953615
0.225317989097517,-0.0956567994117737,0.0360876116752624,0.0428147163391115
0.225923682616596,-0.0214111939430237,0.0312975726127624,0.145800556182862
0.226529376135675,-0.07170660409927371,0.10314815855026199,0.164960712432862
0.227135069654755,0.0863646849632263,0.112728236675262,0.0164695014953615
0.227740763173834,0.203720641994476,0.107938197612762,0.141010517120362
0.228346456692913,0.0121190794944763,-0.22975955629348802,-0.112861553192138
0.228952150211993,0.09833978261947629,-0.172279087543488,-0.0434059867858885
0.229557843731072,0.014514099025726299,0.208529017925262,0.224836200714112
0.230163537250151,0.014514099025726299,-0.131563755512238,-0.0122707328796385
0.230769230769231,0.038464294338226304,-0.0812683453559876,0.023654560089111498
0.23137492428831,0.0240941771507263,0.24924434995651198,0.20328102493286201
0.231980617807389,0.0911547240257263,0.10314815855026199,0.0907151069641115
0.232586311326469,0.0887597044944763,0.009742396831512441,0.0667649116516115
0.233192004845548,-0.0357813111305237,-0.0189978375434876,0.0739499702453615
0.233797698364627,-0.11002691659927401,0.124703334331512,-0.0434059867858885
0.234403391883707,-0.0238062134742737,-0.189044224262238,-0.0553810844421385
0.235009085402786,-0.17229742441177398,-0.121983677387238,-0.172737041473388
0.235614778921866,-0.105236877536774,0.07201290464401239,0.021259540557861497
0.236220472440945,-0.0956567994117737,0.0312975726127624,0.196095966339112
0.236826165960024,-0.0118311158180237,-0.133958775043488,0.200886005401612
0.237431859479104,0.0672045287132263,-0.112403599262238,-0.0290358695983885
0.238037552998183,0.036069274806976304,-0.004627720355987561,-0.0410109672546385
0.238643246517262,0.19174554433822602,0.0121374163627624,-0.021850811004638503
0.239248940036342,0.0169091185569763,-0.033367954730987595,-0.251772686004638
0.239854633555421,0.160610290431976,0.0193224749565124,-0.117651592254638
0.2404603270745,-0.0285962525367737,0.167813685894012,0.129035419464112
0.24106602059358,-0.014226135349273701,0.07919796323776239,0.0404196968078615
0.241671714112659,0.045649352931976306,-0.0429480328559876,-0.0122707328796385
0.242277407631738,-0.0381763306617737,-0.09563846254348761,0.126640399932862
0.242883101150818,0.165400329494476,0.143863490581512,0.10029518508911199
0.243488794669897,-0.042966369724273694,-0.0549231305122376,0.253576435089112
0.244094488188976,0.0887597044944763,0.0121374163627624,0.184120868682862
0.244700181708056,-0.124397033786774,0.218109096050262,-0.153576885223388
0.245305875227135,-0.129187072849274,0.000162318706512438,0.0763449897766115
0.245911568746214,0.0887597044944763,-0.114798618793488,-0.0338259086608885
0.246517262265294,-0.124397033786774,0.07680294370651239,0.0739499702453615
0.247122955784373,-0.169902404880524,0.08398800230026239,0.21286110305786202
0.247728649303452,-0.11721197519302401,-0.102823521137238,0.198490985870362
0.248334342822532,0.0719945677757263,-0.136353794574738,0.10748024368286199
0.248940036341611,-0.0908667603492737,0.07919796323776239,-0.000295635223388454
0.24954572986069,-0.047756408786773695,0.09356808042526239,0.20807106399536202
0.25015142337977,0.115104919338226,-0.121983677387238,-0.127231670379638
0.250757116898849,0.127080016994476,-0.0453430523872376,-0.0242458305358885
0.251362810417929,0.09594476308822629,-0.028577915668487597,0.766110614776612
0.251968503937008,0.117499938869476,0.0073473773002624395,0.804430927276612
0.252574197456087,-0.0214111939430237,-0.0740832867622376,0.282316669464112
0.253179890975167,-0.16271734628677398,-0.110008579730988,0.117060321807862
0.253785584494246,-0.0908667603492737,0.028902553081512402,0.026049579620361498
0.254391278013325,-0.0285962525367737,0.0241125140190124,-0.0122707328796385
0.254996971532405,-0.00225103769302369,-0.131563755512238,0.0356296577453615
0.255602665051484,0.026489196681976298,-0.0812683453559876,0.263156513214112
0.256208358570563,0.0648095091819763,-0.026182896137237597,0.0404196968078615
0.256814052089643,-0.052546447849273696,-0.00702273988723756,0.224836200714112
0.257419745608722,-0.22259283456802398,0.232479213237762,0.133825458526612
0.258025439127801,-0.0621265259742737,0.0576427874565124,0.00449440383911155
0.258631132646881,-0.08128668222427371,-0.0501330914497376,0.18172584915161202
0.25923682616596,-0.169902404880524,-0.0668982281684876,0.0859250679016115
0.259842519685039,0.117499938869476,-0.0573181500434876,0.059579853057861495
0.260448213204119,0.139055114650726,-0.167489048480988,-0.00269065475463845
0.261053906723198,0.0911547240257263,-0.0022327008247375597,-0.0505910453796385
0.261659600242277,-0.00225103769302369,0.136678431987762,0.0284445991516115
0.262265293761357,-0.00704107675552369,0.009742396831512441,0.0308396186828615
0.262870987280436,0.0312792357444763,0.10554317808151199,-0.117651592254638
0.263476680799515,0.038464294338226304,-0.16509402894973801,-0.0266408500671385
0.264082374318595,-0.045361389255523694,-0.22975955629348802,-0.0553810844421385
0.264688067837674,-0.14834722909927398,0.0193224749565124,-0.0146657524108885
0.265293761356753,-0.0573364869117737,-0.162699009418488,0.0380246772766115
0.265899454875833,-0.0381763306617737,-0.0501330914497376,0.0380246772766115
0.266505148394912,-0.11721197519302401,-0.138748814105988,0.0140744819641115
0.267110841913992,-0.17708746347427398,-0.272869907855988,-0.117651592254638
0.267716535433071,-0.08128668222427371,-0.112403599262238,-0.0625661430358885
0.26832222895215,0.148635192775726,-0.016602818012237598,-0.019455791473388502
0.26892792247123,0.0025390013694763097,0.10075313901901199,0.119455341339112
0.269533615990309,-0.0693115845680237,-0.320770298480988,0.126640399932862
0.270139309509388,-0.00704107675552369,0.0696178851127624,0.0308396186828615
0.270745003028468,-0.105236877536774,0.167813685894012,0.131430438995362
0.271350696547547,-0.07410162363052371,-0.220179478168488,0.16735573196411202
0.271956390066626,0.0288842162132263,-0.136353794574738,-0.00508567428588845
0.272562083585706,0.220485778713226,-0.145933872699738,-0.0481960258483885
0.273167777104785,-0.0549414673805237,-0.117193638324738,0.129035419464112
0.273773470623864,0.040859313869476305,0.07919796323776239,0.0428147163391115
0.274379164142944,0.17737542715072602,-0.0213928570747376,0.0428147163391115
0.274984857662023,-0.0645215455055237,-0.145933872699738,-0.172737041473388
0.275590551181102,-0.0333862915992737,0.165418666362762,-0.170342021942138
0.276196244700182,-0.15313726816177398,0.0672228655815124,-0.21584739303588799
0.276801938219261,0.0528344115257263,-0.0573181500434876,0.0499997749328615
0.27740763173834,0.09354974355697629,0.07440792417526239,0.0380246772766115
0.27801332525742,-0.07170660409927371,0.052852748394012404,0.0140744819641115
0.278619018776499,-0.0405713501930237,0.10075313901901199,0.14340553665161201
0.279224712295578,0.0193041380882263,0.055247767925262405,-0.0362209281921385
0.279830405814658,0.0240941771507263,-0.117193638324738,-0.208662334442138
0.280436099333737,0.0312792357444763,-0.033367954730987595,-0.13681174850463798
0.281041792852816,0.15103021230697602,-0.0692932476997376,-0.218242412567138
0.281647486371896,-0.00943609628677369,0.206133998394012,0.502658466339112
0.282253179890975,-0.17229742441177398,0.234874232769012,0.248786396026612
0.282858873410055,-0.050151428318023696,-0.0453430523872376,-0.345178447723388
0.283464566929134,0.026489196681976298,-0.0477380719184876,0.160170673370362
0.284070260448213,-0.0357813111305237,-0.035762974262237596,0.0428147163391115
0.284675953967293,-0.15313726816177398,-0.124378696918488,0.0979001655578615
0.285281647486372,-0.07410162363052371,-0.133958775043488,0.0955051460266115
0.285887341005451,0.189350524806976,-0.09324344301223761,0.121850360870362
0.286493034524531,0.0336742552757263,-0.107613560199738,-0.110466533660888
0.28709872804361,-0.10763189706802401,0.0265075335502624,0.0571848335266115
0.287704421562689,0.0336742552757263,-0.155513950824738,0.270341571807862
0.288310115081769,0.0719945677757263,0.08398800230026239,0.150590595245362
0.288915808600848,0.0216991576194763,0.136678431987762,0.174540790557862
0.289521502119927,0.043254333400726305,-0.117193638324738,0.15777565383911202
0.290127195639007,-0.0166211548805237,0.0217174944877624,0.124245380401612
0.290732889158086,-0.0405713501930237,-0.119588657855988,0.133825458526612
0.291338582677165,0.0193041380882263,-0.0453430523872376,0.10508522415161199
0.291944276196245,0.103129821681976,0.10075313901901199,-0.15597190475463799
0.292549969715324,0.18216546621322602,0.124703334331512,-0.0793312797546385
0.293155663234403,0.014514099025726299,-0.0189978375434876,0.16256569290161202
0.293761356753483,-0.0166211548805237,-0.0573181500434876,0.0979001655578615
0.294367050272562,0.117499938869476,0.0480627093315124,0.117060321807862
0.294972743791641,0.036069274806976304,0.148653529644012,0.160170673370362
0.295578437310721,-0.0573364869117737,0.0456676898002624,0.234416278839112
0.2961841308298,-0.0166211548805237,0.0241125140190124,0.16256569290161202
0.296789824348879,0.0576244505882263,0.0265075335502624,0.255971454620362
0.297395517867959,-0.0357813111305237,0.163023646831512,0.20328102493286201
0.298001211387038,0.13187005605697602,0.0600378069877624,0.0571848335266115
0.298606904906118,0.129475036525726,-0.0621081891059876,0.0428147163391115
0.299212598425197,0.13187005605697602,-0.026182896137237597,-0.0697512016296385
0.299818291944276,-0.07410162363052371,-0.0405530133247376,-0.0266408500671385
0.300423985463356,-0.014226135349273701,-0.0189978375434876,0.023654560089111498
0.301029678982435,0.0672045287132263,-0.0429480328559876,-0.021850811004638503
0.301635372501514,-0.124397033786774,-0.0740832867622376,-0.0122707328796385
0.302241066020594,0.189350524806976,-0.030972935199737598,0.0931101264953615
0.302846759539673,-0.251333068943024,0.124703334331512,-0.0146657524108885
0.303452453058752,-0.189062561130524,0.0193224749565124,-0.13202170944213798
0.304058146577832,0.220485778713226,0.0672228655815124,0.0835300483703615
0.304663840096911,0.045649352931976306,0.0672228655815124,0.026049579620361498
0.30526953361599,0.09833978261947629,0.158233607769012,0.258366474151612
0.30587522713507,-0.0166211548805237,0.028902553081512402,-0.0362209281921385
0.306480920654149,0.0025390013694763097,0.117518275737762,-0.14160178756713798
0.307086614173228,-0.0357813111305237,0.09117306089401239,0.179330829620362
0.307692307692308,-0.155532287693024,0.0073473773002624395,-0.0937013969421385
0.308298001211387,0.0863646849632263,0.0408776507377624,0.023654560089111498
0.308903694730466,-0.11242193613052401,-0.280054966449738,-0.000295635223388454
0.309509388249546,-0.15792730722427398,-0.09563846254348761,0.141010517120362
0.310115081768625,0.143845153713226,-0.0501330914497376,-0.167947002410888
0.310720775287704,-0.13158209238052399,-0.138748814105988,-0.0625661430358885
0.311326468806784,-0.100446838474274,-0.0788733258247376,0.653544696807862
0.311932162325863,0.115104919338226,0.0408776507377624,0.564928974151612
0.312537855844942,-0.0309912720680237,0.07440792417526239,0.174540790557862
0.313143549364022,0.103129821681976,0.016927455425262403,0.10029518508911199
0.313749242883101,0.045649352931976306,0.000162318706512438,0.026049579620361498
0.31435493640218,0.09833978261947629,0.24924434995651198,0.21286110305786202
0.31496062992126,-0.10763189706802401,-0.035762974262237596,0.41404274368286204
0.315566323440339,0.00972405996322631,-0.102823521137238,0.26555153274536203
0.316172016959419,0.0767846068382263,0.000162318706512438,0.23202125930786202
0.316777710478498,-0.150742248630524,-0.205809360980988,0.0643698921203615
0.317383403997577,0.0600194701194763,-0.203414341449738,0.00688942337036155
0.317989097516657,-0.18666754159927398,0.0576427874565124,0.191305927276612
0.318594791035736,-0.277678283786774,-0.0405530133247376,0.0547898139953615
0.319200484554815,0.134265075588226,-0.0189978375434876,0.0571848335266115
0.319806178073895,0.239645934963226,0.0480627093315124,0.23681129837036202
0.320411871592974,-0.126792053318024,0.151048549175262,-0.0649611625671385
0.321017565112053,0.100734802150726,-0.0118127789497376,0.150590595245362
0.321623258631133,0.117499938869476,-0.153118931293488,0.0715549507141115
0.322228952150212,-0.042966369724273694,-0.0573181500434876,0.0116794624328615
0.322834645669291,-0.0932617798805237,-0.0549231305122376,0.0523947944641115
0.323440339188371,-0.205827697849274,0.0696178851127624,-0.120046611785888
0.32404603270745,-0.0166211548805237,0.234874232769012,-0.148786846160888
0.324651726226529,0.0576244505882263,0.213319056987762,0.0643698921203615
0.325257419745609,0.0288842162132263,-0.110008579730988,0.0188645210266115
0.325863113264688,-0.052546447849273696,0.0983581194877624,-0.019455791473388502
0.326468806783767,0.038464294338226304,-0.00941775941848756,0.00688942337036155
0.327074500302847,-0.0333862915992737,-0.153118931293488,-0.0338259086608885
0.327680193821926,-0.0285962525367737,0.0696178851127624,-0.208662334442138
0.328285887341005,-0.133977111911774,-0.0597131695747376,-0.0673561820983885
0.328891580860085,0.036069274806976304,-0.131563755512238,0.129035419464112
0.329497274379164,0.0791796263694763,-0.0692932476997376,0.0188645210266115
0.330102967898244,-0.0166211548805237,-0.294425083637238,0.10508522415161199
0.330708661417323,0.105524841213226,0.232479213237762,0.18172584915161202
0.331314354936402,0.00972405996322631,-0.0118127789497376,0.186515888214112
0.331920048455482,0.244435974025726,-0.0740832867622376,-0.0314308891296385
0.332525741974561,0.129475036525726,0.0600378069877624,-0.0865163383483885
0.33313143549364,-0.0645215455055237,-0.0189978375434876,0.0308396186828615
0.33373712901272,0.0672045287132263,0.0576427874565124,0.17693581008911202
0.334342822531799,0.0240941771507263,-0.0405530133247376,-0.0242458305358885
0.334948516050878,-0.0932617798805237,0.117518275737762,-0.134416728973388
0.335554209569958,0.09833978261947629,-0.033367954730987595,0.289501728057862
0.336159903089037,0.139055114650726,0.000162318706512438,0.15777565383911202
0.336765596608116,-0.124397033786774,-0.0118127789497376,0.0883200874328615
0.337371290127196,0.09833978261947629,-0.09563846254348761,0.0907151069641115
0.337976983646275,0.105524841213226,-0.0836633648872376,0.16735573196411202
0.338582677165354,-0.0238062134742737,0.0336925921440124,0.0476047554016115
0.339188370684434,-0.00464605722427369,-0.126773716449738,0.0499997749328615
0.339794064203513,-0.08368170175552371,-0.246524693012238,0.330217060089112
0.340399757722592,0.230065856838226,0.052852748394012404,-0.105676494598388
0.341005451241672,0.026489196681976298,0.07919796323776239,-0.021850811004638503
0.341611144760751,-0.0381763306617737,0.12949337339401198,0.428412860870362
0.34221683827983,-0.050151428318023696,0.266009486675262,0.0979001655578615
0.34282253179891,-0.155532287693024,0.0121374163627624,0.0284445991516115
0.343428225317989,-0.00704107675552369,-0.0788733258247376,0.155380634307862
0.344033918837068,-0.119606994724274,-0.0501330914497376,0.124245380401612
0.344639612356148,0.026489196681976298,-0.0788733258247376,-0.0242458305358885
0.345245305875227,0.09833978261947629,-0.117193638324738,-0.13681174850463798
0.345850999394306,0.014514099025726299,-0.184254185199738,0.0284445991516115
0.346456692913386,0.0480443724632263,-0.014207798480987601,-0.15118186569213798
0.347062386432465,0.115104919338226,0.0312975726127624,0.0284445991516115
0.347668079951545,-0.0214111939430237,-0.102823521137238,0.10987526321411199
0.348273773470624,-0.00704107675552369,0.009742396831512441,0.0787400093078615
0.348879466989703,0.155820251369476,-0.133958775043488,-0.0362209281921385
0.349485160508783,0.045649352931976306,-0.0022327008247375597,-0.060171123504638505
0.350090854027862,-0.0262012330055237,0.124703334331512,-0.167947002410888
0.350696547546941,-0.0573364869117737,0.052852748394012404,0.0643698921203615
0.351302241066021,0.00732904043197631,0.0217174944877624,0.368537372589112
0.3519079345851,-0.0357813111305237,-0.026182896137237597,0.00209938430786155
0.352513628104179,0.174980407619476,0.0983581194877624,0.126640399932862
0.353119321623259,0.13187005605697602,0.0145324358940124,0.0643698921203615
0.353725015142338,-0.0309912720680237,-0.145933872699738,-0.0170607719421385
0.354330708661417,0.036069274806976304,-0.004627720355987561,0.0284445991516115
0.354936402180497,-0.11242193613052401,0.172603724956512,0.0643698921203615
0.355542095699576,0.115104919338226,-0.0740832867622376,-0.108071514129638
0.356147789218655,0.198930602931976,-0.00702273988723756,-0.060171123504638505
0.356753482737735,-0.08607672128677371,-0.0405530133247376,0.0547898139953615
0.357359176256814,-0.0956567994117737,-0.030972935199737598,-0.0793312797546385
0.357964869775893,0.0576244505882263,-0.0597131695747376,0.193700946807862
0.358570563294973,-0.0932617798805237,0.0624328265190124,-0.000295635223388454
0.359176256814052,-0.047756408786773695,-0.0668982281684876,-0.0290358695983885
0.359781950333131,0.249226013088226,-0.205809360980988,0.145800556182862
0.360387643852211,0.20611566152572602,0.115123256206512,0.10748024368286199
0.36099333737129,0.00972405996322631,-0.033367954730987595,-0.021850811004638503
0.361599030890369,0.0528344115257263,-0.215389439105988,0.0428147163391115
0.362204724409449,0.0672045287132263,-0.0118127789497376,0.033234638214111496
0.362810417928528,0.09354974355697629,0.07680294370651239,0.0523947944641115
0.363416111447607,0.179770446681976,0.016927455425262403,0.330217060089112
0.364021804966687,0.163005309963226,0.182183803081512,0.129035419464112
0.364627498485766,0.038464294338226304,0.0456676898002624,0.164960712432862
0.365233192004846,-0.0118311158180237,0.0121374163627624,0.061974872589111496
0.365838885523925,-0.07889166269302371,-0.260894810199738,0.14340553665161201
0.366444579043004,0.115104919338226,-0.09563846254348761,0.346982196807862
0.367050272562084,-0.0956567994117737,0.07680294370651239,0.0715549507141115
0.367655966081163,-0.315998596286774,-0.110008579730988,0.124245380401612
0.368261659600242,-0.100446838474274,0.119913295269012,0.22723122024536202
0.368867353119322,-0.100446838474274,0.009742396831512441,-0.160761943817138
0.369473046638401,-0.00943609628677369,-0.0189978375434876,-0.225427471160888
0.37007874015748,0.0552294310569763,0.0456676898002624,-0.203872295379638
0.37068443367656,0.158215270900726,-0.030972935199737598,-0.175132061004638
0.371290127195639,-0.105236877536774,0.179788783550262,0.00928444290161155
0.371895820714718,-0.0621265259742737,0.115123256206512,0.155380634307862
0.372501514233798,0.0336742552757263,0.0121374163627624,-0.000295635223388454
0.373107207752877,-0.143557190036774,-0.110008579730988,-0.0984914360046385
0.373712901271956,0.045649352931976306,-0.325560337543488,0.10269020462036199
0.374318594791036,0.165400329494476,-0.030972935199737598,-0.0458010063171385
0.374924288310115,0.036069274806976304,-0.196229282855988,-0.000295635223388454
0.375529981829194,0.0336742552757263,-0.0621081891059876,-0.0529860649108885
0.376135675348274,-0.0309912720680237,0.0983581194877624,-0.0266408500671385
0.376741368867353,0.0121190794944763,-0.148328892230988,0.033234638214111496
0.377347062386432,0.0839696654319763,-0.0716882672309876,0.0140744819641115
0.377952755905512,-0.0549414673805237,-0.0764783062934876,0.117060321807862
0.378558449424591,0.0504393919944763,-0.107613560199738,0.0356296577453615
0.379164142943671,0.0121190794944763,0.0959630999565124,0.026049579620361498
0.37976983646275,0.230065856838226,0.08159298276901239,0.033234638214111496
0.380375529981829,0.17258538808822602,-0.0549231305122376,-0.232612529754638
0.380981223500909,-0.0357813111305237,0.00495235776901244,0.150590595245362
0.381586917019988,0.0839696654319763,-0.0022327008247375597,-0.13202170944213798
0.382192610539067,0.115104919338226,0.10314815855026199,0.117060321807862
0.382798304058147,0.15103021230697602,-0.105218540668488,0.330217060089112
0.383403997577226,0.0576244505882263,-0.315980259418488,0.0284445991516115
0.384009691096305,-0.014226135349273701,-0.035762974262237596,0.210466083526612
0.384615384615385,-0.145952209568024,-0.030972935199737598,-0.0817262992858885
0.385221078134464,-0.145952209568024,-0.126773716449738,-0.00748069381713845
0.385826771653543,0.22767083730697601,0.0624328265190124,0.00688942337036155
0.386432465172623,0.21090570058822602,-0.16988406801223802,-0.0362209281921385
0.387038158691702,-0.129187072849274,-0.0118127789497376,-0.19668723678588798
0.387643852210781,0.0336742552757263,0.0432726702690124,-0.110466533660888
0.388249545729861,0.184560485744476,-0.177069126605988,-0.122441631317138
0.38885523924894,0.15103021230697602,0.0624328265190124,-0.19189719772338798
0.389460932768019,0.0695995482444763,-0.0668982281684876,0.0452097358703615
0.390066626287099,0.0216991576194763,0.0432726702690124,0.0883200874328615
0.390672319806178,-0.136372131443024,0.07201290464401239,0.023654560089111498
0.391278013325257,-0.10763189706802401,0.052852748394012404,0.0787400093078615
0.391883706844337,0.0767846068382263,-0.0477380719184876,-0.103281475067138
0.392489400363416,0.0863646849632263,-0.126773716449738,-0.160761943817138
0.393095093882495,0.0791796263694763,-0.004627720355987561,0.0356296577453615
0.393700787401575,0.23246087636947602,-0.0645032086372376,0.17214577102661202
0.394306480920654,0.09354974355697629,0.24924434995651198,-0.000295635223388454
0.394912174439733,-0.050151428318023696,0.0121374163627624,0.0499997749328615
0.395517867958813,-0.0980518189430237,0.0600378069877624,0.0404196968078615
0.396123561477892,-0.0549414673805237,0.141468471050262,0.0691599311828615
0.396729254996972,0.004934020900726309,-0.09803348207473761,0.126640399932862
0.397334948516051,0.0336742552757263,0.110333217144012,-0.13681174850463798
0.39794064203513,-0.0884717408180237,-0.0405530133247376,0.133825458526612
0.39854633555421,-0.00464605722427369,-0.119588657855988,0.0499997749328615
0.399152029073289,0.14145013418197602,0.218109096050262,-0.256562725067138
0.399757722592368,-0.014226135349273701,0.08877804136276239,0.0883200874328615
0.400363416111448,-0.042966369724273694,-0.210599400043488,0.351772235870362
0.400969109630527,-0.14834722909927398,-0.0621081891059876,-0.32362327194213797
0.401574803149606,0.105524841213226,-0.016602818012237598,0.497868427276612
0.402180496668686,-0.045361389255523694,0.110333217144012,0.682284931182862
0.402786190187765,-0.102841858005524,0.0600378069877624,-0.0434059867858885
0.403391883706844,-0.119606994724274,-0.155513950824738,0.0571848335266115
0.403997577225924,-0.00464605722427369,-0.112403599262238,0.0907151069641115
0.404603270745003,0.00732904043197631,0.052852748394012404,-0.0338259086608885
0.405208964264082,-0.00225103769302369,-0.0692932476997376,-0.0290358695983885
0.405814657783162,0.220485778713226,-0.08845340394973761,0.023654560089111498
0.406420351302241,-0.15792730722427398,0.0360876116752624,0.0571848335266115
0.40702604482132,-0.129187072849274,0.0648278460502624,0.22723122024536202
0.4076317383404,0.158215270900726,0.0241125140190124,0.10029518508911199
0.408237431859479,-0.105236877536774,-0.028577915668487597,-0.120046611785888
0.408843125378558,-0.141162170505524,-0.004627720355987561,-0.07214622116088851
0.409448818897638,-0.0262012330055237,-0.236944614887238,-0.0697512016296385
0.410054512416717,0.222880798244476,-0.0453430523872376,-0.00269065475463845
0.410660205935796,0.213300720119476,0.0073473773002624395,-0.00508567428588845
0.411265899454876,0.0624144896507263,0.0983581194877624,-0.139206768035888
0.411871592973955,0.23246087636947602,0.0576427874565124,-0.13681174850463798
0.412477286493035,0.0815746459007263,0.0600378069877624,-0.352363506317138
0.413082980012114,0.0815746459007263,0.0600378069877624,0.0979001655578615
0.413688673531193,0.26359613027572604,-0.0405530133247376,0.17693581008911202
0.414294367050273,-0.08607672128677371,0.24445431089401198,-0.148786846160888
0.414900060569352,-0.0405713501930237,-0.246524693012238,0.117060321807862
0.415505754088431,0.153425231838226,-0.038157993793487596,0.251181415557862
0.416111447607511,0.0216991576194763,0.0384826312065124,0.0907151069641115
0.41671714112659,-0.0118311158180237,0.07680294370651239,0.0308396186828615
0.417322834645669,0.0216991576194763,0.141468471050262,0.0284445991516115
0.417928528164749,0.100734802150726,-0.313585239887238,0.00928444290161155
0.418534221683828,0.0695995482444763,0.0312975726127624,-0.0122707328796385
0.419139915202907,0.203720641994476,0.0360876116752624,0.21765114212036202
0.419745608721987,0.100734802150726,-0.0716882672309876,-0.00748069381713845
0.420351302241066,-0.133977111911774,-0.08845340394973761,0.145800556182862
0.420956995760145,0.15103021230697602,0.0265075335502624,0.447573017120362
0.421562689279225,0.0815746459007263,-0.09803348207473761,0.0835300483703615
0.422168382798304,-0.143557190036774,-0.0597131695747376,-0.14160178756713798
0.422774076317383,0.0336742552757263,-0.028577915668487597,0.0907151069641115
0.423379769836463,-0.00704107675552369,-0.107613560199738,0.169750751495362
0.423985463355542,0.0193041380882263,0.141468471050262,0.026049579620361498
0.424591156874621,-0.00943609628677369,0.028902553081512402,-0.0793312797546385
0.425196850393701,-0.0908667603492737,-0.030972935199737598,-0.110466533660888
0.42580254391278,0.0672045287132263,-0.035762974262237596,0.145800556182862
0.426408237431859,0.0839696654319763,0.251639369487762,0.0284445991516115
0.427013930950939,0.036069274806976304,-0.0118127789497376,-0.00508567428588845
0.427619624470018,0.215695739650726,-0.17467410707473802,-0.0266408500671385
0.428225317989098,0.0480443724632263,-0.0764783062934876,-0.14639182662963798
0.428831011508177,-0.019016174411773702,0.016927455425262403,-0.019455791473388502
0.429436705027256,0.0719945677757263,-0.148328892230988,0.0284445991516115
0.430042398546336,0.0216991576194763,-0.0692932476997376,0.14340553665161201
0.430648092065415,0.045649352931976306,0.09356808042526239,0.155380634307862
0.431253785584494,-0.08607672128677371,0.107938197612762,0.337402118682862
0.431859479103574,0.026489196681976298,0.08638302183151239,0.023654560089111498
0.432465172622653,0.040859313869476305,-0.117193638324738,-0.00987571334838845
0.433070866141732,-0.0597315064430237,0.124703334331512,0.0691599311828615
0.433676559660812,0.0887597044944763,-0.186649204730988,-0.00748069381713845
0.434282253179891,0.0672045287132263,-0.0453430523872376,0.15777565383911202
0.43488794669897,0.0695995482444763,0.07440792417526239,-0.0458010063171385
0.43549364021805,0.13666009511947602,0.0408776507377624,0.184120868682862
0.436099333737129,-0.0884717408180237,-0.186649204730988,0.16256569290161202
0.436705027256208,-0.00464605722427369,-0.124378696918488,-0.0481960258483885
0.437310720775288,0.14145013418197602,0.266009486675262,0.0955051460266115
0.437916414294367,0.134265075588226,0.0241125140190124,0.16735573196411202
0.438522107813446,-0.019016174411773702,0.131888392925262,0.0739499702453615
0.439127801332526,-0.0285962525367737,-0.033367954730987595,-0.15597190475463799
0.439733494851605,0.045649352931976306,-0.172279087543488,0.021259540557861497
0.440339188370684,0.0863646849632263,-0.181859165668488,-0.0889113578796385
0.440944881889764,0.0911547240257263,0.225294154644012,-0.060171123504638505
0.441550575408843,-0.07170660409927371,0.0073473773002624395,0.21286110305786202
0.442156268927922,0.277966247463226,-0.016602818012237598,-0.00508567428588845
0.442761962447002,0.107919860744476,0.170208705425262,-0.0146657524108885
0.443367655966081,-0.105236877536774,-0.162699009418488,-0.0984914360046385
0.44397334948516,0.0169091185569763,-0.016602818012237598,-0.00748069381713845
0.44457904300424,-0.11002691659927401,0.0456676898002624,0.121850360870362
0.445184736523319,-0.0238062134742737,0.163023646831512,0.18172584915161202
0.445790430042399,0.0312792357444763,-0.100428501605988,-0.0146657524108885
0.446396123561478,-0.0285962525367737,-0.102823521137238,-0.0841213188171385
0.447001817080557,0.0240941771507263,0.00255733823776244,0.0979001655578615
0.447607510599637,-0.193852600193024,-0.0692932476997376,0.119455341339112
0.448213204118716,-0.00225103769302369,0.127098353862762,-0.019455791473388502
0.448818897637795,0.117499938869476,0.08398800230026239,0.0284445991516115
0.449424591156875,-0.0884717408180237,0.10075313901901199,0.198490985870362
0.450030284675954,0.165400329494476,0.112728236675262,0.174540790557862
0.450635978195033,0.105524841213226,-0.00941775941848756,0.15777565383911202
0.451241671714113,0.0672045287132263,-0.028577915668487597,0.0787400093078615
0.451847365233192,-0.0980518189430237,-0.016602818012237598,-0.0242458305358885
0.452453058752271,-0.0549414673805237,0.124703334331512,-0.0673561820983885
0.453058752271351,0.0624144896507263,0.165418666362762,0.0284445991516115
0.45366444579043,-0.0956567994117737,0.0696178851127624,-0.0481960258483885
0.454270139309509,0.000143981838226313,-0.09324344301223761,0.126640399932862
0.454875832828589,0.0695995482444763,-0.0525281109809876,0.243996356964112
0.455481526347668,-0.0669165650367737,0.148653529644012,-0.00508567428588845
0.456087219866747,-0.16750738534927398,-0.102823521137238,0.0643698921203615
0.456692913385827,-0.042966369724273694,-0.172279087543488,0.186515888214112
0.457298606904906,0.143845153713226,0.115123256206512,0.22723122024536202
0.457904300423985,0.0504393919944763,-0.306400181293488,0.00928444290161155
0.458509993943065,0.0576244505882263,-0.133958775043488,0.0691599311828615
0.459115687462144,-0.0262012330055237,-0.0118127789497376,0.117060321807862
0.459721380981224,-0.047756408786773695,-0.256104771137238,-0.199082256317138
0.460327074500303,-0.045361389255523694,-0.0668982281684876,0.150590595245362
0.460932768019382,0.043254333400726305,0.10314815855026199,-0.18710715866088798
0.461538461538462,0.09833978261947629,0.225294154644012,0.0859250679016115
0.462144155057541,-0.22259283456802398,-0.0525281109809876,0.193700946807862
0.46274984857662,-0.07170660409927371,0.0336925921440124,-0.0817262992858885
0.4633555420957,0.165400329494476,0.07680294370651239,0.339797138214112
0.463961235614779,0.184560485744476,0.09356808042526239,0.155380634307862
0.464566929133858,0.0121190794944763,-0.09803348207473761,0.0691599311828615
0.465172622652938,-0.0285962525367737,-0.0237878766059876,0.24160133743286202
0.465778316172017,0.000143981838226313,0.220504115581512,0.021259540557861497
0.466384009691096,0.0025390013694763097,0.191763881206512,-0.100886455535888
0.466989703210176,0.0336742552757263,-0.117193638324738,0.15298561477661202
0.467595396729255,-0.100446838474274,-0.16988406801223802,-0.0769362602233885
0.468201090248334,-0.0309912720680237,-0.00941775941848756,0.191305927276612
0.468806783767414,-0.0549414673805237,0.0073473773002624395,0.0667649116516115
0.469412477286493,-0.0956567994117737,-0.004627720355987561,-0.0625661430358885
0.470018170805572,0.000143981838226313,-0.00941775941848756,0.0811350288391115
0.470623864324652,0.160610290431976,-0.0189978375434876,0.0859250679016115
0.471229557843731,0.21090570058822602,0.07919796323776239,0.129035419464112
0.47183525136281,0.110314880275726,0.196553920269012,-0.0362209281921385
0.47244094488189,0.0312792357444763,-0.157908970355988,0.131430438995362
0.473046638400969,-0.13158209238052399,-0.16988406801223802,0.141010517120362
0.473652331920048,0.22767083730697601,0.158233607769012,0.258366474151612
0.474258025439128,0.165400329494476,-0.0405530133247376,-0.0242458305358885
0.474863718958207,-0.18666754159927398,-0.028577915668487597,-0.115256572723388
0.475469412477286,0.0169091185569763,0.170208705425262,0.138615497589112
0.476075105996366,0.127080016994476,0.146258510112762,0.112270282745362
0.476680799515445,-0.0285962525367737,0.0600378069877624,0.10748024368286199
0.477286493034525,0.0216991576194763,-0.09563846254348761,-0.0122707328796385
0.477892186553604,-0.0118311158180237,0.146258510112762,0.239206317901612
0.478497880072683,0.0672045287132263,0.0265075335502624,0.224836200714112
0.479103573591763,0.127080016994476,0.050457728862762403,-0.21584739303588799
0.479709267110842,-0.0381763306617737,0.09117306089401239,0.0188645210266115
0.480314960629921,-0.07170660409927371,-0.143538853168488,0.229626239776612
0.480920654149001,-0.11721197519302401,0.016927455425262403,-0.0841213188171385
0.48152634766808,0.0600194701194763,0.112728236675262,0.0739499702453615
0.482132041187159,-0.07170660409927371,0.0480627093315124,0.0907151069641115
0.482737734706239,-0.10763189706802401,-0.121983677387238,0.282316669464112
0.483343428225318,-0.014226135349273701,-0.00702273988723756,0.0835300483703615
0.483949121744397,0.000143981838226313,-0.0405530133247376,0.0164695014953615
0.484554815263477,0.20611566152572602,-0.119588657855988,0.10748024368286199
0.485160508782556,-0.124397033786774,0.151048549175262,-0.000295635223388454
0.485766202301635,-0.047756408786773695,0.009742396831512441,0.0955051460266115
0.486371895820715,0.0480443724632263,-0.0525281109809876,0.0763449897766115
0.486977589339794,-0.10763189706802401,-0.0549231305122376,-0.0122707328796385
0.487583282858873,0.258806091213226,0.0600378069877624,0.026049579620361498
0.488188976377953,0.00972405996322631,0.141468471050262,-0.0338259086608885
0.488794669897032,0.0193041380882263,-0.0740832867622376,0.0979001655578615
0.489400363416111,0.203720641994476,0.00255733823776244,0.246391376495362
0.490006056935191,-0.0333862915992737,-0.035762974262237596,0.200886005401612
0.49061175045427,-0.0405713501930237,-0.124378696918488,-0.0529860649108885
0.491217443973349,-0.105236877536774,0.141468471050262,0.198490985870362
0.491823137492429,-0.10763189706802401,0.165418666362762,0.196095966339112
0.492428831011508,0.0528344115257263,0.08159298276901239,-0.0960964164733885
0.493034524530587,0.115104919338226,0.09356808042526239,-0.0410109672546385
0.493640218049667,0.129475036525726,0.016927455425262403,-0.0673561820983885
0.494245911568746,0.038464294338226304,0.0696178851127624,0.299081806182862
0.494851605087826,-0.102841858005524,0.000162318706512438,0.332612079620362
0.495457298606905,0.040859313869476305,-0.033367954730987595,0.129035419464112
0.496062992125984,-0.045361389255523694,0.112728236675262,-0.0146657524108885
0.496668685645064,-0.0693115845680237,-0.191439243793488,0.059579853057861495
0.497274379164143,0.0025390013694763097,-0.155513950824738,-0.0362209281921385
0.497880072683222,0.0911547240257263,0.07201290464401239,0.210466083526612
0.498485766202302,-0.0597315064430237,-0.0022327008247375597,0.0428147163391115
0.499091459721381,0.043254333400726305,-0.100428501605988,-0.057776103973388504
0.49969715324046,0.0648095091819763,0.158233607769012,0.0667649116516115
0.50030284675954,0.0839696654319763,-0.004627720355987561,0.0140744819641115
0.500908540278619,0.0025390013694763097,-0.0764783062934876,-0.0410109672546385
0.501514233797698,0.0695995482444763,0.050457728862762403,0.0547898139953615
0.502119927316778,0.18216546621322602,-0.172279087543488,0.0356296577453615
0.502725620835857,0.0480443724632263,-0.0549231305122376,-0.0314308891296385
0.503331314354936,0.184560485744476,0.117518275737762,0.0499997749328615
0.503937007874016,-0.0645215455055237,0.0336925921440124,0.10748024368286199
0.504542701393095,-0.11242193613052401,-0.184254185199738,0.021259540557861497
0.505148394912174,-0.11481695566177401,-0.114798618793488,0.0140744819641115
0.505754088431254,-0.0549414673805237,-0.0716882672309876,0.10987526321411199
0.506359781950333,0.14145013418197602,-0.0573181500434876,-0.0697512016296385
0.506965475469413,0.0312792357444763,0.254034389019012,0.14340553665161201
0.507571168988492,0.0169091185569763,0.0432726702690124,0.00928444290161155
0.508176862507571,0.127080016994476,0.0480627093315124,-0.160761943817138
0.50878255602665,-0.07410162363052371,-0.124378696918488,-0.158366924285888
0.50938824954573,-0.0621265259742737,-0.29203006410598803,-0.00269065475463845
0.509993943064809,-0.047756408786773695,0.08398800230026239,0.0499997749328615
0.510599636583889,0.045649352931976306,0.136678431987762,-0.0170607719421385
0.511205330102968,0.09594476308822629,0.155838588237762,0.00449440383911155
0.511811023622047,-0.0980518189430237,-0.131563755512238,0.0691599311828615
0.512416717141127,0.045649352931976306,-0.299215122699738,0.16256569290161202
0.513022410660206,0.0839696654319763,-0.0573181500434876,0.188910907745362
0.513628104179285,0.036069274806976304,0.016927455425262403,0.00209938430786155
0.514233797698365,0.036069274806976304,-0.0573181500434876,0.0380246772766115
0.514839491217444,-0.136372131443024,-0.0645032086372376,0.193700946807862
0.515445184736523,0.0719945677757263,-0.014207798480987601,-0.0146657524108885
0.516050878255603,-0.00943609628677369,0.0193224749565124,0.0140744819641115
0.516656571774682,-0.07889166269302371,0.07680294370651239,-0.00508567428588845
0.517262265293761,0.100734802150726,0.174998744487762,0.0547898139953615
0.517867958812841,0.0695995482444763,0.141468471050262,-0.019455791473388502
0.51847365233192,-0.23696295175552398,0.0265075335502624,-0.15118186569213798
0.519079345850999,-0.174692443943024,-0.0213928570747376,0.10748024368286199
0.519685039370079,0.00732904043197631,0.172603724956512,-0.0458010063171385
0.520290732889158,0.043254333400726305,0.10075313901901199,0.18172584915161202
0.520896426408237,0.0193041380882263,-0.033367954730987595,0.026049579620361498
0.521502119927317,0.0216991576194763,-0.035762974262237596,0.131430438995362
0.522107813446396,-0.00225103769302369,-0.251314732074738,0.24160133743286202
0.522713506965475,-0.13158209238052399,-0.0237878766059876,-0.0242458305358885
0.523319200484555,-0.17708746347427398,-0.0645032086372376,-0.18231711959838798
0.523924894003634,-0.042966369724273694,-0.038157993793487596,0.0380246772766115
0.524530587522714,0.000143981838226313,0.18457882261276198,0.260761493682862
0.525136281041793,0.0815746459007263,-0.193834263324738,-0.27332786178588797
0.525741974560872,-0.08607672128677371,-0.210599400043488,0.0763449897766115
0.526347668079951,-0.332763733005524,0.0073473773002624395,0.0763449897766115
0.526953361599031,-0.07410162363052371,0.016927455425262403,-0.057776103973388504
0.52755905511811,0.16779534902572601,-0.0477380719184876,0.179330829620362
0.52816474863719,0.014514099025726299,-0.126773716449738,0.00688942337036155
0.528770442156269,-0.13158209238052399,-0.117193638324738,0.023654560089111498
0.529376135675348,0.0576244505882263,-0.09084842348098761,-0.0553810844421385
0.529981829194428,0.0528344115257263,-0.0740832867622376,0.0643698921203615
0.530587522713507,-0.0908667603492737,-0.0740832867622376,0.20807106399536202
0.531193216232586,-0.0357813111305237,-0.270474888324738,-0.0673561820983885
0.531798909751666,0.09594476308822629,-0.0692932476997376,0.0979001655578615
0.532404603270745,0.004934020900726309,0.0456676898002624,0.220046161651612
0.533010296789824,0.14624017324447602,-0.0549231305122376,0.112270282745362
0.533615990308904,0.208510681056976,-0.08845340394973761,-0.0960964164733885
0.534221683827983,-0.0597315064430237,-0.133958775043488,-0.110466533660888
0.534827377347062,-0.17229742441177398,0.000162318706512438,0.0811350288391115
0.535433070866142,0.0169091185569763,-0.0788733258247376,-0.0841213188171385
0.536038764385221,0.0480443724632263,-0.09563846254348761,-0.0625661430358885
0.5366444579043,0.09594476308822629,-0.141143833637238,0.126640399932862
0.53725015142338,0.0624144896507263,0.177393764019012,-0.057776103973388504
0.537855844942459,-0.07410162363052371,0.337860072612762,0.033234638214111496
0.538461538461538,-0.11721197519302401,-0.126773716449738,-0.244587627410888
0.539067231980618,0.15103021230697602,0.028902553081512402,-0.19189719772338798
0.539672925499697,0.19653558340072602,0.287564662456512,0.246391376495362
0.540278619018776,0.0288842162132263,0.167813685894012,-0.117651592254638
0.540884312537856,-0.0597315064430237,0.10314815855026199,-0.0937013969421385
0.541490006056935,-0.0573364869117737,0.0217174944877624,0.239206317901612
0.542095699576015,0.00732904043197631,-0.129168735980988,0.20328102493286201
0.542701393095094,0.0648095091819763,-0.301610142230988,0.17214577102661202
0.543307086614173,-0.07410162363052371,-0.09324344301223761,-0.00987571334838845
0.543912780133253,-0.11481695566177401,-0.028577915668487597,-0.0673561820983885
0.544518473652332,0.0815746459007263,0.0648278460502624,0.117060321807862
0.545124167171411,0.09594476308822629,0.000162318706512438,-0.0529860649108885
0.545729860690491,0.119894958400726,-0.035762974262237596,0.00688942337036155
0.54633555420957,0.13666009511947602,0.0121374163627624,-0.0793312797546385
0.546941247728649,0.203720641994476,-0.179464146137238,-0.0434059867858885
0.547546941247729,-0.124397033786774,0.201343959331512,-0.14639182662963798
0.548152634766808,-0.0693115845680237,0.009742396831512441,-0.110466533660888
0.548758328285887,0.18695550527572602,-0.030972935199737598,0.0571848335266115
0.549364021804967,0.100734802150726,-0.0501330914497376,-0.170342021942138
0.549969715324046,0.0695995482444763,0.07680294370651239,-0.0386159477233885
0.550575408843125,0.0121190794944763,0.050457728862762403,0.5385837593078621
0.551181102362205,-0.0956567994117737,-0.193834263324738,0.39488258743286203
0.551786795881284,-0.102841858005524,0.00495235776901244,0.121850360870362
0.552392489400363,-0.019016174411773702,-0.129168735980988,0.160170673370362
0.552998182919443,0.036069274806976304,0.0408776507377624,-0.0362209281921385
0.553603876438522,-0.124397033786774,-0.189044224262238,0.10748024368286199
0.554209569957601,-0.22738287363052398,-0.0189978375434876,0.0883200874328615
0.554815263476681,0.215695739650726,0.0480627093315124,0.136220478057862
0.55542095699576,0.014514099025726299,-0.121983677387238,-0.0434059867858885
0.556026650514839,-0.0980518189430237,0.0624328265190124,-0.179922100067138
0.556632344033919,0.115104919338226,-0.0645032086372376,-0.15597190475463799
0.557238037552998,0.0839696654319763,-0.0597131695747376,-0.0817262992858885
0.557843731072078,-0.00943609628677369,-0.0525281109809876,0.138615497589112
0.558449424591157,0.110314880275726,-0.0692932476997376,0.0571848335266115
0.559055118110236,0.119894958400726,-0.0788733258247376,0.14819557571411202
0.559660811629316,-0.0333862915992737,-0.0477380719184876,0.164960712432862
0.560266505148395,0.208510681056976,0.009742396831512441,0.186515888214112
0.560872198667474,0.0887597044944763,0.107938197612762,0.0356296577453615
0.561477892186554,0.043254333400726305,-0.038157993793487596,-0.019455791473388502
0.562083585705633,0.004934020900726309,-0.110008579730988,0.188910907745362
0.562689279224712,0.043254333400726305,-0.0621081891059876,0.00209938430786155
0.563294972743792,0.040859313869476305,0.0073473773002624395,0.0931101264953615
0.563900666262871,-0.00225103769302369,-0.107613560199738,0.14340553665161201
0.56450635978195,0.038464294338226304,-0.210599400043488,0.121850360870362
0.56511205330103,0.14624017324447602,0.028902553081512402,0.0116794624328615
0.565717746820109,0.107919860744476,0.0696178851127624,-0.160761943817138
0.566323440339188,-0.0932617798805237,0.0432726702690124,0.126640399932862
0.566929133858268,0.0887597044944763,-0.189044224262238,0.0428147163391115
0.567534827377347,0.0672045287132263,-0.100428501605988,-0.103281475067138
0.568140520896426,-0.122002014255524,0.124703334331512,0.22244118118286202
0.568746214415506,-0.0262012330055237,0.0073473773002624395,-0.0769362602233885
0.569351907934585,-0.045361389255523694,-0.038157993793487596,-0.24698264694213798
0.569957601453664,-0.0118311158180237,-0.133958775043488,-0.0410109672546385
0.570563294972744,-0.0693115845680237,-0.0118127789497376,0.0787400093078615
0.571168988491823,0.026489196681976298,0.167813685894012,0.10987526321411199
0.571774682010902,0.119894958400726,0.170208705425262,-0.13681174850463798
0.572380375529982,-0.00943609628677369,0.0432726702690124,-0.0266408500671385
0.572986069049061,-0.136372131443024,-0.0645032086372376,0.0452097358703615
0.57359176256814,0.0624144896507263,0.0312975726127624,0.10987526321411199
0.57419745608722,0.09594476308822629,0.136678431987762,0.16735573196411202
0.574803149606299,-0.0166211548805237,-0.0237878766059876,0.129035419464112
0.575408843125379,0.15103021230697602,-0.210599400043488,0.289501728057862
0.576014536644458,0.115104919338226,-0.119588657855988,-0.0913063774108885
0.576620230163537,0.25401605215072603,0.09356808042526239,0.021259540557861497
0.577225923682617,-0.145952209568024,0.0959630999565124,0.0476047554016115
0.577831617201696,-0.11481695566177401,0.151048549175262,0.0188645210266115
0.578437310720775,-0.0549414673805237,-0.181859165668488,0.10508522415161199
0.579043004239855,-0.11721197519302401,-0.105218540668488,0.0571848335266115
0.579648697758934,0.0815746459007263,-0.112403599262238,0.20328102493286201
0.580254391278013,-0.0884717408180237,-0.198624302387238,-0.20147727584838798
0.580860084797093,-0.0621265259742737,-0.0716882672309876,-0.321228252410888
0.581465778316172,0.0336742552757263,0.0265075335502624,0.200886005401612
0.582071471835251,-0.07649664316177371,0.0384826312065124,0.35416725540161204
0.582677165354331,-0.08128668222427371,-0.244129673480988,0.114665302276612
0.58328285887341,-0.0908667603492737,-0.198624302387238,-0.0841213188171385
0.583888552392489,-0.141162170505524,0.158233607769012,-0.175132061004638
0.584494245911569,-0.00225103769302369,-0.0405530133247376,0.0547898139953615
0.585099939430648,-0.0405713501930237,-0.09803348207473761,0.10269020462036199
0.585705632949727,-0.00225103769302369,0.136678431987762,0.160170673370362
0.586311326468807,-0.0621265259742737,-0.0692932476997376,0.14340553665161201
0.586917019987886,-0.0573364869117737,0.251639369487762,0.279921649932862
0.587522713506965,0.0288842162132263,-0.0453430523872376,0.174540790557862
0.588128407026045,-0.0621265259742737,-0.026182896137237597,-0.0122707328796385
0.588734100545124,0.0240941771507263,-0.038157993793487596,-0.13202170944213798
0.589339794064203,0.0216991576194763,-0.23454959535598802,-0.14160178756713798
0.589945487583283,-0.07889166269302371,0.0696178851127624,0.193700946807862
0.590551181102362,-0.0118311158180237,0.146258510112762,0.00928444290161155
0.591156874621442,-0.0357813111305237,0.000162318706512438,0.16735573196411202
0.591762568140521,0.0025390013694763097,-0.035762974262237596,0.0499997749328615
0.5923682616596,0.0336742552757263,-0.033367954730987595,0.129035419464112
0.59297395517868,0.09354974355697629,0.0576427874565124,0.141010517120362
0.593579648697759,-0.0262012330055237,-0.0501330914497376,-0.103281475067138
0.594185342216838,-0.0262012330055237,-0.0237878766059876,-0.115256572723388
0.594791035735918,0.0528344115257263,0.220504115581512,-0.07454124069213851
0.595396729254997,-0.19145758066177399,-0.0812683453559876,0.0883200874328615
0.596002422774076,-0.11721197519302401,-0.126773716449738,0.0811350288391115
0.596608116293156,0.115104919338226,-0.0405530133247376,0.0739499702453615
0.597213809812235,0.0480443724632263,-0.0645032086372376,0.21286110305786202
0.597819503331314,-0.13158209238052399,-0.117193638324738,0.0739499702453615
0.598425196850394,-0.0549414673805237,0.009742396831512441,-0.021850811004638503
0.599030890369473,0.174980407619476,-0.030972935199737598,0.234416278839112
0.599636583888552,0.0288842162132263,-0.09324344301223761,0.21765114212036202
0.600242277407632,-0.198642639255524,0.0648278460502624,0.0715549507141115
0.600847970926711,0.13666009511947602,0.0360876116752624,-0.0649611625671385
0.60145366444579,0.0887597044944763,-0.126773716449738,0.0499997749328615
0.60205935796487,-0.0908667603492737,0.0408776507377624,0.00449440383911155
0.602665051483949,0.100734802150726,0.337860072612762,-0.0434059867858885
0.603270745003028,-0.11002691659927401,-0.0477380719184876,-0.112861553192138
0.603876438522108,-0.00225103769302369,-0.162699009418488,-0.0769362602233885
0.604482132041187,0.036069274806976304,-0.0597131695747376,0.0811350288391115
0.605087825560267,-0.193852600193024,-0.0501330914497376,-0.060171123504638505
0.605693519079346,0.0552294310569763,0.0121374163627624,-0.021850811004638503
0.606299212598425,-0.07889166269302371,-0.030972935199737598,-0.0937013969421385
0.606904906117504,0.036069274806976304,0.122308314800262,0.0116794624328615
0.607510599636584,0.127080016994476,0.213319056987762,0.14340553665161201
0.608116293155663,-0.00464605722427369,-0.121983677387238,0.121850360870362
0.608721986674743,0.174980407619476,-0.133958775043488,0.0452097358703615
0.609327680193822,0.12228997793197599,0.160628627300262,-0.0146657524108885
0.609933373712901,-0.19145758066177399,0.028902553081512402,-0.07454124069213851
0.610539067231981,-0.150742248630524,0.0145324358940124,-0.417029033660888
0.61114476075106,0.0121190794944763,-0.0549231305122376,0.188910907745362
0.611750454270139,-0.0621265259742737,-0.0429480328559876,0.0931101264953615
0.612356147789219,0.0121190794944763,-0.131563755512238,-0.148786846160888
0.612961841308298,0.0528344115257263,-0.0716882672309876,0.17214577102661202
0.613567534827377,-0.00943609628677369,0.139073451519012,-0.0553810844421385
0.614173228346457,-0.0693115845680237,-0.028577915668487597,0.0907151069641115
0.614778921865536,0.0839696654319763,-0.153118931293488,-0.00987571334838845
0.615384615384615,0.13666009511947602,-0.145933872699738,-0.00987571334838845
0.615990308903695,-0.0238062134742737,-0.0836633648872376,0.0116794624328615
0.616596002422774,0.14145013418197602,-0.0812683453559876,-0.0937013969421385
0.617201695941853,0.13187005605697602,-0.0836633648872376,0.14819557571411202
0.617807389460933,0.09354974355697629,-0.0022327008247375597,0.14340553665161201
0.618413082980012,0.21090570058822602,0.19415890073776199,-0.021850811004638503
0.619018776499091,-0.0262012330055237,0.00495235776901244,0.0428147163391115
0.619624470018171,-0.205827697849274,0.08877804136276239,0.10987526321411199
0.62023016353725,-0.050151428318023696,0.110333217144012,-0.0242458305358885
0.620835857056329,-0.07649664316177371,0.0265075335502624,-0.0122707328796385
0.621441550575409,0.0312792357444763,0.117518275737762,0.18172584915161202
0.622047244094488,0.09354974355697629,0.0121374163627624,-0.0170607719421385
0.622652937613568,0.129475036525726,-0.08845340394973761,0.129035419464112
0.623258631132647,0.038464294338226304,-0.0213928570747376,0.188910907745362
0.623864324651726,-0.0333862915992737,-0.0189978375434876,0.0356296577453615
0.624470018170806,0.026489196681976298,-0.157908970355988,0.026049579620361498
0.625075711689885,-0.11721197519302401,0.07201290464401239,-0.103281475067138
0.625681405208964,-0.143557190036774,-0.117193638324738,0.0523947944641115
0.626287098728044,0.100734802150726,-0.102823521137238,0.0715549507141115
0.626892792247123,0.215695739650726,0.0672228655815124,0.0452097358703615
0.627498485766202,0.0911547240257263,-0.0477380719184876,-0.0386159477233885
0.628104179285282,0.0528344115257263,0.009742396831512441,0.0523947944641115
0.628709872804361,-0.11242193613052401,0.119913295269012,0.0571848335266115
0.62931556632344,-0.0333862915992737,0.124703334331512,0.0883200874328615
0.62992125984252,0.026489196681976298,0.0312975726127624,0.282316669464112
0.630526953361599,0.0312792357444763,0.08159298276901239,0.059579853057861495
0.631132646880678,0.163005309963226,0.10314815855026199,-0.060171123504638505
0.631738340399758,-0.0956567994117737,0.08877804136276239,0.18172584915161202
0.632344033918837,-0.0118311158180237,-0.0597131695747376,0.10748024368286199
0.632949727437916,0.225275817775726,-0.0405530133247376,0.0883200874328615
0.633555420956996,-0.0693115845680237,-0.00941775941848756,-0.0338259086608885
0.634161114476075,-0.141162170505524,-0.222574497699738,-0.00508567428588845
0.634766807995154,0.0312792357444763,-0.00941775941848756,0.0979001655578615
0.635372501514234,0.026489196681976298,0.0624328265190124,0.0140744819641115
0.635978195033313,-0.16271734628677398,-0.00941775941848756,-0.120046611785888
0.636583888552392,-0.224987854099274,-0.08605838441848761,-0.0266408500671385
0.637189582071472,-0.0118311158180237,0.136678431987762,0.136220478057862
0.637795275590551,0.0240941771507263,0.258824428081512,0.22723122024536202
0.638400969109631,-0.08128668222427371,-0.189044224262238,0.0739499702453615
0.63900666262871,-0.0908667603492737,-0.0429480328559876,-0.0338259086608885
0.639612356147789,0.0193041380882263,0.119913295269012,0.10748024368286199
0.640218049666869,0.15103021230697602,-0.17467410707473802,0.552953876495362
0.640823743185948,0.004934020900726309,-0.110008579730988,0.272736591339112
0.641429436705027,-0.0908667603492737,0.0073473773002624395,0.0116794624328615
0.642035130224107,-0.141162170505524,-0.09563846254348761,0.200886005401612
0.642640823743186,-0.15313726816177398,-0.153118931293488,-0.108071514129638
0.643246517262265,0.026489196681976298,-0.035762974262237596,0.023654560089111498
0.643852210781345,0.165400329494476,-0.205809360980988,0.00209938430786155
0.644457904300424,-0.07649664316177371,-0.0645032086372376,-0.00748069381713845
0.645063597819503,0.16779534902572601,0.182183803081512,0.021259540557861497
0.645669291338583,0.115104919338226,-0.0788733258247376,0.0476047554016115
0.646274984857662,-0.019016174411773702,-0.038157993793487596,0.0164695014953615
0.646880678376741,0.09354974355697629,0.0959630999565124,0.138615497589112
0.647486371895821,0.0743895873069763,-0.0189978375434876,0.20328102493286201
0.6480920654149,0.20132562246322602,0.0600378069877624,0.126640399932862
0.648697758933979,0.0025390013694763097,0.07440792417526239,-0.0242458305358885
0.649303452453059,0.014514099025726299,0.107938197612762,-0.0458010063171385
0.649909145972138,-0.00704107675552369,0.016927455425262403,0.0811350288391115
0.650514839491217,-0.0381763306617737,-0.296820103168488,0.141010517120362
0.651120533010297,0.0288842162132263,0.0408776507377624,0.224836200714112
0.651726226529376,-0.07170660409927371,-0.08605838441848761,0.00928444290161155
0.652331920048455,-0.150742248630524,-0.181859165668488,-0.0481960258483885
0.652937613567535,-0.0645215455055237,-0.0237878766059876,0.0476047554016115
0.653543307086614,0.194140563869476,0.174998744487762,-0.0386159477233885
0.654149000605693,0.0528344115257263,0.117518275737762,0.033234638214111496
0.654754694124773,0.115104919338226,-0.205809360980988,-0.175132061004638
0.655360387643852,0.15103021230697602,0.08159298276901239,-0.057776103973388504
0.655966081162932,-0.0669165650367737,0.146258510112762,-0.0242458305358885
0.656571774682011,0.0695995482444763,-0.033367954730987595,-0.0697512016296385
0.65717746820109,0.0672045287132263,0.0336925921440124,-0.117651592254638
0.65778316172017,-0.0309912720680237,-0.0573181500434876,-0.15118186569213798
0.658388855239249,0.0815746459007263,0.0384826312065124,-0.0937013969421385
0.658994548758328,0.0600194701194763,0.256429408550262,0.10269020462036199
0.659600242277408,-0.20822271738052398,0.0408776507377624,0.21765114212036202
0.660205935796487,-0.07170660409927371,0.0983581194877624,0.0931101264953615
0.660811629315566,0.0719945677757263,0.0456676898002624,0.0763449897766115
0.661417322834646,-0.014226135349273701,-0.09084842348098761,-0.170342021942138
0.662023016353725,-0.0549414673805237,0.0145324358940124,0.131430438995362
0.662628709872804,0.0193041380882263,-0.0429480328559876,0.0715549507141115
0.663234403391884,-0.143557190036774,-0.0716882672309876,0.021259540557861497
0.663840096910963,0.0576244505882263,-0.155513950824738,0.124245380401612
0.664445790430042,0.0216991576194763,-0.121983677387238,0.0667649116516115
0.665051483949122,-0.0118311158180237,-0.133958775043488,-0.0529860649108885
0.665657177468201,0.14624017324447602,0.055247767925262405,0.0859250679016115
0.66626287098728,0.107919860744476,0.177393764019012,0.308661884307862
0.66686856450636,-0.0597315064430237,-0.167489048480988,0.10029518508911199
0.667474258025439,-0.00225103769302369,0.07919796323776239,0.0835300483703615
0.668079951544518,0.287546325588226,-0.00702273988723756,0.229626239776612
0.668685645063598,-0.224987854099274,-0.08605838441848761,-0.00508567428588845
0.669291338582677,0.0672045287132263,0.00255733823776244,-0.170342021942138
0.669897032101756,0.19653558340072602,-0.0692932476997376,-0.227822490692138
0.670502725620836,-0.050151428318023696,0.206133998394012,-0.31404319381713797
0.671108419139915,0.0911547240257263,0.07440792417526239,0.196095966339112
0.671714112658994,0.0767846068382263,-0.110008579730988,0.210466083526612
0.672319806178074,0.0863646849632263,-0.00702273988723756,0.0979001655578615
0.672925499697153,0.0672045287132263,0.0384826312065124,0.117060321807862
0.673531193216233,0.115104919338226,-0.141143833637238,-0.108071514129638
0.674136886735312,0.309101501369476,-0.0429480328559876,-0.0338259086608885
0.674742580254391,-0.0262012330055237,0.12949337339401198,-0.0290358695983885
0.675348273773471,0.0767846068382263,0.00255733823776244,0.0811350288391115
0.67595396729255,0.143845153713226,-0.0477380719184876,0.0164695014953615
0.676559660811629,-0.220197815036774,0.0193224749565124,-0.14160178756713798
0.677165354330709,0.129475036525726,0.0073473773002624395,0.169750751495362
0.677771047849788,-0.0621265259742737,0.00495235776901244,-0.0434059867858885
0.678376741368867,-0.0118311158180237,0.0648278460502624,-0.0793312797546385
0.678982434887947,0.0672045287132263,0.206133998394012,0.10508522415161199
0.679588128407026,-0.16750738534927398,-0.09563846254348761,0.10269020462036199
0.680193821926105,-0.019016174411773702,0.028902553081512402,-0.0984914360046385
0.680799515445185,-0.00704107675552369,-0.0788733258247376,-0.0865163383483885
0.681405208964264,-0.0262012330055237,-0.256104771137238,-0.0841213188171385
0.682010902483343,-0.102841858005524,0.0696178851127624,0.0284445991516115
0.682616596002423,-0.0956567994117737,-0.162699009418488,0.00928444290161155
0.683222289521502,0.0240941771507263,-0.038157993793487596,-0.0673561820983885
0.683827983040581,-0.126792053318024,0.0600378069877624,0.119455341339112
0.684433676559661,-0.00225103769302369,0.12949337339401198,0.023654560089111498
0.68503937007874,-0.165112365818024,0.148653529644012,0.246391376495362
0.68564506359782,-0.21301275644302398,-0.0573181500434876,0.26555153274536203
0.686250757116899,0.0336742552757263,-0.212994419574738,0.196095966339112
0.686856450635978,-0.0309912720680237,-0.004627720355987561,-0.0960964164733885
0.687462144155058,0.0240941771507263,-0.030972935199737598,0.23681129837036202
0.688067837674137,-0.0262012330055237,0.158233607769012,0.29429176712036204
0.688673531193216,0.0528344115257263,0.0648278460502624,-0.0146657524108885
0.689279224712296,-0.045361389255523694,0.127098353862762,0.251181415557862
0.689884918231375,-0.0118311158180237,0.208529017925262,0.0811350288391115
0.690490611750454,0.12468499746322599,-0.004627720355987561,0.0859250679016115
0.691096305269534,-0.160322326755524,-0.09803348207473761,0.20807106399536202
0.691701998788613,0.0336742552757263,-0.0237878766059876,0.0547898139953615
0.692307692307692,-0.0309912720680237,-0.143538853168488,-0.20147727584838798
0.692913385826772,-0.0214111939430237,-0.23454959535598802,-0.15118186569213798
0.693519079345851,-0.0956567994117737,-0.0022327008247375597,0.0739499702453615
0.69412477286493,-0.215407775974274,-0.0668982281684876,0.033234638214111496
0.69473046638401,0.0791796263694763,-0.0453430523872376,-0.00748069381713845
0.695336159903089,0.0719945677757263,-0.0716882672309876,0.0667649116516115
0.695941853422168,0.13666009511947602,-0.08845340394973761,0.23202125930786202
0.696547546941248,0.28515130605697603,-0.179464146137238,0.00688942337036155
0.697153240460327,0.148635192775726,0.0983581194877624,-0.000295635223388454
0.697758933979406,-0.0405713501930237,0.0456676898002624,0.126640399932862
0.698364627498486,-0.0262012330055237,-0.157908970355988,-0.115256572723388
0.698970321017565,0.0767846068382263,-0.0405530133247376,0.0284445991516115
0.699576014536644,-0.0932617798805237,0.08398800230026239,0.0523947944641115
0.700181708055724,-0.00225103769302369,0.136678431987762,-0.223032451629638
0.700787401574803,0.139055114650726,0.0672228655815124,-0.0362209281921385
0.701393095093882,-0.0238062134742737,0.0336925921440124,0.636779560089112
0.701998788612962,0.0743895873069763,0.148653529644012,0.0667649116516115
0.702604482132041,0.00732904043197631,0.09117306089401239,-0.15597190475463799
0.703210175651121,-0.0693115845680237,-0.00702273988723756,-0.0817262992858885
0.7038158691702,0.00732904043197631,0.0265075335502624,-0.108071514129638
0.704421562689279,0.000143981838226313,0.0384826312065124,0.191305927276612
0.705027256208359,-0.11002691659927401,-0.014207798480987601,0.0116794624328615
0.705632949727438,-0.00225103769302369,-0.241734653949738,0.0547898139953615
0.706238643246517,0.129475036525726,0.0384826312065124,0.0691599311828615
0.706844336765597,-0.0381763306617737,-0.038157993793487596,0.0931101264953615
0.707450030284676,-0.07410162363052371,0.000162318706512438,0.033234638214111496
0.708055723803755,0.0504393919944763,0.0432726702690124,0.0499997749328615
0.708661417322835,0.000143981838226313,-0.280054966449738,0.0476047554016115
0.709267110841914,0.160610290431976,-0.196229282855988,0.164960712432862
0.709872804360993,-0.0597315064430237,-0.0836633648872376,-0.0146657524108885
0.710478497880073,-0.08128668222427371,-0.148328892230988,-0.0529860649108885
0.711084191399152,-0.0884717408180237,-0.172279087543488,-0.175132061004638
0.711689884918231,0.043254333400726305,0.09356808042526239,0.0116794624328615
0.712295578437311,-0.0381763306617737,0.0145324358940124,0.258366474151612
0.71290127195639,-0.0980518189430237,0.148653529644012,-0.158366924285888
0.713506965475469,0.13666009511947602,0.09117306089401239,-0.134416728973388
0.714112658994549,-0.0669165650367737,-0.143538853168488,0.16256569290161202
0.714718352513628,0.0839696654319763,-0.131563755512238,0.0499997749328615
0.715324046032707,0.15103021230697602,-0.0501330914497376,-0.120046611785888
0.715929739551787,-0.042966369724273694,-0.0237878766059876,-0.0146657524108885
0.716535433070866,-0.136372131443024,0.198948939800262,0.150590595245362
0.717141126589945,-0.08368170175552371,-0.00941775941848756,0.196095966339112
0.717746820109025,-0.0405713501930237,-0.16509402894973801,0.10987526321411199
0.718352513628104,-0.08368170175552371,-0.186649204730988,-0.0913063774108885
0.718958207147184,0.000143981838226313,0.055247767925262405,-0.227822490692138
0.719563900666263,0.115104919338226,0.0959630999565124,0.160170673370362
0.720169594185342,0.09354974355697629,-0.033367954730987595,0.021259540557861497
0.720775287704422,0.129475036525726,-0.0237878766059876,-0.0673561820983885
0.721380981223501,-0.00704107675552369,-0.030972935199737598,0.141010517120362
0.72198667474258,0.0743895873069763,0.0312975726127624,0.136220478057862
0.72259236826166,-0.0238062134742737,-0.0213928570747376,-0.0769362602233885
0.723198061780739,0.110314880275726,-0.0549231305122376,-0.20147727584838798
0.723803755299818,0.0504393919944763,0.0121374163627624,-0.103281475067138
0.724409448818898,0.148635192775726,-0.033367954730987595,-0.13681174850463798
0.725015142337977,0.163005309963226,-0.172279087543488,-0.0146657524108885
0.725620835857056,-0.119606994724274,-0.0549231305122376,0.0380246772766115
0.726226529376136,0.09594476308822629,-0.179464146137238,-0.0769362602233885
0.726832222895215,0.0743895873069763,0.177393764019012,0.0452097358703615
0.727437916414294,-0.0597315064430237,0.0265075335502624,0.210466083526612
0.728043609933374,0.100734802150726,0.0384826312065124,0.16735573196411202
0.728649303452453,0.026489196681976298,0.0983581194877624,0.0164695014953615
0.729254996971532,0.155820251369476,0.00255733823776244,0.0164695014953615
0.729860690490612,0.213300720119476,0.08877804136276239,-0.266142803192138
0.730466384009691,0.117499938869476,-0.038157993793487596,-0.232612529754638
0.73107207752877,0.0695995482444763,0.0959630999565124,0.536188739776612
0.73167777104785,-0.0573364869117737,0.08398800230026239,0.533793720245362
0.732283464566929,0.0169091185569763,-0.102823521137238,0.0380246772766115
0.732889158086008,0.0480443724632263,0.124703334331512,0.272736591339112
0.733494851605088,0.038464294338226304,0.277984584331512,0.246391376495362
0.734100545124167,-0.0573364869117737,0.028902553081512402,-0.153576885223388
0.734706238643246,0.0648095091819763,0.0480627093315124,-0.275722881317138
0.735311932162326,-0.052546447849273696,-0.193834263324738,-0.282907939910888
0.735917625681405,0.014514099025726299,-0.0405530133247376,0.0380246772766115
0.736523319200485,-0.019016174411773702,0.196553920269012,0.18172584915161202
0.737129012719564,0.14145013418197602,0.000162318706512438,0.0164695014953615
0.737734706238643,0.20132562246322602,0.167813685894012,0.129035419464112
0.738340399757723,0.036069274806976304,0.112728236675262,0.131430438995362
0.738946093276802,0.0025390013694763097,-0.112403599262238,0.0164695014953615
0.739551786795881,-0.133977111911774,-0.16509402894973801,0.0955051460266115
0.740157480314961,0.163005309963226,-0.038157993793487596,0.10029518508911199
0.74076317383404,0.038464294338226304,-0.112403599262238,0.119455341339112
0.741368867353119,0.12228997793197599,0.0312975726127624,0.129035419464112
0.741974560872199,0.12468499746322599,0.08159298276901239,-0.0362209281921385
0.742580254391278,-0.22738287363052398,0.0241125140190124,-0.0505910453796385
0.743185947910357,0.0767846068382263,0.07440792417526239,0.10508522415161199
0.743791641429437,0.174980407619476,0.165418666362762,-0.0553810844421385
0.744397334948516,0.17737542715072602,0.182183803081512,0.0188645210266115
0.745003028467595,0.14145013418197602,-0.148328892230988,-0.110466533660888
0.745608721986675,0.0624144896507263,-0.0692932476997376,-0.235007549285888
0.746214415505754,0.0480443724632263,-0.0668982281684876,0.0188645210266115
0.746820109024833,0.014514099025726299,-0.035762974262237596,0.117060321807862
0.747425802543913,0.0719945677757263,0.139073451519012,-0.108071514129638
0.748031496062992,0.045649352931976306,-0.0597131695747376,0.0667649116516115
0.748637189582071,-0.00464605722427369,-0.198624302387238,0.0715549507141115
0.749242883101151,0.0863646849632263,-0.160303989887238,-0.20147727584838798
0.74984857662023,0.0695995482444763,-0.09563846254348761,0.131430438995362
0.75045427013931,-0.045361389255523694,-0.0836633648872376,0.210466083526612
0.751059963658389,-0.124397033786774,0.0217174944877624,-0.13681174850463798
0.751665657177468,-0.014226135349273701,0.07440792417526239,-0.00269065475463845
0.752271350696547,0.0911547240257263,-0.131563755512238,-0.00508567428588845
0.752877044215627,0.0648095091819763,-0.0118127789497376,-0.127231670379638
0.753482737734706,-0.0645215455055237,-0.0597131695747376,0.124245380401612
0.754088431253786,-0.0214111939430237,-0.0501330914497376,0.033234638214111496
0.754694124772865,-0.0285962525367737,0.0456676898002624,-0.00508567428588845
0.755299818291944,-0.0693115845680237,-0.236944614887238,-0.0122707328796385
0.755905511811024,-0.0405713501930237,0.0672228655815124,0.14819557571411202
0.756511205330103,-0.047756408786773695,-0.172279087543488,0.251181415557862
0.757116898849182,0.0025390013694763097,0.00255733823776244,-0.122441631317138
0.757722592368262,0.127080016994476,0.08877804136276239,-0.00269065475463845
0.758328285887341,0.17737542715072602,-0.220179478168488,0.0739499702453615
0.75893397940642,0.0193041380882263,-0.0453430523872376,-0.21584739303588799
0.7595396729255,0.218090759181976,-0.16509402894973801,-0.165551982879638
0.760145366444579,0.036069274806976304,0.110333217144012,0.430807880401612
0.760751059963658,-0.18187750253677398,-0.08605838441848761,0.828381122589112
0.761356753482738,0.0336742552757263,-0.0668982281684876,0.660729755401612
0.761962447001817,0.0121190794944763,0.146258510112762,0.694260028839112
0.762568140520896,0.040859313869476305,0.08159298276901239,0.0739499702453615
0.763173834039976,0.0336742552757263,0.112728236675262,-0.170342021942138
0.763779527559055,-0.052546447849273696,0.0360876116752624,0.131430438995362
0.764385221078134,0.18695550527572602,0.148653529644012,0.0643698921203615
0.764990914597214,0.12468499746322599,0.208529017925262,0.061974872589111496
0.765596608116293,-0.0621265259742737,-0.08605838441848761,-0.00508567428588845
0.766202301635373,-0.0908667603492737,-0.0237878766059876,0.0188645210266115
0.766807995154452,-0.205827697849274,0.0600378069877624,-0.0984914360046385
0.767413688673531,0.0528344115257263,-0.0189978375434876,0.10748024368286199
0.768019382192611,0.0911547240257263,0.10314815855026199,-0.00987571334838845
0.76862507571169,-0.00225103769302369,-0.004627720355987561,-0.203872295379638
0.769230769230769,0.0504393919944763,0.000162318706512438,0.119455341339112
0.769836462749849,0.036069274806976304,-0.126773716449738,-0.00987571334838845
0.770442156268928,0.0672045287132263,-0.210599400043488,-0.21584739303588799
0.771047849788007,-0.0669165650367737,-0.177069126605988,0.0140744819641115
0.771653543307087,0.0719945677757263,-0.0740832867622376,0.00449440383911155
0.772259236826166,0.0552294310569763,0.0145324358940124,-0.0314308891296385
0.772864930345245,-0.047756408786773695,0.07919796323776239,0.20807106399536202
0.773470623864325,0.103129821681976,0.0696178851127624,0.191305927276612
0.774076317383404,0.0121190794944763,0.0648278460502624,0.0667649116516115
0.774682010902483,0.14145013418197602,0.0576427874565124,0.0955051460266115
0.775287704421563,0.110314880275726,-0.09563846254348761,0.191305927276612
0.775893397940642,-0.0262012330055237,-0.117193638324738,0.0116794624328615
0.776499091459721,0.134265075588226,-0.0118127789497376,0.0428147163391115
0.777104784978801,0.12468499746322599,0.0983581194877624,0.0547898139953615
0.77771047849788,-0.174692443943024,-0.124378696918488,-0.0793312797546385
0.778316172016959,-0.014226135349273701,0.0959630999565124,-0.0529860649108885
0.778921865536039,0.18216546621322602,0.0241125140190124,-0.0266408500671385
0.779527559055118,-0.019016174411773702,-0.131563755512238,-0.0913063774108885
0.780133252574197,0.0743895873069763,0.124703334331512,0.021259540557861497
0.780738946093277,-0.08128668222427371,0.052852748394012404,0.169750751495362
0.781344639612356,0.160610290431976,0.0312975726127624,0.0356296577453615
0.781950333131435,0.13187005605697602,0.0336925921440124,0.20807106399536202
0.782556026650515,0.026489196681976298,-0.136353794574738,0.0667649116516115
0.783161720169594,-0.0166211548805237,-0.0549231305122376,0.229626239776612
0.783767413688674,-0.042966369724273694,-0.08845340394973761,0.311056903839112
0.784373107207753,0.134265075588226,-0.08845340394973761,-0.0481960258483885
0.784978800726832,0.0600194701194763,0.0384826312065124,0.0715549507141115
0.785584494245912,-0.0357813111305237,0.201343959331512,0.0907151069641115
0.786190187764991,0.0169091185569763,-0.0477380719184876,0.033234638214111496
0.78679588128407,-0.0980518189430237,-0.162699009418488,0.16256569290161202
0.78740157480315,-0.189062561130524,0.165418666362762,0.243996356964112
0.788007268322229,0.09833978261947629,0.0576427874565124,0.277526630401612
0.788612961841308,0.0839696654319763,0.0408776507377624,0.22244118118286202
0.789218655360388,0.09354974355697629,-0.189044224262238,-0.0673561820983885
0.789824348879467,-0.196247619724274,0.0576427874565124,0.5002634468078621
0.790430042398546,-0.124397033786774,0.174998744487762,0.0931101264953615
0.791035735917626,0.189350524806976,0.00495235776901244,0.121850360870362
0.791641429436705,0.00972405996322631,-0.117193638324738,-0.158366924285888
0.792247122955784,-0.00225103769302369,-0.124378696918488,-0.170342021942138
0.792852816474864,-0.0166211548805237,-0.028577915668487597,-0.0362209281921385
0.793458509993943,0.0480443724632263,-0.038157993793487596,-0.251772686004638
0.794064203513022,0.0839696654319763,-0.0764783062934876,0.164960712432862
0.794669897032102,-0.0645215455055237,-0.119588657855988,-0.07454124069213851
0.795275590551181,0.0576244505882263,0.09117306089401239,-0.000295635223388454
0.79588128407026,-0.00225103769302369,0.016927455425262403,-0.15118186569213798
0.79648697758934,-0.18666754159927398,-0.160303989887238,-0.15118186569213798
0.797092671108419,-0.00704107675552369,-0.0621081891059876,-0.184712139129638
0.797698364627498,0.119894958400726,0.0648278460502624,-0.0505910453796385
0.798304058146578,-0.19145758066177399,0.000162318706512438,-0.019455791473388502
0.798909751665657,-0.102841858005524,-0.0692932476997376,-0.07454124069213851
0.799515445184736,-0.0285962525367737,-0.102823521137238,-0.057776103973388504
0.800121138703816,-0.0693115845680237,0.0672228655815124,0.179330829620362
0.800726832222895,-0.22259283456802398,0.122308314800262,-0.0386159477233885
0.801332525741975,-0.00464605722427369,-0.016602818012237598,-0.057776103973388504
0.801938219261054,0.174980407619476,-0.0118127789497376,0.191305927276612
0.802543912780133,-0.0262012330055237,0.110333217144012,-0.0242458305358885
0.803149606299213,0.0312792357444763,-0.268079868793488,0.0452097358703615
0.803755299818292,0.09354974355697629,-0.215389439105988,-0.0122707328796385
0.804360993337371,-0.0262012330055237,0.273194545269012,0.0356296577453615
0.804966686856451,-0.047756408786773695,0.258824428081512,0.00209938430786155
0.80557238037553,0.0791796263694763,-0.016602818012237598,-0.07454124069213851
0.806178073894609,0.09594476308822629,-0.0692932476997376,0.191305927276612
0.806783767413689,0.163005309963226,0.0576427874565124,0.0883200874328615
0.807389460932768,-0.13158209238052399,-0.186649204730988,0.0571848335266115
0.807995154451847,0.0911547240257263,0.0360876116752624,-0.0122707328796385
0.808600847970927,0.16779534902572601,-0.026182896137237597,0.0356296577453615
0.809206541490006,-0.07649664316177371,-0.0621081891059876,0.059579853057861495
0.809812235009085,0.0336742552757263,-0.0716882672309876,0.16735573196411202
0.810417928528165,-0.019016174411773702,-0.0429480328559876,0.141010517120362
0.811023622047244,-0.0285962525367737,0.08638302183151239,-0.0122707328796385
0.811629315566323,0.0240941771507263,0.0193224749565124,0.0787400093078615
0.812235009085403,0.043254333400726305,0.201343959331512,0.0404196968078615
0.812840702604482,0.143845153713226,-0.033367954730987595,0.023654560089111498
0.813446396123562,0.0528344115257263,-0.112403599262238,0.0356296577453615
0.814052089642641,-0.0333862915992737,-0.196229282855988,0.00209938430786155
0.81465778316172,-0.0214111939430237,-0.263289829730988,-0.0434059867858885
0.815263476680799,-0.08607672128677371,-0.141143833637238,0.033234638214111496
0.815869170199879,-0.0285962525367737,0.139073451519012,0.0835300483703615
0.816474863718958,-0.045361389255523694,0.143863490581512,0.0931101264953615
0.817080557238038,0.0552294310569763,-0.09803348207473761,0.22244118118286202
0.817686250757117,0.112709899806976,0.0217174944877624,0.112270282745362
0.818291944276196,-0.07170660409927371,0.143863490581512,0.0164695014953615
0.818897637795276,-0.105236877536774,-0.0645032086372376,0.184120868682862
0.819503331314355,-0.0956567994117737,-0.208204380512238,0.35416725540161204
0.820109024833434,-0.0238062134742737,-0.08845340394973761,0.193700946807862
0.820714718352514,-0.0262012330055237,0.115123256206512,0.416437763214112
0.821320411871593,-0.08128668222427371,-0.033367954730987595,0.545768817901612
0.821926105390672,0.0121190794944763,-0.114798618793488,0.603249286651612
0.822531798909752,0.038464294338226304,0.0073473773002624395,0.272736591339112
0.823137492428831,-0.0357813111305237,-0.0405530133247376,-0.235007549285888
0.82374318594791,0.0839696654319763,0.10554317808151199,0.0763449897766115
0.82434887946699,0.0815746459007263,-0.028577915668487597,0.248786396026612
0.824954572986069,-0.13158209238052399,-0.016602818012237598,0.00688942337036155
0.825560266505148,-0.0884717408180237,-0.0237878766059876,-0.0458010063171385
0.826165960024228,0.14145013418197602,-0.0645032086372376,-0.021850811004638503
0.826771653543307,-0.0262012330055237,-0.0022327008247375597,0.0188645210266115
0.827377347062386,-0.0357813111305237,-0.0692932476997376,0.138615497589112
0.827983040581466,0.038464294338226304,0.19415890073776199,-0.17752708053588798
0.828588734100545,-0.169902404880524,0.163023646831512,-0.110466533660888
0.829194427619624,-0.07410162363052371,-0.0429480328559876,0.0691599311828615
0.829800121138704,0.143845153713226,-0.0597131695747376,0.239206317901612
0.830405814657783,-0.00464605722427369,-0.0716882672309876,0.349377216339112
0.831011508176863,-0.0956567994117737,-0.157908970355988,0.0380246772766115
0.831617201695942,0.170190368556976,-0.0764783062934876,0.145800556182862
0.832222895215021,0.045649352931976306,0.016927455425262403,0.15298561477661202
0.8328285887341,-0.0166211548805237,-0.09324344301223761,-0.00748069381713845
0.83343428225318,-0.07649664316177371,-0.201019321918488,0.0547898139953615
0.834039975772259,-0.0573364869117737,-0.0022327008247375597,0.023654560089111498
0.834645669291339,-0.0357813111305237,0.09117306089401239,-0.0553810844421385
0.835251362810418,-0.141162170505524,-0.016602818012237598,0.0547898139953615
0.835857056329497,0.0767846068382263,0.0672228655815124,0.023654560089111498
0.836462749848577,0.0648095091819763,-0.09084842348098761,0.0547898139953615
0.837068443367656,-0.15313726816177398,-0.198624302387238,0.23681129837036202
0.837674136886735,-0.198642639255524,-0.0692932476997376,-0.0673561820983885
0.838279830405815,-0.100446838474274,0.0696178851127624,-0.0505910453796385
0.838885523924894,-0.122002014255524,-0.0022327008247375597,-0.00508567428588845
0.839491217443973,-0.00464605722427369,0.115123256206512,-0.0362209281921385
0.840096910963053,0.09594476308822629,0.000162318706512438,0.121850360870362
0.840702604482132,0.09594476308822629,-0.22975955629348802,0.0571848335266115
0.841308298001211,-0.0381763306617737,0.0983581194877624,0.0787400093078615
0.841913991520291,-0.10763189706802401,0.000162318706512438,0.00928444290161155
0.84251968503937,0.0648095091819763,-0.0692932476997376,0.0308396186828615
0.843125378558449,-0.052546447849273696,0.0456676898002624,-0.0625661430358885
0.843731072077529,-0.052546447849273696,-0.09084842348098761,-0.0649611625671385
0.844336765596608,-0.10763189706802401,0.00255733823776244,0.0164695014953615
0.844942459115687,-0.07170660409927371,0.167813685894012,-0.129626689910888
0.845548152634767,0.153425231838226,0.115123256206512,0.17214577102661202
0.846153846153846,0.0336742552757263,0.10554317808151199,0.023654560089111498
0.846759539672925,-0.0214111939430237,0.201343959331512,0.0571848335266115
0.847365233192005,0.0719945677757263,0.009742396831512441,-0.0697512016296385
0.847970926711084,0.0216991576194763,-0.00941775941848756,-0.0290358695983885
0.848576620230164,-0.0573364869117737,0.359415248394012,0.17214577102661202
0.849182313749243,-0.0262012330055237,0.107938197612762,-0.00987571334838845
0.849788007268322,-0.0573364869117737,0.00495235776901244,0.485893329620362
0.850393700787402,-0.00225103769302369,-0.0501330914497376,-0.019455791473388502
0.850999394306481,-0.050151428318023696,0.07680294370651239,-0.0170607719421385
0.85160508782556,0.004934020900726309,0.10554317808151199,0.0476047554016115
0.85221078134464,-0.0214111939430237,-0.026182896137237597,-0.366733623504638
0.852816474863719,-0.0262012330055237,0.222899135112762,0.0955051460266115
0.853422168382798,0.0767846068382263,-0.0836633648872376,0.10987526321411199
0.854027861901878,0.0288842162132263,-0.0237878766059876,0.021259540557861497
0.854633555420957,0.0528344115257263,-0.0429480328559876,0.0476047554016115
0.855239248940036,0.0240941771507263,-0.0405530133247376,0.061974872589111496
0.855844942459116,0.12228997793197599,0.0265075335502624,0.17693581008911202
0.856450635978195,0.103129821681976,0.00255733823776244,0.0667649116516115
0.857056329497274,0.036069274806976304,0.191763881206512,-0.0841213188171385
0.857662023016354,0.103129821681976,-0.0501330914497376,0.131430438995362
0.858267716535433,-0.045361389255523694,-0.181859165668488,0.220046161651612
0.858873410054512,0.0552294310569763,0.009742396831512441,-0.0434059867858885
0.859479103573592,0.12228997793197599,0.163023646831512,-0.0673561820983885
0.860084797092671,-0.0908667603492737,0.09356808042526239,-0.07454124069213851
0.86069049061175,0.213300720119476,0.0265075335502624,0.133825458526612
0.86129618413083,-0.08368170175552371,0.00255733823776244,0.184120868682862
0.861901877649909,0.0169091185569763,-0.004627720355987561,0.0835300483703615
0.862507571168988,0.184560485744476,-0.0668982281684876,0.10508522415161199
0.863113264688068,0.115104919338226,-0.0692932476997376,-0.21584739303588799
0.863718958207147,0.163005309963226,0.000162318706512438,0.00209938430786155
0.864324651726227,0.004934020900726309,-0.035762974262237596,0.138615497589112
0.864930345245306,-0.136372131443024,-0.124378696918488,0.0811350288391115
0.865536038764385,-0.141162170505524,0.174998744487762,-0.139206768035888
0.866141732283465,0.16779534902572601,0.119913295269012,0.0667649116516115
0.866747425802544,0.115104919338226,0.009742396831512441,0.229626239776612
0.867353119321623,-0.052546447849273696,0.107938197612762,-0.060171123504638505
0.867958812840703,0.14145013418197602,-0.0621081891059876,-0.134416728973388
0.868564506359782,0.0312792357444763,-0.0716882672309876,-0.14160178756713798
0.869170199878861,0.0169091185569763,-0.112403599262238,0.0452097358703615
0.869775893397941,0.036069274806976304,0.0073473773002624395,0.155380634307862
0.87038158691702,-0.00225103769302369,0.110333217144012,0.0907151069641115
0.870987280436099,0.230065856838226,-0.00702273988723756,0.0428147163391115
0.871592973955179,0.0624144896507263,0.0384826312065124,-0.0481960258483885
0.872198667474258,0.004934020900726309,0.0193224749565124,0.0715549507141115
0.872804360993337,-0.0118311158180237,-0.172279087543488,0.0907151069641115
0.873410054512417,0.0121190794944763,-0.110008579730988,0.133825458526612
0.874015748031496,0.119894958400726,0.210924037456512,-0.0386159477233885
0.874621441550575,-0.042966369724273694,0.07201290464401239,-0.124836650848388
0.875227135069655,-0.0573364869117737,0.201343959331512,0.0547898139953615
0.875832828588734,-0.014226135349273701,0.136678431987762,-0.00987571334838845
0.876438522107813,0.0480443724632263,-0.0812683453559876,-0.00987571334838845
0.877044215626893,0.139055114650726,0.0217174944877624,0.0116794624328615
0.877649909145972,-0.105236877536774,-0.105218540668488,0.0308396186828615
0.878255602665051,0.0624144896507263,0.151048549175262,0.00688942337036155
0.878861296184131,0.15103021230697602,0.136678431987762,0.10269020462036199
0.87946698970321,-0.100446838474274,0.009742396831512441,0.0499997749328615
0.880072683222289,-0.00704107675552369,0.07201290464401239,0.387697528839112
0.880678376741369,-0.11721197519302401,-0.107613560199738,0.033234638214111496
0.881284070260448,0.0576244505882263,-0.110008579730988,0.27513161087036203
0.881889763779528,0.0648095091819763,0.0959630999565124,0.766110614776612
0.882495457298607,-0.08607672128677371,-0.0429480328559876,0.0931101264953615
0.883101150817686,-0.052546447849273696,0.18936886167526198,0.0643698921203615
0.883706844336766,-0.11002691659927401,0.122308314800262,0.174540790557862
0.884312537855845,0.0672045287132263,0.052852748394012404,-0.000295635223388454
0.884918231374924,-0.07649664316177371,-0.038157993793487596,-0.0505910453796385
0.885523924894004,0.0887597044944763,-0.0213928570747376,-0.07214622116088851
0.886129618413083,0.179770446681976,0.12949337339401198,0.200886005401612
0.886735311932162,-0.122002014255524,0.139073451519012,-0.0769362602233885
0.887341005451242,0.0288842162132263,0.119913295269012,0.133825458526612
0.887946698970321,0.0288842162132263,0.0648278460502624,0.160170673370362
0.8885523924894,-0.00704107675552369,-0.0118127789497376,-0.0146657524108885
0.88915808600848,-0.07170660409927371,-0.028577915668487597,0.138615497589112
0.889763779527559,0.21090570058822602,0.246849330425262,-0.0338259086608885
0.890369473046638,0.155820251369476,-0.00941775941848756,-0.13202170944213798
0.890975166565718,-0.0549414673805237,-0.0189978375434876,0.0476047554016115
0.891580860084797,-0.0381763306617737,0.172603724956512,0.16256569290161202
0.892186553603876,-0.0285962525367737,-0.265684849262238,0.141010517120362
0.892792247122956,0.0672045287132263,0.122308314800262,0.179330829620362
0.893397940642035,-0.00943609628677369,0.246849330425262,0.0188645210266115
0.894003634161115,-0.126792053318024,-0.248919712543488,0.00449440383911155
0.894609327680194,0.000143981838226313,-0.026182896137237597,-0.00987571334838845
0.895215021199273,0.0719945677757263,-0.0740832867622376,-0.000295635223388454
0.895820714718352,0.0336742552757263,-0.09803348207473761,0.141010517120362
0.896426408237432,-0.00943609628677369,0.0336925921440124,0.15777565383911202
0.897032101756511,-0.0597315064430237,0.158233607769012,-0.0242458305358885
0.897637795275591,0.213300720119476,-0.0525281109809876,0.0883200874328615
0.89824348879467,0.0839696654319763,-0.102823521137238,-0.179922100067138
0.898849182313749,0.184560485744476,0.136678431987762,-0.122441631317138
0.899454875832829,0.163005309963226,0.009742396831512441,-0.0362209281921385
0.900060569351908,-0.08607672128677371,-0.0645032086372376,0.0308396186828615
0.900666262870987,-0.0645215455055237,-0.0716882672309876,-0.117651592254638
0.901271956390067,0.0672045287132263,-0.145933872699738,0.0523947944641115
0.901877649909146,-0.00943609628677369,-0.004627720355987561,0.0835300483703615
0.902483343428225,-0.0693115845680237,-0.00941775941848756,0.061974872589111496
0.903089036947305,0.09594476308822629,0.0408776507377624,-0.0146657524108885
0.903694730466384,0.0624144896507263,0.08638302183151239,-0.110466533660888
0.904300423985463,-0.00464605722427369,-0.0022327008247375597,-0.00987571334838845
0.904906117504543,0.00732904043197631,0.0336925921440124,-0.134416728973388
0.905511811023622,-0.0238062134742737,0.146258510112762,0.0284445991516115
0.906117504542701,0.00732904043197631,0.0145324358940124,0.0523947944641115
0.906723198061781,0.110314880275726,0.0696178851127624,-0.0769362602233885
0.90732889158086,0.0528344115257263,0.07680294370651239,0.023654560089111498
0.907934585099939,-0.00943609628677369,0.050457728862762403,0.14819557571411202
0.908540278619019,0.0887597044944763,-0.181859165668488,-0.0481960258483885
0.909145972138098,-0.045361389255523694,-0.138748814105988,0.10748024368286199
0.909751665657177,-0.0238062134742737,0.160628627300262,0.507448505401612
0.910357359176257,0.00732904043197631,-0.112403599262238,-0.13681174850463798
0.910963052695336,0.14624017324447602,-0.016602818012237598,-0.218242412567138
0.911568746214416,0.15103021230697602,-0.035762974262237596,-0.117651592254638
0.912174439733495,-0.0118311158180237,-0.112403599262238,-0.0386159477233885
0.912780133252574,0.0216991576194763,0.055247767925262405,0.179330829620362
0.913385826771653,0.14624017324447602,-0.117193638324738,0.0188645210266115
0.913991520290733,-0.0166211548805237,-0.035762974262237596,-0.019455791473388502
0.914597213809812,0.0624144896507263,0.0121374163627624,0.00688942337036155
0.915202907328892,0.0528344115257263,0.0360876116752624,0.0883200874328615
0.915808600847971,-0.315998596286774,0.122308314800262,-0.0242458305358885
0.91641429436705,-0.0309912720680237,-0.162699009418488,0.0308396186828615
0.91701998788613,0.13666009511947602,-0.129168735980988,0.0979001655578615
0.917625681405209,0.112709899806976,0.256429408550262,0.14340553665161201
0.918231374924288,0.026489196681976298,0.153443568706512,0.0428147163391115
0.918837068443368,-0.08368170175552371,-0.107613560199738,-0.000295635223388454
0.919442761962447,-0.122002014255524,-0.0189978375434876,0.0284445991516115
0.920048455481526,-0.08607672128677371,0.115123256206512,-0.0146657524108885
0.920654149000606,0.038464294338226304,0.07919796323776239,0.0380246772766115
0.921259842519685,0.000143981838226313,-0.033367954730987595,-0.0889113578796385
0.921865536038764,0.127080016994476,0.0672228655815124,0.00928444290161155
0.922471229557844,0.040859313869476305,-0.033367954730987595,0.021259540557861497
0.923076923076923,0.0887597044944763,0.0241125140190124,-0.110466533660888
0.923682616596002,0.0791796263694763,0.052852748394012404,-0.0649611625671385
0.924288310115082,-0.08368170175552371,-0.117193638324738,-0.175132061004638
0.924894003634161,0.026489196681976298,-0.09324344301223761,-0.100886455535888
0.92549969715324,-0.17229742441177398,-0.0621081891059876,-0.0386159477233885
0.92610539067232,-0.014226135349273701,-0.0716882672309876,-0.115256572723388
0.926711084191399,0.09354974355697629,0.10554317808151199,-0.13202170944213798
0.927316777710478,-0.07170660409927371,0.0648278460502624,0.026049579620361498
0.927922471229558,0.0193041380882263,0.0696178851127624,-0.21584739303588799
0.928528164748637,0.026489196681976298,-0.014207798480987601,0.184120868682862
0.929133858267717,0.0528344115257263,-0.0836633648872376,0.0140744819641115
0.929739551786796,-0.11242193613052401,-0.035762974262237596,-0.251772686004638
0.930345245305875,-0.122002014255524,0.0600378069877624,0.0428147163391115
0.930950938824954,0.0193041380882263,0.232479213237762,0.145800556182862
0.931556632344034,-0.07889166269302371,-0.227364536762238,0.23202125930786202
0.932162325863113,0.103129821681976,-0.038157993793487596,-0.0960964164733885
0.932768019382193,0.0576244505882263,0.0265075335502624,0.026049579620361498
0.933373712901272,-0.00225103769302369,-0.167489048480988,0.0667649116516115
0.933979406420351,0.0600194701194763,0.112728236675262,-0.0625661430358885
0.934585099939431,0.107919860744476,0.07201290464401239,0.0476047554016115
0.93519079345851,0.16779534902572601,-0.09563846254348761,0.0739499702453615
0.935796486977589,0.0121190794944763,0.0193224749565124,0.114665302276612
0.936402180496669,-0.23217291269302398,0.225294154644012,0.289501728057862
0.937007874015748,-0.019016174411773702,0.08398800230026239,-0.00987571334838845
0.937613567534827,0.038464294338226304,0.0241125140190124,-0.021850811004638503
0.938219261053907,-0.138767150974274,-0.026182896137237597,-0.0362209281921385
0.938824954572986,-0.141162170505524,-0.09563846254348761,-0.060171123504638505
0.939430648092065,0.09833978261947629,-0.026182896137237597,0.033234638214111496
0.940036341611145,0.0480443724632263,-0.0645032086372376,-0.18710715866088798
0.940642035130224,0.117499938869476,-0.014207798480987601,-0.230217510223388
0.941247728649303,0.038464294338226304,0.13428341245651199,-0.235007549285888
0.941853422168383,-0.258518127536774,-0.014207798480987601,0.320636981964112
0.942459115687462,0.110314880275726,-0.0621081891059876,0.449968036651612
0.943064809206541,-0.196247619724274,0.016927455425262403,0.160170673370362
0.943670502725621,-0.042966369724273694,0.0336925921440124,-0.0362209281921385
