Time (s),Accel X (m/s^2),Accel Y (m/s^2),Accel Z (m/s^2)
0.0,0.168084809589386,0.0274074434280396,-0.106145581626892
0.000605693519079346,-0.030701811504363997,-0.28394509563446,0.214787035560608
0.00121138703815869,-0.021121733379364,0.0992580293655396,0.17646672306060798
0.00181708055723804,0.117789399433136,0.18068869342804,0.135751391029358
0.00242277407631738,0.170479829120636,-0.16179909954070998,0.049530687904357995
0.00302846759539673,0.033963715839386,0.0705177949905396,0.051925707435607996
0.00363416111447607,0.036358735370636,0.00585226764678956,0.164491625404358
0.00423985463355542,0.045938813495636,-0.0875534940719604,0.075875902748108
0.00484554815263477,-0.059442045879364004,-0.11629372844696001,0.159701586341858
0.00545124167171411,-0.100157377910614,0.0537526582717896,-0.043875073814392006
0.00605693519079346,-0.119317534160614,0.17589865436554,-0.12291071834564199
0.0066626287098728,0.129764497089386,-0.13545388469696,-0.012739819908142
0.00726832222895215,0.175269868183136,0.13518332233429,0.037555590248108
0.0078740157480315,-0.162427885723114,0.15673849811554,0.17167668399810798
0.00847970926711084,0.067493989276886,-0.25759988079071,0.035160570716858
0.00908540278619019,0.093839204120636,-0.20490945110321,-0.288167066001892
0.00969109630526953,-0.10494741697311401,0.18068869342804,0.336933031654358
0.0102967898243489,0.07467904787063599,-0.0228879667282104,0.7129510980606081
0.0109024833434282,-0.025911772441864,-0.0779734159469604,0.085455980873108
0.0115081768625076,0.144134614276886,0.13997336139679,0.183651781654358
0.0121138703815869,0.220775239276886,0.31001974811554,0.229157152748108
0.0127195639006663,-0.112132475566864,0.00106222858428956,-0.218711499595642
0.0133252574197456,0.012408540058135999,0.00585226764678956,0.020790453529358
0.013930950938825,0.084259125995636,0.12799826374054,0.140541430091858
0.0145366444579043,-0.090577299785614,-0.19293435344696,0.17167668399810798
0.0151423379769836,0.062703950214386,0.26451437702179,0.16209660587310798
0.015748031496063,-0.097762358379364,0.10165304889679,-0.082195386314392
0.0163537250151423,-0.212723295879364,0.0321974824905396,-0.166021069908142
0.0169594185342217,-0.009146635723114001,0.22858908405304001,-0.017529858970642
0.017565112053301,0.07707406740188599,-0.0204929471969604,-0.048665112876892
0.0181708055723804,0.108209321308136,0.0345925020217896,0.10940617618560801
0.0187764990914597,-0.004356596660614,0.0417775606155396,0.205206957435608
0.0193821926105391,0.029173676776886003,0.15194845905304002,-0.07501032772064199
0.0199878861296184,-0.049861967754364,0.0777028535842896,0.14772648868560798
0.0205935796486978,-0.021121733379364,0.0250124238967896,0.051925707435607996
0.0211992731677771,0.105814301776886,0.10644308795929,0.039950609779358
0.0218049666868564,-0.045071928691864,-0.16658913860320998,-0.06543024959564199
0.0224106602059358,-0.009146635723114001,-0.049233181571960404,-0.230686597251892
0.0230163537250151,0.168084809589386,0.0417775606155396,-0.07261530818939199
0.0236220472440945,-0.054652006816864,-0.19053933391570999,-0.012739819908142
0.0242277407631738,-0.116922514629364,-0.0109128690719604,0.126171312904358
0.0248334342822532,0.093839204120636,0.0489626192092896,0.15730656681060798
0.0254391278013325,0.07467904787063599,-0.17377419719696,0.059110766029358
0.0260448213204119,-0.023516752910614,-0.0348630643844604,0.126171312904358
0.0266505148394912,0.021988618183136,-0.14024392375946,0.035160570716858
0.0272562083585706,-0.045071928691864,-0.11150368938446001,0.097431078529358
0.0278619018776499,0.043543793964386,0.017827365303039598,-0.012739819908142
0.0284675953967293,0.165689790058136,0.11123312702179,-0.007949780845642
0.0290732889158086,-0.052256987285614,0.0920729707717896,0.135751391029358
0.0296789824348879,0.038753754901886,-0.0204929471969604,-0.108540601158142
0.0302846759539673,0.07707406740188599,-0.12587380657196,-0.010344800376892
0.0308903694730466,0.129764497089386,-0.16898415813446,-0.06543024959564199
0.031496062992126,0.026778657245636002,0.0202223848342896,-0.17320612850189201
0.0321017565112053,-0.14087270994186402,-0.00612283000946044,-0.12291071834564199
0.0327074500302847,-0.037886870098114,0.0345925020217896,-0.113330640220642
0.033313143549364,0.084259125995636,0.20224386920929002,-0.108540601158142
0.0339188370684434,0.045938813495636,0.0537526582717896,0.22676213321685798
0.0345245305875227,0.117789399433136,-0.14263894329071,0.054320726966857996
0.0351302241066021,0.227960297870636,0.0489626192092896,0.138146410560608
0.0357359176256814,0.187244965839386,0.010642306709289602,0.17167668399810798
0.0363416111447607,-0.011541655254364,-0.32945046672821,-0.189971265220642
0.0369473046638401,-0.13608267087936401,-0.00851784954071044,0.044740648841857994
0.0375529981829194,0.096234223651886,0.0800978731155396,0.291427660560608
0.0381586917019988,-0.004356596660614,0.00824728717803956,0.023185473060608
0.0387643852210781,-0.004356596660614,-0.0995285917282104,0.080665941810608
0.0393700787401575,0.108209321308136,-0.26478493938446,0.006420336341858001
0.0399757722592368,-0.071417143535614,-0.09713357219696041,0.521349535560608
0.0405814657783162,0.050728852558136,-0.09713357219696041,0.408783617591858
0.0411871592973955,0.139344575214386,-0.16658913860320998,-0.012739819908142
0.0417928528164749,-0.069022124004364,-0.20011941204071,0.238737230873108
0.0423985463355542,0.014803559589386,-0.19772439250946,-0.07740534725189199
0.0430042398546336,-0.076207182598114,-0.11868874797821,-0.041480054283142005
0.0436099333737129,-0.080997221660614,-0.14024392375946,0.126171312904358
0.0442156268927922,0.194430024433136,-0.0564182401657104,0.11419621524810801
0.0448213204118716,0.120184418964386,0.0585426973342896,-0.0031597417831420002
0.0454270139309509,-0.033096831035614005,0.0609377168655396,0.063900805091858
0.0460327074500303,-0.006751616191864,-0.030073025321960403,0.063900805091858
0.0466384009691096,0.021988618183136,0.00824728717803956,-0.0031597417831420002
0.047244094488189,0.182454926776886,-0.0324680448532104,0.032765551185608
0.0478497880072683,0.117789399433136,-0.0396531034469604,0.04234562931060799
0.0484554815263477,0.002828461933136,0.0130373262405396,0.001630297279358
0.049061175045427,0.103419282245636,0.19505881061554,-0.039085034751892005
0.0496668685645064,0.012408540058135999,-0.0659983182907104,-0.012739819908142
0.0502725620835857,0.017198579120636,-0.16179909954070998,0.049530687904357995
0.050878255602665,-0.076207182598114,0.039382541084289596,0.04234562931060799
0.0514839491217444,0.000433442401886003,-0.0636032987594604,0.011210375404358
0.0520896426408237,-0.119317534160614,-0.0396531034469604,0.020790453529358
0.0526953361599031,0.062703950214386,-0.12347878704071,0.10461613712310801
0.0533010296789824,0.16329477052688599,-0.10192361125946,0.229157152748108
0.0539067231980618,-0.143267729473114,-0.013307888603210399,0.324957933998108
0.0545124167171411,0.021988618183136,-0.027678005790710402,0.10222111759185801
0.0551181102362205,0.024383637714386,-0.18814431438446,-0.163626050376892
0.0557238037552998,0.215985200214386,0.10165304889679,-0.163626050376892
0.0563294972743792,0.220775239276886,0.0872829317092896,-0.096565503501892
0.0569351907934585,-0.203143217754364,-0.049233181571960404,-0.108540601158142
0.0575408843125379,-0.028306791973114,-0.0252829862594604,0.10222111759185801
0.0581465778316172,0.374056489276886,-0.00612283000946044,-0.029504956626892
0.0587522713506965,0.168084809589386,-0.0444431425094604,-0.221106519126892
0.0593579648697759,0.048333833026886,-0.15461404094696,0.035160570716858
0.0599636583888552,0.230355317401886,0.0345925020217896,0.130961351966858
0.0605693519079346,0.050728852558136,-0.0157029081344604,0.063900805091858
0.0611750454270139,0.129764497089386,-0.09473855266571041,0.154911547279358
0.0617807389460933,0.086654145526886,-0.051628201103210404,0.411178637123108
0.0623864324651726,0.000433442401886003,0.14715841999054002,-0.034294995689392004
0.062992125984252,0.115394379901886,0.0896779512405396,0.164491625404358
0.0635978195033313,0.084259125995636,0.19745383014679002,0.277057543373108
0.0642035130224107,0.093839204120636,-0.11389870891571001,-0.024714917564392
0.06480920654149,0.031568696308136,-0.22167458782195998,0.056715746498108
0.0654149000605694,-0.028306791973114,-0.00133279094696044,0.092641039466858
0.0660205935796487,-0.023516752910614,-0.18574929485320998,0.099826098060608
0.066626287098728,0.110604340839386,-0.0372580839157104,-0.039085034751892005
0.0672319806178074,-0.092972319316864,-0.13784890422821,0.10222111759185801
0.0678376741368867,0.031568696308136,-0.10431863079071,0.006420336341858001
0.0684433676559661,0.285440766620636,0.0441725801467896,-0.257031812095642
0.0690490611750454,0.091444184589386,0.10404806842804,-0.022319898033142
0.0696547546941248,0.019593598651886,-0.11868874797821,-0.204341382408142
0.0702604482132041,0.021988618183136,0.0202223848342896,0.358488207435608
0.0708661417322835,-0.148057768535614,0.25732931842803997,0.439918871498108
0.0714718352513628,-0.054652006816864,-0.0180979276657104,-0.292957105064392
0.0720775287704422,-0.004356596660614,0.0657277559280396,-0.043875073814392006
0.0726832222895215,-0.083392241191864,0.25972433795929,-0.120515698814392
0.0732889158086008,-0.073812163066864,-0.21448952922821,0.15730656681060798
0.0738946093276802,0.067493989276886,-0.22167458782195998,0.150121508216858
0.0745003028467595,0.093839204120636,-0.0803684354782104,0.121381273841858
0.0751059963658389,-0.040281889629364,-0.0851584745407104,0.28424260196685797
0.0757116898849182,0.22317025880813599,0.0441725801467896,0.286637621498108
0.0763173834039976,0.067493989276886,-0.15940408000946,-0.019924878501892
0.0769230769230769,-0.088182280254364,-0.0779734159469604,-0.036690015220642004
0.0775287704421563,0.041148774433136,-0.0875534940719604,-0.094170483970642
0.0781344639612356,0.043543793964386,0.0321974824905396,0.092641039466858
0.078740157480315,0.086654145526886,-0.013307888603210399,0.090246019935608
0.0793458509993943,0.103419282245636,-0.0851584745407104,-0.31451228084564203
0.0799515445184737,0.261490571308136,-0.0372580839157104,0.051925707435607996
0.080557238037553,0.120184418964386,-0.0468381620407104,0.174071703529358
0.0811629315566323,0.079469086933136,-0.0396531034469604,0.056715746498108
0.0817686250757117,0.105814301776886,-0.00851784954071044,0.092641039466858
0.082374318594791,0.079469086933136,0.0513576387405396,0.090246019935608
0.0829800121138704,0.041148774433136,0.0537526582717896,0.023185473060608
0.0835857056329497,0.15850473146438598,0.13039328327179,-0.043875073814392006
0.0841913991520291,-0.260623686504364,0.0345925020217896,-0.110935620689392
0.0847970926711084,-0.13608267087936401,0.12320822467803999,-0.053455151939392
0.0854027861901878,0.117789399433136,0.15194845905304002,0.11180119571685801
0.0860084797092671,-0.042676909160614,0.14236838092804002,0.099826098060608
0.0866141732283465,0.101024262714386,-0.0899485136032104,0.016000414466858
0.0872198667474258,0.002828461933136,0.00106222858428956,-0.130095776939392
0.0878255602665051,-0.157637846660614,0.13278830280304002,0.013605394935608
0.0884312537855845,-0.016331694316863998,-0.17377419719696,0.006420336341858001
0.0890369473046638,0.06988900880813599,-0.0564182401657104,-0.022319898033142
0.0896426408237432,-0.078602202129364,-0.0899485136032104,0.032765551185608
0.0902483343428225,-0.169612944316864,0.0465675996780396,0.142936449623108
0.0908540278619019,-0.040281889629364,0.010642306709289602,0.054320726966857996
0.0914597213809812,0.235145356464386,-0.16898415813446,-0.156440991783142
0.0920654149000606,0.026778657245636002,0.15913351764679,-0.091775464439392
0.0926711084191399,-0.047466948223114,-0.0995285917282104,0.10222111759185801
0.0932768019382193,0.136949555683136,-0.0612082792282104,0.130961351966858
0.0938824954572986,0.089049165058136,-0.16658913860320998,0.087851000404358
0.094488188976378,0.031568696308136,-0.0612082792282104,0.035160570716858
0.0950938824954573,-0.028306791973114,0.24295920124054002,-0.007949780845642
0.0956995760145366,0.036358735370636,0.0705177949905396,0.138146410560608
0.096305269533616,0.012408540058135999,0.0729128145217896,-0.039085034751892005
0.0969109630526953,-0.164822905254364,-0.0420481229782104,0.159701586341858
0.0975166565717747,-0.076207182598114,-0.0324680448532104,-0.089380444908142
0.098122350090854,-0.011541655254364,-0.10671365032196001,-0.12291071834564199
0.0987280436099334,0.055518891620635995,0.0130373262405396,0.023185473060608
0.0993337371290127,0.031568696308136,-0.0899485136032104,-0.189971265220642
0.0999394306480921,0.172874848651886,-0.030073025321960403,0.135751391029358
0.100545124167171,-0.057047026348114004,-0.0612082792282104,0.6363104730606081
0.101150817686251,-0.160032866191864,-0.29113015422821004,0.205206957435608
0.10175651120533,0.055518891620635995,0.0130373262405396,-0.053455151939392
0.102362204724409,-0.172007963848114,-0.0803684354782104,0.11180119571685801
0.102967898243489,0.053123872089386,-0.34621560344696,-0.036690015220642004
0.103573591762568,0.196825043964386,-0.29113015422821004,-0.048665112876892
0.104179285281647,0.053123872089386,0.0681227754592896,-0.096565503501892
0.104784978800727,0.124974458026886,0.029802462959289597,0.17167668399810798
0.105390672319806,0.031568696308136,0.0226174043655396,0.068690844154358
0.105996365838886,0.062703950214386,0.25493429889679003,-0.130095776939392
0.106602059357965,0.050728852558136,-0.0731833768844604,0.016000414466858
0.107207752877044,-0.021121733379364,-0.10192361125946,-0.0055547613143919995
0.107813446396124,0.153714692401886,0.0417775606155396,0.224367113685608
0.108419139915203,0.194430024433136,0.0944679903030396,0.315377855873108
0.109024833434282,0.122579438495636,-0.0875534940719604,-0.029504956626892
0.109630526953362,0.091444184589386,-0.10192361125946,-0.019924878501892
0.110236220472441,0.021988618183136,0.0896779512405396,0.267477465248108
0.11084191399152,0.115394379901886,-0.051628201103210404,0.083060961341858
0.1114476075106,0.026778657245636002,-0.0588132596969604,0.018395433998108
0.112053301029679,0.120184418964386,0.24056418170929,0.10701115665435801
0.112658994548758,0.091444184589386,0.16392355670929,0.035160570716858
0.113264688067838,0.007618500995636,0.00106222858428956,-0.120515698814392
0.113870381586917,0.086654145526886,0.0657277559280396,-0.149255933189392
0.114476075105996,-0.124107573223114,-0.17377419719696,0.085455980873108
0.115081768625076,-0.116922514629364,0.12560324420929,-0.063035230064392
0.115687462144155,0.057913911151885995,-0.0204929471969604,-0.17799616756439202
0.116293155663234,0.019593598651886,0.0321974824905396,0.092641039466858
0.116898849182314,-0.009146635723114001,0.0321974824905396,0.138146410560608
0.117504542701393,-0.047466948223114,-0.14742898235320998,-0.14207087459564202
0.118110236220472,0.045938813495636,0.22379904499054,0.078270922279358
0.118715929739552,-0.028306791973114,0.0274074434280396,0.10940617618560801
0.119321623258631,0.033963715839386,-0.0324680448532104,-0.125305737876892
0.11992731677771,0.21838021974563598,-0.049233181571960404,-0.055850171470642
0.12053301029679,0.060308930683135996,-0.0372580839157104,-0.036690015220642004
0.121138703815869,-0.001961577129364,-0.0109128690719604,-0.127700757408142
0.121744397334949,0.050728852558136,-0.13066384563445999,0.037555590248108
0.122350090854028,0.148924653339386,-0.049233181571960404,-0.086985425376892
0.122955784373107,0.093839204120636,0.00824728717803956,-0.161231030845642
0.123561477892187,-0.028306791973114,0.10644308795929,0.013605394935608
0.124167171411266,0.134554536151886,0.21182394733429002,0.04234562931060799
0.124772864930345,0.036358735370636,-0.12347878704071,0.001630297279358
0.125378558449425,-0.066627104473114,-0.13545388469696,-0.094170483970642
0.125984251968504,-0.009146635723114001,-0.0252829862594604,0.183651781654358
0.126589945487583,-0.083392241191864,0.11602316608429,0.073480883216858
0.127195639006663,0.148924653339386,-0.0827634550094604,-0.019924878501892
0.127801332525742,0.254305512714386,0.017827365303039598,-0.082195386314392
0.128407026044821,0.148924653339386,0.0513576387405396,-0.051060132408142
0.129012719563901,0.048333833026886,-0.14263894329071,-0.094170483970642
0.12961841308298,-0.006751616191864,-0.0444431425094604,-0.223501538658142
0.130224106602059,-0.10494741697311401,-0.0636032987594604,0.14772648868560798
0.130829800121139,-0.207933256816864,0.0872829317092896,0.075875902748108
0.131435493640218,0.053123872089386,0.17589865436554,0.056715746498108
0.132041187159297,-0.023516752910614,0.0585426973342896,0.071085863685608
0.132646880678377,-0.037886870098114,-0.14503396282196,0.083060961341858
0.133252574197456,0.041148774433136,-0.00612283000946044,0.039950609779358
0.133858267716535,0.031568696308136,0.0465675996780396,-0.019924878501892
0.134463961235615,-0.176798002910614,-0.12587380657196,0.133356371498108
0.135069654754694,-0.227093413066864,-0.0875534940719604,-0.017529858970642
0.135675348273773,-0.157637846660614,0.0561476778030396,0.188441820716858
0.136281041792853,-0.011541655254364,0.17350363483429002,-0.007949780845642
0.136886735311932,0.285440766620636,-0.030073025321960403,0.044740648841857994
0.137492428831012,0.081864106464386,-0.00372781047821044,0.020790453529358
0.138098122350091,-0.042676909160614,0.20703390827179002,-0.063035230064392
0.13870381586917,0.031568696308136,-0.051628201103210404,0.073480883216858
0.13930950938825,-0.064232084941864,-0.0588132596969604,0.049530687904357995
0.139915202907329,-0.009146635723114001,0.0489626192092896,0.054320726966857996
0.140520896426408,-0.057047026348114004,0.23816916217804002,0.073480883216858
0.141126589945488,0.019593598651886,0.13039328327179,0.083060961341858
0.141732283464567,-0.054652006816864,-0.0588132596969604,-0.161231030845642
0.142337976983646,0.029173676776886003,-0.15700906047820998,-0.154045972251892
0.142943670502726,0.196825043964386,0.0465675996780396,-0.103750562095642
0.143549364021805,-0.198353178691864,0.15913351764679,0.04234562931060799
0.144155057540884,0.081864106464386,-0.15700906047820998,0.068690844154358
0.144760751059964,0.103419282245636,-0.0109128690719604,0.016000414466858
0.145366444579043,0.012408540058135999,-0.18814431438446,-0.051060132408142
0.145972138098122,0.065098969745636,-0.16898415813446,0.23155217227935798
0.146577831617202,-0.040281889629364,-0.15940408000946,0.118986254310608
0.147183525136281,0.010013520526886,0.0609377168655396,0.15251652774810798
0.14778921865536,0.043543793964386,0.0345925020217896,0.164491625404358
0.14839491217444,-0.004356596660614,-0.0612082792282104,-0.0031597417831420002
0.149000605693519,0.287835786151886,-0.0636032987594604,0.10940617618560801
0.149606299212598,0.136949555683136,-0.0851584745407104,-0.19236628475189202
0.150211992731678,-0.078602202129364,0.23577414264679,0.013605394935608
0.150817686250757,0.07707406740188599,0.039382541084289596,0.133356371498108
0.151423379769836,-0.028306791973114,-0.0324680448532104,0.154911547279358
0.152029073288916,-0.035491850566864006,-0.0180979276657104,0.253107348060608
0.152634766807995,-0.10973745603561401,-0.0707883573532104,0.004025316810608
0.153240460327075,0.144134614276886,-0.0899485136032104,-0.06543024959564199
0.153846153846154,0.041148774433136,-0.13545388469696,0.095036058998108
0.154451847365233,-0.035491850566864006,-0.21927956829071,-0.012739819908142
0.155057540884313,-0.052256987285614,-0.0707883573532104,-0.063035230064392
0.155663234403392,-0.176798002910614,0.0441725801467896,0.037555590248108
0.156268927922471,0.07707406740188599,0.0561476778030396,0.195626879310608
0.156874621441551,0.062703950214386,-0.13305886516571,0.020790453529358
0.15748031496063,0.105814301776886,-0.00372781047821044,-0.053455151939392
0.158086008479709,0.019593598651886,-0.0109128690719604,0.267477465248108
0.158691701998789,0.091444184589386,-0.26717995891571,0.016000414466858
0.159297395517868,0.180059907245636,0.0202223848342896,-0.106145581626892
0.159903089036947,-0.028306791973114,0.16631857624054,0.315377855873108
0.160508782556027,0.000433442401886003,-0.12826882610321,0.5692499261856081
0.161114476075106,-0.143267729473114,-0.0755783964157104,0.025580492591858
0.161720169594185,-0.080997221660614,-0.0875534940719604,-0.055850171470642
0.162325863113265,-0.10973745603561401,0.00106222858428956,-0.000764722251892003
0.162931556632344,-0.191168120098114,-0.0827634550094604,-0.115725659751892
0.163537250151423,0.067493989276886,0.017827365303039598,0.130961351966858
0.164142943670503,-0.040281889629364,-0.0612082792282104,-0.027109937095642
0.164748637189582,-0.059442045879364004,-0.15461404094696,0.013605394935608
0.165354330708661,-0.047466948223114,0.41061056842804,0.11180119571685801
0.165960024227741,-0.045071928691864,-0.0324680448532104,-0.14686091365814202
0.16656571774682,0.170479829120636,-0.0851584745407104,0.027975512123108
0.167171411265899,-0.054652006816864,0.11123312702179,0.291427660560608
0.167777104784979,-0.016331694316863998,-0.15940408000946,-0.07740534725189199
0.168382798304058,-0.100157377910614,-0.12347878704071,-0.086985425376892
0.168988491823137,0.014803559589386,-0.0324680448532104,0.063900805091858
0.169594185342217,0.278255708026886,0.0896779512405396,0.142936449623108
0.170199878861296,-0.14087270994186402,-0.051628201103210404,-0.055850171470642
0.170805572380376,-0.061837065410614005,-0.0923435331344604,-0.022319898033142
0.171411265899455,-0.035491850566864006,-0.0540232206344604,0.011210375404358
0.172016959418534,-0.143267729473114,-0.21688454875945998,-0.000764722251892003
0.172622652937614,-0.069022124004364,0.0633327363967896,0.18604680118560799
0.173228346456693,0.060308930683135996,-0.15221902141570998,-0.120515698814392
0.173834039975772,-0.061837065410614005,-0.12826882610321,0.078270922279358
0.174439733494852,-0.011541655254364,0.017827365303039598,0.133356371498108
0.175045427013931,-0.045071928691864,-0.0468381620407104,0.049530687904357995
0.17565112053301,-0.011541655254364,0.10883810749054,0.128566332435608
0.17625681405209,0.079469086933136,-0.0779734159469604,-0.015134839439391999
0.176862507571169,-0.025911772441864,-0.0755783964157104,-0.029504956626892
0.177468201090248,-0.033096831035614005,-0.030073025321960403,-0.07740534725189199
0.178073894609328,-0.143267729473114,0.0202223848342896,-0.031899976158142
0.178679588128407,0.055518891620635995,0.0537526582717896,0.073480883216858
0.179285281647486,0.033963715839386,0.15434347858429,0.068690844154358
0.179890975166566,-0.018726713848113998,0.08488791217803959,0.004025316810608
0.180496668685645,0.084259125995636,-0.051628201103210404,0.037555590248108
0.181102362204724,-0.033096831035614005,0.00824728717803956,0.11659123477935801
0.181708055723804,-0.054652006816864,-0.15700906047820998,-0.096565503501892
0.182313749242883,0.096234223651886,-0.0899485136032104,-0.07501032772064199
0.182919442761962,-0.018726713848113998,-0.0899485136032104,0.183651781654358
0.183525136281042,-0.085787260723114,0.00345724811553956,0.22197209415435798
0.184130829800121,0.029173676776886003,0.0872829317092896,-0.043875073814392006
0.1847365233192,-0.049861967754364,-0.15461404094696,-0.055850171470642
0.18534221683828,-0.100157377910614,-0.0923435331344604,0.078270922279358
0.185947910357359,0.103419282245636,0.00106222858428956,0.023185473060608
0.186553603876439,0.170479829120636,-0.0731833768844604,-0.086985425376892
0.187159297395518,0.172874848651886,0.0130373262405396,-0.091775464439392
0.187764990914597,0.136949555683136,-0.0444431425094604,0.068690844154358
0.188370684433677,-0.227093413066864,-0.16419411907196,-0.14207087459564202
0.188976377952756,-0.004356596660614,0.029802462959289597,-0.31451228084564203
0.189582071471835,-0.164822905254364,0.0345925020217896,-0.051060132408142
0.190187764990915,0.002828461933136,-0.0252829862594604,0.5141644769668581
0.190793458509994,0.160899750995636,0.19505881061554,0.332142992591858
0.191399152029073,-0.19595815916061401,0.11362814655304,0.051925707435607996
0.192004845548153,0.206405122089386,-0.19532937297821,0.118986254310608
0.192610539067232,0.295020844745636,0.0274074434280396,0.18604680118560799
0.193216232586311,0.053123872089386,-0.0899485136032104,0.083060961341858
0.193821926105391,0.136949555683136,-0.18095925579070998,0.17646672306060798
0.19442761962447,0.033963715839386,-0.049233181571960404,0.22676213321685798
0.195033313143549,-0.188773100566864,-0.027678005790710402,0.032765551185608
0.195639006662629,-0.037886870098114,0.0489626192092896,0.097431078529358
0.196244700181708,0.029173676776886003,0.12320822467803999,0.22197209415435798
0.196850393700787,0.177664887714386,0.08488791217803959,0.080665941810608
0.197456087219867,0.017198579120636,-0.11868874797821,-0.228291577720642
0.198061780738946,0.012408540058135999,-0.09473855266571041,0.004025316810608
0.198667474258025,0.041148774433136,0.0489626192092896,0.150121508216858
0.199273167777105,0.134554536151886,0.0992580293655396,-0.027109937095642
0.199878861296184,0.045938813495636,-0.0348630643844604,-0.007949780845642
0.200484554815263,-0.198353178691864,-0.14742898235320998,0.18125676212310798
0.201090248334343,0.172874848651886,-0.027678005790710402,0.209996996498108
0.201695941853422,0.101024262714386,-0.12108376750946,0.15730656681060798
0.202301635372502,0.012408540058135999,-0.0468381620407104,-0.053455151939392
0.202907328891581,0.151319672870636,0.0633327363967896,-0.091775464439392
0.20351302241066,-0.054652006816864,-0.0324680448532104,-0.07740534725189199
0.20411871592974,-0.013936674785614,0.17829367389679002,-0.07501032772064199
0.204724409448819,-0.097762358379364,-0.13545388469696,0.080665941810608
0.205330102967898,-0.143267729473114,-0.12587380657196,-0.024714917564392
0.205935796486978,-0.112132475566864,0.11602316608429,0.11419621524810801
0.206541490006057,-0.042676909160614,-0.0157029081344604,0.097431078529358
0.207147183525136,0.124974458026886,-0.09713357219696041,-0.161231030845642
0.207752877044216,0.204010102558136,0.0513576387405396,0.049530687904357995
0.208358570563295,0.093839204120636,0.0537526582717896,0.006420336341858001
0.208964264082374,0.122579438495636,-0.051628201103210404,-0.168416089439392
0.209569957601454,0.134554536151886,0.0537526582717896,0.063900805091858
0.210175651120533,0.000433442401886003,0.12081320514679,0.10940617618560801
0.210781344639612,0.024383637714386,0.00585226764678956,-0.046270093345642006
0.211387038158692,0.021988618183136,-0.25759988079071,0.035160570716858
0.211992731677771,0.057913911151885995,-0.11150368938446001,0.126171312904358
0.21259842519685,0.237540375995636,-0.00612283000946044,0.202811937904358
0.21320411871593,0.012408540058135999,-0.0324680448532104,-0.15165095272064202
0.213809812235009,-0.028306791973114,-0.0612082792282104,-0.218711499595642
0.214415505754088,0.043543793964386,0.14236838092804002,0.130961351966858
0.215021199273168,-0.119317534160614,-0.051628201103210404,0.087851000404358
0.215626892792247,0.060308930683135996,-0.0683933378219604,-0.041480054283142005
0.216232586311326,0.177664887714386,0.0202223848342896,-0.06543024959564199
0.216838279830406,0.041148774433136,-0.14263894329071,-0.048665112876892
0.217443973349485,-0.083392241191864,0.015432345771789601,0.073480883216858
0.218049666868565,0.160899750995636,0.0441725801467896,0.10461613712310801
0.218655360387644,0.120184418964386,0.0800978731155396,0.523744555091858
0.219261053906723,0.079469086933136,0.0226174043655396,0.667445726966858
0.219866747425803,0.254305512714386,0.017827365303039598,-0.051060132408142
0.220472440944882,-0.033096831035614005,0.0896779512405396,0.063900805091858
0.221078134463961,0.038753754901886,-0.0755783964157104,0.10940617618560801
0.221683827983041,-0.011541655254364,-0.00851784954071044,0.011210375404358
0.22228952150212,-0.10255239744186401,0.0705177949905396,0.15730656681060798
0.222895215021199,0.060308930683135996,-0.09713357219696041,0.035160570716858
0.223500908540279,-0.186378081035614,-0.15461404094696,0.016000414466858
0.224106602059358,0.062703950214386,-0.0923435331344604,0.118986254310608
0.224712295578437,0.096234223651886,0.12799826374054,0.071085863685608
0.225317989097517,0.096234223651886,0.17110861530304,0.092641039466858
0.225923682616596,-0.14087270994186402,-0.0875534940719604,0.133356371498108
0.226529376135675,-0.10494741697311401,-0.0372580839157104,0.118986254310608
0.227135069654755,0.029173676776886003,0.13518332233429,0.174071703529358
0.227740763173834,-0.083392241191864,0.00585226764678956,0.123776293373108
0.228346456692913,-0.076207182598114,0.015432345771789601,0.092641039466858
0.228952150211993,0.122579438495636,0.0226174043655396,0.068690844154358
0.229557843731072,0.043543793964386,-0.0755783964157104,0.118986254310608
0.230163537250151,-0.049861967754364,0.0705177949905396,0.097431078529358
0.230769230769231,-0.064232084941864,0.0992580293655396,0.020790453529358
0.23137492428831,-0.145662749004364,0.0681227754592896,0.025580492591858
0.231980617807389,0.103419282245636,-0.0372580839157104,0.054320726966857996
0.232586311326469,-0.009146635723114001,0.11362814655304,0.001630297279358
0.233192004845548,-0.035491850566864006,-0.0228879667282104,0.016000414466858
0.233797698364627,0.038753754901886,-0.10192361125946,0.097431078529358
0.234403391883707,0.134554536151886,0.0321974824905396,0.054320726966857996
0.235009085402786,0.103419282245636,-0.18574929485320998,-0.029504956626892
0.235614778921866,0.103419282245636,-0.12826882610321,-0.199551343345642
0.236220472440945,-0.009146635723114001,0.039382541084289596,-0.139675855064392
0.236826165960024,-0.148057768535614,0.11841818561554,-0.113330640220642
0.237431859479104,0.081864106464386,0.0753078340530396,-0.166021069908142
0.238037552998183,0.026778657245636002,-0.12347878704071,0.219577074623108
0.238643246517262,0.144134614276886,-0.28394509563446,-0.019924878501892
0.239248940036342,0.144134614276886,-0.17377419719696,-0.048665112876892
0.239854633555421,0.029173676776886003,0.00106222858428956,0.027975512123108
0.2404603270745,0.0052234814643860004,0.14476340045929,-0.19236628475189202
0.24106602059358,0.033963715839386,-0.0659983182907104,0.037555590248108
0.241671714112659,-0.198353178691864,-0.12826882610321,0.083060961341858
0.242277407631738,-0.052256987285614,0.17589865436554,-0.039085034751892005
0.242883101150818,0.196825043964386,0.15194845905304002,-0.158836011314392
0.243488794669897,-0.131292631816864,-0.049233181571960404,-0.110935620689392
0.244094488188976,0.06988900880813599,-0.027678005790710402,-0.029504956626892
0.244700181708056,-0.057047026348114004,-0.17856423625946,0.130961351966858
0.245305875227135,-0.016331694316863998,-0.00851784954071044,0.16688664493560798
0.245911568746214,0.115394379901886,0.12799826374054,0.15251652774810798
0.246517262265294,0.060308930683135996,0.00106222858428956,0.083060961341858
0.247122955784373,-0.071417143535614,-0.27676003704071,0.073480883216858
0.247728649303452,-0.016331694316863998,-0.0420481229782104,-0.168416089439392
0.248334342822532,-0.030701811504363997,0.0585426973342896,-0.048665112876892
0.248940036341611,-0.100157377910614,0.12799826374054,0.444708910560608
0.24954572986069,-0.009146635723114001,0.14955343952179,-0.161231030845642
0.25015142337977,0.065098969745636,-0.23125466594695998,0.329747973060608
0.250757116898849,-0.042676909160614,-0.051628201103210404,0.243527269935608
0.251362810417929,-0.150452788066864,0.0441725801467896,-0.07022028865814199
0.251968503937008,-0.10973745603561401,0.0250124238967896,0.121381273841858
0.252574197456087,-0.193563139629364,-0.20251443157196,-0.06543024959564199
0.253179890975167,-0.10255239744186401,0.12320822467803999,0.073480883216858
0.253785584494246,-0.174402983379364,0.15434347858429,0.159701586341858
0.254391278013325,-0.10255239744186401,-0.049233181571960404,0.032765551185608
0.254996971532405,0.0052234814643860004,-0.0612082792282104,-0.17320612850189201
0.255602665051484,0.045938813495636,-0.0875534940719604,0.126171312904358
0.256208358570563,-0.037886870098114,-0.0468381620407104,0.123776293373108
0.256814052089643,-0.028306791973114,-0.17856423625946,-0.055850171470642
0.257419745608722,-0.13608267087936401,0.0250124238967896,-0.14686091365814202
0.258025439127801,0.165689790058136,0.08249289264678959,0.23155217227935798
0.258631132646881,0.141739594745636,0.0561476778030396,0.22197209415435798
0.25923682616596,-0.057047026348114004,0.29085959186554,0.238737230873108
0.259842519685039,0.065098969745636,-0.0755783964157104,-0.189971265220642
0.260448213204119,-0.040281889629364,-0.12347878704071,-0.058245191001892
0.261053906723198,0.053123872089386,0.0465675996780396,-0.113330640220642
0.261659600242277,-0.045071928691864,-0.0564182401657104,-0.18757624568939202
0.262265293761357,-0.011541655254364,0.0585426973342896,0.30340275821685797
0.262870987280436,0.112999360370636,0.0585426973342896,-0.086985425376892
0.263476680799515,0.165689790058136,0.14955343952179,-0.024714917564392
0.264082374318595,0.038753754901886,-0.0707883573532104,0.080665941810608
0.264688067837674,-0.035491850566864006,-0.22885964641571,-0.036690015220642004
0.265293761356753,0.07228402833938599,0.0489626192092896,-0.012739819908142
0.265899454875833,0.067493989276886,-0.16419411907196,0.071085863685608
0.266505148394912,0.057913911151885995,-0.22406960735321,-0.110935620689392
0.267110841913992,0.019593598651886,-0.0324680448532104,-0.019924878501892
0.267716535433071,0.045938813495636,-0.0588132596969604,0.21239201602935798
0.26832222895215,0.187244965839386,-0.25999490032196004,0.15730656681060798
0.26892792247123,0.06988900880813599,-0.15700906047820998,-0.043875073814392006
0.269533615990309,-0.066627104473114,0.10404806842804,-0.010344800376892
0.270139309509388,-0.076207182598114,0.0633327363967896,-0.055850171470642
0.270745003028468,0.089049165058136,-0.0109128690719604,-0.158836011314392
0.271350696547547,-0.069022124004364,-0.051628201103210404,-0.098960523033142
0.271956390066626,0.038753754901886,0.13518332233429,-0.027109937095642
0.272562083585706,-0.047466948223114,0.13278830280304002,-0.053455151939392
0.273167777104785,-0.078602202129364,-0.13784890422821,-0.036690015220642004
0.273773470623864,0.204010102558136,0.0465675996780396,0.018395433998108
0.274379164142944,-0.035491850566864006,0.00106222858428956,-0.096565503501892
0.274984857662023,0.014803559589386,0.00824728717803956,-0.096565503501892
0.275590551181102,0.0052234814643860004,0.10644308795929,-0.07501032772064199
0.276196244700182,0.06988900880813599,-0.23364968547821,0.035160570716858
0.276801938219261,0.048333833026886,-0.0827634550094604,0.20760197696685798
0.27740763173834,-0.073812163066864,0.16631857624054,0.15730656681060798
0.27801332525742,0.28065072755813597,0.13278830280304002,0.135751391029358
0.278619018776499,0.050728852558136,-0.0923435331344604,0.092641039466858
0.279224712295578,0.038753754901886,-0.0540232206344604,0.008815355873108001
0.279830405814658,0.06988900880813599,-0.0803684354782104,-0.022319898033142
0.280436099333737,-0.112132475566864,0.017827365303039598,-0.213921460533142
0.281041792852816,0.180059907245636,0.17829367389679002,-0.094170483970642
0.281647486371896,-0.10734243650436401,0.0585426973342896,-0.07501032772064199
0.282253179890975,-0.10255239744186401,-0.0324680448532104,-0.168416089439392
0.282858873410055,0.062703950214386,0.0753078340530396,0.121381273841858
0.283464566929134,0.041148774433136,-0.0540232206344604,0.36327824649810797
0.284070260448213,0.168084809589386,-0.11389870891571001,0.188441820716858
0.284675953967293,-0.030701811504363997,-0.09713357219696041,0.013605394935608
0.285281647486372,-0.100157377910614,-0.25520486125946,0.142936449623108
0.285887341005451,0.048333833026886,-0.0109128690719604,0.22676213321685798
0.286493034524531,0.029173676776886003,0.0489626192092896,0.138146410560608
0.28709872804361,0.201615083026886,-0.00133279094696044,0.095036058998108
0.287704421562689,0.084259125995636,-0.0923435331344604,-0.048665112876892
0.288310115081769,-0.131292631816864,0.0130373262405396,0.16209660587310798
0.288915808600848,-0.100157377910614,0.0800978731155396,0.130961351966858
0.289521502119927,0.127369477558136,0.0585426973342896,-0.24266169490814202
0.290127195639007,0.007618500995636,-0.0875534940719604,0.10222111759185801
0.290732889158086,0.021988618183136,-0.0564182401657104,-0.17799616756439202
0.291338582677165,0.067493989276886,0.015432345771789601,-0.144465894126892
0.291944276196245,-0.100157377910614,-0.0588132596969604,-0.06543024959564199
0.292549969715324,-0.10973745603561401,0.00106222858428956,0.027975512123108
0.293155663234403,0.259095551776886,-0.0157029081344604,0.121381273841858
0.293761356753483,0.247120454120636,0.0202223848342896,-0.053455151939392
0.294367050272562,-0.095367338848114,-0.15221902141570998,0.145331469154358
0.294972743791641,0.045938813495636,0.25972433795929,-0.046270093345642006
0.295578437310721,0.07467904787063599,0.0130373262405396,-0.041480054283142005
0.2961841308298,0.010013520526886,0.0321974824905396,0.10222111759185801
0.296789824348879,-0.061837065410614005,-0.00133279094696044,0.219577074623108
0.297395517867959,0.043543793964386,-0.19293435344696,0.128566332435608
0.298001211387038,0.132159516620636,0.17589865436554,-0.058245191001892
0.298606904906118,0.048333833026886,-0.00851784954071044,0.011210375404358
0.299212598425197,0.026778657245636002,-0.22406960735321,-0.13728083553314202
0.299818291944276,0.007618500995636,0.0130373262405396,0.121381273841858
0.300423985463356,0.07707406740188599,0.10165304889679,0.250712328529358
0.301029678982435,-0.083392241191864,-0.0731833768844604,0.016000414466858
0.301635372501514,-0.279783842754364,-0.21688454875945998,0.027975512123108
0.302241066020594,0.045938813495636,-0.0612082792282104,-0.0031597417831420002
0.302846759539673,0.017198579120636,0.15434347858429,0.312982836341858
0.303452453058752,-0.009146635723114001,-0.00372781047821044,-0.0031597417831420002
0.304058146577832,0.065098969745636,0.0226174043655396,-0.07022028865814199
0.304663840096911,-0.030701811504363997,0.08488791217803959,0.15730656681060798
0.30526953361599,-0.033096831035614005,0.18068869342804,0.013605394935608
0.30587522713507,0.036358735370636,0.0345925020217896,-0.036690015220642004
0.306480920654149,0.101024262714386,0.0633327363967896,0.008815355873108001
0.307086614173228,0.036358735370636,-0.0468381620407104,0.023185473060608
0.307692307692308,-0.224698393535614,-0.25520486125946,0.059110766029358
0.308298001211387,-0.059442045879364004,-0.0348630643844604,0.7345062738418581
0.308903694730466,0.043543793964386,-0.0157029081344604,0.320167894935608
0.309509388249546,-0.061837065410614005,-0.0157029081344604,-0.23308161678314201
0.310115081768625,-0.057047026348114004,0.0321974824905396,0.401598558998108
0.310720775287704,-0.013936674785614,0.0561476778030396,0.229157152748108
0.311326468806784,0.06988900880813599,0.0944679903030396,-0.0031597417831420002
0.311932162325863,0.124974458026886,0.0585426973342896,-0.17320612850189201
0.312537855844942,0.108209321308136,0.13997336139679,-0.225896558189392
0.313143549364022,0.156109711933136,0.12799826374054,0.159701586341858
0.313749242883101,0.192035004901886,0.0920729707717896,0.169281664466858
0.31435493640218,-0.001961577129364,-0.00851784954071044,-0.209131421470642
0.31496062992126,-0.049861967754364,-0.00851784954071044,-0.156440991783142
0.315566323440339,-0.018726713848113998,0.036987521553039596,0.123776293373108
0.316172016959419,0.084259125995636,-0.20969949016571,-0.12291071834564199
0.316777710478498,0.105814301776886,0.00345724811553956,0.011210375404358
0.317383403997577,0.067493989276886,-0.0157029081344604,-0.034294995689392004
0.317989097516657,-0.030701811504363997,-0.0588132596969604,-0.015134839439391999
0.318594791035736,-0.121712553691864,-0.0995285917282104,0.18604680118560799
0.319200484554815,-0.14087270994186402,-0.16419411907196,0.10701115665435801
0.319806178073895,0.019593598651886,0.24535422077179,0.059110766029358
0.320411871592974,0.124974458026886,0.28606955280304,0.327352953529358
0.321017565112053,0.007618500995636,0.0537526582717896,0.099826098060608
0.321623258631133,0.079469086933136,-0.10671365032196001,-0.096565503501892
0.322228952150212,0.086654145526886,0.0250124238967896,0.025580492591858
0.322834645669291,0.055518891620635995,0.0944679903030396,-0.101355542564392
0.323440339188371,0.201615083026886,0.0800978731155396,0.312982836341858
0.32404603270745,-0.021121733379364,0.0896779512405396,-0.012739819908142
0.324651726226529,0.029173676776886003,0.0609377168655396,0.016000414466858
0.325257419745609,0.108209321308136,-0.0228879667282104,0.10940617618560801
0.325863113264688,0.007618500995636,0.13757834186554002,0.135751391029358
0.326468806783767,0.086654145526886,-0.00612283000946044,0.092641039466858
0.327074500302847,0.180059907245636,-0.0109128690719604,-0.046270093345642006
0.327680193821926,0.357291352558136,-0.12108376750946,-0.096565503501892
0.328285887341005,0.124974458026886,-0.0923435331344604,-0.218711499595642
0.328891580860085,0.101024262714386,0.11602316608429,0.090246019935608
0.329497274379164,-0.030701811504363997,-0.11629372844696001,-0.089380444908142
0.330102967898244,-0.112132475566864,-0.0372580839157104,0.054320726966857996
0.330708661417323,-0.021121733379364,-0.0564182401657104,-0.17799616756439202
0.331314354936402,-0.071417143535614,-0.21448952922821,-0.007949780845642
0.331920048455482,0.062703950214386,-0.0396531034469604,-0.043875073814392006
0.332525741974561,0.187244965839386,0.11602316608429,-0.12291071834564199
0.33313143549364,0.21838021974563598,0.15913351764679,0.04234562931060799
0.33373712901272,0.014803559589386,0.0609377168655396,-0.125305737876892
0.334342822531799,0.084259125995636,-0.13545388469696,-0.156440991783142
0.334948516050878,-0.054652006816864,-0.049233181571960404,0.18125676212310798
0.335554209569958,-0.049861967754364,-0.027678005790710402,0.075875902748108
0.336159903089037,0.060308930683135996,-0.0636032987594604,-0.24745173397064202
0.336765596608116,0.110604340839386,-0.0851584745407104,0.073480883216858
0.337371290127196,-0.035491850566864006,0.0321974824905396,0.035160570716858
0.337976983646275,-0.040281889629364,0.11362814655304,0.083060961341858
0.338582677165354,-0.152847807598114,0.16152853717804,0.502189379310608
0.339188370684434,-0.119317534160614,0.10404806842804,0.001630297279358
0.339794064203513,0.232750336933136,-0.0851584745407104,-0.266611890220642
0.340399757722592,-0.052256987285614,-0.0803684354782104,-0.352832593345642
0.341005451241672,-0.006751616191864,0.25732931842803997,-0.113330640220642
0.341611144760751,-0.083392241191864,0.08249289264678959,0.243527269935608
0.34221683827983,0.038753754901886,-0.17377419719696,-0.213921460533142
0.34282253179891,0.000433442401886003,0.0345925020217896,-0.096565503501892
0.343428225317989,0.117789399433136,-0.0157029081344604,-0.098960523033142
0.344033918837068,0.16329477052688599,-0.049233181571960404,-0.051060132408142
0.344639612356148,0.017198579120636,-0.049233181571960404,-0.015134839439391999
0.345245305875227,0.024383637714386,0.14715841999054002,0.049530687904357995
0.345850999394306,-0.128897612285614,0.0705177949905396,0.049530687904357995
0.346456692913386,-0.10255239744186401,0.00585226764678956,-0.039085034751892005
0.347062386432465,0.0052234814643860004,-0.0755783964157104,0.135751391029358
0.347668079951545,0.010013520526886,0.00345724811553956,0.23155217227935798
0.348273773470624,0.041148774433136,0.17589865436554,-0.048665112876892
0.348879466989703,0.031568696308136,-0.0204929471969604,-0.07261530818939199
0.349485160508783,0.017198579120636,0.0345925020217896,0.068690844154358
0.350090854027862,0.084259125995636,-0.0372580839157104,0.118986254310608
0.350696547546941,0.060308930683135996,-0.0348630643844604,0.253107348060608
0.351302241066021,-0.116922514629364,-0.16179909954070998,0.195626879310608
0.3519079345851,0.141739594745636,-0.21209450969695998,-0.058245191001892
0.352513628104179,0.000433442401886003,-0.0755783964157104,-0.055850171470642
0.353119321623259,-0.064232084941864,0.00345724811553956,0.04234562931060799
0.353725015142338,-0.033096831035614005,0.00824728717803956,0.15730656681060798
0.354330708661417,0.036358735370636,0.039382541084289596,0.18125676212310798
0.354936402180497,0.124974458026886,0.00585226764678956,0.073480883216858
0.355542095699576,-0.059442045879364004,-0.00612283000946044,-0.113330640220642
0.356147789218655,0.110604340839386,-0.0109128690719604,0.004025316810608
0.356753482737735,0.07467904787063599,-0.17856423625946,0.10701115665435801
0.357359176256814,0.019593598651886,-0.30310525188446,0.025580492591858
0.357964869775893,0.012408540058135999,-0.0588132596969604,0.202811937904358
0.358570563294973,0.07467904787063599,0.0250124238967896,0.21718205509185798
0.359176256814052,0.192035004901886,0.08249289264678959,0.004025316810608
0.359781950333131,0.259095551776886,-0.11389870891571001,-0.21152644100189202
0.360387643852211,0.07467904787063599,-0.18574929485320998,-0.154045972251892
0.36099333737129,0.019593598651886,0.0202223848342896,0.011210375404358
0.361599030890369,-0.13608267087936401,0.039382541084289596,0.011210375404358
0.362204724409449,0.105814301776886,0.18547873249054,0.044740648841857994
0.362810417928528,-0.057047026348114004,-0.20969949016571,0.066295824623108
0.363416111447607,-0.162427885723114,-0.0420481229782104,0.027975512123108
0.364021804966687,0.101024262714386,0.0489626192092896,0.04234562931060799
0.364627498485766,0.148924653339386,0.010642306709289602,0.090246019935608
0.365233192004846,0.026778657245636002,0.19505881061554,0.195626879310608
0.365838885523925,0.043543793964386,-0.0444431425094604,0.123776293373108
0.366444579043004,0.122579438495636,0.13997336139679,0.18125676212310798
0.367050272562084,-0.124107573223114,0.00345724811553956,0.095036058998108
0.367655966081163,0.021988618183136,-0.13066384563445999,-0.07022028865814199
0.368261659600242,-0.045071928691864,-0.051628201103210404,0.078270922279358
0.368867353119322,-0.148057768535614,0.0202223848342896,0.248317308998108
0.369473046638401,0.06988900880813599,0.0753078340530396,0.605175219154358
0.37007874015748,0.148924653339386,-0.0659983182907104,0.229157152748108
0.37068443367656,0.151319672870636,0.14236838092804002,0.281847582435608
0.371290127195639,-0.167217924785614,0.23098410358429,0.198021898841858
0.371895820714718,0.014803559589386,-0.0683933378219604,-0.0031597417831420002
0.372501514233798,0.242330415058136,-0.0252829862594604,0.202811937904358
0.373107207752877,0.010013520526886,-0.030073025321960403,-0.108540601158142
0.373712901271956,0.144134614276886,-0.027678005790710402,-0.000764722251892003
0.374318594791036,0.120184418964386,0.0250124238967896,-0.130095776939392
0.374924288310115,-0.045071928691864,-0.20251443157196,-0.120515698814392
0.375529981829194,-0.069022124004364,0.0896779512405396,0.054320726966857996
0.376135675348274,-0.131292631816864,0.039382541084289596,0.195626879310608
0.376741368867353,0.127369477558136,0.039382541084289596,0.145331469154358
0.377347062386432,0.053123872089386,0.20942892780304,0.011210375404358
0.377952755905512,-0.167217924785614,-0.11150368938446001,0.090246019935608
0.378558449424591,0.141739594745636,-0.13305886516571,-0.07740534725189199
0.379164142943671,0.144134614276886,0.0753078340530396,-0.110935620689392
0.37976983646275,-0.095367338848114,-0.12347878704071,0.150121508216858
0.380375529981829,-0.191168120098114,-0.13545388469696,0.04234562931060799
0.380981223500909,-0.059442045879364004,-0.013307888603210399,-0.199551343345642
0.381586917019988,0.110604340839386,0.11841818561554,-0.0031597417831420002
0.382192610539067,0.098629243183136,-0.00612283000946044,0.04234562931060799
0.382798304058147,-0.040281889629364,0.0920729707717896,-0.235476636314392
0.383403997577226,0.010013520526886,0.0609377168655396,-0.082195386314392
0.384009691096305,0.101024262714386,-0.10192361125946,0.037555590248108
0.384615384615385,0.0052234814643860004,-0.00372781047821044,0.150121508216858
0.385221078134464,0.112999360370636,-0.16179909954070998,0.051925707435607996
0.385826771653543,0.117789399433136,-0.0875534940719604,-0.041480054283142005
0.386432465172623,0.093839204120636,0.0896779512405396,0.29382268009185797
0.387038158691702,0.053123872089386,0.00345724811553956,0.020790453529358
0.387643852210781,-0.066627104473114,0.017827365303039598,0.095036058998108
0.388249545729861,-0.167217924785614,0.0872829317092896,0.11180119571685801
0.38885523924894,-0.097762358379364,-0.0396531034469604,0.018395433998108
0.389460932768019,0.024383637714386,0.08249289264678959,0.095036058998108
0.390066626287099,-0.035491850566864006,-0.13784890422821,-0.113330640220642
0.390672319806178,0.151319672870636,-0.0683933378219604,-0.084590405845642
0.391278013325257,-0.011541655254364,-0.0588132596969604,0.063900805091858
0.391883706844337,0.010013520526886,-0.00851784954071044,0.097431078529358
0.392489400363416,-0.037886870098114,0.0944679903030396,0.130961351966858
0.393095093882495,-0.037886870098114,-0.15940408000946,0.198021898841858
0.393700787401575,0.232750336933136,-0.0444431425094604,0.130961351966858
0.394306480920654,0.036358735370636,-0.00851784954071044,-0.082195386314392
0.394912174439733,0.057913911151885995,0.036987521553039596,0.18604680118560799
0.395517867958813,-0.069022124004364,0.0417775606155396,0.16209660587310798
0.396123561477892,-0.028306791973114,0.015432345771789601,0.099826098060608
0.396729254996972,0.192035004901886,0.13518332233429,0.142936449623108
0.397334948516051,0.053123872089386,-0.0372580839157104,-0.055850171470642
0.39794064203513,-0.054652006816864,-0.20490945110321,-0.024714917564392
0.39854633555421,-0.037886870098114,-0.10192361125946,-0.06782526912689199
0.399152029073289,-0.004356596660614,-0.013307888603210399,-0.331277417564392
0.399757722592368,-0.004356596660614,0.0968630098342896,0.164491625404358
0.400363416111448,0.0052234814643860004,-0.22646462688445998,0.24592228946685799
0.400969109630527,-0.045071928691864,-0.0875534940719604,-0.103750562095642
0.401574803149606,0.021988618183136,0.30762472858428996,0.063900805091858
0.402180496668686,-0.069022124004364,-0.0636032987594604,-0.0055547613143919995
0.402786190187765,-0.028306791973114,-0.13066384563445999,-0.012739819908142
0.403391883706844,0.045938813495636,0.18787375202179002,0.10701115665435801
0.403997577225924,-0.128897612285614,0.27888449420928996,0.21718205509185798
0.404603270745003,0.091444184589386,0.14955343952179,-0.118120679283142
0.405208964264082,-0.001961577129364,-0.0588132596969604,-0.036690015220642004
0.405814657783162,0.050728852558136,-0.0995285917282104,0.133356371498108
0.406420351302241,0.026778657245636002,-0.049233181571960404,-0.0055547613143919995
0.40702604482132,-0.241463530254364,-0.14024392375946,0.090246019935608
0.4076317383404,-0.092972319316864,-0.0444431425094604,0.059110766029358
0.408237431859479,-0.078602202129364,0.00585226764678956,0.066295824623108
0.408843125378558,0.036358735370636,0.08488791217803959,0.164491625404358
0.409448818897638,-0.021121733379364,0.10883810749054,-0.0031597417831420002
0.410054512416717,-0.037886870098114,-0.0540232206344604,0.336933031654358
0.410660205935796,-0.10734243650436401,0.0561476778030396,0.253107348060608
0.411265899454876,-0.10734243650436401,0.0609377168655396,0.049530687904357995
0.411871592973955,-0.296548979473114,-0.0899485136032104,0.063900805091858
0.412477286493035,-0.121712553691864,0.0705177949905396,0.123776293373108
0.413082980012114,0.141739594745636,-0.0612082792282104,-0.007949780845642
0.413688673531193,-0.138477690410614,-0.00612283000946044,-0.134885816001892
0.414294367050273,-0.080997221660614,0.08249289264678959,0.085455980873108
0.414900060569352,-0.085787260723114,0.0226174043655396,0.004025316810608
0.415505754088431,0.038753754901886,-0.0731833768844604,-0.019924878501892
0.416111447607511,-0.011541655254364,-0.0420481229782104,0.04234562931060799
0.41671714112659,-0.045071928691864,-0.0995285917282104,0.21718205509185798
0.417322834645669,-0.011541655254364,-0.09473855266571041,0.188441820716858
0.417928528164749,0.170479829120636,0.17589865436554,0.083060961341858
0.418534221683828,0.079469086933136,-0.0540232206344604,0.10940617618560801
0.419139915202907,-0.052256987285614,-0.0803684354782104,-0.043875073814392006
0.419745608721987,0.002828461933136,0.0513576387405396,0.001630297279358
0.420351302241066,-0.112132475566864,0.0537526582717896,0.071085863685608
0.420956995760145,0.057913911151885995,-0.00612283000946044,0.059110766029358
0.421562689279225,-0.059442045879364004,-0.17137917766570998,0.22676213321685798
0.422168382798304,0.079469086933136,-0.0588132596969604,-0.101355542564392
0.422774076317383,0.098629243183136,-0.0324680448532104,0.039950609779358
0.423379769836463,-0.143267729473114,-0.14024392375946,0.214787035560608
0.423985463355542,0.110604340839386,0.0944679903030396,0.063900805091858
0.424591156874621,0.108209321308136,0.12799826374054,0.075875902748108
0.425196850393701,-0.037886870098114,-0.0228879667282104,0.123776293373108
0.42580254391278,0.120184418964386,0.0226174043655396,0.080665941810608
0.426408237431859,-0.179193022441864,0.0729128145217896,-0.0031597417831420002
0.427013930950939,-0.078602202129364,-0.0851584745407104,-0.024714917564392
0.427619624470018,-0.011541655254364,0.13757834186554002,0.126171312904358
0.428225317989098,-0.023516752910614,-0.00372781047821044,0.269872484779358
0.428831011508177,0.086654145526886,-0.16179909954070998,-0.189971265220642
0.429436705027256,-0.009146635723114001,-0.17856423625946,0.011210375404358
0.430042398546336,0.213590180683136,-0.25759988079071,-0.091775464439392
0.430648092065415,-0.131292631816864,-0.11389870891571001,0.224367113685608
0.431253785584494,-0.100157377910614,0.00585226764678956,0.348908129310608
0.431859479103574,0.194430024433136,0.28846457233428996,-0.017529858970642
0.432465172622653,0.062703950214386,0.10644308795929,-0.039085034751892005
0.433070866141732,0.0052234814643860004,-0.17856423625946,-0.19236628475189202
0.433676559660812,0.101024262714386,-0.0396531034469604,0.047135668373107995
0.434282253179891,0.081864106464386,0.21900900592804,0.008815355873108001
0.43488794669897,0.017198579120636,0.0657277559280396,-0.055850171470642
0.43549364021805,0.026778657245636002,0.0777028535842896,-0.149255933189392
0.436099333737129,-0.138477690410614,0.19266379108429002,0.027975512123108
0.436705027256208,-0.172007963848114,-0.0204929471969604,0.078270922279358
0.437310720775288,0.122579438495636,0.10165304889679,-0.012739819908142
0.437916414294367,0.136949555683136,0.16631857624054,0.18604680118560799
0.438522107813446,-0.054652006816864,-0.0588132596969604,-0.0055547613143919995
0.439127801332526,-0.061837065410614005,-0.0324680448532104,-0.079800366783142
0.439733494851605,0.067493989276886,0.0753078340530396,0.10701115665435801
0.440339188370684,-0.076207182598114,-0.00851784954071044,0.10461613712310801
0.440944881889764,-0.069022124004364,0.015432345771789601,0.11659123477935801
0.441550575408843,-0.119317534160614,-0.0923435331344604,0.164491625404358
0.442156268927922,-0.049861967754364,0.20703390827179002,0.200416918373108
0.442761962447002,0.07228402833938599,0.0968630098342896,0.130961351966858
0.443367655966081,0.045938813495636,-0.0204929471969604,-0.158836011314392
0.44397334948516,0.22317025880813599,0.14955343952179,0.11659123477935801
0.44457904300424,0.055518891620635995,0.0681227754592896,0.027975512123108
0.445184736523319,-0.001961577129364,-0.0252829862594604,0.133356371498108
0.445790430042399,-0.076207182598114,0.21900900592804,0.130961351966858
0.446396123561478,-0.069022124004364,0.11123312702179,0.030370531654358
0.447001817080557,0.151319672870636,-0.22646462688445998,0.051925707435607996
0.447607510599637,0.057913911151885995,0.0705177949905396,-0.063035230064392
0.448213204118716,-0.10255239744186401,-0.0851584745407104,-0.007949780845642
0.448818897637795,-0.083392241191864,0.13278830280304002,0.011210375404358
0.449424591156875,0.036358735370636,0.25732931842803997,0.066295824623108
0.450030284675954,0.122579438495636,-0.13305886516571,-0.17320612850189201
0.450635978195033,0.146529633808136,0.00824728717803956,0.035160570716858
0.451241671714113,0.029173676776886003,-0.0755783964157104,-0.017529858970642
0.451847365233192,-0.016331694316863998,-0.0659983182907104,0.039950609779358
0.452453058752271,-0.018726713848113998,-0.00372781047821044,0.056715746498108
0.453058752271351,0.050728852558136,0.10404806842804,0.011210375404358
0.45366444579043,0.026778657245636002,0.22379904499054,0.030370531654358
0.454270139309509,0.110604340839386,-0.0180979276657104,-0.027109937095642
0.454875832828589,0.029173676776886003,-0.013307888603210399,-0.043875073814392006
0.455481526347668,-0.052256987285614,0.08488791217803959,0.025580492591858
0.456087219866747,0.038753754901886,0.0753078340530396,0.18125676212310798
0.456692913385827,0.012408540058135999,0.00345724811553956,0.18604680118560799
0.457298606904906,0.120184418964386,-0.0731833768844604,0.071085863685608
0.457904300423985,0.045938813495636,-0.0444431425094604,-0.13249079647064202
0.458509993943065,-0.028306791973114,0.0944679903030396,-0.185181226158142
0.459115687462144,0.136949555683136,-0.0109128690719604,-0.07022028865814199
0.459721380981224,0.124974458026886,0.017827365303039598,-0.216316480064392
0.460327074500303,-0.150452788066864,0.00824728717803956,0.154911547279358
0.460932768019382,0.084259125995636,-0.0109128690719604,0.071085863685608
0.461538461538462,0.060308930683135996,0.0489626192092896,-0.031899976158142
0.462144155057541,-0.071417143535614,0.22619406452179,0.095036058998108
0.46274984857662,0.0052234814643860004,0.10404806842804,-0.024714917564392
0.4633555420957,0.204010102558136,-0.00612283000946044,-0.113330640220642
0.463961235614779,0.103419282245636,0.0705177949905396,-0.209131421470642
0.464566929133858,-0.069022124004364,-0.049233181571960404,0.047135668373107995
0.465172622652938,-0.006751616191864,-0.049233181571960404,0.030370531654358
0.465778316172017,-0.023516752910614,0.13039328327179,0.142936449623108
0.466384009691096,0.07707406740188599,0.0321974824905396,-0.034294995689392004
0.466989703210176,-0.037886870098114,-0.23125466594695998,-0.015134839439391999
0.467595396729255,-0.071417143535614,-0.0755783964157104,-0.041480054283142005
0.468201090248334,-0.059442045879364004,-0.0659983182907104,-0.283377026939392
0.468806783767414,-0.033096831035614005,0.0753078340530396,0.085455980873108
0.469412477286493,0.014803559589386,0.0705177949905396,-0.051060132408142
0.470018170805572,-0.133687651348114,-0.00612283000946044,-0.115725659751892
0.470623864324652,-0.054652006816864,0.0800978731155396,0.027975512123108
0.471229557843731,0.22317025880813599,-0.0899485136032104,0.087851000404358
0.47183525136281,0.045938813495636,0.0585426973342896,0.059110766029358
0.47244094488189,-0.14087270994186402,-0.00851784954071044,0.047135668373107995
0.473046638400969,-0.069022124004364,-0.0779734159469604,0.121381273841858
0.473652331920048,0.050728852558136,-0.17856423625946,-0.031899976158142
0.474258025439128,-0.133687651348114,0.00585226764678956,0.128566332435608
0.474863718958207,-0.076207182598114,0.23337912311554002,0.200416918373108
0.475469412477286,0.268675629901886,-0.0707883573532104,0.128566332435608
0.476075105996366,0.033963715839386,-0.0803684354782104,0.018395433998108
0.476680799515445,-0.112132475566864,-0.0731833768844604,0.004025316810608
0.477286493034525,0.101024262714386,0.0585426973342896,0.095036058998108
0.477892186553604,0.012408540058135999,-0.12108376750946,0.135751391029358
0.478497880072683,0.014803559589386,-0.12347878704071,-0.14207087459564202
0.479103573591763,-0.076207182598114,-0.0204929471969604,0.080665941810608
0.479709267110842,-0.080997221660614,-0.15940408000946,0.16688664493560798
0.480314960629921,0.239935395526886,0.0585426973342896,0.243527269935608
0.480920654149001,0.010013520526886,-0.0109128690719604,0.178861742591858
0.48152634766808,0.144134614276886,0.08249289264678959,-0.027109937095642
0.482132041187159,0.007618500995636,0.0992580293655396,0.068690844154358
0.482737734706239,-0.10494741697311401,-0.0468381620407104,-0.017529858970642
0.483343428225318,0.017198579120636,-0.14024392375946,-0.082195386314392
0.483949121744397,-0.121712553691864,-0.16898415813446,0.006420336341858001
0.484554815263477,-0.004356596660614,-0.21688454875945998,0.047135668373107995
0.485160508782556,-0.016331694316863998,-0.14024392375946,-0.015134839439391999
0.485766202301635,-0.064232084941864,-0.17137917766570998,0.061505785560608
0.486371895820715,-0.054652006816864,-0.21688454875945998,0.066295824623108
0.486977589339794,-0.095367338848114,0.00824728717803956,0.209996996498108
0.487583282858873,-0.011541655254364,0.08249289264678959,0.190836840248108
0.488188976377953,0.168084809589386,0.18068869342804,-0.06543024959564199
0.488794669897032,-0.042676909160614,0.0345925020217896,-0.082195386314392
0.489400363416111,0.033963715839386,-0.25520486125946,-0.19715632381439202
0.490006056935191,0.175269868183136,-0.013307888603210399,0.499794359779358
0.49061175045427,0.055518891620635995,-0.22167458782195998,0.5572748285293581
0.491217443973349,0.045938813495636,-0.13784890422821,0.056715746498108
0.491823137492429,0.153714692401886,-0.12587380657196,0.260292406654358
0.492428831011508,0.079469086933136,0.00345724811553956,0.121381273841858
0.493034524530587,0.117789399433136,0.13039328327179,0.150121508216858
0.493640218049667,0.148924653339386,-0.0923435331344604,0.018395433998108
0.494245911568746,-0.028306791973114,0.0705177949905396,0.037555590248108
0.494851605087826,0.115394379901886,0.08488791217803959,-0.019924878501892
0.495457298606905,0.038753754901886,0.14476340045929,0.020790453529358
0.496062992125984,-0.035491850566864006,-0.0995285917282104,0.071085863685608
0.496668685645064,0.050728852558136,-0.0707883573532104,0.059110766029358
0.497274379164143,0.096234223651886,0.0465675996780396,0.078270922279358
0.497880072683222,-0.138477690410614,0.11602316608429,-0.000764722251892003
0.498485766202302,-0.10494741697311401,0.18068869342804,-0.082195386314392
0.499091459721381,-0.006751616191864,0.0321974824905396,0.039950609779358
0.49969715324046,-0.085787260723114,0.0896779512405396,-0.06543024959564199
0.50030284675954,-0.018726713848113998,-0.051628201103210404,0.018395433998108
0.500908540278619,-0.073812163066864,-0.18574929485320998,-0.084590405845642
0.501514233797698,0.055518891620635995,0.017827365303039598,-0.036690015220642004
0.502119927316778,0.033963715839386,-0.20969949016571,0.099826098060608
0.502725620835857,-0.121712553691864,-0.0875534940719604,0.051925707435607996
0.503331314354936,0.053123872089386,0.13757834186554002,-0.063035230064392
0.503937007874016,-0.100157377910614,0.11123312702179,0.027975512123108
0.504542701393095,-0.164822905254364,-0.0779734159469604,0.035160570716858
0.505148394912174,-0.088182280254364,0.036987521553039596,-0.163626050376892
0.505754088431254,-0.131292631816864,-0.0612082792282104,0.027975512123108
0.506359781950333,0.115394379901886,-0.09713357219696041,0.135751391029358
0.506965475469413,-0.095367338848114,-0.16658913860320998,0.071085863685608
0.507571168988492,0.115394379901886,0.0992580293655396,-0.20194636287689202
0.508176862507571,0.0052234814643860004,0.0896779512405396,-0.048665112876892
0.50878255602665,-0.090577299785614,-0.0659983182907104,0.027975512123108
0.50938824954573,0.098629243183136,-0.09713357219696041,-0.034294995689392004
0.509993943064809,-0.052256987285614,-0.0851584745407104,0.030370531654358
0.510599636583889,0.0052234814643860004,0.010642306709289602,0.008815355873108001
0.511205330102968,0.079469086933136,-0.14742898235320998,-0.034294995689392004
0.511811023622047,-0.061837065410614005,-0.11868874797821,-0.106145581626892
0.512416717141127,-0.078602202129364,-0.11389870891571001,-0.000764722251892003
0.513022410660206,-0.045071928691864,-0.0396531034469604,0.063900805091858
0.513628104179285,-0.001961577129364,0.00106222858428956,-0.161231030845642
0.514233797698365,0.084259125995636,0.14476340045929,0.159701586341858
0.514839491217444,-0.018726713848113998,0.0585426973342896,0.190836840248108
0.515445184736523,0.254305512714386,-0.10910866985321001,-0.019924878501892
0.516050878255603,0.215985200214386,-0.25999490032196004,-0.012739819908142
0.516656571774682,-0.143267729473114,-0.00851784954071044,-0.130095776939392
0.517262265293761,-0.033096831035614005,0.12799826374054,0.030370531654358
0.517867958812841,-0.016331694316863998,0.0441725801467896,0.020790453529358
0.51847365233192,-0.10973745603561401,0.0920729707717896,0.679420824623108
0.519079345850999,0.065098969745636,0.0729128145217896,0.23155217227935798
0.519685039370079,0.105814301776886,0.0274074434280396,-0.331277417564392
0.520290732889158,-0.10255239744186401,0.0920729707717896,0.085455980873108
0.520896426408237,-0.061837065410614005,-0.0779734159469604,-0.120515698814392
0.521502119927317,0.091444184589386,-0.21448952922821,-0.015134839439391999
0.522107813446396,0.168084809589386,-0.14263894329071,0.025580492591858
0.522713506965475,0.215985200214386,-0.0875534940719604,-0.012739819908142
0.523319200484555,-0.188773100566864,-0.0564182401657104,-0.144465894126892
0.523924894003634,-0.160032866191864,0.0130373262405396,0.092641039466858
0.524530587522714,-0.054652006816864,0.0561476778030396,0.001630297279358
0.525136281041793,0.089049165058136,0.19984884967804,0.039950609779358
0.525741974560872,0.045938813495636,-0.0803684354782104,0.035160570716858
0.526347668079951,-0.040281889629364,0.0968630098342896,0.164491625404358
0.526953361599031,-0.083392241191864,0.0681227754592896,0.279452562904358
0.52755905511811,0.151319672870636,-0.14024392375946,-0.115725659751892
0.52816474863719,0.117789399433136,-0.0109128690719604,-0.106145581626892
0.528770442156269,-0.040281889629364,-0.0540232206344604,0.090246019935608
0.529376135675348,-0.001961577129364,-0.0468381620407104,0.18125676212310798
0.529981829194428,-0.073812163066864,-0.15461404094696,-0.048665112876892
0.530587522713507,-0.035491850566864006,-0.0252829862594604,0.255502367591858
0.531193216232586,-0.095367338848114,0.0250124238967896,0.262687426185608
0.531798909751666,0.239935395526886,-0.16658913860320998,0.008815355873108001
0.532404603270745,0.045938813495636,-0.0827634550094604,-0.055850171470642
0.533010296789824,0.086654145526886,-0.00372781047821044,-0.170811108970642
0.533615990308904,-0.033096831035614005,-0.15940408000946,0.145331469154358
0.534221683827983,0.081864106464386,0.08249289264678959,0.291427660560608
0.534827377347062,0.07228402833938599,-0.10431863079071,0.214787035560608
0.535433070866142,-0.078602202129364,-0.13784890422821,0.006420336341858001
0.536038764385221,-0.100157377910614,-0.0707883573532104,0.10222111759185801
0.5366444579043,-0.018726713848113998,-0.17137917766570998,0.183651781654358
0.53725015142338,0.0052234814643860004,-0.25041482219696,0.016000414466858
0.537855844942459,-0.011541655254364,0.0968630098342896,0.22197209415435798
0.538461538461538,0.15850473146438598,0.19266379108429002,0.159701586341858
0.539067231980618,-0.092972319316864,0.0250124238967896,0.145331469154358
0.539672925499697,0.010013520526886,0.00345724811553956,-0.000764722251892003
0.540278619018776,0.019593598651886,0.13278830280304002,-0.218711499595642
0.540884312537856,-0.088182280254364,0.25972433795929,-0.060640210533142
0.541490006056935,0.062703950214386,-0.0779734159469604,0.001630297279358
0.542095699576015,0.196825043964386,-0.0875534940719604,0.095036058998108
0.542701393095094,-0.085787260723114,0.0465675996780396,0.066295824623108
0.543307086614173,-0.176798002910614,-0.12347878704071,0.027975512123108
0.543912780133253,-0.035491850566864006,-0.15700906047820998,0.04234562931060799
0.544518473652332,-0.028306791973114,0.036987521553039596,0.23634221134185798
0.545124167171411,-0.011541655254364,-0.0396531034469604,0.10461613712310801
0.545729860690491,0.124974458026886,0.0681227754592896,0.059110766029358
0.54633555420957,-0.057047026348114004,0.0872829317092896,0.011210375404358
0.546941247728649,-0.114527495098114,-0.0612082792282104,0.145331469154358
0.547546941247729,-0.021121733379364,0.10883810749054,0.11180119571685801
0.548152634766808,-0.085787260723114,0.0609377168655396,-0.113330640220642
0.548758328285887,0.038753754901886,-0.0899485136032104,-0.26421687068939204
0.549364021804967,-0.148057768535614,0.00106222858428956,0.198021898841858
0.549969715324046,-0.066627104473114,-0.027678005790710402,0.401598558998108
0.550575408843125,0.115394379901886,-0.051628201103210404,0.174071703529358
0.551181102362205,0.117789399433136,-0.013307888603210399,0.195626879310608
0.551786795881284,0.148924653339386,-0.14263894329071,-0.034294995689392004
0.552392489400363,-0.167217924785614,-0.0636032987594604,0.130961351966858
0.552998182919443,-0.10734243650436401,-0.049233181571960404,0.121381273841858
0.553603876438522,0.033963715839386,-0.14024392375946,-0.063035230064392
0.554209569957601,-0.097762358379364,0.12799826374054,-0.120515698814392
0.554815263476681,-0.042676909160614,0.24056418170929,0.04234562931060799
0.55542095699576,0.134554536151886,-0.22406960735321,0.001630297279358
0.556026650514839,0.048333833026886,0.00106222858428956,-0.039085034751892005
0.556632344033919,0.139344575214386,-0.09713357219696041,0.269872484779358
0.557238037552998,0.043543793964386,-0.051628201103210404,0.025580492591858
0.557843731072078,-0.241463530254364,0.22619406452179,0.066295824623108
0.558449424591157,0.019593598651886,-0.0899485136032104,0.18604680118560799
0.559055118110236,-0.10255239744186401,-0.0564182401657104,0.061505785560608
0.559660811629316,-0.167217924785614,-0.0803684354782104,0.24592228946685799
0.560266505148395,0.105814301776886,0.28846457233428996,0.051925707435607996
0.560872198667474,-0.145662749004364,0.17589865436554,0.095036058998108
0.561477892186554,-0.054652006816864,-0.16898415813446,0.023185473060608
0.562083585705633,0.290230805683136,-0.12826882610321,-0.175601148033142
0.562689279224712,0.170479829120636,0.0250124238967896,0.17167668399810798
0.563294972743792,-0.064232084941864,0.0465675996780396,0.24113225040435798
0.563900666262871,0.002828461933136,0.14715841999054002,0.025580492591858
0.56450635978195,-0.021121733379364,0.14715841999054002,0.056715746498108
0.56511205330103,-0.061837065410614005,0.11362814655304,0.068690844154358
0.565717746820109,0.225565278339386,-0.0683933378219604,0.004025316810608
0.566323440339188,0.144134614276886,-0.0612082792282104,-0.098960523033142
0.566929133858268,0.007618500995636,0.17350363483429002,0.061505785560608
0.567534827377347,0.055518891620635995,-0.0636032987594604,-0.0031597417831420002
0.568140520896426,0.079469086933136,0.029802462959289597,0.018395433998108
0.568746214415506,0.084259125995636,0.0345925020217896,0.150121508216858
0.569351907934585,0.091444184589386,-0.00372781047821044,0.027975512123108
0.569957601453664,0.07707406740188599,-0.0707883573532104,0.224367113685608
0.570563294972744,0.019593598651886,0.0777028535842896,-0.113330640220642
0.571168988491823,-0.042676909160614,-0.0779734159469604,-0.13249079647064202
0.571774682010902,0.010013520526886,-0.16658913860320998,0.130961351966858
0.572380375529982,0.177664887714386,0.13278830280304002,-0.036690015220642004
0.572986069049061,-0.049861967754364,-0.00133279094696044,-0.249846753501892
0.57359176256814,0.093839204120636,0.13518332233429,-0.060640210533142
0.57419745608722,0.165689790058136,0.21421896686554,0.083060961341858
0.574803149606299,0.026778657245636002,0.11362814655304,-0.07022028865814199
0.575408843125379,-0.126502592754364,-0.12587380657196,0.257897387123108
0.576014536644458,0.136949555683136,-0.11150368938446001,-0.110935620689392
0.576620230163537,0.048333833026886,-0.0396531034469604,0.126171312904358
0.577225923682617,-0.052256987285614,-0.13305886516571,0.178861742591858
0.577831617201696,0.096234223651886,0.0202223848342896,0.078270922279358
0.578437310720775,-0.016331694316863998,-0.0157029081344604,-0.113330640220642
0.579043004239855,0.148924653339386,-0.12826882610321,-0.388757886314392
0.579648697758934,-0.030701811504363997,0.00345724811553956,0.11419621524810801
0.580254391278013,0.112999360370636,-0.0851584745407104,0.5165594964981081
0.580860084797093,0.151319672870636,-0.16179909954070998,0.209996996498108
0.581465778316172,-0.064232084941864,0.015432345771789601,-0.06782526912689199
0.582071471835251,0.014803559589386,-0.11629372844696001,0.301007738685608
0.582677165354331,-0.018726713848113998,-0.0372580839157104,-0.163626050376892
0.58328285887341,0.060308930683135996,0.0705177949905396,0.049530687904357995
0.583888552392489,0.062703950214386,0.13278830280304002,0.085455980873108
0.584494245911569,-0.14087270994186402,0.0441725801467896,-0.23308161678314201
0.585099939430648,0.101024262714386,-0.19293435344696,0.018395433998108
0.585705632949727,0.184849946308136,-0.0659983182907104,0.051925707435607996
0.586311326468807,0.093839204120636,-0.049233181571960404,-0.017529858970642
0.586917019987886,0.010013520526886,-0.19772439250946,0.027975512123108
0.587522713506965,-0.059442045879364004,0.16631857624054,-0.012739819908142
0.588128407026045,-0.080997221660614,0.010642306709289602,0.027975512123108
0.588734100545124,-0.021121733379364,-0.0540232206344604,0.133356371498108
0.589339794064203,-0.119317534160614,-0.0803684354782104,-0.039085034751892005
0.589945487583283,-0.097762358379364,-0.0180979276657104,-0.034294995689392004
0.590551181102362,-0.088182280254364,0.20224386920929002,0.097431078529358
0.591156874621442,0.165689790058136,0.0633327363967896,0.10940617618560801
0.591762568140521,0.342921235370636,0.0441725801467896,0.305797777748108
0.5923682616596,0.235145356464386,-0.13545388469696,0.037555590248108
0.59297395517868,0.036358735370636,0.00824728717803956,-0.166021069908142
0.593579648697759,0.089049165058136,-0.10192361125946,0.188441820716858
0.594185342216838,0.031568696308136,-0.0612082792282104,0.016000414466858
0.594791035735918,-0.10973745603561401,-0.0875534940719604,0.233947191810608
0.595396729254997,0.122579438495636,-0.0444431425094604,0.142936449623108
0.596002422774076,-0.090577299785614,-0.10910866985321001,0.013605394935608
0.596608116293156,0.098629243183136,0.00345724811553956,0.16688664493560798
0.597213809812235,0.184849946308136,-0.051628201103210404,-0.007949780845642
0.597819503331314,0.091444184589386,-0.0827634550094604,0.020790453529358
0.598425196850394,0.110604340839386,0.0537526582717896,-0.031899976158142
0.599030890369473,0.019593598651886,-0.10671365032196001,-0.07501032772064199
0.599636583888552,-0.078602202129364,0.0705177949905396,-0.079800366783142
0.600242277407632,0.091444184589386,0.039382541084289596,-0.07501032772064199
0.600847970926711,0.180059907245636,-0.09713357219696041,0.068690844154358
0.60145366444579,-0.030701811504363997,-0.0157029081344604,-0.07501032772064199
0.60205935796487,-0.021121733379364,0.0321974824905396,-0.07740534725189199
0.602665051483949,-0.013936674785614,0.21661398639679,0.10701115665435801
0.603270745003028,0.024383637714386,-0.13784890422821,-0.007949780845642
0.603876438522108,0.235145356464386,-0.46596658000946,-0.034294995689392004
0.604482132041187,0.160899750995636,-0.0612082792282104,-0.017529858970642
0.605087825560267,-0.150452788066864,0.10883810749054,0.075875902748108
0.605693519079346,-0.097762358379364,0.0944679903030396,-0.019924878501892
0.606299212598425,-0.121712553691864,-0.12587380657196,0.10940617618560801
0.606904906117504,-0.092972319316864,0.0250124238967896,-0.058245191001892
0.607510599636584,-0.10255239744186401,0.036987521553039596,-0.000764722251892003
0.608116293155663,0.002828461933136,-0.051628201103210404,0.267477465248108
0.608721986674743,0.079469086933136,0.11123312702179,-0.252241773033142
0.609327680193822,-0.174402983379364,-0.0109128690719604,0.48302922306060797
0.609933373712901,-0.059442045879364004,-0.0420481229782104,0.559669848060608
0.610539067231981,-0.001961577129364,0.10404806842804,0.528534594154358
0.61114476075106,0.038753754901886,0.039382541084289596,0.459079027748108
0.611750454270139,-0.078602202129364,-0.0755783964157104,0.032765551185608
0.612356147789219,-0.078602202129364,0.0609377168655396,-0.07261530818939199
0.612961841308298,0.15850473146438598,0.16152853717804,-0.14686091365814202
0.613567534827377,-0.001961577129364,0.00106222858428956,0.164491625404358
0.614173228346457,0.0052234814643860004,-0.24322976360321,0.087851000404358
0.614778921865536,-0.169612944316864,0.0489626192092896,0.195626879310608
0.615384615384615,-0.164822905254364,0.10165304889679,0.23634221134185798
0.615990308903695,0.000433442401886003,-0.15221902141570998,0.10461613712310801
0.616596002422774,0.06988900880813599,-0.14982400188446,-0.007949780845642
0.617201695941853,0.148924653339386,0.0537526582717896,0.150121508216858
0.617807389460933,-0.119317534160614,-0.0731833768844604,0.030370531654358
0.618413082980012,0.0052234814643860004,-0.0683933378219604,-0.216316480064392
0.619018776499091,-0.080997221660614,0.0417775606155396,-0.240266675376892
0.619624470018171,-0.030701811504363997,0.08249289264678959,-0.189971265220642
0.62023016353725,0.07228402833938599,0.0441725801467896,0.18125676212310798
0.620835857056329,-0.100157377910614,-0.13545388469696,-0.127700757408142
0.621441550575409,-0.10734243650436401,-0.24322976360321,-0.07740534725189199
0.622047244094488,0.021988618183136,-0.13545388469696,0.011210375404358
0.622652937613568,0.012408540058135999,0.11123312702179,-0.115725659751892
0.623258631132647,-0.10734243650436401,-0.12347878704071,0.142936449623108
0.623864324651726,-0.069022124004364,-0.12347878704071,-0.010344800376892
0.624470018170806,0.108209321308136,-0.11150368938446001,-0.07740534725189199
0.625075711689885,0.07707406740188599,-0.13066384563445999,0.047135668373107995
0.625681405208964,-0.047466948223114,-0.15221902141570998,0.087851000404358
0.626287098728044,0.06988900880813599,-0.18574929485320998,0.059110766029358
0.626892792247123,0.091444184589386,-0.0851584745407104,0.18125676212310798
0.627498485766202,0.010013520526886,0.0872829317092896,0.020790453529358
0.628104179285282,-0.059442045879364004,0.00345724811553956,-0.063035230064392
0.628709872804361,-0.10255239744186401,-0.0851584745407104,0.095036058998108
0.62931556632344,-0.085787260723114,0.12560324420929,0.24592228946685799
0.62992125984252,0.175269868183136,0.0944679903030396,0.154911547279358
0.630526953361599,0.089049165058136,-0.0228879667282104,0.11659123477935801
0.631132646880678,0.000433442401886003,-0.0109128690719604,-0.039085034751892005
0.631738340399758,0.115394379901886,-0.00612283000946044,0.044740648841857994
0.632344033918837,-0.112132475566864,-0.13545388469696,0.032765551185608
0.632949727437916,-0.126502592754364,-0.00372781047821044,-0.376782788658142
0.633555420956996,0.089049165058136,-0.11389870891571001,0.11659123477935801
0.634161114476075,0.124974458026886,-0.049233181571960404,0.073480883216858
0.634766807995154,0.055518891620635995,0.017827365303039598,-0.168416089439392
0.635372501514234,-0.126502592754364,-0.00612283000946044,0.051925707435607996
0.635978195033313,-0.080997221660614,-0.0803684354782104,0.061505785560608
0.636583888552392,0.024383637714386,-0.09713357219696041,-0.000764722251892003
0.637189582071472,0.021988618183136,-0.0731833768844604,-0.015134839439391999
0.637795275590551,0.057913911151885995,-0.0540232206344604,0.061505785560608
0.638400969109631,0.122579438495636,-0.0324680448532104,0.437523851966858
0.63900666262871,0.101024262714386,-0.0707883573532104,0.442313891029358
0.639612356147789,0.206405122089386,-0.17137917766570998,0.190836840248108
0.640218049666869,0.182454926776886,-0.0683933378219604,0.238737230873108
0.640823743185948,0.017198579120636,-0.0803684354782104,-0.257031812095642
0.641429436705027,0.297415864276886,-0.13066384563445999,0.044740648841857994
0.642035130224107,0.07228402833938599,0.039382541084289596,0.075875902748108
0.642640823743186,0.031568696308136,-0.25759988079071,-0.07022028865814199
0.643246517262265,0.093839204120636,-0.0109128690719604,0.10940617618560801
0.643852210781345,0.053123872089386,0.08249289264678959,-0.046270093345642006
0.644457904300424,0.045938813495636,-0.17377419719696,-0.029504956626892
0.645063597819503,0.07467904787063599,-0.0109128690719604,0.118986254310608
0.645669291338583,0.043543793964386,0.0944679903030396,0.255502367591858
0.646274984857662,0.065098969745636,-0.0899485136032104,0.059110766029358
0.646880678376741,0.050728852558136,-0.14742898235320998,-0.010344800376892
0.647486371895821,-0.042676909160614,0.0729128145217896,-0.007949780845642
0.6480920654149,0.043543793964386,0.10644308795929,0.032765551185608
0.648697758933979,-0.071417143535614,-0.16658913860320998,-0.084590405845642
0.649303452453059,-0.059442045879364004,-0.0612082792282104,0.085455980873108
0.649909145972138,-0.114527495098114,0.0489626192092896,0.016000414466858
0.650514839491217,-0.167217924785614,0.15673849811554,-0.230686597251892
0.651120533010297,-0.131292631816864,-0.09713357219696041,0.025580492591858
0.651726226529376,0.148924653339386,0.08488791217803959,0.04234562931060799
0.652331920048455,0.172874848651886,0.039382541084289596,-0.091775464439392
0.652937613567535,-0.126502592754364,-0.12108376750946,-0.031899976158142
0.653543307086614,0.033963715839386,-0.0564182401657104,0.140541430091858
0.654149000605693,0.242330415058136,-0.0779734159469604,0.023185473060608
0.654754694124773,-0.013936674785614,0.039382541084289596,-0.17799616756439202
0.655360387643852,-0.133687651348114,0.039382541084289596,-0.053455151939392
0.655966081162932,-0.143267729473114,0.13039328327179,0.142936449623108
0.656571774682011,-0.025911772441864,0.0465675996780396,-0.024714917564392
0.65717746820109,0.101024262714386,-0.22646462688445998,-0.022319898033142
0.65778316172017,-0.006751616191864,-0.12108376750946,-0.034294995689392004
0.658388855239249,-0.049861967754364,0.0681227754592896,0.121381273841858
0.658994548758328,0.124974458026886,0.0633327363967896,-0.019924878501892
0.659600242277408,-0.049861967754364,-0.0372580839157104,-0.058245191001892
0.660205935796487,-0.076207182598114,-0.17377419719696,0.150121508216858
0.660811629315566,0.010013520526886,-0.11389870891571001,-0.15165095272064202
0.661417322834646,0.029173676776886003,-0.16419411907196,-0.0055547613143919995
0.662023016353725,0.029173676776886003,0.0872829317092896,-0.161231030845642
0.662628709872804,-0.049861967754364,0.0633327363967896,0.047135668373107995
0.663234403391884,-0.064232084941864,0.0202223848342896,0.164491625404358
0.663840096910963,-0.088182280254364,-0.0636032987594604,-0.084590405845642
0.664445790430042,0.017198579120636,-0.0827634550094604,0.006420336341858001
0.665051483949122,0.002828461933136,0.11123312702179,-0.07740534725189199
0.665657177468201,-0.167217924785614,0.0561476778030396,-0.110935620689392
0.66626287098728,-0.052256987285614,0.15194845905304002,-0.010344800376892
0.66686856450636,0.184849946308136,-0.0851584745407104,-0.168416089439392
0.667474258025439,0.036358735370636,-0.0157029081344604,-0.44384333553314204
0.668079951544518,-0.121712553691864,0.017827365303039598,0.049530687904357995
0.668685645063598,0.120184418964386,-0.049233181571960404,-0.240266675376892
0.669291338582677,0.192035004901886,0.017827365303039598,-0.180391187095642
0.669897032101756,-0.037886870098114,-0.051628201103210404,0.5908051019668581
0.670502725620836,0.017198579120636,-0.14024392375946,0.23634221134185798
0.671108419139915,-0.021121733379364,0.0345925020217896,0.037555590248108
0.671714112658994,-0.052256987285614,0.22379904499054,0.027975512123108
0.672319806178074,-0.040281889629364,-0.00612283000946044,-0.134885816001892
0.672925499697153,-0.092972319316864,-0.18095925579070998,-0.149255933189392
0.673531193216233,-0.069022124004364,0.039382541084289596,0.164491625404358
0.674136886735312,0.096234223651886,-0.26957497844696,0.075875902748108
0.674742580254391,0.086654145526886,-0.21688454875945998,-0.055850171470642
0.675348273773471,-0.066627104473114,0.20224386920929002,-0.103750562095642
0.67595396729255,0.105814301776886,0.12081320514679,0.008815355873108001
0.676559660811629,0.045938813495636,0.12081320514679,0.135751391029358
0.677165354330709,-0.049861967754364,0.0537526582717896,-0.019924878501892
0.677771047849788,0.06988900880813599,0.017827365303039598,0.267477465248108
0.678376741368867,-0.13608267087936401,-0.13066384563445999,0.016000414466858
0.678982434887947,-0.10734243650436401,0.0968630098342896,0.039950609779358
0.679588128407026,-0.025911772441864,0.0226174043655396,0.10222111759185801
0.680193821926105,0.07707406740188599,0.0729128145217896,-0.096565503501892
0.680799515445185,0.053123872089386,-0.0851584745407104,0.198021898841858
0.681405208964264,0.000433442401886003,-0.26478493938446,0.006420336341858001
0.682010902483343,0.091444184589386,0.00585226764678956,-0.110935620689392
0.682616596002423,-0.004356596660614,-0.0180979276657104,0.037555590248108
0.683222289521502,0.07467904787063599,-0.10431863079071,0.059110766029358
0.683827983040581,-0.023516752910614,0.0465675996780396,0.087851000404358
0.684433676559661,-0.013936674785614,0.11602316608429,0.080665941810608
0.68503937007874,-0.066627104473114,0.10404806842804,-0.0031597417831420002
0.68564506359782,0.07228402833938599,0.12081320514679,-0.228291577720642
0.686250757116899,-0.033096831035614005,-0.0180979276657104,-0.13249079647064202
0.686856450635978,0.038753754901886,-0.16419411907196,0.219577074623108
0.687462144155058,0.146529633808136,0.0513576387405396,0.24113225040435798
0.688067837674137,-0.076207182598114,0.0992580293655396,-0.010344800376892
0.688673531193216,0.031568696308136,0.0202223848342896,0.159701586341858
0.689279224712296,0.038753754901886,-0.00612283000946044,0.04234562931060799
0.689884918231375,0.271070649433136,-0.11389870891571001,-0.000764722251892003
0.690490611750454,0.122579438495636,-0.00612283000946044,-0.084590405845642
0.691096305269534,-0.059442045879364004,0.10404806842804,-0.19715632381439202
0.691701998788613,-0.229488432598114,-0.15461404094696,0.20760197696685798
0.692307692307692,-0.080997221660614,-0.12826882610321,0.14772648868560798
0.692913385826772,0.079469086933136,0.0489626192092896,-0.015134839439391999
0.693519079345851,0.07467904787063599,-0.0252829862594604,-0.086985425376892
0.69412477286493,0.019593598651886,0.0489626192092896,-0.094170483970642
0.69473046638401,0.021988618183136,-0.14982400188446,0.001630297279358
0.695336159903089,0.033963715839386,-0.0612082792282104,-0.07501032772064199
0.695941853422168,-0.076207182598114,0.10644308795929,0.023185473060608
0.696547546941248,-0.035491850566864006,0.017827365303039598,-0.07501032772064199
0.697153240460327,0.026778657245636002,-0.0468381620407104,-0.257031812095642
0.697758933979406,0.07467904787063599,-0.09713357219696041,0.056715746498108
0.698364627498486,-0.162427885723114,-0.18814431438446,0.408783617591858
0.698970321017565,-0.023516752910614,0.00106222858428956,0.46386906681060797
0.699576014536644,-0.083392241191864,0.20224386920929002,0.447103930091858
0.700181708055724,-0.030701811504363997,-0.027678005790710402,0.377648363685608
0.700787401574803,0.127369477558136,-0.0755783964157104,0.030370531654358
0.701393095093882,0.019593598651886,0.036987521553039596,0.030370531654358
0.701998788612962,0.045938813495636,-0.0636032987594604,0.006420336341858001
0.702604482132041,0.038753754901886,0.0274074434280396,-0.055850171470642
0.703210175651121,0.07707406740188599,0.10404806842804,0.054320726966857996
0.7038158691702,-0.073812163066864,-0.09473855266571041,-0.07740534725189199
0.704421562689279,0.086654145526886,-0.14263894329071,0.238737230873108
0.705027256208359,0.148924653339386,0.0944679903030396,0.135751391029358
0.705632949727438,-0.143267729473114,0.0226174043655396,0.083060961341858
0.706238643246517,0.098629243183136,-0.0204929471969604,0.10940617618560801
0.706844336765597,0.06988900880813599,0.0561476778030396,0.11419621524810801
0.707450030284676,0.079469086933136,-0.00612283000946044,0.154911547279358
0.708055723803755,-0.152847807598114,-0.0204929471969604,-0.053455151939392
0.708661417322835,-0.076207182598114,-0.0109128690719604,-0.0031597417831420002
0.709267110841914,0.098629243183136,0.0729128145217896,0.188441820716858
0.709872804360993,-0.028306791973114,0.0609377168655396,0.262687426185608
0.710478497880073,0.170479829120636,-0.0683933378219604,0.075875902748108
0.711084191399152,-0.033096831035614005,-0.0827634550094604,0.123776293373108
0.711689884918231,0.026778657245636002,0.0992580293655396,0.044740648841857994
0.712295578437311,-0.083392241191864,0.11123312702179,-0.103750562095642
0.71290127195639,0.105814301776886,0.10165304889679,0.008815355873108001
0.713506965475469,0.146529633808136,0.0417775606155396,0.001630297279358
0.714112658994549,-0.052256987285614,-0.0659983182907104,-0.252241773033142
0.714718352513628,0.017198579120636,0.17829367389679002,-0.07022028865814199
0.715324046032707,-0.028306791973114,0.0705177949905396,0.11180119571685801
0.715929739551787,0.045938813495636,-0.0372580839157104,0.214787035560608
0.716535433070866,0.060308930683135996,0.0465675996780396,0.233947191810608
0.717141126589945,-0.083392241191864,-0.0228879667282104,0.039950609779358
0.717746820109025,-0.030701811504363997,-0.11389870891571001,-0.041480054283142005
0.718352513628104,0.000433442401886003,-0.13305886516571,-0.043875073814392006
0.718958207147184,-0.054652006816864,0.017827365303039598,-0.089380444908142
0.719563900666263,-0.040281889629364,-0.027678005790710402,-0.07022028865814199
0.720169594185342,-0.028306791973114,-0.0755783964157104,-0.027109937095642
0.720775287704422,0.033963715839386,-0.0995285917282104,-0.101355542564392
0.721380981223501,-0.052256987285614,-0.21927956829071,0.051925707435607996
0.72198667474258,0.139344575214386,-0.11389870891571001,0.118986254310608
0.72259236826166,-0.001961577129364,0.19984884967804,0.095036058998108
0.723198061780739,-0.073812163066864,0.0202223848342896,0.008815355873108001
0.723803755299818,0.132159516620636,-0.14024392375946,0.145331469154358
0.724409448818898,0.06988900880813599,-0.0899485136032104,0.16688664493560798
0.725015142337977,0.021988618183136,-0.0803684354782104,0.18604680118560799
0.725620835857056,0.021988618183136,-0.14263894329071,0.025580492591858
0.726226529376136,0.124974458026886,-0.0324680448532104,0.169281664466858
0.726832222895215,-0.035491850566864006,0.14476340045929,0.150121508216858
0.727437916414294,-0.14087270994186402,0.036987521553039596,-0.0055547613143919995
0.728043609933374,0.101024262714386,-0.17616921672820998,-0.06782526912689199
0.728649303452453,0.060308930683135996,0.00345724811553956,-0.352832593345642
0.729254996971532,0.031568696308136,0.14236838092804002,-0.13728083553314202
0.729860690490612,-0.006751616191864,-0.0420481229782104,0.427943773841858
0.730466384009691,0.110604340839386,-0.0875534940719604,0.15730656681060798
0.73107207752877,0.168084809589386,-0.013307888603210399,-0.280982007408142
0.73167777104785,0.024383637714386,0.0729128145217896,-0.07501032772064199
0.732283464566929,0.031568696308136,-0.10910866985321001,0.178861742591858
0.732889158086008,-0.073812163066864,-0.25999490032196004,0.006420336341858001
0.733494851605088,0.010013520526886,0.0250124238967896,-0.156440991783142
0.734100545124167,-0.114527495098114,-0.030073025321960403,0.248317308998108
0.734706238643246,0.151319672870636,0.029802462959289597,-0.07022028865814199
0.735311932162326,0.093839204120636,0.23816916217804002,0.020790453529358
0.735917625681405,-0.025911772441864,-0.00612283000946044,0.11419621524810801
0.736523319200485,0.065098969745636,0.10404806842804,-0.015134839439391999
0.737129012719564,0.060308930683135996,0.029802462959289597,-0.060640210533142
0.737734706238643,0.041148774433136,0.0345925020217896,0.035160570716858
0.738340399757723,-0.059442045879364004,0.13278830280304002,0.320167894935608
0.738946093276802,0.010013520526886,0.0777028535842896,0.071085863685608
0.739551786795881,-0.037886870098114,0.0465675996780396,0.004025316810608
0.740157480314961,0.16329477052688599,-0.12587380657196,0.061505785560608
0.74076317383404,-0.064232084941864,0.0585426973342896,-0.046270093345642006
0.741368867353119,0.091444184589386,-0.10192361125946,-0.098960523033142
0.741974560872199,0.292625825214386,-0.0468381620407104,0.061505785560608
0.742580254391278,0.055518891620635995,-0.0396531034469604,0.020790453529358
0.743185947910357,0.057913911151885995,0.0920729707717896,-0.063035230064392
0.743791641429437,-0.069022124004364,0.19745383014679002,0.150121508216858
0.744397334948516,-0.073812163066864,0.0657277559280396,-0.039085034751892005
0.745003028467595,0.07707406740188599,0.029802462959289597,0.056715746498108
0.745608721986675,0.086654145526886,-0.19532937297821,-0.120515698814392
0.746214415505754,0.045938813495636,-0.030073025321960403,-0.089380444908142
0.746820109024833,0.129764497089386,0.00585226764678956,0.159701586341858
0.747425802543913,0.196825043964386,-0.0875534940719604,-0.000764722251892003
0.748031496062992,-0.073812163066864,0.0561476778030396,0.051925707435607996
0.748637189582071,0.019593598651886,-0.20251443157196,0.049530687904357995
0.749242883101151,0.146529633808136,-0.15221902141570998,0.006420336341858001
0.74984857662023,0.017198579120636,0.0321974824905396,0.10461613712310801
0.75045427013931,0.07228402833938599,0.0321974824905396,0.11659123477935801
0.751059963658389,0.043543793964386,0.0872829317092896,0.027975512123108
0.751665657177468,0.007618500995636,0.13039328327179,0.054320726966857996
0.752271350696547,-0.035491850566864006,-0.14742898235320998,0.10461613712310801
0.752877044215627,-0.042676909160614,0.017827365303039598,-0.166021069908142
0.753482737734706,-0.080997221660614,0.18787375202179002,0.039950609779358
0.754088431253786,-0.009146635723114001,-0.17616921672820998,0.123776293373108
0.754694124772865,-0.047466948223114,-0.0659983182907104,0.035160570716858
0.755299818291944,-0.100157377910614,0.039382541084289596,0.051925707435607996
0.755905511811024,0.036358735370636,0.10644308795929,-0.0055547613143919995
0.756511205330103,-0.045071928691864,-0.00851784954071044,0.11180119571685801
0.757116898849182,0.101024262714386,0.11602316608429,0.22197209415435798
0.757722592368262,0.036358735370636,0.15913351764679,0.327352953529358
0.758328285887341,-0.066627104473114,-0.00851784954071044,-0.103750562095642
0.75893397940642,-0.143267729473114,-0.00851784954071044,-0.23787165584564202
0.7595396729255,-0.078602202129364,0.00345724811553956,-0.091775464439392
0.760145366444579,0.000433442401886003,-0.0731833768844604,-0.06543024959564199
0.760751059963658,-0.100157377910614,0.0226174043655396,0.209996996498108
0.761356753482738,0.06988900880813599,-0.030073025321960403,-0.000764722251892003
0.761962447001817,0.021988618183136,-0.049233181571960404,0.085455980873108
0.762568140520896,-0.001961577129364,0.13518332233429,0.253107348060608
0.763173834039976,0.060308930683135996,0.0561476778030396,0.049530687904357995
0.763779527559055,-0.016331694316863998,-0.00612283000946044,0.188441820716858
0.764385221078134,0.06988900880813599,0.0920729707717896,0.071085863685608
0.764990914597214,0.091444184589386,0.036987521553039596,0.025580492591858
0.765596608116293,-0.023516752910614,-0.0157029081344604,0.001630297279358
0.766202301635373,0.07707406740188599,0.0992580293655396,0.051925707435607996
0.766807995154452,-0.047466948223114,-0.14024392375946,0.095036058998108
0.767413688673531,-0.088182280254364,-0.0204929471969604,0.075875902748108
0.768019382192611,0.029173676776886003,0.0920729707717896,0.020790453529358
0.76862507571169,-0.037886870098114,0.10644308795929,0.092641039466858
0.769230769230769,-0.025911772441864,0.0729128145217896,0.023185473060608
0.769836462749849,0.215985200214386,0.015432345771789601,0.092641039466858
0.770442156268928,0.151319672870636,-0.0372580839157104,0.15730656681060798
0.771047849788007,-0.10255239744186401,0.0441725801467896,-0.010344800376892
0.771653543307087,0.06988900880813599,0.10404806842804,0.004025316810608
0.772259236826166,0.055518891620635995,-0.027678005790710402,0.061505785560608
0.772864930345245,0.021988618183136,-0.0180979276657104,0.032765551185608
0.773470623864325,0.101024262714386,-0.00133279094696044,-0.0055547613143919995
0.774076317383404,0.160899750995636,0.11123312702179,0.087851000404358
0.774682010902483,-0.049861967754364,-0.0228879667282104,0.080665941810608
0.775287704421563,-0.10973745603561401,-0.0348630643844604,0.039950609779358
0.775893397940642,-0.069022124004364,-0.0372580839157104,0.059110766029358
0.776499091459721,0.153714692401886,0.10165304889679,-0.12291071834564199
0.777104784978801,0.172874848651886,0.00585226764678956,-0.046270093345642006
0.77771047849788,-0.181588041973114,-0.22406960735321,0.037555590248108
0.778316172016959,0.093839204120636,-0.0564182401657104,0.061505785560608
0.778921865536039,0.144134614276886,0.0681227754592896,0.10222111759185801
0.779527559055118,-0.071417143535614,0.029802462959289597,0.219577074623108
0.780133252574197,0.029173676776886003,-0.0923435331344604,0.10461613712310801
0.780738946093277,-0.040281889629364,0.0585426973342896,-0.189971265220642
0.781344639612356,-0.001961577129364,0.0585426973342896,-0.000764722251892003
0.781950333131435,0.129764497089386,0.0920729707717896,0.18604680118560799
0.782556026650515,0.026778657245636002,0.10404806842804,0.11419621524810801
0.783161720169594,-0.016331694316863998,0.10883810749054,0.051925707435607996
0.783767413688674,-0.246253569316864,0.17350363483429002,0.085455980873108
0.784373107207753,-0.054652006816864,0.11602316608429,0.174071703529358
0.784978800726832,-0.037886870098114,0.16631857624054,0.248317308998108
0.785584494245912,0.041148774433136,-0.10671365032196001,0.075875902748108
0.786190187764991,0.189639985370636,0.0465675996780396,-0.12291071834564199
0.78679588128407,0.122579438495636,0.010642306709289602,-0.19236628475189202
0.78740157480315,0.07707406740188599,-0.0564182401657104,-0.06543024959564199
0.788007268322229,-0.083392241191864,-0.10192361125946,-0.07261530818939199
0.788612961841308,-0.073812163066864,0.0202223848342896,-0.225896558189392
0.789218655360388,0.144134614276886,0.0609377168655396,0.092641039466858
0.789824348879467,0.017198579120636,0.19266379108429002,0.597990160560608
0.790430042398546,0.06988900880813599,0.32199484577179,0.6937909418106081
0.791035735917626,-0.054652006816864,-0.0731833768844604,0.154911547279358
0.791641429436705,0.019593598651886,-0.16898415813446,-0.086985425376892
0.792247122955784,0.194430024433136,0.0777028535842896,0.075875902748108
0.792852816474864,-0.128897612285614,-0.0564182401657104,0.224367113685608
0.793458509993943,-0.066627104473114,0.0585426973342896,0.032765551185608
0.794064203513022,0.07228402833938599,0.27648947467803997,0.027975512123108
0.794669897032102,-0.035491850566864006,-0.00851784954071044,-0.058245191001892
0.795275590551181,0.07228402833938599,0.0705177949905396,0.068690844154358
0.79588128407026,0.146529633808136,-0.13066384563445999,0.310587816810608
0.79648697758934,-0.016331694316863998,0.0753078340530396,0.056715746498108
0.797092671108419,0.038753754901886,0.0705177949905396,0.20760197696685798
0.797698364627498,-0.033096831035614005,-0.0851584745407104,0.035160570716858
0.798304058146578,0.172874848651886,0.15913351764679,-0.098960523033142
0.798909751665657,0.122579438495636,-0.0420481229782104,0.140541430091858
0.799515445184736,0.043543793964386,-0.10192361125946,0.035160570716858
0.800121138703816,-0.116922514629364,0.0633327363967896,0.027975512123108
0.800726832222895,0.151319672870636,-0.18335427532196,-0.103750562095642
0.801332525741975,0.148924653339386,-0.18574929485320998,-0.273796948814392
0.801938219261054,-0.009146635723114001,0.010642306709289602,0.044740648841857994
0.802543912780133,-0.013936674785614,0.0800978731155396,0.291427660560608
0.803149606299213,0.079469086933136,0.0417775606155396,0.068690844154358
0.803755299818292,0.002828461933136,0.17110861530304,-0.15165095272064202
0.804360993337371,0.045938813495636,0.15194845905304002,-0.058245191001892
0.804966686856451,0.07467904787063599,-0.13066384563445999,0.035160570716858
0.80557238037553,-0.126502592754364,-0.10910866985321001,0.140541430091858
0.806178073894609,-0.112132475566864,-0.10192361125946,-0.043875073814392006
0.806783767413689,-0.143267729473114,0.12320822467803999,-0.12291071834564199
0.807389460932768,0.103419282245636,0.14236838092804002,-0.125305737876892
0.807995154451847,-0.009146635723114001,0.08249289264678959,-0.089380444908142
0.808600847970927,0.101024262714386,-0.11629372844696001,-0.046270093345642006
0.809206541490006,0.182454926776886,0.00585226764678956,0.016000414466858
0.809812235009085,0.06988900880813599,-0.00851784954071044,-0.103750562095642
0.810417928528165,-0.100157377910614,-0.0540232206344604,-0.043875073814392006
0.811023622047244,0.050728852558136,-0.0348630643844604,0.174071703529358
0.811629315566323,-0.085787260723114,-0.0252829862594604,0.14772648868560798
0.812235009085403,-0.095367338848114,0.13997336139679,0.051925707435607996
0.812840702604482,0.112999360370636,-0.0636032987594604,0.128566332435608
0.813446396123562,-0.097762358379364,-0.0396531034469604,0.054320726966857996
0.814052089642641,-0.066627104473114,-0.12347878704071,0.071085863685608
0.81465778316172,-0.018726713848113998,-0.0324680448532104,0.219577074623108
0.815263476680799,-0.10734243650436401,0.00824728717803956,0.140541430091858
0.815869170199879,-0.181588041973114,-0.0755783964157104,-0.113330640220642
0.816474863718958,-0.121712553691864,-0.0755783964157104,0.037555590248108
0.817080557238038,0.141739594745636,0.08249289264678959,-0.07501032772064199
0.817686250757117,0.043543793964386,-0.0923435331344604,-0.20194636287689202
0.818291944276196,-0.047466948223114,-0.030073025321960403,0.741691332435608
0.818897637795276,0.06988900880813599,0.19984884967804,-0.14686091365814202
0.819503331314355,0.206405122089386,0.11123312702179,-0.084590405845642
0.820109024833434,-0.169612944316864,0.16152853717804,0.820726976966858
0.820714718352514,-0.243858549785614,-0.0204929471969604,0.080665941810608
0.821320411871593,0.101024262714386,-0.0228879667282104,0.008815355873108001
0.821926105390672,-0.054652006816864,-0.0324680448532104,0.135751391029358
0.822531798909752,-0.028306791973114,-0.10671365032196001,0.071085863685608
0.823137492428831,-0.181588041973114,-0.0109128690719604,-0.019924878501892
0.82374318594791,0.081864106464386,0.16392355670929,0.008815355873108001
0.82434887946699,0.096234223651886,0.0321974824905396,0.123776293373108
0.824954572986069,0.038753754901886,-0.027678005790710402,0.001630297279358
0.825560266505148,0.043543793964386,-0.0779734159469604,-0.015134839439391999
0.826165960024228,-0.10494741697311401,0.13997336139679,0.039950609779358
0.826771653543307,0.017198579120636,-0.0755783964157104,-0.326487378501892
0.827377347062386,0.014803559589386,-0.0324680448532104,-0.055850171470642
0.827983040581466,0.132159516620636,0.0633327363967896,0.200416918373108
0.828588734100545,0.084259125995636,-0.11629372844696001,0.174071703529358
0.829194427619624,0.000433442401886003,-0.10671365032196001,0.339328051185608
0.829800121138704,0.012408540058135999,0.0130373262405396,0.10461613712310801
0.830405814657783,0.0052234814643860004,0.25014425983429,0.061505785560608
0.831011508176863,0.134554536151886,-0.19532937297821,-0.022319898033142
0.831617201695942,0.21838021974563598,-0.051628201103210404,-0.180391187095642
0.832222895215021,0.093839204120636,0.11123312702179,-0.221106519126892
0.8328285887341,-0.049861967754364,0.0800978731155396,0.202811937904358
0.83343428225318,-0.112132475566864,0.0321974824905396,0.118986254310608
0.834039975772259,0.067493989276886,-0.027678005790710402,-0.017529858970642
0.834645669291339,0.026778657245636002,0.11602316608429,0.130961351966858
0.835251362810418,-0.083392241191864,-0.12826882610321,0.142936449623108
0.835857056329497,0.036358735370636,-0.030073025321960403,0.178861742591858
0.836462749848577,0.127369477558136,-0.0755783964157104,0.233947191810608
0.837068443367656,0.031568696308136,-0.0779734159469604,0.083060961341858
0.837674136886735,0.026778657245636002,0.0729128145217896,0.006420336341858001
0.838279830405815,-0.047466948223114,-0.030073025321960403,0.059110766029358
0.838885523924894,0.024383637714386,0.0753078340530396,0.035160570716858
0.839491217443973,0.053123872089386,0.00345724811553956,0.030370531654358
0.840096910963053,-0.078602202129364,-0.25520486125946,0.032765551185608
0.840702604482132,0.045938813495636,-0.11389870891571001,0.10940617618560801
0.841308298001211,-0.028306791973114,-0.0180979276657104,0.023185473060608
0.841913991520291,-0.023516752910614,-0.21927956829071,0.193231859779358
0.84251968503937,-0.001961577129364,-0.13784890422821,-0.091775464439392
0.843125378558449,0.0052234814643860004,0.0226174043655396,-0.101355542564392
0.843731072077529,-0.033096831035614005,0.13997336139679,0.085455980873108
0.844336765596608,-0.164822905254364,0.00345724811553956,0.23155217227935798
0.844942459115687,0.115394379901886,-0.17616921672820998,-0.060640210533142
0.845548152634767,0.208800141620636,-0.0180979276657104,-0.055850171470642
0.846153846153846,-0.069022124004364,-0.12587380657196,-0.079800366783142
0.846759539672925,0.062703950214386,0.11841818561554,-0.07501032772064199
0.847365233192005,-0.004356596660614,0.11123312702179,0.123776293373108
0.847970926711084,-0.049861967754364,-0.21688454875945998,0.11419621524810801
0.848576620230164,0.014803559589386,0.20224386920929002,0.392018480873108
0.849182313749243,0.096234223651886,-0.0372580839157104,0.066295824623108
0.849788007268322,-0.025911772441864,-0.0803684354782104,0.456684008216858
0.850393700787402,0.010013520526886,0.14236838092804002,0.8566522699356081
0.850999394306481,0.144134614276886,0.08249289264678959,0.15730656681060798
0.85160508782556,0.156109711933136,-0.0348630643844604,0.068690844154358
0.85221078134464,-0.011541655254364,-0.0803684354782104,0.10701115665435801
0.852816474863719,-0.057047026348114004,-0.0372580839157104,-0.098960523033142
0.853422168382798,0.199220063495636,0.11362814655304,0.118986254310608
0.854027861901878,0.127369477558136,-0.0923435331344604,0.071085863685608
0.854633555420957,0.086654145526886,0.0729128145217896,-0.019924878501892
0.855239248940036,0.067493989276886,0.039382541084289596,0.178861742591858
0.855844942459116,-0.021121733379364,-0.20251443157196,-0.012739819908142
0.856450635978195,0.0052234814643860004,-0.0707883573532104,-0.096565503501892
0.857056329497274,-0.033096831035614005,-0.0228879667282104,0.083060961341858
0.857662023016354,0.096234223651886,0.00106222858428956,-0.07501032772064199
0.858267716535433,0.086654145526886,-0.0588132596969604,0.135751391029358
0.858873410054512,-0.021121733379364,0.10644308795929,0.095036058998108
0.859479103573592,0.141739594745636,-0.0659983182907104,0.075875902748108
0.860084797092671,-0.229488432598114,0.029802462959289597,0.178861742591858
0.86069049061175,-0.203143217754364,-0.0348630643844604,0.087851000404358
0.86129618413083,-0.073812163066864,-0.049233181571960404,0.128566332435608
0.861901877649909,0.065098969745636,-0.09473855266571041,-0.089380444908142
0.862507571168988,0.060308930683135996,-0.030073025321960403,0.10222111759185801
0.863113264688068,-0.028306791973114,0.0274074434280396,0.174071703529358
0.863718958207147,-0.057047026348114004,0.0561476778030396,0.080665941810608
0.864324651726227,-0.092972319316864,0.13997336139679,0.243527269935608
0.864930345245306,-0.126502592754364,0.0609377168655396,0.04234562931060799
0.865536038764385,-0.263018706035614,0.0465675996780396,-0.022319898033142
0.866141732283465,-0.112132475566864,-0.0228879667282104,0.145331469154358
0.866747425802544,-0.033096831035614005,-0.0444431425094604,-0.07022028865814199
0.867353119321623,-0.076207182598114,-0.00612283000946044,0.087851000404358
0.867958812840703,-0.047466948223114,0.18547873249054,0.193231859779358
0.868564506359782,0.21838021974563598,-0.0803684354782104,-0.046270093345642006
0.869170199878861,0.014803559589386,-0.21927956829071,-0.063035230064392
0.869775893397941,-0.097762358379364,0.0202223848342896,0.21718205509185798
0.87038158691702,0.115394379901886,0.0274074434280396,0.35369816837310797
0.870987280436099,0.084259125995636,0.0920729707717896,0.083060961341858
0.871592973955179,0.002828461933136,0.0250124238967896,0.10940617618560801
0.872198667474258,-0.088182280254364,-0.10910866985321001,0.135751391029358
0.872804360993337,-0.071417143535614,-0.22167458782195998,0.118986254310608
0.873410054512417,0.175269868183136,-0.0109128690719604,0.027975512123108
0.874015748031496,0.019593598651886,-0.0636032987594604,0.032765551185608
0.874621441550575,0.115394379901886,-0.00612283000946044,0.121381273841858
0.875227135069655,0.07228402833938599,0.11362814655304,0.16209660587310798
0.875832828588734,0.033963715839386,-0.0564182401657104,0.22197209415435798
0.876438522107813,0.105814301776886,-0.16898415813446,-0.055850171470642
0.877044215626893,-0.011541655254364,-0.26478493938446,-0.022319898033142
0.877649909145972,0.07707406740188599,-0.0396531034469604,-0.010344800376892
0.878255602665051,-0.14087270994186402,-0.0228879667282104,0.442313891029358
0.878861296184131,-0.083392241191864,0.0250124238967896,0.6099652582168581
0.87946698970321,-0.033096831035614005,-0.030073025321960403,0.418363695716858
0.880072683222289,-0.054652006816864,0.0753078340530396,0.5141644769668581
0.880678376741369,0.211195161151886,-0.17856423625946,0.301007738685608
0.881284070260448,0.065098969745636,-0.13305886516571,-0.051060132408142
0.881889763779528,-0.028306791973114,0.029802462959289597,0.118986254310608
0.882495457298607,-0.112132475566864,-0.0468381620407104,-0.07501032772064199
0.883101150817686,-0.023516752910614,-0.0157029081344604,-0.20194636287689202
0.883706844336766,0.038753754901886,-0.10671365032196001,0.097431078529358
0.884312537855845,-0.114527495098114,0.19505881061554,0.039950609779358
0.884918231374924,0.014803559589386,-0.0659983182907104,0.035160570716858
0.885523924894004,-0.095367338848114,-0.00372781047821044,0.016000414466858
0.886129618413083,0.136949555683136,-0.0803684354782104,0.243527269935608
0.886735311932162,0.103419282245636,-0.20011941204071,0.133356371498108
0.887341005451242,-0.057047026348114004,-0.15221902141570998,0.027975512123108
0.887946698970321,0.220775239276886,-0.21927956829071,0.066295824623108
0.8885523924894,-0.066627104473114,0.0441725801467896,-0.139675855064392
0.88915808600848,-0.040281889629364,-0.0995285917282104,-0.079800366783142
0.889763779527559,0.010013520526886,0.0753078340530396,-0.053455151939392
0.890369473046638,0.031568696308136,-0.16898415813446,0.133356371498108
0.890975166565718,0.151319672870636,0.15673849811554,0.051925707435607996
0.891580860084797,-0.088182280254364,0.16392355670929,-0.118120679283142
0.892186553603876,0.062703950214386,0.0920729707717896,-0.060640210533142
0.892792247122956,-0.040281889629364,0.015432345771789601,0.025580492591858
0.893397940642035,-0.001961577129364,-0.28634011516571,0.023185473060608
0.894003634161115,-0.049861967754364,0.14715841999054002,0.11419621524810801
0.894609327680194,-0.097762358379364,-0.0803684354782104,0.164491625404358
0.895215021199273,0.002828461933136,-0.22167458782195998,-0.027109937095642
0.895820714718352,-0.033096831035614005,-0.10192361125946,-0.019924878501892
0.896426408237432,0.024383637714386,0.0777028535842896,-0.046270093345642006
0.897032101756511,-0.001961577129364,0.00106222858428956,-0.130095776939392
0.897637795275591,-0.040281889629364,-0.0707883573532104,-0.063035230064392
0.89824348879467,0.189639985370636,-0.10192361125946,-0.14207087459564202
0.898849182313749,0.057913911151885995,-0.09473855266571041,-0.235476636314392
0.899454875832829,0.067493989276886,0.25493429889679003,-0.0031597417831420002
0.900060569351908,0.048333833026886,0.017827365303039598,0.24592228946685799
0.900666262870987,-0.006751616191864,-0.28873513469696,0.154911547279358
0.901271956390067,0.086654145526886,-0.0923435331344604,0.004025316810608
0.901877649909146,0.101024262714386,0.0705177949905396,0.095036058998108
0.902483343428225,0.081864106464386,0.017827365303039598,-0.18278620662689202
0.903089036947305,-0.064232084941864,-0.0372580839157104,0.051925707435607996
0.903694730466384,-0.045071928691864,0.010642306709289602,-0.060640210533142
0.904300423985463,-0.205538237285614,-0.0228879667282104,0.037555590248108
0.904906117504543,0.084259125995636,0.0345925020217896,0.16209660587310798
0.905511811023622,0.148924653339386,0.0872829317092896,0.020790453529358
0.906117504542701,0.117789399433136,-0.0851584745407104,0.071085863685608
0.906723198061781,0.057913911151885995,-0.12826882610321,0.092641039466858
0.90732889158086,0.07707406740188599,0.036987521553039596,0.193231859779358
0.907934585099939,0.120184418964386,0.0609377168655396,0.068690844154358
0.908540278619019,0.000433442401886003,-0.21688454875945998,-0.221106519126892
0.909145972138098,0.184849946308136,-0.0612082792282104,-0.307327222251892
0.909751665657177,0.136949555683136,0.08488791217803959,0.023185473060608
0.910357359176257,-0.011541655254364,0.0417775606155396,0.621940355873108
0.910963052695336,-0.023516752910614,-0.0204929471969604,0.023185473060608
0.911568746214416,-0.059442045879364004,-0.0252829862594604,-0.144465894126892
0.912174439733495,0.091444184589386,0.0130373262405396,0.126171312904358
0.912780133252574,0.101024262714386,0.0800978731155396,-0.18278620662689202
0.913385826771653,-0.188773100566864,-0.0683933378219604,0.018395433998108
0.913991520290733,-0.004356596660614,0.16631857624054,0.027975512123108
0.914597213809812,-0.095367338848114,0.16871359577179001,0.121381273841858
0.915202907328892,-0.203143217754364,-0.0252829862594604,0.10461613712310801
0.915808600847971,0.0052234814643860004,-0.0564182401657104,-0.029504956626892
0.91641429436705,-0.090577299785614,-0.0923435331344604,-0.14207087459564202
0.91701998788613,0.041148774433136,-0.12347878704071,-0.086985425376892
0.917625681405209,0.156109711933136,-0.0803684354782104,-0.024714917564392
0.918231374924288,-0.114527495098114,0.11841818561554,0.135751391029358
0.918837068443368,-0.066627104473114,-0.18814431438446,0.140541430091858
0.919442761962447,0.093839204120636,-0.00133279094696044,0.059110766029358
0.920048455481526,0.053123872089386,-0.0588132596969604,0.126171312904358
0.920654149000606,0.103419282245636,-0.21209450969695998,0.193231859779358
0.921259842519685,-0.069022124004364,-0.11868874797821,-0.000764722251892003
0.921865536038764,0.117789399433136,-0.11389870891571001,-0.036690015220642004
0.922471229557844,-0.042676909160614,0.15673849811554,0.066295824623108
0.923076923076923,-0.150452788066864,0.0729128145217896,0.006420336341858001
0.923682616596002,-0.042676909160614,-0.23604470500945998,-0.12291071834564199
0.924288310115082,0.055518891620635995,0.0657277559280396,0.11180119571685801
0.924894003634161,0.057913911151885995,0.0657277559280396,0.04234562931060799
0.92549969715324,-0.001961577129364,-0.0372580839157104,-0.079800366783142
0.92610539067232,-0.085787260723114,-0.31987038860321004,0.150121508216858
0.926711084191399,-0.085787260723114,-0.10431863079071,-0.0055547613143919995
0.927316777710478,0.105814301776886,0.26211935749054,0.011210375404358
0.927922471229558,-0.059442045879364004,-0.0995285917282104,0.11180119571685801
0.928528164748637,0.122579438495636,0.010642306709289602,0.190836840248108
0.929133858267717,-0.033096831035614005,-0.13305886516571,0.10222111759185801
0.929739551786796,-0.222303374004364,-0.25280984172820997,-0.199551343345642
0.930345245305875,0.041148774433136,-0.0252829862594604,-0.185181226158142
0.930950938824954,-0.092972319316864,0.0250124238967896,0.054320726966857996
0.931556632344034,-0.080997221660614,-0.0995285917282104,-0.053455151939392
0.932162325863113,0.045938813495636,-0.18574929485320998,-0.149255933189392
0.932768019382193,-0.004356596660614,0.0226174043655396,0.133356371498108
0.933373712901272,0.019593598651886,0.0513576387405396,0.200416918373108
0.933979406420351,0.124974458026886,0.0321974824905396,-0.027109937095642
0.934585099939431,0.019593598651886,0.0441725801467896,-0.031899976158142
0.93519079345851,-0.179193022441864,-0.0803684354782104,0.049530687904357995
0.935796486977589,-0.045071928691864,-0.0755783964157104,-0.0055547613143919995
0.936402180496669,0.033963715839386,-0.0204929471969604,-0.091775464439392
0.937007874015748,0.275860688495636,0.13757834186554002,-0.034294995689392004
0.937613567534827,0.089049165058136,-0.15221902141570998,-0.027109937095642
0.938219261053907,0.021988618183136,-0.14982400188446,-0.031899976158142
0.938824954572986,0.021988618183136,0.15673849811554,0.071085863685608
0.939430648092065,0.067493989276886,-0.051628201103210404,0.396808519935608
0.940036341611145,0.036358735370636,-0.00372781047821044,0.6506805902481081
0.940642035130224,0.000433442401886003,0.0441725801467896,0.243527269935608
0.941247728649303,0.012408540058135999,0.0465675996780396,0.044740648841857994
0.941853422168383,-0.028306791973114,-0.0923435331344604,0.04234562931060799
0.942459115687462,0.033963715839386,-0.0875534940719604,-0.046270093345642006
0.943064809206541,0.081864106464386,-0.0444431425094604,0.035160570716858
0.943670502725621,0.038753754901886,-0.16419411907196,0.013605394935608
0.9442761962447,0.079469086933136,0.00585226764678956,0.063900805091858
0.94488188976378,-0.085787260723114,0.0489626192092896,0.099826098060608
0.945487583282859,-0.131292631816864,-0.0252829862594604,0.030370531654358
0.946093276801938,0.127369477558136,0.0920729707717896,-0.036690015220642004
0.946698970321018,0.007618500995636,0.14955343952179,-0.0031597417831420002
0.947304663840097,0.010013520526886,0.0441725801467896,0.087851000404358
0.947910357359176,0.065098969745636,-0.24801980266571,0.025580492591858
0.948516050878256,0.220775239276886,-0.11868874797821,0.056715746498108
0.949121744397335,-0.13608267087936401,0.0777028535842896,-0.031899976158142
0.949727437916414,0.002828461933136,0.0585426973342896,0.20760197696685798
0.950333131435494,0.204010102558136,-0.12347878704071,0.078270922279358
0.950938824954573,0.012408540058135999,-0.0109128690719604,-0.127700757408142
0.951544518473652,-0.186378081035614,-0.09713357219696041,-0.010344800376892
0.952150211992732,-0.040281889629364,-0.00372781047821044,-0.043875073814392006
0.952755905511811,0.031568696308136,-0.0588132596969604,0.035160570716858
0.95336159903089,-0.006751616191864,0.0681227754592896,0.004025316810608
0.95396729254997,0.235145356464386,0.029802462959289597,0.037555590248108
0.954572986069049,-0.052256987285614,-0.0348630643844604,-0.245056714439392
0.955178679588128,0.062703950214386,0.0896779512405396,-0.07501032772064199
0.955784373107208,0.141739594745636,-0.14263894329071,0.138146410560608
0.956390066626287,0.086654145526886,-0.21448952922821,0.016000414466858
0.956995760145366,0.136949555683136,-0.051628201103210404,0.018395433998108
0.957601453664446,0.002828461933136,0.16871359577179001,0.004025316810608
0.958207147183525,0.045938813495636,-0.19772439250946,0.138146410560608
0.958812840702604,0.017198579120636,0.15434347858429,0.150121508216858
0.959418534221684,0.105814301776886,0.029802462959289597,0.23155217227935798
0.960024227740763,0.055518891620635995,-0.0803684354782104,0.130961351966858
0.960629921259842,0.101024262714386,0.31241476764679,-0.149255933189392
