Time (s),Accel X (m/s^2),Accel Y (m/s^2),Accel Z (m/s^2)
0.0,0.0195473822593689,-0.0458448838233948,-0.408378241825104
0.000605693519079346,0.0315224799156189,0.25592757711410496,-0.0515203316688542
0.00121138703815869,0.0794228705406189,0.15294173727035498,0.324497734737396
0.00181708055723804,0.024337421321868898,-0.117695469760895,0.0682306448936458
0.00242277407631738,-0.0163779107093811,-0.0793751572608948,-0.09463068323135419
0.00302846759539673,0.00038722600936889103,-0.117695469760895,0.0275153128623958
0.00363416111447607,0.100978046321869,-0.115300450229645,0.125711113643646
0.00423985463355542,0.009967304134368889,-0.0602150010108948,0.0706256644248958
0.00484554815263477,-0.00919285211563111,-0.00512955179214478,-0.0730755074501042
0.00545124167171411,-0.0067978325843811105,-0.0865602158546448,0.0131451956748958
0.00605693519079346,-0.0523032036781311,-0.14643570413589502,-0.00122492151260424
0.0066626287098728,-0.0451181450843811,-0.117695469760895,0.08739080114364581
0.00726832222895215,0.007572284603118889,-0.0578199814796448,0.0826007620811458
0.0078740157480315,-0.107388652896881,-0.0290797471046448,0.0514655081748958
0.00847970926711084,-0.107388652896881,0.0763011122703552,0.142476250362396
0.00908540278619019,-0.107388652896881,-0.179965977573395,-0.312577460575104
0.00969109630526953,-0.0163779107093811,-0.21110123147964502,0.108945976924896
0.0102967898243489,0.0794228705406189,0.210422206020355,0.757996269893646
0.0109024833434282,-0.0427231255531311,-0.13206558694839501,-0.0203850777626042
0.0115081768625076,0.007572284603118889,-0.0937452744483948,0.125711113643646
0.0121138703815869,0.120138202571869,0.140966639614105,0.238277031612396
0.0127195639006663,0.0866079291343689,-0.129670567417145,-0.0323601754188542
0.0133252574197456,0.14408839788436897,-0.139250645542145,0.243067070674896
0.013930950938825,-0.0403281060218811,-0.134460606479645,0.046675469112395805
0.0145366444579043,0.0387075385093689,-0.182360997104645,0.0107501761436458
0.0151423379769836,0.17761867132186898,-0.263791661167145,0.09218084020614581
0.015748031496063,-0.0523032036781311,-0.0506349228858948,-0.15450617151260398
0.0163537250151423,-0.100203594303131,0.0906712294578552,-0.0994207222938542
0.0169594185342217,-0.0451181450843811,0.0188206435203552,0.123316094112396
0.017565112053301,0.0411025580406189,0.145756678676605,0.106550957393646
0.0181708055723804,0.0842129096031189,0.0020555068016052196,0.14008123083114601
0.0187764990914597,-0.00200779352188111,0.054745936489105196,0.173611504268646
0.0193821926105391,0.100978046321869,-0.14164566507339502,0.228696953487396
0.0199878861296184,-0.0930185357093811,0.047560877895355194,0.247857109737396
0.0205935796486978,0.0842129096031189,0.19365706930160498,-0.0251751168251042
0.0211992731677771,-0.0690683403968811,-0.0530299424171448,0.00356511754989576
0.0218049666868564,-0.0570932427406311,-0.0434498642921448,-0.116185859012604
0.0224106602059358,0.206358905696869,-0.0961402939796448,0.0323053519248958
0.0230163537250151,0.0866079291343689,-0.22068130960464502,0.233486992549896
0.0236220472440945,0.0315224799156189,-0.194336094760895,-0.0515203316688542
0.0242277407631738,-0.0666733208656311,0.0379807997703552,0.08739080114364581
0.0248334342822532,-0.0115878716468811,-0.0602150010108948,0.286177422237396
0.0254391278013325,0.09618800725936891,-0.117695469760895,0.319707695674896
0.0260448213204119,0.00038722600936889103,-0.20631119241714502,0.219116875362396
0.0266505148394912,-0.0594882622718811,-0.13685562601089502,-0.08505060510635419
0.0272562083585706,0.117743183040619,-0.148830723667145,0.029910332393645798
0.0278619018776499,-0.0235629693031311,-0.00273453226089478,0.11134099645614601
0.0284675953967293,-0.0858334771156311,-0.112905430698395,0.0802057425498958
0.0290732889158086,0.0937929877281189,0.0188206435203552,-0.113790839481354
0.0296789824348879,-0.0163779107093811,-0.014709629917144801,-0.231146796512604
0.0302846759539673,-0.112178691959381,-0.0841651963233948,-0.0275701363563542
0.0308903694730466,0.0746328314781189,-0.00273453226089478,0.106550957393646
0.031496062992126,-0.0523032036781311,0.023610682582855202,0.00356511754989576
0.0321017565112053,0.124928241634369,0.107436366176605,-0.039545234012604194
0.0327074500302847,0.00278224554061889,-0.20152115335464502,0.101760918331146
0.033313143549364,0.0195473822593689,-0.0602150010108948,0.209536797237396
0.0339188370684434,0.0434975775718689,0.117016444301605,0.09218084020614581
0.0345245305875227,-0.119363750553131,0.0882762099266052,-0.0203850777626042
0.0351302241066021,0.0818178900718689,-0.0841651963233948,0.11134099645614601
0.0357359176256814,0.0339174994468689,0.114621424770355,-0.111395819950104
0.0363416111447607,0.0890029486656189,0.13857162008285498,-0.118580878543854
0.0369473046638401,0.117743183040619,-0.175175938510895,-0.113790839481354
0.0375529981829194,-0.08343845758438109,0.15294173727035498,0.00835515661239576
0.0381586917019988,-0.0235629693031311,0.406813807582855,0.137686211299896
0.0387643852210781,-0.107388652896881,0.176891932582855,-0.176061347293854
0.0393700787401575,-0.14091892633438102,-0.0194996689796448,-0.279047187137604
0.0399757722592368,0.09618800725936891,-0.19194107522964501,-0.164086249637604
0.0405814657783162,-0.0882284966468811,-0.244631504917145,0.492149101924896
0.0411871592973955,-0.07625339899063109,-0.153620762729645,0.0706256644248958
0.0417928528164749,0.211148944759369,-0.00991959085464478,-0.128160956668854
0.0423985463355542,-0.0642783013343811,0.109831385707855,0.176006523799896
0.0430042398546336,-0.0475131646156311,0.0284007216453552,-0.111395819950104
0.0436099333737129,-0.102598613834381,0.0020555068016052196,-0.15450617151260398
0.0442156268927922,-0.021167949771881103,-0.0602150010108948,-0.147321112918854
0.0448213204118716,0.057867694759368905,-0.120090489292145,0.164031426143646
0.0454270139309509,-0.0403281060218811,-0.0123146103858948,-0.00122492151260424
0.0460327074500303,-0.0307480278968811,-0.16559586038589502,-0.171271308231354
0.0466384009691096,0.053077655696868904,-0.0961402939796448,-0.0323601754188542
0.047244094488189,0.201568866634369,-0.247026524448395,-0.116185859012604
0.0478497880072683,0.22312404241561898,-0.371567540073395,0.00596013708114576
0.0484554815263477,0.0171523627281189,-0.124880528354645,0.00356511754989576
0.049061175045427,-0.0906235161781311,0.0284007216453552,0.039490410518645803
0.0496668685645064,-0.0523032036781311,-0.10093033304214499,0.283782402706146
0.0502725620835857,0.00038722600936889103,-0.0123146103858948,0.00596013708114576
0.050878255602665,0.27102443304061896,0.0978562880516052,0.00356511754989576
0.0514839491217444,-0.128943828678131,-0.21589127054214502,0.0610455862998958
0.0520896426408237,0.0746328314781189,0.021215663051605202,0.135291191768646
0.0526953361599031,0.0387075385093689,0.176891932582855,0.0634406058311458
0.0533010296789824,-0.08343845758438109,0.0595359755516052,0.00835515661239576
0.0539067231980618,-0.0570932427406311,-0.0530299424171448,0.20474675817489602
0.0545124167171411,-0.0738583794593811,-0.170385899448395,-0.08505060510635419
0.0551181102362205,0.19677882757186899,0.0691160536766052,0.168821465206146
0.0557238037552998,0.00038722600936889103,0.0427708388328552,0.0754157034873958
0.0563294972743792,-0.18163425836563102,-0.0290797471046448,-0.132950995731354
0.0569351907934585,-0.0690683403968811,-0.0937452744483948,0.336472832393646
0.0575408843125379,0.0794228705406189,-0.120090489292145,0.029910332393645798
0.0581465778316172,0.024337421321868898,0.0810911513328552,-0.044335273075104195
0.0587522713506965,0.0746328314781189,-0.0554249619483948,0.197561699581146
0.0593579648697759,-0.0067978325843811105,0.0379807997703552,0.257437187862396
0.0599636583888552,-0.0067978325843811105,-0.00273453226089478,0.0347003714561458
0.0605693519079346,-0.0163779107093811,-0.20631119241714502,0.108945976924896
0.0611750454270139,-0.035538066959381095,-0.00033951272964478403,0.104155937862396
0.0617807389460933,0.0674477728843689,0.0451658583641052,-0.0179900582313542
0.0623864324651726,0.100978046321869,0.00445052633285522,0.278992363643646
0.062992125984252,0.156063495540619,-0.024289708042144798,0.0562555472373958
0.0635978195033313,0.0411025580406189,-0.0985353135108948,0.039490410518645803
0.0642035130224107,-0.00440281305313111,0.234372401332855,0.240672051143646
0.06480920654149,0.00278224554061889,-0.0602150010108948,-0.0203850777626042
0.0654149000605694,0.0315224799156189,-0.0865602158546448,-0.180851386356354
0.0660205935796487,-0.13612888727188102,0.184076991176605,-0.049125312137604196
0.066626287098728,-0.0570932427406311,-0.021894688510894798,0.0658356253623958
0.0672319806178074,0.026732440853118898,-0.06500504007339479,0.0658356253623958
0.0678376741368867,0.105768085384369,-0.20631119241714502,0.166426445674896
0.0684433676559661,0.10816310491561901,0.0260057021141052,0.120921074581146
0.0690490611750454,0.117743183040619,-0.40749283304214495,0.0514655081748958
0.0696547546941248,0.0890029486656189,-0.06740005960464479,0.0993658987998958
0.0702604482132041,-0.037933086490631096,0.27269271383285504,-0.09223566370010419
0.0708661417322835,0.0794228705406189,-0.208706211948395,-0.267072089481354
0.0714718352513628,0.0123623236656189,0.014030604457855199,0.0323053519248958
0.0720775287704422,-0.0546982232093811,-0.0913502549171448,-0.116185859012604
0.0726832222895215,-0.0307480278968811,0.0954612685203552,-0.286232245731354
0.0732889158086008,0.11295314397811901,0.0715110732078552,-0.135346015262604
0.0738946093276802,0.127323261165619,-0.232656407260895,-0.135346015262604
0.0745003028467595,-0.07625339899063109,-0.175175938510895,-0.0778655465126042
0.0751059963658389,-0.152894023990631,-0.19194107522964501,-0.00601496057510424
0.0757116898849182,0.0698427924156189,-0.0769801377296448,0.226301933956146
0.0763173834039976,0.120138202571869,0.049955897426605195,0.104155937862396
0.0769230769230769,0.00517726507186889,-0.0817701767921448,0.130501152706146
0.0775287704421563,0.00517726507186889,-0.172780918979645,0.044280449581145805
0.0781344639612356,-0.107388652896881,-0.0434498642921448,0.0802057425498958
0.078740157480315,0.17282863225936898,-0.120090489292145,-0.147321112918854
0.0793458509993943,0.211148944759369,-0.158410801792145,-0.0515203316688542
0.0799515445184737,0.026732440853118898,-0.041054844760894806,0.0754157034873958
0.080557238037553,0.0482876166343689,-0.041054844760894806,0.0347003714561458
0.0811629315566323,-0.0666733208656311,0.0834861708641052,0.0634406058311458
0.0817686250757117,0.00038722600936889103,-0.172780918979645,0.0562555472373958
0.082374318594791,-0.13612888727188102,-0.14643570413589502,0.08499578161239581
0.0829800121138704,0.115348163509369,0.0978562880516052,-0.0251751168251042
0.0835857056329497,0.328504901790619,-0.0434498642921448,0.183191582393646
0.0841913991520291,0.024337421321868898,-0.163200840854645,-0.09463068323135419
0.0847970926711084,-0.13133884820938102,0.109831385707855,0.0610455862998958
0.0854027861901878,0.134508319759369,0.117016444301605,-0.0108049996376042
0.0860084797092671,0.16803859319686898,0.112226405239105,-0.0970257027626042
0.0866141732283465,0.100978046321869,-0.122485508823395,0.243067070674896
0.0872198667474258,0.100978046321869,-0.270976719760895,0.00117009801864576
0.0878255602665051,-0.138523906803131,-0.19194107522964501,-0.00361994104385424
0.0884312537855845,-0.0427231255531311,-0.108115391635895,0.293362480831146
0.0890369473046638,0.0842129096031189,0.128991541957855,0.396348320674896
0.0896426408237432,-0.0570932427406311,0.19365706930160498,0.135291191768646
0.0902483343428225,0.0171523627281189,0.366098475551605,0.245462090206146
0.0908540278619019,-0.0451181450843811,-0.0578199814796448,-0.0108049996376042
0.0914597213809812,0.24707423772811898,-0.20152115335464502,0.0610455862998958
0.0920654149000606,0.0147573431968689,-0.20631119241714502,0.159241387081146
0.0926711084191399,0.024337421321868898,-0.122485508823395,0.00356511754989576
0.0932768019382193,0.287789569759369,0.0020555068016052196,0.0730206839561458
0.0938824954572986,-0.0139828911781311,0.16731185445785499,-0.190431464481354
0.094488188976378,0.0770278510093689,0.0331907607078552,0.226301933956146
0.0950938824954573,-0.133733867740631,-0.27576675882339496,0.125711113643646
0.0956995760145366,0.0315224799156189,-0.158410801792145,0.0610455862998958
0.096305269533616,0.055472675228118905,-0.144040684604645,0.350842949581146
0.0969109630526953,-0.0163779107093811,-0.038659825229644805,0.09457585973739581
0.0975166565717747,-0.035538066959381095,0.0020555068016052196,-0.0347551949501042
0.098122350090854,0.0458925971031189,-0.0817701767921448,0.168821465206146
0.0987280436099334,-0.133733867740631,-0.103325352573395,-0.128160956668854
0.0993337371290127,-0.102598613834381,-0.021894688510894798,-0.233541816043854
0.0999394306480921,0.0123623236656189,-0.10093033304214499,-0.106605780887604
0.100545124167171,-0.0642783013343811,-0.148830723667145,0.451433769893646
0.101150817686251,0.16803859319686898,-0.139250645542145,0.219116875362396
0.10175651120533,-0.035538066959381095,0.0691160536766052,-0.132950995731354
0.102362204724409,0.127323261165619,-0.0841651963233948,0.0634406058311458
0.102967898243489,0.0147573431968689,0.121806483364105,-0.044335273075104195
0.103573591762568,-0.112178691959381,0.186472010707855,0.164031426143646
0.104179285281647,0.17761867132186898,-0.27576675882339496,0.0323053519248958
0.104784978800727,-0.109783672428131,0.0739060927391052,-0.049125312137604196
0.105390672319806,0.0411025580406189,-0.07458511819839479,0.00596013708114576
0.105996365838886,0.0722378119468689,0.00445052633285522,0.049070488643645806
0.106602059357965,-0.0738583794593811,0.121806483364105,-0.0802605660438542
0.107207752877044,0.206358905696869,-0.21110123147964502,-0.00361994104385424
0.107813446396124,0.184803729915619,-0.108115391635895,0.101760918331146
0.108419139915203,-0.114573711490631,-0.120090489292145,-0.09463068323135419
0.109024833434282,-0.0690683403968811,-0.021894688510894798,-0.109000800418854
0.109630526953362,0.194383808040619,0.0834861708641052,0.046675469112395805
0.110236220472441,-0.0642783013343811,-0.0578199814796448,-0.137741034793854
0.11084191399152,-0.114573711490631,-0.06500504007339479,0.0802057425498958
0.1114476075106,0.00038722600936889103,0.054745936489105196,0.20474675817489602
0.112053301029679,0.20396388616561897,-0.038659825229644805,0.0275153128623958
0.112658994548758,-0.08343845758438109,0.0020555068016052196,0.0227252737998958
0.113264688067838,-0.0906235161781311,0.0427708388328552,0.14008123083114601
0.113870381586917,0.0842129096031189,0.0954612685203552,0.173611504268646
0.114476075105996,-0.0475131646156311,0.105041346645355,0.106550957393646
0.115081768625076,-0.184029277896881,-0.00273453226089478,-0.039545234012604194
0.115687462144155,-0.18163425836563102,-0.0793751572608948,0.116131035518646
0.116293155663234,0.13211330022811898,-0.0841651963233948,0.0754157034873958
0.116898849182314,0.100978046321869,0.27269271383285504,0.0682306448936458
0.117504542701393,-0.148103984928131,0.0307957411766052,-0.00361994104385424
0.118110236220472,-0.035538066959381095,0.014030604457855199,-0.168876288700104
0.118715929739552,0.0339174994468689,-0.00991959085464478,0.202351738643646
0.119321623258631,-0.0235629693031311,-0.16559586038589502,-0.0611004097938542
0.11992731677771,0.16324855413436898,-0.00273453226089478,0.09457585973739581
0.12053301029679,-0.112178691959381,-0.10093033304214499,0.132896172237396
0.121138703815869,0.09618800725936891,-0.124880528354645,0.0514655081748958
0.121744397334949,-0.0115878716468811,0.164916834926605,0.187981621456146
0.122350090854028,-0.0499081841468811,0.057140956020355196,0.0275153128623958
0.122955784373107,0.0315224799156189,-0.0530299424171448,-0.135346015262604
0.123561477892187,-0.0451181450843811,0.114621424770355,-0.00361994104385424
0.124167171411266,0.0746328314781189,-0.21589127054214502,0.0107501761436458
0.124772864930345,0.026732440853118898,-0.139250645542145,-0.120975898075104
0.125378558449425,0.00278224554061889,0.16252181539535498,-0.08744562463760419
0.125984251968504,-0.0714633599281311,-0.0554249619483948,-0.132950995731354
0.126589945487583,0.14887843694686897,-0.330852208042145,0.041885430049895804
0.127195639006663,0.009967304134368889,-0.00512955179214478,0.0802057425498958
0.127801332525742,-0.109783672428131,0.277482752895355,0.0778107230186458
0.128407026044821,0.120138202571869,-0.0171046494483948,0.044280449581145805
0.129012719563901,0.11055812444686901,-0.172780918979645,-0.180851386356354
0.12961841308298,-0.0067978325843811105,-0.112905430698395,0.0275153128623958
0.130224106602059,-0.0067978325843811105,0.0978562880516052,0.8681671683311459
0.130829800121139,-0.07625339899063109,0.12659652242660502,0.489754082393646
0.131435493640218,0.050682636165618904,0.00445052633285522,-0.0323601754188542
0.132041187159297,-0.0139828911781311,0.0427708388328552,0.288572441768646
0.132646880678377,-0.0163779107093811,-0.0171046494483948,0.09218084020614581
0.133252574197456,0.0890029486656189,-0.16080582132339502,0.0323053519248958
0.133858267716535,0.0650527533531189,0.0403758193016052,0.0969708792686458
0.134463961235615,0.115348163509369,-0.0290797471046448,0.0227252737998958
0.135069654754694,0.13690333929061899,-0.00512955179214478,0.185586601924896
0.135675348273773,0.165643573665619,0.150546717739105,0.08499578161239581
0.136281041792853,0.16803859319686898,-0.20631119241714502,-0.049125312137604196
0.136886735311932,0.0434975775718689,-0.031474766635894796,0.0634406058311458
0.137492428831012,0.175223651790619,0.021215663051605202,0.142476250362396
0.138098122350091,-0.0067978325843811105,0.0763011122703552,-0.0682854683876042
0.13870381586917,-0.224744609928131,-0.0194996689796448,0.0754157034873958
0.13930950938825,0.00517726507186889,0.0906712294578552,0.0347003714561458
0.139915202907329,0.053077655696868904,0.0954612685203552,0.19995671911239601
0.140520896426408,-0.138523906803131,-0.124880528354645,0.0754157034873958
0.141126589945488,-0.121758770084381,0.0715110732078552,-0.211986640262604
0.141732283464567,0.18240871038436898,-0.00273453226089478,-0.039545234012604194
0.142337976983646,0.0315224799156189,0.0691160536766052,-0.168876288700104
0.142943670502726,0.055472675228118905,0.021215663051605202,0.0227252737998958
0.143549364021805,0.0411025580406189,-0.0482399033546448,0.130501152706146
0.144155057540884,-0.00440281305313111,0.15773177633285498,0.20474675817489602
0.144760751059964,-0.0882284966468811,-0.0841651963233948,0.130501152706146
0.145366444579043,-0.100203594303131,-0.20631119241714502,0.044280449581145805
0.145972138098122,-0.08104343805313109,-0.124880528354645,0.0227252737998958
0.146577831617202,-0.116968731021881,0.00445052633285522,-0.0754705269813542
0.147183525136281,0.15845851507186898,-0.0482399033546448,0.228696953487396
0.14778921865536,0.0626577338218689,-0.115300450229645,0.123316094112396
0.14839491217444,-0.16726414117813102,0.0451658583641052,0.09457585973739581
0.149000605693519,0.0674477728843689,-0.0865602158546448,0.341262871456146
0.149606299212598,-0.114573711490631,-0.14643570413589502,0.0586505667686458
0.150211992731678,0.009967304134368889,0.109831385707855,-0.0778655465126042
0.150817686250757,-0.0642783013343811,0.0164256239891052,0.14008123083114601
0.151423379769836,-0.160079082584381,-0.170385899448395,0.137686211299896
0.152029073288916,-0.0259579888343811,-0.0554249619483948,-0.0730755074501042
0.152634766807995,-0.19600437555313102,-0.22547134866714502,-0.029965155887604202
0.153240460327075,0.09858302679061891,-0.15601578226089502,0.108945976924896
0.153846153846154,0.11295314397811901,-0.0434498642921448,0.128106133174896
0.154451847365233,0.024337421321868898,0.109831385707855,-0.0108049996376042
0.155057540884313,0.10816310491561901,0.0403758193016052,-0.0539153512001042
0.155663234403392,0.0387075385093689,0.109831385707855,0.0778107230186458
0.156268927922471,-0.116968731021881,0.0164256239891052,0.180796562862396
0.156874621441551,-0.0235629693031311,-0.330852208042145,-0.046730292606354196
0.15748031496063,0.0387075385093689,-0.0266847275733948,-0.240726874637604
0.158086008479709,0.053077655696868904,0.0858811903953552,0.161636406612396
0.158691701998789,0.0434975775718689,0.021215663051605202,0.496939140987396
0.159297395517868,0.18719874944686898,0.0763011122703552,-0.204801581668854
0.159903089036947,0.007572284603118889,0.0834861708641052,0.180796562862396
0.160508782556027,-0.0738583794593811,0.054745936489105196,0.765181328487396
0.161114476075106,0.105768085384369,-0.00512955179214478,0.08739080114364581
0.161720169594185,0.0291274603843689,-0.0194996689796448,0.029910332393645798
0.162325863113265,-0.021167949771881103,-0.0554249619483948,0.0682306448936458
0.162931556632344,-0.0666733208656311,0.014030604457855199,-0.0275701363563542
0.163537250151423,0.055472675228118905,0.0810911513328552,0.240672051143646
0.164142943670503,-0.0954135552406311,0.0810911513328552,0.317312676143646
0.164748637189582,-0.15049900445938103,0.057140956020355196,-0.0730755074501042
0.165354330708661,-0.07864841852188109,-0.153620762729645,0.0802057425498958
0.165960024227741,0.0890029486656189,-0.249421543979645,-0.116185859012604
0.16656571774682,0.259049335384369,-0.0602150010108948,-0.116185859012604
0.167171411265899,-0.037933086490631096,0.0403758193016052,-0.0587053902626042
0.167777104784979,0.026732440853118898,0.0284007216453552,-0.111395819950104
0.168382798304058,0.184803729915619,-0.00991959085464478,0.185586601924896
0.168988491823137,-0.08104343805313109,0.0619309950828552,0.00596013708114576
0.169594185342217,0.11055812444686901,0.047560877895355194,-0.109000800418854
0.170199878861296,0.0698427924156189,-0.13685562601089502,-0.00840998010635424
0.170805572380376,-0.265459941959381,-0.0793751572608948,0.046675469112395805
0.171411265899455,-0.08104343805313109,-0.0602150010108948,-0.147321112918854
0.172016959418534,-0.0930185357093811,-0.00512955179214478,0.039490410518645803
0.172622652937614,-0.0738583794593811,-0.06500504007339479,-0.109000800418854
0.173228346456693,-0.021167949771881103,-0.218286290073395,0.106550957393646
0.173834039975772,-0.124153789615631,-0.024289708042144798,0.298152519893646
0.174439733494852,-0.346890606021881,0.00445052633285522,0.142476250362396
0.175045427013931,-0.229534648990631,-0.0841651963233948,0.192771660518646
0.17565112053301,-0.17205418024063102,-0.0123146103858948,-0.044335273075104195
0.17625681405209,-0.13133884820938102,-0.25421158304214503,-0.0179900582313542
0.176862507571169,-0.275040020084381,-0.203916172885895,0.0658356253623958
0.177468201090248,-0.346890606021881,-0.021894688510894798,-0.00361994104385424
0.178073894609328,-0.18163425836563102,-0.00991959085464478,-0.192826484012604
0.178679588128407,-0.440296367740631,0.0739060927391052,0.0826007620811458
0.179285281647486,-0.29899021539688103,0.140966639614105,0.257437187862396
0.179890975166566,-0.385210918521881,0.0619309950828552,0.125711113643646
0.180496668685645,-0.373235820865631,-0.270976719760895,0.0227252737998958
0.181102362204724,-0.188819316959381,-0.170385899448395,-0.130555976200104
0.181708055723804,-0.224744609928131,-0.033869786167144804,-0.0826555855751042
0.182313749242883,-0.313360332584381,-0.033869786167144804,0.0179352347373958
0.182919442761962,-0.217559551334381,0.023610682582855202,0.0610455862998958
0.183525136281042,-0.224744609928131,-0.129670567417145,0.044280449581145805
0.184130829800121,-0.310965313053131,-0.0482399033546448,0.08978582067489581
0.1847365233192,-0.0714633599281311,-0.139250645542145,-0.0658904488563542
0.18534221683828,-0.20079441461563102,-0.00991959085464478,0.0969708792686458
0.185947910357359,-0.21516453180313103,-0.0626100205421448,0.0203302542686458
0.186553603876439,-0.148103984928131,0.0858811903953552,0.0370953909873958
0.187159297395518,-0.272645000553131,0.0188206435203552,0.164031426143646
0.187764990914597,-0.21037449274063103,0.00924056539535522,-0.044335273075104195
0.188370684433677,-0.184029277896881,0.00445052633285522,0.015540215206145801
0.188976377952756,-0.339705547428131,-0.199126133823395,-0.353292792606354
0.189582071471835,-0.224744609928131,0.0882762099266052,0.147266289424896
0.190187764990915,-0.35886570367813103,-0.00512955179214478,0.403533379268646
0.190793458509994,-0.253484844303131,0.265507655239105,0.465803887081146
0.191399152029073,-0.0546982232093811,0.047560877895355194,0.130501152706146
0.192004845548153,-0.224744609928131,-0.021894688510894798,-0.183246405887604
0.192610539067232,-0.23192966852188102,0.0595359755516052,-0.0275701363563542
0.193216232586311,-0.363655742740631,0.0619309950828552,-0.279047187137604
0.193821926105391,-0.366050762271881,0.253532557582855,-0.0275701363563542
0.19442761962447,-0.40916111383438103,-0.07219009866714479,0.142476250362396
0.195033313143549,-0.28941013727188103,0.047560877895355194,0.09218084020614581
0.195639006662629,-0.325335430240631,-0.0434498642921448,0.044280449581145805
0.196244700181708,-0.435506328678131,-0.129670567417145,0.0203302542686458
0.196850393700787,-0.337310527896881,-0.0961402939796448,-0.300602362918854
0.197456087219867,-0.370840801334381,0.0403758193016052,-0.147321112918854
0.198061780738946,-0.610342754459381,0.006845545864105219,-0.0706804879188542
0.198667474258025,-0.356470684146881,-0.21110123147964502,0.046675469112395805
0.199273167777105,-0.401976055240631,0.014030604457855199,-0.0563103707313542
0.199878861296184,-0.507356914615631,-0.124880528354645,0.0347003714561458
0.200484554815263,-0.322940410709381,-0.177570958042145,0.185586601924896
0.201090248334343,-0.243904766178131,0.049955897426605195,0.00596013708114576
0.201695941853422,-0.29899021539688103,0.30382796773910503,0.0610455862998958
0.202301635372502,-0.48819675836563103,-0.0602150010108948,-0.144926093387604
0.202907328891581,-0.234324688053131,-0.22068130960464502,0.0275153128623958
0.20351302241066,-0.282225078678131,0.047560877895355194,0.101760918331146
0.20411871592974,-0.375630840396881,0.105041346645355,-0.0706804879188542
0.204724409448819,-0.322940410709381,0.054745936489105196,0.235882012081146
0.205330102967898,-0.416346172428131,-0.0266847275733948,0.197561699581146
0.205935796486978,-0.284620098209381,0.006845545864105219,0.0107501761436458
0.206541490006057,-0.179239238834381,-0.038659825229644805,-0.178456366825104
0.207147183525136,-0.287015117740631,-0.0075245713233947804,-0.0275701363563542
0.207752877044216,-0.203189434146881,-0.144040684604645,0.14008123083114601
0.208358570563295,-0.25827488336563104,-0.244631504917145,-0.142531073856354
0.208964264082374,-0.28941013727188103,-0.038659825229644805,-0.0970257027626042
0.209569957601454,-0.35886570367813103,0.0954612685203552,0.0179352347373958
0.210175651120533,-0.277435039615631,-0.0434498642921448,0.187981621456146
0.210781344639612,-0.219954570865631,0.107436366176605,-0.00840998010635424
0.211387038158692,-0.21516453180313103,0.0978562880516052,-0.168876288700104
0.211992731677771,-0.0475131646156311,0.105041346645355,-0.0682854683876042
0.21259842519685,-0.0930185357093811,0.0882762099266052,0.0538605277061458
0.21320411871593,-0.08343845758438109,-0.129670567417145,0.14008123083114601
0.213809812235009,-0.21516453180313103,-0.00273453226089478,0.09457585973739581
0.214415505754088,-0.31815037164688104,-0.19194107522964501,0.192771660518646
0.215021199273168,0.0794228705406189,-0.122485508823395,0.0227252737998958
0.215626892792247,-0.021167949771881103,0.308618006801605,-0.00840998010635424
0.216232586311326,-0.19121433649063102,0.00445052633285522,-0.190431464481354
0.216838279830406,-0.0403281060218811,-0.26618668069839496,-0.281442206668854
0.217443973349485,-0.164869121646881,-0.07219009866714479,-0.049125312137604196
0.218049666868565,-0.239114727115631,0.114621424770355,-0.21917169885635399
0.218655360387644,-0.018772930240631102,0.0906712294578552,0.211931816768646
0.219261053906723,0.11295314397811901,-0.108115391635895,0.585554863643646
0.219866747425803,-0.0451181450843811,-0.20152115335464502,-0.176061347293854
0.220472440944882,-0.061883281803131095,0.0427708388328552,-0.0539153512001042
0.221078134463961,-0.061883281803131095,0.0834861708641052,0.156846367549896
0.221683827983041,-0.104993633365631,-0.033869786167144804,-0.132950995731354
0.22228952150212,-0.15528904352188103,0.0786961318016052,0.132896172237396
0.222895215021199,-0.121758770084381,-0.0889552353858948,0.154451348018646
0.223500908540279,0.117743183040619,-0.110510411167145,-0.0203850777626042
0.224106602059358,-0.035538066959381095,-0.0171046494483948,0.00835515661239576
0.224712295578437,-0.035538066959381095,0.00924056539535522,0.101760918331146
0.225317989097517,0.055472675228118905,0.049955897426605195,0.0730206839561458
0.225923682616596,0.0171523627281189,-0.103325352573395,0.104155937862396
0.226529376135675,0.0674477728843689,-0.16080582132339502,-0.0515203316688542
0.227135069654755,0.009967304134368889,-0.144040684604645,-0.09223566370010419
0.227740763173834,-0.0666733208656311,-0.314087071323395,-0.00840998010635424
0.228346456692913,-0.217559551334381,-0.0602150010108948,0.09457585973739581
0.228952150211993,0.0458925971031189,-0.0266847275733948,0.216721855831146
0.229557843731072,0.13690333929061899,0.22239730367660498,0.00835515661239576
0.230163537250151,0.0626577338218689,-0.0841651963233948,-0.08744562463760419
0.230769230769231,0.15845851507186898,-0.21589127054214502,-0.00122492151260424
0.23137492428831,-0.018772930240631102,0.021215663051605202,-0.137741034793854
0.231980617807389,-0.21516453180313103,-0.0841651963233948,0.0131451956748958
0.232586311326469,0.009967304134368889,-0.0123146103858948,0.293362480831146
0.233192004845548,-0.0523032036781311,0.0307957411766052,0.326892754268646
0.233797698364627,-0.100203594303131,-0.0578199814796448,0.214326836299896
0.234403391883707,0.057867694759368905,0.014030604457855199,0.0227252737998958
0.235009085402786,0.0171523627281189,0.0691160536766052,0.0969708792686458
0.235614778921866,-0.0235629693031311,-0.0602150010108948,0.0562555472373958
0.236220472440945,0.0171523627281189,0.0619309950828552,0.0610455862998958
0.236826165960024,0.0913979681968689,0.0020555068016052196,0.216721855831146
0.237431859479104,-0.0499081841468811,0.00924056539535522,0.166426445674896
0.238037552998183,-0.100203594303131,-0.0075245713233947804,0.041885430049895804
0.238643246517262,-0.0906235161781311,-0.270976719760895,-0.0203850777626042
0.239248940036342,-0.0523032036781311,-0.148830723667145,0.0107501761436458
0.239854633555421,-0.0666733208656311,-0.0817701767921448,0.125711113643646
0.2404603270745,-0.0235629693031311,-0.0123146103858948,-0.0778655465126042
0.24106602059358,0.00278224554061889,0.0188206435203552,-0.178456366825104
0.241671714112659,-0.035538066959381095,-0.014709629917144801,0.015540215206145801
0.242277407631738,0.0458925971031189,-0.105720372104645,-0.08984064416885419
0.242883101150818,0.115348163509369,-0.00991959085464478,-0.130555976200104
0.243488794669897,-0.0666733208656311,0.119411463832855,0.0754157034873958
0.244094488188976,-0.13612888727188102,-0.014709629917144801,-0.08984064416885419
0.244700181708056,0.239889179134369,0.0667210341453552,-0.044335273075104195
0.245305875227135,0.053077655696868904,0.12659652242660502,-0.0970257027626042
0.245911568746214,0.0434975775718689,0.16252181539535498,-0.0179900582313542
0.246517262265294,-0.0666733208656311,0.0020555068016052196,-0.0802605660438542
0.247122955784373,-0.0475131646156311,-0.0482399033546448,-0.21917169885635399
0.247728649303452,0.09858302679061891,-0.184756016635895,-0.0587053902626042
0.248334342822532,-0.260669902896881,-0.16080582132339502,-0.08744562463760419
0.248940036341611,-0.207979473209381,0.119411463832855,0.5304694144248959
0.24954572986069,-0.0523032036781311,0.10025130758285501,-0.125765937137604
0.25015142337977,0.055472675228118905,0.0906712294578552,-0.255096991825104
0.250757116898849,0.0842129096031189,0.109831385707855,0.451433769893646
0.251362810417929,-0.0475131646156311,0.006845545864105219,-0.0730755074501042
0.251968503937008,0.0770278510093689,-0.0937452744483948,-0.0658904488563542
0.252574197456087,0.105768085384369,0.0978562880516052,0.108945976924896
0.253179890975167,-0.037933086490631096,0.13857162008285498,-0.0778655465126042
0.253785584494246,-0.0642783013343811,-0.19673111429214502,-0.152111151981354
0.254391278013325,0.0434975775718689,0.0403758193016052,0.0802057425498958
0.254996971532405,-0.018772930240631102,-0.041054844760894806,0.08978582067489581
0.255602665051484,0.127323261165619,-0.0075245713233947804,0.0251202933311458
0.256208358570563,0.129718280696869,0.0379807997703552,-0.08984064416885419
0.256814052089643,-0.0546982232093811,0.0403758193016052,-0.271862128543854
0.257419745608722,0.057867694759368905,0.0954612685203552,-0.0108049996376042
0.258025439127801,0.0387075385093689,0.047560877895355194,0.0706256644248958
0.258631132646881,-0.17205418024063102,0.023610682582855202,0.015540215206145801
0.25923682616596,-0.0642783013343811,-0.0171046494483948,0.168821465206146
0.259842519685039,0.007572284603118889,-0.00033951272964478403,0.178401543331146
0.260448213204119,-0.0978085747718811,-0.12727554788589499,0.08978582067489581
0.261053906723198,-0.0139828911781311,0.014030604457855199,0.149661308956146
0.261659600242277,-0.104993633365631,0.0116355849266052,-0.046730292606354196
0.262265293761357,0.0818178900718689,-0.031474766635894796,0.0754157034873958
0.262870987280436,0.100978046321869,-0.06979507913589479,0.104155937862396
0.263476680799515,-0.0930185357093811,-0.00991959085464478,-0.039545234012604194
0.264082374318595,-0.119363750553131,-0.0506349228858948,-0.08984064416885419
0.264688067837674,0.0698427924156189,0.0810911513328552,0.171216484737396
0.265293761356753,0.0890029486656189,-0.13685562601089502,0.197561699581146
0.265899454875833,0.120138202571869,-0.194336094760895,0.0658356253623958
0.266505148394912,0.0315224799156189,0.164916834926605,0.19995671911239601
0.267110841913992,0.021942401790618897,-0.0434498642921448,0.08499578161239581
0.267716535433071,-0.0523032036781311,-0.038659825229644805,0.039490410518645803
0.26832222895215,0.009967304134368889,-0.021894688510894798,0.161636406612396
0.26892792247123,-0.0067978325843811105,-0.10093033304214499,-0.0108049996376042
0.269533615990309,-0.0403281060218811,-0.0123146103858948,-0.106605780887604
0.270139309509388,0.129718280696869,0.0978562880516052,-0.0634954293251042
0.270745003028468,-0.0546982232093811,0.0691160536766052,-0.0371502144813542
0.271350696547547,-0.018772930240631102,-0.00273453226089478,0.171216484737396
0.271956390066626,0.0698427924156189,0.0331907607078552,-0.0515203316688542
0.272562083585706,0.053077655696868904,-0.014709629917144801,0.0778107230186458
0.273167777104785,0.13211330022811898,-0.208706211948395,0.240672051143646
0.273773470623864,0.20396388616561897,0.00445052633285522,0.0706256644248958
0.274379164142944,-0.0594882622718811,-0.07219009866714479,-0.0754705269813542
0.274984857662023,-0.14091892633438102,-0.122485508823395,-0.120975898075104
0.275590551181102,-0.0642783013343811,-0.0194996689796448,-0.0658904488563542
0.276196244700182,0.009967304134368889,-0.033869786167144804,0.08739080114364581
0.276801938219261,0.00517726507186889,0.121806483364105,0.09457585973739581
0.27740763173834,0.0411025580406189,-0.0626100205421448,-0.044335273075104195
0.27801332525742,-0.0403281060218811,-0.038659825229644805,-0.0275701363563542
0.278619018776499,-0.0403281060218811,0.19365706930160498,0.09457585973739581
0.279224712295578,0.19677882757186899,0.205632166957855,0.0107501761436458
0.279830405814658,0.18240871038436898,0.052350916957855195,-0.0658904488563542
0.280436099333737,-0.035538066959381095,-0.103325352573395,0.540049492549896
0.281041792852816,-0.021167949771881103,-0.0793751572608948,0.523284355831146
0.281647486371896,0.115348163509369,0.0882762099266052,0.0586505667686458
0.282253179890975,-0.13612888727188102,-0.163200840854645,0.125711113643646
0.282858873410055,-0.0427231255531311,-0.108115391635895,0.149661308956146
0.283464566929134,0.0171523627281189,0.174496913051605,-0.171271308231354
0.284070260448213,-0.0115878716468811,-0.0506349228858948,0.00117009801864576
0.284675953967293,0.007572284603118889,-0.06740005960464479,0.08499578161239581
0.285281647486372,-0.0523032036781311,0.0116355849266052,-0.0515203316688542
0.285887341005451,-0.14570896539688102,-0.0889552353858948,-0.0706804879188542
0.286493034524531,0.021942401790618897,0.105041346645355,0.08978582067489581
0.28709872804361,0.0434975775718689,-0.00512955179214478,0.0586505667686458
0.287704421562689,0.00278224554061889,-0.158410801792145,-0.0108049996376042
0.288310115081769,0.15366847600936898,0.00445052633285522,0.207141777706146
0.288915808600848,0.0195473822593689,-0.0506349228858948,0.20474675817489602
0.289521502119927,0.156063495540619,0.00924056539535522,0.0370953909873958
0.290127195639007,-0.0259579888343811,-0.031474766635894796,-0.08505060510635419
0.290732889158086,-0.16247410211563101,-0.038659825229644805,-0.09223566370010419
0.291338582677165,-0.104993633365631,0.196052088832855,-0.166481269168854
0.291944276196245,0.0147573431968689,0.0930662489891052,-0.116185859012604
0.292549969715324,0.170433612728119,-0.134460606479645,-0.137741034793854
0.293155663234403,0.0315224799156189,-0.103325352573395,0.0227252737998958
0.293761356753483,-0.0451181450843811,-0.179965977573395,-0.0634954293251042
0.294367050272562,0.09618800725936891,-0.07219009866714479,0.0754157034873958
0.294972743791641,-0.0427231255531311,0.0930662489891052,0.295757500362396
0.295578437310721,-0.0259579888343811,-0.06500504007339479,0.0323053519248958
0.2961841308298,-0.0594882622718811,0.0763011122703552,0.166426445674896
0.296789824348879,-0.18642429742813102,-0.06500504007339479,0.288572441768646
0.297395517867959,0.0458925971031189,-0.19673111429214502,0.116131035518646
0.298001211387038,-0.021167949771881103,-0.0602150010108948,-0.09223566370010419
0.298606904906118,-0.00919285211563111,-0.129670567417145,-0.178456366825104
0.299212598425197,0.09858302679061891,0.0307957411766052,0.228696953487396
0.299818291944276,-0.00919285211563111,-0.21589127054214502,0.235882012081146
0.300423985463356,0.007572284603118889,-0.0841651963233948,0.039490410518645803
0.301029678982435,0.0291274603843689,0.179286952114105,-0.00840998010635424
0.301635372501514,-0.0882284966468811,0.0691160536766052,-0.029965155887604202
0.302241066020594,0.0698427924156189,0.0643260146141052,0.00596013708114576
0.302846759539673,0.0411025580406189,0.0116355849266052,0.0251202933311458
0.303452453058752,-0.0954135552406311,0.13857162008285498,0.0682306448936458
0.304058146577832,0.09858302679061891,-0.13206558694839501,0.142476250362396
0.304663840096911,0.0458925971031189,-0.07219009866714479,-0.15450617151260398
0.30526953361599,0.0482876166343689,0.299037928676605,-0.0323601754188542
0.30587522713507,0.0794228705406189,-0.00033951272964478403,-0.0371502144813542
0.306480920654149,0.294974628353119,-0.00273453226089478,-0.0563103707313542
0.307086614173228,0.14887843694686897,0.023610682582855202,-0.0778655465126042
0.307692307692308,0.0674477728843689,-0.199126133823395,0.152056328487396
0.308298001211387,0.0674477728843689,0.0427708388328552,0.5137042777061459
0.308903694730466,-0.114573711490631,-0.247026524448395,0.278992363643646
0.309509388249546,-0.0930185357093811,-0.0171046494483948,0.101760918331146
0.310115081768625,0.10816310491561901,0.121806483364105,0.120921074581146
0.310720775287704,0.09618800725936891,-0.199126133823395,0.580764824581146
0.311326468806784,0.0123623236656189,-0.00273453226089478,0.164031426143646
0.311932162325863,0.11295314397811901,-0.182360997104645,-0.015595038700104199
0.312537855844942,0.0794228705406189,-0.218286290073395,0.00596013708114576
0.313143549364022,0.273419452571869,-0.148830723667145,-0.0970257027626042
0.313749242883101,0.129718280696869,0.112226405239105,-0.0611004097938542
0.31435493640218,-0.0451181450843811,-0.031474766635894796,-0.0970257027626042
0.31496062992126,0.0171523627281189,-0.0482399033546448,0.029910332393645798
0.315566323440339,0.0315224799156189,0.0667210341453552,0.0682306448936458
0.316172016959419,0.0339174994468689,-0.0578199814796448,0.120921074581146
0.316777710478498,0.19198878850936898,-0.041054844760894806,0.0610455862998958
0.317383403997577,0.0171523627281189,-0.0171046494483948,-0.180851386356354
0.317989097516657,0.122533222103119,-0.230261387729645,0.00835515661239576
0.318594791035736,0.0171523627281189,-0.199126133823395,0.161636406612396
0.319200484554815,0.009967304134368889,0.054745936489105196,0.147266289424896
0.319806178073895,-0.143313945865631,0.0307957411766052,0.190376640987396
0.320411871592974,-0.0283530083656311,-0.031474766635894796,0.128106133174896
0.321017565112053,0.10816310491561901,0.124201502895355,0.0586505667686458
0.321623258631133,-0.018772930240631102,0.052350916957855195,0.106550957393646
0.322228952150212,-0.114573711490631,-0.00273453226089478,0.106550957393646
0.322834645669291,-0.0259579888343811,-0.0458448838233948,-0.120975898075104
0.323440339188371,0.23270412054061898,-0.268581700229645,-0.144926093387604
0.32404603270745,-0.0570932427406311,-0.184756016635895,-0.185641425418854
0.324651726226529,0.105768085384369,-0.21589127054214502,-0.0227800972938542
0.325257419745609,-0.128943828678131,-0.0458448838233948,0.09218084020614581
0.325863113264688,-0.15049900445938103,0.16731185445785499,-0.120975898075104
0.326468806783767,0.021942401790618897,-0.148830723667145,-0.0227800972938542
0.327074500302847,-0.00440281305313111,-0.036264805698394804,0.0227252737998958
0.327680193821926,-0.0882284966468811,-0.103325352573395,0.0730206839561458
0.328285887341005,-0.133733867740631,-0.251816563510895,0.276597344112396
0.328891580860085,0.122533222103119,-0.00033951272964478403,0.104155937862396
0.329497274379164,0.0842129096031189,0.19365706930160498,0.276597344112396
0.330102967898244,-0.104993633365631,0.128991541957855,0.305337578487396
0.330708661417323,-0.112178691959381,-0.0793751572608948,0.173611504268646
0.331314354936402,0.0411025580406189,-0.00512955179214478,0.125711113643646
0.331920048455482,0.0387075385093689,-0.0985353135108948,-0.0227800972938542
0.332525741974561,-0.0714633599281311,-0.036264805698394804,0.044280449581145805
0.33313143549364,0.139298358821869,0.10264632711410501,0.0107501761436458
0.33373712901272,0.105768085384369,0.179286952114105,-0.0323601754188542
0.334342822531799,-0.18642429742813102,-0.031474766635894796,0.211931816768646
0.334948516050878,-0.133733867740631,0.179286952114105,-0.113790839481354
0.335554209569958,0.0674477728843689,0.150546717739105,0.08499578161239581
0.336159903089037,0.0890029486656189,-0.06979507913589479,0.504124199581146
0.336765596608116,0.0291274603843689,-0.194336094760895,0.09457585973739581
0.337371290127196,-0.033143047428131095,-0.07458511819839479,0.0347003714561458
0.337976983646275,-0.138523906803131,0.0954612685203552,0.0538605277061458
0.338582677165354,-0.0067978325843811105,-0.06740005960464479,-0.09463068323135419
0.339188370684434,-0.037933086490631096,-0.115300450229645,-0.243121894168854
0.339794064203513,-0.018772930240631102,-0.014709629917144801,-0.0203850777626042
0.340399757722592,0.0913979681968689,-0.0841651963233948,0.7867365042686459
0.341005451241672,-0.15528904352188103,-0.16080582132339502,0.544839531612396
0.341611144760751,-0.14570896539688102,-0.00512955179214478,-0.125765937137604
0.34221683827983,0.053077655696868904,0.0810911513328552,0.128106133174896
0.34282253179891,0.0315224799156189,0.181681971645355,0.00117009801864576
0.343428225317989,0.194383808040619,0.0786961318016052,0.243067070674896
0.344033918837068,0.18719874944686898,0.0930662489891052,0.123316094112396
0.344639612356148,-0.126548809146881,0.243952479457855,-0.0634954293251042
0.345245305875227,-0.119363750553131,-0.06500504007339479,0.0634406058311458
0.345850999394306,0.0913979681968689,-0.19673111429214502,-0.0706804879188542
0.346456692913386,0.0722378119468689,0.0307957411766052,0.202351738643646
0.347062386432465,-0.23192966852188102,-0.0123146103858948,0.0514655081748958
0.347668079951545,-0.126548809146881,-0.16559586038589502,0.0514655081748958
0.348273773470624,-0.0499081841468811,-0.0961402939796448,-0.09463068323135419
0.348879466989703,0.055472675228118905,0.0739060927391052,0.0514655081748958
0.349485160508783,0.0411025580406189,0.14336165914535498,0.187981621456146
0.350090854027862,0.0291274603843689,0.107436366176605,0.104155937862396
0.350696547546941,-0.0546982232093811,-0.129670567417145,0.14008123083114601
0.351302241066021,-0.143313945865631,-0.036264805698394804,-0.0970257027626042
0.3519079345851,0.0171523627281189,0.196052088832855,-0.104210761356354
0.352513628104179,0.0315224799156189,0.196052088832855,0.09218084020614581
0.353119321623259,0.20396388616561897,0.114621424770355,0.125711113643646
0.353725015142338,0.0315224799156189,-0.194336094760895,-0.0108049996376042
0.354330708661417,-0.00919285211563111,-0.0865602158546448,0.0131451956748958
0.354936402180497,-0.0163779107093811,0.021215663051605202,0.0993658987998958
0.355542095699576,0.0674477728843689,0.0403758193016052,-0.09223566370010419
0.356147789218655,0.249469257259369,0.052350916957855195,0.049070488643645806
0.356753482737735,-0.124153789615631,0.0331907607078552,-0.00361994104385424
0.357359176256814,-0.21037449274063103,0.021215663051605202,-0.180851386356354
0.357964869775893,0.189593768978119,-0.0626100205421448,0.0754157034873958
0.358570563294973,-0.061883281803131095,-0.00512955179214478,-0.0539153512001042
0.359176256814052,-0.0954135552406311,0.0020555068016052196,0.0323053519248958
0.359781950333131,0.007572284603118889,-0.0123146103858948,0.154451348018646
0.360387643852211,-0.0858334771156311,0.0763011122703552,0.00596013708114576
0.36099333737129,0.021942401790618897,-0.0865602158546448,-0.0515203316688542
0.361599030890369,-0.00440281305313111,-0.19194107522964501,-0.046730292606354196
0.362204724409449,0.13690333929061899,0.0164256239891052,0.0610455862998958
0.362810417928528,-0.00440281305313111,0.0451658583641052,0.178401543331146
0.363416111447607,0.0698427924156189,-0.0769801377296448,0.132896172237396
0.364021804966687,0.09858302679061891,-0.175175938510895,-0.104210761356354
0.364627498485766,-0.148103984928131,0.119411463832855,-0.180851386356354
0.365233192004846,-0.0259579888343811,0.00924056539535522,0.310127617549896
0.365838885523925,0.230309101009369,-0.06500504007339479,0.0107501761436458
0.366444579043004,0.0674477728843689,0.006845545864105219,-0.123370917606354
0.367050272562084,-0.0475131646156311,-0.06500504007339479,0.09218084020614581
0.367655966081163,0.0434975775718689,-0.038659825229644805,0.0586505667686458
0.368261659600242,0.0842129096031189,0.014030604457855199,0.00356511754989576
0.368867353119322,0.11295314397811901,-0.00991959085464478,0.5280743948936459
0.369473046638401,-0.0642783013343811,0.052350916957855195,-0.0778655465126042
0.37007874015748,0.0650527533531189,-0.0482399033546448,-0.164086249637604
0.37068443367656,0.124928241634369,-0.014709629917144801,0.741231133174896
0.371290127195639,-0.0499081841468811,-0.00273453226089478,0.0802057425498958
0.371895820714718,0.0434975775718689,-0.239841465854645,-0.0371502144813542
0.372501514233798,0.057867694759368905,0.0355857802391052,-0.147321112918854
0.373107207752877,-0.0523032036781311,0.0427708388328552,0.0514655081748958
0.373712901271956,-0.021167949771881103,0.0715110732078552,0.118526055049896
0.374318594791036,-0.0642783013343811,0.0978562880516052,-0.140136054325104
0.374924288310115,-0.0259579888343811,-0.103325352573395,0.0586505667686458
0.375529981829194,0.24228419866561898,0.023610682582855202,-0.0754705269813542
0.376135675348274,-0.0523032036781311,0.0739060927391052,-0.142531073856354
0.376741368867353,-0.0666733208656311,-0.0961402939796448,-0.029965155887604202
0.377347062386432,-0.035538066959381095,-0.299716954135895,0.130501152706146
0.377952755905512,0.021942401790618897,0.179286952114105,-0.171271308231354
0.378558449424591,0.15366847600936898,0.150546717739105,-0.0323601754188542
0.379164142943671,-0.104993633365631,-0.06979507913589479,0.142476250362396
0.37976983646275,0.139298358821869,0.114621424770355,0.0586505667686458
0.380375529981829,-0.08343845758438109,-0.0434498642921448,0.408323418331146
0.380981223500909,-0.0690683403968811,-0.0171046494483948,0.0682306448936458
0.381586917019988,0.00038722600936889103,0.15773177633285498,-0.228751776981354
0.382192610539067,-0.124153789615631,0.107436366176605,-0.0275701363563542
0.382798304058147,0.0171523627281189,0.140966639614105,0.09457585973739581
0.383403997577226,-0.0139828911781311,0.0403758193016052,0.135291191768646
0.384009691096305,0.0866079291343689,0.0619309950828552,-0.0515203316688542
0.384615384615385,-0.00200779352188111,-0.0793751572608948,-0.104210761356354
0.385221078134464,-0.00919285211563111,-0.07219009866714479,0.0562555472373958
0.385826771653543,-0.0403281060218811,0.13857162008285498,-0.029965155887604202
0.386432465172623,-0.109783672428131,-0.0506349228858948,-0.0179900582313542
0.387038158691702,0.00517726507186889,-0.0578199814796448,0.211931816768646
0.387643852210781,0.199173847103119,0.0379807997703552,0.101760918331146
0.388249545729861,0.0123623236656189,0.191262049770355,-0.0826555855751042
0.38885523924894,-0.0546982232093811,0.0882762099266052,-0.0132000191688542
0.389460932768019,0.215938983821869,-0.0817701767921448,-0.116185859012604
0.390066626287099,0.122533222103119,0.20323714742660498,-0.341317694950104
0.390672319806178,0.0866079291343689,0.10025130758285501,0.274202324581146
0.391278013325257,0.055472675228118905,-0.06979507913589479,0.104155937862396
0.391883706844337,-0.138523906803131,0.114621424770355,0.0275153128623958
0.392489400363416,0.0722378119468689,-0.0793751572608948,0.463408867549896
0.393095093882495,0.14408839788436897,0.0643260146141052,0.190376640987396
0.393700787401575,0.0147573431968689,-0.031474766635894796,0.09457585973739581
0.394306480920654,0.0913979681968689,-0.12727554788589499,0.11373601598739601
0.394912174439733,0.00517726507186889,-0.0530299424171448,0.123316094112396
0.395517867958813,-0.0163779107093811,-0.124880528354645,-0.109000800418854
0.396123561477892,-0.0451181450843811,-0.0769801377296448,-0.120975898075104
0.396729254996972,-0.037933086490631096,-0.0290797471046448,-0.147321112918854
0.397334948516051,0.0818178900718689,-0.15122574319839502,0.118526055049896
0.39794064203513,0.0913979681968689,-0.033869786167144804,0.0514655081748958
0.39854633555421,0.0171523627281189,0.057140956020355196,-0.0275701363563542
0.399152029073289,-0.0930185357093811,0.0164256239891052,0.14008123083114601
0.399757722592368,-0.109783672428131,-0.182360997104645,-0.0203850777626042
0.400363416111448,0.050682636165618904,-0.0123146103858948,0.6310602347373959
0.400969109630527,-0.126548809146881,-0.108115391635895,0.348447930049896
0.401574803149606,0.0387075385093689,-0.110510411167145,-0.171271308231354
0.402180496668686,0.244679218196869,0.279877772426605,0.0227252737998958
0.402786190187765,-0.143313945865631,0.047560877895355194,-0.243121894168854
0.403391883706844,-0.107388652896881,-0.0578199814796448,0.130501152706146
0.403997577225924,0.117743183040619,-0.0434498642921448,0.135291191768646
0.404603270745003,-0.0139828911781311,0.0954612685203552,-0.039545234012604194
0.405208964264082,-0.24150974664688102,0.0116355849266052,0.00117009801864576
0.405814657783162,0.050682636165618904,-0.033869786167144804,-0.204801581668854
0.406420351302241,0.156063495540619,-0.0123146103858948,-0.132950995731354
0.40702604482132,-0.061883281803131095,0.121806483364105,-0.116185859012604
0.4076317383404,-0.037933086490631096,-0.105720372104645,0.00596013708114576
0.408237431859479,0.024337421321868898,-0.189546055698395,0.161636406612396
0.408843125378558,0.141693378353119,-0.06500504007339479,0.0107501761436458
0.409448818897638,-0.0163779107093811,-0.105720372104645,0.180796562862396
0.410054512416717,-0.0115878716468811,-0.249421543979645,-0.0587053902626042
0.410660205935796,-0.037933086490631096,-0.0602150010108948,0.09218084020614581
0.411265899454876,-0.018772930240631102,0.25592757711410496,0.216721855831146
0.411871592973955,0.0458925971031189,0.006845545864105219,0.0658356253623958
0.412477286493035,-0.07864841852188109,0.109831385707855,0.0778107230186458
0.413082980012114,-0.0403281060218811,-0.0626100205421448,-0.044335273075104195
0.413688673531193,-0.0307480278968811,0.0643260146141052,-0.109000800418854
0.414294367050273,-0.00200779352188111,0.0691160536766052,-0.300602362918854
0.414900060569352,-0.0451181450843811,0.0763011122703552,-0.046730292606354196
0.415505754088431,-0.037933086490631096,0.15294173727035498,-0.0730755074501042
0.416111447607511,0.0482876166343689,0.0882762099266052,-0.08744562463760419
0.41671714112659,-0.033143047428131095,0.234372401332855,0.135291191768646
0.417322834645669,0.009967304134368889,0.0331907607078552,0.219116875362396
0.417928528164749,0.0937929877281189,-0.06979507913589479,0.106550957393646
0.418534221683828,0.026732440853118898,0.023610682582855202,-0.0203850777626042
0.419139915202907,-0.107388652896881,0.0978562880516052,0.08739080114364581
0.419745608721987,0.15366847600936898,0.0691160536766052,0.14008123083114601
0.420351302241066,-0.0475131646156311,0.054745936489105196,0.0610455862998958
0.420956995760145,-0.0714633599281311,0.0643260146141052,0.0347003714561458
0.421562689279225,0.170433612728119,0.181681971645355,0.164031426143646
0.422168382798304,-0.061883281803131095,-0.115300450229645,0.08739080114364581
0.422774076317383,0.0746328314781189,-0.163200840854645,-0.00601496057510424
0.423379769836463,0.129718280696869,0.10025130758285501,0.00117009801864576
0.423985463355542,-0.021167949771881103,-0.0793751572608948,0.211931816768646
0.424591156874621,-0.124153789615631,-0.0961402939796448,0.26222722692489603
0.425196850393701,0.105768085384369,-0.00512955179214478,0.046675469112395805
0.42580254391278,-0.0930185357093811,0.0020555068016052196,0.0802057425498958
0.426408237431859,-0.061883281803131095,-0.0482399033546448,0.190376640987396
0.427013930950939,0.120138202571869,-0.07219009866714479,0.125711113643646
0.427619624470018,-0.116968731021881,-0.00991959085464478,-0.044335273075104195
0.428225317989098,0.0913979681968689,-0.0961402939796448,0.015540215206145801
0.428831011508177,-0.18642429742813102,0.00924056539535522,0.7077008597373959
0.429436705027256,-0.07864841852188109,-0.16559586038589502,0.0347003714561458
0.430042398546336,0.278209491634369,-0.0482399033546448,-0.353292792606354
0.430648092065415,0.00278224554061889,0.236767420864105,0.5544196097373959
0.431253785584494,-0.0139828911781311,-0.105720372104645,0.219116875362396
0.431859479103574,-0.0594882622718811,0.0595359755516052,-0.015595038700104199
0.432465172622653,-0.0523032036781311,0.140966639614105,-0.149716132450104
0.433070866141732,0.11295314397811901,-0.0290797471046448,-0.00361994104385424
0.433676559660812,0.0123623236656189,0.052350916957855195,0.0658356253623958
0.434282253179891,-0.00919285211563111,-0.175175938510895,0.0538605277061458
0.43488794669897,0.00517726507186889,-0.15601578226089502,0.039490410518645803
0.43549364021805,-0.08343845758438109,-0.10093033304214499,-0.243121894168854
0.436099333737129,0.100978046321869,-0.0817701767921448,-0.041940253543854195
0.436705027256208,0.0866079291343689,-0.15122574319839502,0.159241387081146
0.437310720775288,0.11055812444686901,-0.0602150010108948,0.350842949581146
0.437916414294367,-0.018772930240631102,-0.0985353135108948,0.288572441768646
0.438522107813446,-0.0451181450843811,-0.105720372104645,0.0706256644248958
0.439127801332526,-0.00440281305313111,0.047560877895355194,-0.0179900582313542
0.439733494851605,0.0913979681968689,-0.06740005960464479,-0.0587053902626042
0.440339188370684,0.19677882757186899,-0.036264805698394804,-0.130555976200104
0.440944881889764,-0.124153789615631,-0.115300450229645,-0.207196601200104
0.441550575408843,-0.0427231255531311,-0.0841651963233948,-0.0778655465126042
0.442156268927922,0.141693378353119,0.0786961318016052,-0.109000800418854
0.442761962447002,0.13211330022811898,-0.20152115335464502,0.0251202933311458
0.443367655966081,0.0698427924156189,-0.115300450229645,0.104155937862396
0.44397334948516,0.007572284603118889,0.112226405239105,-0.209591620731354
0.44457904300424,0.16324855413436898,-0.0985353135108948,-0.0754705269813542
0.445184736523319,-0.00919285211563111,0.054745936489105196,0.0251202933311458
0.445790430042399,-0.0523032036781311,-0.00512955179214478,-0.202406562137604
0.446396123561478,0.021942401790618897,-0.14643570413589502,0.041885430049895804
0.447001817080557,-0.128943828678131,-0.0506349228858948,0.171216484737396
0.447607510599637,-0.0259579888343811,0.00924056539535522,0.0179352347373958
0.448213204118716,-0.14091892633438102,-0.0075245713233947804,-0.104210761356354
0.448818897637795,0.117743183040619,-0.0434498642921448,-0.147321112918854
0.449424591156875,0.100978046321869,-0.0075245713233947804,0.0514655081748958
0.450030284675954,-0.21516453180313103,-0.07458511819839479,0.164031426143646
0.450635978195033,0.0339174994468689,-0.038659825229644805,0.221511894893646
0.451241671714113,-0.0451181450843811,0.047560877895355194,-0.0203850777626042
0.451847365233192,0.156063495540619,0.023610682582855202,0.0993658987998958
0.452453058752271,0.09858302679061891,0.176891932582855,0.176006523799896
0.453058752271351,-0.07864841852188109,-0.0554249619483948,-0.08984064416885419
0.45366444579043,0.0195473822593689,-0.124880528354645,0.0682306448936458
0.454270139309509,-0.00200779352188111,0.049955897426605195,0.132896172237396
0.454875832828589,0.021942401790618897,-0.251816563510895,0.0562555472373958
0.455481526347668,-0.0283530083656311,-0.024289708042144798,0.0179352347373958
0.456087219866747,0.13211330022811898,0.299037928676605,0.11134099645614601
0.456692913385827,0.057867694759368905,0.0116355849266052,-0.223961737918854
0.457298606904906,0.0746328314781189,-0.0554249619483948,-0.0994207222938542
0.457904300423985,0.0291274603843689,0.057140956020355196,0.041885430049895804
0.458509993943065,-0.0666733208656311,0.0619309950828552,-0.041940253543854195
0.459115687462144,-0.00200779352188111,-0.031474766635894796,-0.0754705269813542
0.459721380981224,0.0363125189781189,-0.00273453226089478,-0.245516913700104
0.460327074500303,-0.035538066959381095,-0.0554249619483948,-0.197616523075104
0.460932768019382,0.0482876166343689,-0.0194996689796448,-0.149716132450104
0.461538461538462,-0.121758770084381,-0.00033951272964478403,-0.0251751168251042
0.462144155057541,-0.0307480278968811,0.0427708388328552,0.104155937862396
0.46274984857662,0.009967304134368889,-0.0889552353858948,0.152056328487396
0.4633555420957,0.18719874944686898,-0.0458448838233948,0.197561699581146
0.463961235614779,0.11055812444686901,0.0284007216453552,0.0203302542686458
0.464566929133858,-0.00919285211563111,-0.0554249619483948,0.0179352347373958
0.465172622652938,0.00278224554061889,0.0020555068016052196,0.278992363643646
0.465778316172017,-0.0139828911781311,-0.139250645542145,-0.044335273075104195
0.466384009691096,0.259049335384369,-0.0194996689796448,-0.039545234012604194
0.466989703210176,-0.0163779107093811,0.21760726461410498,0.0347003714561458
0.467595396729255,0.0913979681968689,0.054745936489105196,0.108945976924896
0.468201090248334,0.050682636165618904,-0.163200840854645,0.250252129268646
0.468806783767414,-0.0115878716468811,-0.19673111429214502,0.08499578161239581
0.469412477286493,0.14408839788436897,-0.105720372104645,0.08499578161239581
0.470018170805572,-0.0067978325843811105,0.140966639614105,0.255042168331146
0.470623864324652,0.0482876166343689,0.0403758193016052,0.353237969112396
0.471229557843731,0.0339174994468689,-0.117695469760895,0.104155937862396
0.47183525136281,-0.17205418024063102,0.12659652242660502,0.0706256644248958
0.47244094488189,0.13690333929061899,0.0379807997703552,0.0610455862998958
0.473046638400969,-0.00440281305313111,-0.120090489292145,-0.247911933231354
0.473652331920048,0.0818178900718689,-0.13685562601089502,-0.0275701363563542
0.474258025439128,0.024337421321868898,-0.00033951272964478403,0.09218084020614581
0.474863718958207,-0.152894023990631,-0.139250645542145,0.046675469112395805
0.475469412477286,-0.033143047428131095,-0.270976719760895,0.0562555472373958
0.476075105996366,-0.035538066959381095,-0.124880528354645,-0.0970257027626042
0.476680799515445,0.0123623236656189,-0.15601578226089502,-0.0275701363563542
0.477286493034525,-0.0642783013343811,0.196052088832855,-0.0539153512001042
0.477892186553604,0.021942401790618897,-0.06500504007339479,-0.0802605660438542
0.478497880072683,0.0315224799156189,0.0786961318016052,0.0275153128623958
0.479103573591763,0.057867694759368905,0.117016444301605,0.214326836299896
0.479709267110842,0.09618800725936891,-0.170385899448395,0.0538605277061458
0.480314960629921,-0.133733867740631,-0.06740005960464479,-0.140136054325104
0.480920654149001,-0.0570932427406311,-0.16080582132339502,-0.0539153512001042
0.48152634766808,0.139298358821869,0.188867030239105,0.11134099645614601
0.482132041187159,0.0171523627281189,-0.19673111429214502,0.147266289424896
0.482737734706239,0.0315224799156189,-0.22068130960464502,-0.0132000191688542
0.483343428225318,-0.102598613834381,0.0116355849266052,0.14008123083114601
0.483949121744397,-0.0882284966468811,-0.06500504007339479,0.149661308956146
0.484554815263477,0.00517726507186889,-0.00273453226089478,0.190376640987396
0.485160508782556,-0.14091892633438102,-0.0578199814796448,0.015540215206145801
0.485766202301635,0.00278224554061889,-0.15601578226089502,-0.204801581668854
0.486371895820715,0.11055812444686901,-0.0554249619483948,-0.0778655465126042
0.486977589339794,0.0937929877281189,0.0260057021141052,0.173611504268646
0.487583282858873,0.0698427924156189,-0.038659825229644805,0.14008123083114601
0.488188976377953,-0.0259579888343811,0.128991541957855,-0.039545234012604194
0.488794669897032,-0.08343845758438109,-0.00991959085464478,-0.0658904488563542
0.489400363416111,-0.212769512271881,0.049955897426605195,-0.0371502144813542
0.490006056935191,-0.0570932427406311,-0.00033951272964478403,-0.0132000191688542
0.49061175045427,-0.107388652896881,0.0691160536766052,0.410718437862396
0.491217443973349,-0.0858334771156311,0.00924056539535522,0.305337578487396
0.491823137492429,0.27102443304061896,-0.0194996689796448,-0.176061347293854
0.492428831011508,0.0842129096031189,-0.021894688510894798,-0.166481269168854
0.493034524530587,-0.00200779352188111,-0.10093033304214499,-0.049125312137604196
0.493640218049667,0.024337421321868898,0.112226405239105,0.0275153128623958
0.494245911568746,0.129718280696869,0.105041346645355,-0.09223566370010419
0.494851605087826,-0.0546982232093811,-0.038659825229644805,-0.166481269168854
0.495457298606905,-0.224744609928131,0.0834861708641052,-0.09223566370010419
0.496062992125984,0.0722378119468689,0.023610682582855202,0.0706256644248958
0.496668685645064,0.165643573665619,-0.0506349228858948,-0.00840998010635424
0.497274379164143,-0.07864841852188109,-0.024289708042144798,-0.044335273075104195
0.497880072683222,-0.0714633599281311,-0.0889552353858948,0.0610455862998958
0.498485766202302,0.0123623236656189,-0.0458448838233948,0.293362480831146
0.499091459721381,-0.033143047428131095,-0.07458511819839479,0.08978582067489581
0.49969715324046,0.0890029486656189,0.047560877895355194,-0.08744562463760419
0.50030284675954,0.09618800725936891,0.0451658583641052,-0.0563103707313542
0.500908540278619,-0.0666733208656311,-0.0889552353858948,-0.202406562137604
0.501514233797698,-0.0115878716468811,0.047560877895355194,0.11134099645614601
0.502119927316778,-0.0163779107093811,0.160126795864105,-0.101815741825104
0.502725620835857,-0.114573711490631,-0.0434498642921448,-0.0587053902626042
0.503331314354936,0.055472675228118905,-0.110510411167145,0.0706256644248958
0.503937007874016,-0.0283530083656311,-0.177570958042145,-0.0730755074501042
0.504542701393095,0.0387075385093689,0.14336165914535498,0.046675469112395805
0.505148394912174,0.165643573665619,0.220002284145355,0.0323053519248958
0.505754088431254,0.0913979681968689,-0.117695469760895,0.029910332393645798
0.506359781950333,-0.17684421930313102,0.27269271383285504,-0.149716132450104
0.506965475469413,-0.107388652896881,0.188867030239105,-0.149716132450104
0.507571168988492,-0.00919285211563111,-0.038659825229644805,-0.09223566370010419
0.508176862507571,-0.0642783013343811,-0.0985353135108948,0.0251202933311458
0.50878255602665,-0.148103984928131,0.169706873989105,0.046675469112395805
0.50938824954573,-0.0570932427406311,0.0643260146141052,0.156846367549896
0.509993943064809,-0.0403281060218811,-0.0578199814796448,0.116131035518646
0.510599636583889,0.0937929877281189,0.0834861708641052,-0.0706804879188542
0.511205330102968,0.14887843694686897,-0.21589127054214502,0.202351738643646
0.511811023622047,-0.0235629693031311,-0.0123146103858948,0.187981621456146
0.512416717141127,0.151273456478119,0.052350916957855195,-0.00361994104385424
0.513022410660206,0.055472675228118905,0.0427708388328552,0.11373601598739601
0.513628104179285,0.141693378353119,0.20802718648910498,0.00835515661239576
0.514233797698365,0.0387075385093689,0.0715110732078552,-0.0227800972938542
0.514839491217444,0.0291274603843689,0.0403758193016052,0.135291191768646
0.515445184736523,-0.124153789615631,0.0284007216453552,0.00596013708114576
0.516050878255603,-0.109783672428131,0.047560877895355194,-0.08744562463760419
0.516656571774682,0.0842129096031189,-0.00991959085464478,-0.0108049996376042
0.517262265293761,-0.0594882622718811,-0.0841651963233948,-0.00601496057510424
0.517867958812841,0.00517726507186889,-0.12727554788589499,0.0562555472373958
0.51847365233192,-0.037933086490631096,-0.041054844760894806,-0.202406562137604
0.519079345850999,-0.0307480278968811,0.0834861708641052,0.257437187862396
0.519685039370079,0.100978046321869,0.021215663051605202,0.7699713675498959
0.520290732889158,-0.0115878716468811,-0.0841651963233948,0.240672051143646
0.520896426408237,0.0291274603843689,0.0116355849266052,-0.132950995731354
0.521502119927317,0.00038722600936889103,0.0379807997703552,0.166426445674896
0.522107813446396,-0.00200779352188111,-0.163200840854645,0.142476250362396
0.522713506965475,0.18240871038436898,0.0307957411766052,0.0802057425498958
0.523319200484555,0.024337421321868898,-0.124880528354645,-0.0227800972938542
0.523924894003634,0.10816310491561901,-0.0530299424171448,0.046675469112395805
0.524530587522714,0.0291274603843689,-0.033869786167144804,0.0538605277061458
0.525136281041793,0.115348163509369,-0.103325352573395,-0.176061347293854
0.525741974560872,0.0434975775718689,-0.29492691507339497,0.09218084020614581
0.526347668079951,-0.22234959039688101,-0.244631504917145,-0.044335273075104195
0.526953361599031,0.00517726507186889,0.0379807997703552,-0.106605780887604
0.52755905511811,0.009967304134368889,-0.07219009866714479,0.015540215206145801
0.52816474863719,-0.322940410709381,-0.177570958042145,-0.15929621057510399
0.528770442156269,0.0482876166343689,0.052350916957855195,-0.08744562463760419
0.529376135675348,0.0913979681968689,0.0427708388328552,-0.113790839481354
0.529981829194428,-0.18642429742813102,-0.10093033304214499,0.00596013708114576
0.530587522713507,0.17282863225936898,-0.0937452744483948,0.128106133174896
0.531193216232586,0.00517726507186889,-0.06500504007339479,-0.0108049996376042
0.531798909751666,0.0746328314781189,0.052350916957855195,0.0706256644248958
0.532404603270745,0.026732440853118898,-0.0602150010108948,0.128106133174896
0.533010296789824,-0.00919285211563111,-0.0290797471046448,0.123316094112396
0.533615990308904,0.0171523627281189,0.0284007216453552,-0.0539153512001042
0.534221683827983,-0.263064922428131,-0.112905430698395,0.180796562862396
0.534827377347062,0.120138202571869,-0.0290797471046448,0.132896172237396
0.535433070866142,0.009967304134368889,0.0954612685203552,-0.049125312137604196
0.536038764385221,0.0411025580406189,0.057140956020355196,0.130501152706146
0.5366444579043,-0.0163779107093811,0.0284007216453552,0.08739080114364581
0.53725015142338,-0.08104343805313109,0.0595359755516052,0.173611504268646
0.537855844942459,-0.0475131646156311,0.184076991176605,0.240672051143646
0.538461538461538,-0.148103984928131,0.13378158102035498,-0.029965155887604202
0.539067231980618,0.19198878850936898,0.0331907607078552,0.00596013708114576
0.539672925499697,0.026732440853118898,-0.103325352573395,0.0251202933311458
0.540278619018776,-0.16726414117813102,0.13857162008285498,-0.0994207222938542
0.540884312537856,-0.160079082584381,-0.0171046494483948,0.166426445674896
0.541490006056935,0.0626577338218689,-0.0937452744483948,0.0754157034873958
0.542095699576015,-0.0307480278968811,-0.0961402939796448,-0.00840998010635424
0.542701393095094,-0.0690683403968811,0.0882762099266052,0.0370953909873958
0.543307086614173,0.0363125189781189,0.0307957411766052,0.08499578161239581
0.543912780133253,0.009967304134368889,-0.033869786167144804,0.0634406058311458
0.544518473652332,0.050682636165618904,0.0786961318016052,0.0658356253623958
0.545124167171411,-0.0570932427406311,-0.134460606479645,-0.0587053902626042
0.545729860690491,-0.188819316959381,0.124201502895355,-0.142531073856354
0.54633555420957,-0.0882284966468811,0.0739060927391052,-0.209591620731354
0.546941247728649,0.0698427924156189,-0.00512955179214478,-0.029965155887604202
0.547546941247729,0.11055812444686901,0.0379807997703552,0.00596013708114576
0.548152634766808,-0.13133884820938102,0.054745936489105196,0.08499578161239581
0.548758328285887,-0.0690683403968811,0.0188206435203552,0.0754157034873958
0.549364021804967,-0.033143047428131095,0.0307957411766052,-0.245516913700104
0.549969715324046,-0.124153789615631,-0.021894688510894798,0.166426445674896
0.550575408843125,-0.0283530083656311,-0.0554249619483948,0.403533379268646
0.551181102362205,-0.116968731021881,0.114621424770355,0.0275153128623958
0.551786795881284,-0.112178691959381,0.0810911513328552,-0.156901191043854
0.552392489400363,-0.0139828911781311,0.0930662489891052,0.101760918331146
0.552998182919443,0.0315224799156189,0.0164256239891052,-0.039545234012604194
0.553603876438522,-0.0115878716468811,-0.0458448838233948,0.09218084020614581
0.554209569957601,-0.0163779107093811,0.0403758193016052,0.104155937862396
0.554815263476681,0.0890029486656189,-0.0530299424171448,0.106550957393646
0.55542095699576,0.120138202571869,-0.249421543979645,0.0251202933311458
0.556026650514839,0.0315224799156189,-0.0482399033546448,-0.0323601754188542
0.556632344033919,-0.157684063053131,0.20323714742660498,-0.116185859012604
0.557238037552998,-0.0523032036781311,0.181681971645355,-0.0826555855751042
0.557843731072078,0.11295314397811901,0.047560877895355194,0.0730206839561458
0.558449424591157,-0.0451181450843811,-0.021894688510894798,-0.0658904488563542
0.559055118110236,0.165643573665619,0.0116355849266052,-0.0706804879188542
0.559660811629316,-0.0906235161781311,0.241557459926605,0.137686211299896
0.560266505148395,0.0602627142906189,0.0284007216453552,0.233486992549896
0.560872198667474,0.0818178900718689,-0.170385899448395,0.0203302542686458
0.561477892186554,-0.31815037164688104,-0.0458448838233948,0.0634406058311458
0.562083585705633,-0.0570932427406311,-0.199126133823395,0.044280449581145805
0.562689279224712,0.230309101009369,0.0882762099266052,0.0131451956748958
0.563294972743792,0.103373065853119,-0.0506349228858948,-0.0778655465126042
0.563900666262871,-0.0714633599281311,-0.0937452744483948,-0.0515203316688542
0.56450635978195,-0.0307480278968811,0.0379807997703552,0.14487126989364602
0.56511205330103,-0.035538066959381095,-0.0961402939796448,-0.156901191043854
0.565717746820109,0.0363125189781189,0.109831385707855,-0.0203850777626042
0.566323440339188,0.0434975775718689,-0.110510411167145,0.156846367549896
0.566929133858268,0.0818178900718689,-0.21110123147964502,-0.109000800418854
0.567534827377347,-0.160079082584381,0.049955897426605195,-0.029965155887604202
0.568140520896426,-0.037933086490631096,-0.172780918979645,0.0179352347373958
0.568746214415506,0.17282863225936898,-0.0530299424171448,-0.0371502144813542
0.569351907934585,0.175223651790619,0.105041346645355,0.09218084020614581
0.569957601453664,0.0722378119468689,-0.105720372104645,0.125711113643646
0.570563294972744,0.18719874944686898,0.0020555068016052196,0.08978582067489581
0.571168988491823,0.0650527533531189,0.0786961318016052,-0.0539153512001042
0.571774682010902,-0.0115878716468811,-0.0194996689796448,-0.00122492151260424
0.572380375529982,0.0626577338218689,-0.0793751572608948,0.108945976924896
0.572986069049061,-0.07864841852188109,-0.00512955179214478,-0.0323601754188542
0.57359176256814,0.0866079291343689,-0.0889552353858948,0.0634406058311458
0.57419745608722,-0.00200779352188111,-0.182360997104645,0.178401543331146
0.574803149606299,0.0458925971031189,-0.07219009866714479,0.180796562862396
0.575408843125379,-0.224744609928131,-0.0769801377296448,-0.0706804879188542
0.576014536644458,-0.0978085747718811,-0.00512955179214478,-0.0802605660438542
0.576620230163537,0.120138202571869,0.0260057021141052,0.0730206839561458
0.577225923682617,-0.119363750553131,-0.144040684604645,-0.00840998010635424
0.577831617201696,-0.0690683403968811,0.0858811903953552,0.149661308956146
0.578437310720775,-0.157684063053131,0.191262049770355,-0.0706804879188542
0.579043004239855,-0.0523032036781311,-0.0171046494483948,-0.429933417606354
0.579648697758934,-0.07864841852188109,0.023610682582855202,-0.21917169885635399
0.580254391278013,-0.0259579888343811,0.155336756801605,0.338867851924896
0.580860084797093,-0.15049900445938103,0.188867030239105,0.0370953909873958
0.581465778316172,0.024337421321868898,-0.00512955179214478,-0.142531073856354
0.582071471835251,0.175223651790619,-0.21589127054214502,0.0826007620811458
0.582677165354331,-0.0978085747718811,-0.163200840854645,-0.0587053902626042
0.58328285887341,0.21354396429061898,0.006845545864105219,0.128106133174896
0.583888552392489,0.251864276790619,0.0164256239891052,-0.166481269168854
0.584494245911569,0.14408839788436897,-0.024289708042144798,-0.195221503543854
0.585099939430648,0.0818178900718689,0.0930662489891052,0.0586505667686458
0.585705632949727,0.0458925971031189,-0.06740005960464479,0.0682306448936458
0.586311326468807,0.00278224554061889,0.0763011122703552,-0.09463068323135419
0.586917019987886,0.0770278510093689,0.0810911513328552,0.015540215206145801
0.587522713506965,0.0818178900718689,-0.0817701767921448,0.029910332393645798
0.588128407026045,0.0339174994468689,0.054745936489105196,-0.135346015262604
0.588734100545124,-0.114573711490631,-0.0602150010108948,-0.0682854683876042
0.589339794064203,-0.275040020084381,-0.0171046494483948,0.041885430049895804
0.589945487583283,-0.0858334771156311,-0.124880528354645,-0.0778655465126042
0.590551181102362,-0.07625339899063109,-0.0841651963233948,-0.0730755074501042
0.591156874621442,-0.104993633365631,-0.124880528354645,0.049070488643645806
0.591762568140521,0.00517726507186889,-0.19194107522964501,0.0323053519248958
0.5923682616596,-0.126548809146881,0.023610682582855202,0.08739080114364581
0.59297395517868,-0.00440281305313111,0.049955897426605195,0.197561699581146
0.593579648697759,0.0458925971031189,-0.0913502549171448,0.190376640987396
0.594185342216838,0.0818178900718689,-0.0530299424171448,-0.0754705269813542
0.594791035735918,-0.00919285211563111,-0.10093033304214499,0.149661308956146
0.595396729254997,-0.119363750553131,-0.0123146103858948,0.0969708792686458
0.596002422774076,-0.0427231255531311,-0.00512955179214478,0.041885430049895804
0.596608116293156,-0.0594882622718811,-0.14643570413589502,-0.0778655465126042
0.597213809812235,-0.0283530083656311,-0.14164566507339502,0.185586601924896
0.597819503331314,-0.119363750553131,-0.031474766635894796,0.164031426143646
0.598425196850394,-0.033143047428131095,-0.038659825229644805,-0.0587053902626042
0.599030890369473,0.009967304134368889,-0.10093033304214499,0.0251202933311458
0.599636583888552,-0.0067978325843811105,0.0691160536766052,-0.144926093387604
0.600242277407632,0.117743183040619,0.0331907607078552,0.0370953909873958
0.600847970926711,0.0315224799156189,0.14815169820785498,0.0275153128623958
0.60145366444579,-0.0570932427406311,0.0451658583641052,-0.0227800972938542
0.60205935796487,0.0698427924156189,0.12659652242660502,-0.0323601754188542
0.602665051483949,0.0171523627281189,-0.07458511819839479,0.08739080114364581
0.603270745003028,0.0770278510093689,-0.13206558694839501,0.0610455862998958
0.603876438522108,0.17282863225936898,0.00924056539535522,-0.0347551949501042
0.604482132041187,-0.18642429742813102,-0.0985353135108948,0.0754157034873958
0.605087825560267,0.0339174994468689,0.0188206435203552,0.0802057425498958
0.605693519079346,0.122533222103119,0.0643260146141052,-0.0132000191688542
0.606299212598425,-0.107388652896881,-0.158410801792145,0.130501152706146
0.606904906117504,0.0602627142906189,0.00445052633285522,0.0778107230186458
0.607510599636584,-0.0858334771156311,0.109831385707855,-0.123370917606354
0.608116293155663,0.103373065853119,0.140966639614105,0.09218084020614581
0.608721986674743,0.14408839788436897,-0.0506349228858948,0.183191582393646
0.609327680193822,-0.0427231255531311,-0.124880528354645,-0.09223566370010419
0.609933373712901,0.09618800725936891,0.0619309950828552,-0.15450617151260398
0.610539067231981,0.103373065853119,-0.110510411167145,0.226301933956146
0.61114476075106,-0.061883281803131095,0.0284007216453552,0.20474675817489602
0.611750454270139,0.0171523627281189,-0.112905430698395,0.0370953909873958
0.612356147789219,-0.0570932427406311,-0.105720372104645,0.152056328487396
0.612961841308298,-0.0163779107093811,-0.0434498642921448,0.039490410518645803
0.613567534827377,0.15845851507186898,-0.247026524448395,0.09218084020614581
0.614173228346457,0.0147573431968689,-0.014709629917144801,-0.00840998010635424
0.614778921865536,0.0339174994468689,0.021215663051605202,-0.0515203316688542
0.615384615384615,0.100978046321869,-0.00273453226089478,0.245462090206146
0.615990308903695,-0.0235629693031311,-0.033869786167144804,-0.0347551949501042
0.616596002422774,-0.0642783013343811,-0.115300450229645,0.0658356253623958
0.617201695941853,-0.00200779352188111,-0.148830723667145,0.132896172237396
0.617807389460933,0.055472675228118905,-0.0817701767921448,-0.0251751168251042
0.618413082980012,0.050682636165618904,0.0643260146141052,0.159241387081146
0.619018776499091,0.021942401790618897,-0.309297032260895,0.0562555472373958
0.619624470018171,-0.0714633599281311,-0.06740005960464479,-0.0754705269813542
0.62023016353725,0.0937929877281189,0.0763011122703552,-0.0634954293251042
0.620835857056329,0.184803729915619,-0.14643570413589502,0.08499578161239581
0.621441550575409,-0.126548809146881,-0.208706211948395,-0.0611004097938542
0.622047244094488,0.050682636165618904,-0.0290797471046448,-0.0970257027626042
0.622652937613568,0.100978046321869,0.0284007216453552,-0.0611004097938542
0.623258631132647,-0.13612888727188102,-0.10093033304214499,-0.039545234012604194
0.623864324651726,0.194383808040619,-0.0554249619483948,0.147266289424896
0.624470018170806,0.17282863225936898,-0.110510411167145,-0.113790839481354
0.625075711689885,0.0387075385093689,-0.07458511819839479,0.120921074581146
0.625681405208964,-0.00440281305313111,-0.0530299424171448,0.152056328487396
0.626287098728044,0.0937929877281189,0.023610682582855202,-0.128160956668854
0.626892792247123,-0.15528904352188103,0.14336165914535498,0.161636406612396
0.627498485766202,0.00278224554061889,-0.041054844760894806,0.156846367549896
0.628104179285282,0.244679218196869,-0.0075245713233947804,0.0251202933311458
0.628709872804361,-0.14570896539688102,0.119411463832855,-0.200011542606354
0.62931556632344,-0.0259579888343811,-0.0458448838233948,-0.0251751168251042
0.62992125984252,0.141693378353119,0.0882762099266052,0.341262871456146
0.630526953361599,0.0482876166343689,0.0427708388328552,0.09218084020614581
0.631132646880678,0.0674477728843689,-0.07458511819839479,-0.123370917606354
0.631738340399758,0.170433612728119,0.0379807997703552,0.00117009801864576
0.632344033918837,0.100978046321869,-0.26618668069839496,0.0754157034873958
0.632949727437916,-0.00200779352188111,0.00924056539535522,-0.041940253543854195
0.633555420956996,-0.0451181450843811,0.186472010707855,-0.0179900582313542
0.634161114476075,-0.00200779352188111,-0.06979507913589479,0.0778107230186458
0.634766807995154,0.0123623236656189,0.0260057021141052,0.223906914424896
0.635372501514234,0.127323261165619,-0.20152115335464502,-0.101815741825104
0.635978195033313,0.0147573431968689,-0.0123146103858948,-0.137741034793854
0.636583888552392,0.00038722600936889103,-0.00512955179214478,0.159241387081146
0.637189582071472,-0.0570932427406311,-0.124880528354645,-0.144926093387604
0.637795275590551,0.0602627142906189,-0.06500504007339479,0.00596013708114576
0.638400969109631,0.0602627142906189,-0.0841651963233948,0.0514655081748958
0.63900666262871,-0.018772930240631102,-0.0482399033546448,-0.252701972293854
0.639612356147789,0.0458925971031189,0.124201502895355,-0.329342597293854
0.640218049666869,-0.018772930240631102,0.109831385707855,0.197561699581146
0.640823743185948,0.22791408147811898,0.140966639614105,0.743626152706146
0.641429436705027,0.0602627142906189,0.19844710836410498,0.202351738643646
0.642035130224107,-0.0067978325843811105,-0.0123146103858948,-0.106605780887604
0.642640823743186,0.105768085384369,0.337358241176605,0.09218084020614581
0.643246517262265,-0.0163779107093811,-0.024289708042144798,-0.111395819950104
0.643852210781345,-0.114573711490631,-0.14164566507339502,0.152056328487396
0.644457904300424,0.0315224799156189,0.0164256239891052,0.211931816768646
0.645063597819503,0.0123623236656189,-0.184756016635895,-0.0323601754188542
0.645669291338583,-0.133733867740631,-0.15122574319839502,-0.104210761356354
0.646274984857662,0.0434975775718689,0.0906712294578552,0.00117009801864576
0.646880678376741,-0.07625339899063109,-0.07458511819839479,0.14487126989364602
0.647486371895821,0.0171523627281189,-0.0554249619483948,-0.044335273075104195
0.6480920654149,0.11295314397811901,0.0930662489891052,-0.209591620731354
0.648697758933979,0.14887843694686897,0.049955897426605195,-0.109000800418854
0.649303452453059,0.0434975775718689,0.284667811489105,0.125711113643646
0.649909145972138,-0.0307480278968811,0.0116355849266052,-0.0563103707313542
0.650514839491217,0.21354396429061898,-0.0075245713233947804,-0.168876288700104
0.651120533010297,-0.109783672428131,0.0164256239891052,-0.295812323856354
0.651726226529376,-0.0594882622718811,0.021215663051605202,0.118526055049896
0.652331920048455,-0.0714633599281311,0.0619309950828552,0.0730206839561458
0.652937613567535,-0.0067978325843811105,-0.0458448838233948,-0.029965155887604202
0.653543307086614,-0.0283530083656311,0.14336165914535498,0.209536797237396
0.654149000605693,-0.17205418024063102,0.0834861708641052,-0.0778655465126042
0.654754694124773,0.117743183040619,-0.13685562601089502,0.14008123083114601
0.655360387643852,-0.00200779352188111,0.023610682582855202,0.183191582393646
0.655966081162932,-0.102598613834381,0.0260057021141052,0.255042168331146
0.656571774682011,-0.124153789615631,-0.112905430698395,0.0370953909873958
0.65717746820109,-0.0642783013343811,-0.0961402939796448,-0.164086249637604
0.65778316172017,0.0650527533531189,-0.208706211948395,0.209536797237396
0.658388855239249,0.124928241634369,-0.041054844760894806,0.147266289424896
0.658994548758328,-0.018772930240631102,0.0164256239891052,0.041885430049895804
0.659600242277408,0.0913979681968689,-0.0123146103858948,0.11373601598739601
0.660205935796487,0.117743183040619,-0.0266847275733948,0.08739080114364581
0.660811629315566,0.009967304134368889,0.0403758193016052,-0.0179900582313542
0.661417322834646,0.00278224554061889,0.0954612685203552,0.0778107230186458
0.662023016353725,0.0291274603843689,-0.0913502549171448,0.135291191768646
0.662628709872804,0.115348163509369,-0.122485508823395,-0.140136054325104
0.663234403391884,0.13690333929061899,-0.0075245713233947804,-0.245516913700104
0.663840096910963,-0.0930185357093811,0.0739060927391052,0.0634406058311458
0.664445790430042,0.0746328314781189,-0.07458511819839479,0.147266289424896
0.665051483949122,0.141693378353119,-0.06500504007339479,-0.0563103707313542
0.665657177468201,-0.0163779107093811,0.0427708388328552,0.116131035518646
0.66626287098728,0.021942401790618897,-0.0769801377296448,-0.0251751168251042
0.66686856450636,-0.0738583794593811,0.128991541957855,0.0370953909873958
0.667474258025439,-0.0307480278968811,0.0691160536766052,0.039490410518645803
0.668079951544518,-0.00200779352188111,0.0188206435203552,-0.166481269168854
0.668685645063598,-0.0666733208656311,0.054745936489105196,-0.104210761356354
0.669291338582677,0.0339174994468689,-0.139250645542145,-0.0563103707313542
0.669897032101756,0.0770278510093689,-0.0194996689796448,-0.144926093387604
0.670502725620836,-0.121758770084381,-0.261396641635895,0.312522637081146
0.671108419139915,-0.15528904352188103,-0.232656407260895,0.180796562862396
0.671714112658994,-0.07625339899063109,-0.0817701767921448,0.123316094112396
0.672319806178074,0.0171523627281189,0.0763011122703552,0.118526055049896
0.672925499697153,-0.035538066959381095,-0.0985353135108948,-0.0251751168251042
0.673531193216233,-0.0882284966468811,-0.024289708042144798,0.0586505667686458
0.674136886735312,0.0387075385093689,0.15294173727035498,-0.044335273075104195
0.674742580254391,-0.0714633599281311,0.0667210341453552,0.0610455862998958
0.675348273773471,-0.0307480278968811,-0.06740005960464479,-0.168876288700104
0.67595396729255,-0.0690683403968811,-0.227866368198395,0.0778107230186458
0.676559660811629,0.103373065853119,0.0284007216453552,0.00117009801864576
0.677165354330709,0.007572284603118889,-0.06500504007339479,-0.161691230106354
0.677771047849788,-0.0738583794593811,-0.036264805698394804,0.128106133174896
0.678376741368867,0.24228419866561898,0.10264632711410501,0.147266289424896
0.678982434887947,0.050682636165618904,0.10025130758285501,-0.0132000191688542
0.679588128407026,0.0794228705406189,-0.0913502549171448,-0.0179900582313542
0.680193821926105,0.0698427924156189,-0.0985353135108948,-0.149716132450104
0.680799515445185,0.053077655696868904,-0.036264805698394804,0.041885430049895804
0.681405208964264,-0.0259579888343811,-0.0913502549171448,0.183191582393646
0.682010902483343,-0.0642783013343811,0.047560877895355194,0.08739080114364581
0.682616596002423,-0.0283530083656311,0.0691160536766052,0.0275153128623958
0.683222289521502,0.007572284603118889,-0.00033951272964478403,0.147266289424896
0.683827983040581,-0.0259579888343811,-0.28534683694839497,0.14487126989364602
0.684433676559661,-0.00440281305313111,-0.06979507913589479,-0.137741034793854
0.68503937007874,0.105768085384369,0.12659652242660502,0.360423027706146
0.68564506359782,0.15366847600936898,-0.0889552353858948,0.046675469112395805
0.686250757116899,-0.15049900445938103,0.0906712294578552,-0.0108049996376042
0.686856450635978,-0.0570932427406311,0.0379807997703552,0.298152519893646
0.687462144155058,0.117743183040619,-0.0626100205421448,-0.0371502144813542
0.688067837674137,0.0458925971031189,0.0307957411766052,0.00835515661239576
0.688673531193216,0.103373065853119,0.10264632711410501,-0.178456366825104
0.689279224712296,-0.0163779107093811,0.267902674770355,-0.195221503543854
0.689884918231375,0.09858302679061891,0.00924056539535522,-0.0611004097938542
0.690490611750454,0.0315224799156189,-0.0865602158546448,-0.08505060510635419
0.691096305269534,0.0770278510093689,0.014030604457855199,0.0323053519248958
0.691701998788613,0.0482876166343689,0.0379807997703552,0.166426445674896
0.692307692307692,0.0818178900718689,-0.07219009866714479,-0.0706804879188542
0.692913385826772,0.0698427924156189,-0.0913502549171448,0.0107501761436458
0.693519079345851,-0.17205418024063102,-0.0434498642921448,0.08978582067489581
0.69412477286493,-0.0307480278968811,0.00445052633285522,0.137686211299896
0.69473046638401,-0.0714633599281311,-0.187151036167145,0.015540215206145801
0.695336159903089,0.0794228705406189,-0.342827305698395,-0.00361994104385424
0.695941853422168,0.170433612728119,-0.06500504007339479,-0.192826484012604
0.696547546941248,-0.0499081841468811,0.054745936489105196,-0.130555976200104
0.697153240460327,0.053077655696868904,0.121806483364105,0.0514655081748958
0.697758933979406,-0.116968731021881,0.006845545864105219,-0.106605780887604
0.698364627498486,-0.112178691959381,0.00445052633285522,-0.0539153512001042
0.698970321017565,0.0866079291343689,0.0739060927391052,0.619085137081146
0.699576014536644,0.0866079291343689,-0.0530299424171448,0.00356511754989576
0.700181708055724,0.0866079291343689,0.023610682582855202,0.243067070674896
0.700787401574803,0.14408839788436897,0.234372401332855,0.7340460745811459
0.701393095093882,0.00278224554061889,0.160126795864105,0.0514655081748958
0.701998788612962,-0.0954135552406311,-0.144040684604645,0.233486992549896
0.702604482132041,0.053077655696868904,-0.0506349228858948,0.0754157034873958
0.703210175651121,-0.08104343805313109,0.0691160536766052,-0.00840998010635424
0.7038158691702,-0.284620098209381,0.00924056539535522,0.252647148799896
0.704421562689279,-0.021167949771881103,0.0164256239891052,0.19995671911239601
0.705027256208359,-0.15528904352188103,-0.0458448838233948,-0.0706804879188542
0.705632949727438,-0.20079441461563102,-0.242236485385895,0.0778107230186458
0.706238643246517,0.0794228705406189,-0.108115391635895,0.101760918331146
0.706844336765597,0.0363125189781189,0.0619309950828552,0.130501152706146
0.707450030284676,0.009967304134368889,-0.10093033304214499,0.269412285518646
0.708055723803755,0.0842129096031189,-0.184756016635895,0.221511894893646
0.708661417322835,0.21354396429061898,-0.12727554788589499,-0.0611004097938542
0.709267110841914,0.0913979681968689,-0.108115391635895,-0.288627265262604
0.709872804360993,-0.018772930240631102,-0.16559586038589502,-0.0778655465126042
0.710478497880073,-0.07864841852188109,-0.024289708042144798,0.116131035518646
0.711084191399152,0.13211330022811898,-0.0075245713233947804,-0.00601496057510424
0.711689884918231,0.009967304134368889,-0.144040684604645,0.08978582067489581
0.712295578437311,-0.109783672428131,-0.278161778354645,-0.041940253543854195
0.71290127195639,0.0866079291343689,-0.13206558694839501,-0.041940253543854195
0.713506965475469,-0.160079082584381,-0.129670567417145,-0.0323601754188542
0.714112658994549,-0.128943828678131,-0.25421158304214503,-0.039545234012604194
0.714718352513628,0.0434975775718689,-0.0194996689796448,-0.0108049996376042
0.715324046032707,0.026732440853118898,-0.122485508823395,0.185586601924896
0.715929739551787,0.0387075385093689,0.117016444301605,0.130501152706146
0.716535433070866,-0.138523906803131,0.0427708388328552,0.233486992549896
0.717141126589945,-0.0307480278968811,-0.179965977573395,0.118526055049896
0.717746820109025,-0.00440281305313111,-0.175175938510895,0.0179352347373958
0.718352513628104,-0.14570896539688102,-0.0985353135108948,0.278992363643646
0.718958207147184,0.009967304134368889,-0.129670567417145,0.235882012081146
0.719563900666263,0.129718280696869,-0.041054844760894806,0.0275153128623958
0.720169594185342,0.024337421321868898,0.105041346645355,0.11373601598739601
0.720775287704422,-0.164869121646881,0.121806483364105,0.211931816768646
0.721380981223501,0.0195473822593689,-0.0602150010108948,-0.0587053902626042
0.72198667474258,0.18719874944686898,-0.041054844760894806,0.0251202933311458
0.72259236826166,0.0171523627281189,0.16252181539535498,-0.0179900582313542
0.723198061780739,-0.193609356021881,-0.0889552353858948,0.0203302542686458
0.723803755299818,0.0291274603843689,-0.0793751572608948,0.00356511754989576
0.724409448818898,0.103373065853119,-0.175175938510895,-0.00601496057510424
0.725015142337977,-0.037933086490631096,0.119411463832855,0.11373601598739601
0.725620835857056,-0.100203594303131,-0.00033951272964478403,0.156846367549896
0.726226529376136,-0.0906235161781311,0.0355857802391052,0.049070488643645806
0.726832222895215,0.0626577338218689,0.0307957411766052,-0.0251751168251042
0.727437916414294,-0.0642783013343811,-0.184756016635895,-0.044335273075104195
0.728043609933374,-0.160079082584381,0.155336756801605,-0.109000800418854
0.728649303452453,0.0626577338218689,-0.0506349228858948,-0.243121894168854
0.729254996971532,0.19198878850936898,-0.13685562601089502,-0.288627265262604
0.729860690490612,0.00278224554061889,0.0595359755516052,-0.180851386356354
0.730466384009691,-0.00200779352188111,-0.108115391635895,0.0730206839561458
0.73107207752877,0.15845851507186898,0.0834861708641052,0.274202324581146
0.73167777104785,0.105768085384369,-0.0482399033546448,0.159241387081146
0.732283464566929,0.007572284603118889,0.0307957411766052,0.125711113643646
0.732889158086008,-0.00440281305313111,-0.0434498642921448,0.0826007620811458
0.733494851605088,0.0147573431968689,0.006845545864105219,0.0778107230186458
0.734100545124167,-0.179239238834381,0.049955897426605195,0.046675469112395805
0.734706238643246,-0.239114727115631,-0.0482399033546448,0.0323053519248958
0.735311932162326,-0.0283530083656311,0.0667210341453552,-0.0371502144813542
0.735917625681405,-0.0475131646156311,-0.0458448838233948,0.0227252737998958
0.736523319200485,-0.19600437555313102,-0.0602150010108948,0.0706256644248958
0.737129012719564,-0.207979473209381,-0.177570958042145,-0.08744562463760419
0.737734706238643,0.00517726507186889,0.0619309950828552,0.0658356253623958
0.738340399757723,0.0291274603843689,0.047560877895355194,-0.09463068323135419
0.738946093276802,-0.112178691959381,-0.10093033304214499,-0.142531073856354
0.739551786795881,0.0746328314781189,-0.06740005960464479,0.128106133174896
0.740157480314961,-0.0067978325843811105,-0.0578199814796448,-0.0778655465126042
0.74076317383404,-0.22234959039688101,0.0834861708641052,0.0730206839561458
0.741368867353119,-0.152894023990631,0.112226405239105,0.164031426143646
0.741974560872199,-0.133733867740631,0.0260057021141052,0.0347003714561458
0.742580254391278,0.0123623236656189,0.15294173727035498,0.14487126989364602
0.743185947910357,-0.021167949771881103,0.179286952114105,0.0131451956748958
0.743791641429437,0.0123623236656189,0.0595359755516052,-0.00122492151260424
0.744397334948516,0.00278224554061889,-0.21110123147964502,0.190376640987396
0.745003028467595,0.055472675228118905,-0.177570958042145,-0.08744562463760419
0.745608721986675,0.156063495540619,-0.0530299424171448,0.044280449581145805
0.746214415505754,0.0315224799156189,0.10264632711410501,0.238277031612396
0.746820109024833,0.0913979681968689,0.006845545864105219,0.264622246456146
0.747425802543913,0.050682636165618904,-0.21110123147964502,0.11134099645614601
0.748031496062992,-0.112178691959381,0.0739060927391052,0.171216484737396
0.748637189582071,0.0195473822593689,-0.0171046494483948,0.08499578161239581
0.749242883101151,0.28060451116561896,-0.036264805698394804,0.142476250362396
0.74984857662023,-0.100203594303131,-0.124880528354645,0.0826007620811458
0.75045427013931,-0.0570932427406311,-0.25660660257339496,-0.00122492151260424
0.751059963658389,0.0363125189781189,-0.00991959085464478,0.233486992549896
0.751665657177468,0.0195473822593689,-0.0290797471046448,0.00596013708114576
0.752271350696547,0.156063495540619,-0.038659825229644805,0.0610455862998958
0.752877044215627,0.09618800725936891,0.0260057021141052,-0.0682854683876042
0.753482737734706,0.057867694759368905,-0.16559586038589502,0.0203302542686458
0.754088431253786,0.0171523627281189,0.15773177633285498,0.231091973018646
0.754694124772865,0.122533222103119,0.0284007216453552,0.0538605277061458
0.755299818291944,0.0602627142906189,-0.06500504007339479,0.0275153128623958
0.755905511811024,-0.021167949771881103,-0.105720372104645,0.247857109737396
0.756511205330103,-0.0666733208656311,0.047560877895355194,0.041885430049895804
0.757116898849182,-0.0570932427406311,0.0715110732078552,-0.00840998010635424
0.757722592368262,0.117743183040619,-0.0817701767921448,-0.0634954293251042
0.758328285887341,0.21354396429061898,0.0643260146141052,-0.0826555855751042
0.75893397940642,0.0363125189781189,-0.06979507913589479,-0.0587053902626042
0.7595396729255,-0.08104343805313109,0.172101893520355,-0.176061347293854
0.760145366444579,0.09858302679061891,0.200842127895355,0.5352594534873959
0.760751059963658,0.0890029486656189,-0.0123146103858948,0.805896660518646
0.761356753482738,-0.0283530083656311,-0.07219009866714479,-0.0323601754188542
0.761962447001817,0.13211330022811898,0.023610682582855202,-0.149716132450104
0.762568140520896,0.00038722600936889103,0.15294173727035498,0.0754157034873958
0.763173834039976,0.0650527533531189,-0.024289708042144798,0.125711113643646
0.763779527559055,0.0674477728843689,-0.0865602158546448,-0.0203850777626042
0.764385221078134,-0.0475131646156311,-0.0793751572608948,0.0778107230186458
0.764990914597214,0.0626577338218689,0.006845545864105219,0.00117009801864576
0.765596608116293,0.0794228705406189,0.16252181539535498,-0.0587053902626042
0.766202301635373,0.115348163509369,0.10264632711410501,0.149661308956146
0.766807995154452,0.11295314397811901,0.0188206435203552,-0.049125312137604196
0.767413688673531,0.13690333929061899,0.0427708388328552,-0.09463068323135419
0.768019382192611,0.14408839788436897,0.049955897426605195,-0.0754705269813542
0.76862507571169,0.0482876166343689,-0.230261387729645,-0.041940253543854195
0.769230769230769,0.122533222103119,0.109831385707855,-0.029965155887604202
0.769836462749849,-0.0283530083656311,0.267902674770355,-0.0275701363563542
0.770442156268928,0.0746328314781189,-0.0913502549171448,-0.00601496057510424
0.771047849788007,0.30934474554061897,-0.213496251010895,0.0562555472373958
0.771653543307087,0.0722378119468689,-0.00512955179214478,0.0826007620811458
0.772259236826166,0.0195473822593689,-0.0889552353858948,-0.238331855106354
0.772864930345245,0.009967304134368889,-0.021894688510894798,0.125711113643646
0.773470623864325,0.0818178900718689,0.181681971645355,0.353237969112396
0.774076317383404,-0.0451181450843811,0.021215663051605202,0.00596013708114576
0.774682010902483,0.122533222103119,0.052350916957855195,-0.0179900582313542
0.775287704421563,0.165643573665619,-0.105720372104645,-0.00122492151260424
0.775893397940642,-0.148103984928131,-0.0889552353858948,0.08739080114364581
0.776499091459721,0.053077655696868904,0.023610682582855202,0.049070488643645806
0.777104784978801,0.053077655696868904,-0.0769801377296448,0.0754157034873958
0.77771047849788,-0.08104343805313109,-0.0290797471046448,0.307732598018646
0.778316172016959,0.0674477728843689,-0.0482399033546448,0.0370953909873958
0.778921865536039,-0.00200779352188111,-0.0578199814796448,-0.207196601200104
0.779527559055118,-0.193609356021881,-0.0506349228858948,-0.0754705269813542
0.780133252574197,0.0171523627281189,0.023610682582855202,-0.00840998010635424
0.780738946093277,0.0650527533531189,0.0739060927391052,0.125711113643646
0.781344639612356,-0.07864841852188109,-0.0171046494483948,0.0251202933311458
0.781950333131435,0.009967304134368889,-0.0913502549171448,0.09457585973739581
0.782556026650515,-0.0499081841468811,-0.13206558694839501,-0.0563103707313542
0.783161720169594,-0.0906235161781311,-0.0817701767921448,0.0682306448936458
0.783767413688674,0.0937929877281189,-0.15122574319839502,0.0969708792686458
0.784373107207753,0.206358905696869,0.124201502895355,0.08978582067489581
0.784978800726832,-0.0858334771156311,-0.0075245713233947804,0.197561699581146
0.785584494245912,-0.0235629693031311,-0.110510411167145,-0.0132000191688542
0.786190187764991,-0.0067978325843811105,0.006845545864105219,-0.130555976200104
0.78679588128407,-0.14091892633438102,0.0164256239891052,0.00596013708114576
0.78740157480315,0.141693378353119,0.0188206435203552,0.0251202933311458
0.788007268322229,0.0387075385093689,-0.0266847275733948,-0.0658904488563542
0.788612961841308,-0.037933086490631096,0.25592757711410496,-0.00361994104385424
0.789218655360388,-0.07625339899063109,0.0284007216453552,-0.0132000191688542
0.789824348879467,0.0626577338218689,0.0595359755516052,-0.209591620731354
0.790430042398546,0.115348163509369,0.0739060927391052,0.456223808956146
0.791035735917626,0.0339174994468689,0.0858811903953552,0.7148859183311459
0.791641429436705,0.16803859319686898,0.00924056539535522,0.00835515661239576
0.792247122955784,-0.0594882622718811,-0.235051426792145,0.240672051143646
0.792852816474864,0.0291274603843689,-0.321272129917145,0.049070488643645806
0.793458509993943,0.14887843694686897,-0.0913502549171448,-0.0802605660438542
0.794064203513022,0.0315224799156189,-0.144040684604645,0.166426445674896
0.794669897032102,0.15845851507186898,0.00445052633285522,-0.195221503543854
0.795275590551181,0.10816310491561901,0.0619309950828552,-0.142531073856354
0.79588128407026,0.09618800725936891,-0.0889552353858948,0.09218084020614581
0.79648697758934,-0.021167949771881103,0.0379807997703552,-0.044335273075104195
0.797092671108419,-0.24629978570938102,0.006845545864105219,-0.08505060510635419
0.797698364627498,-0.0259579888343811,0.30143294820785504,-0.0682854683876042
0.798304058146578,0.0626577338218689,-0.0123146103858948,-0.09223566370010419
0.798909751665657,0.0482876166343689,-0.0506349228858948,-0.235936835575104
0.799515445184736,-0.033143047428131095,0.145756678676605,-0.00361994104385424
0.800121138703816,-0.0115878716468811,-0.06740005960464479,0.08978582067489581
0.800726832222895,-0.0163779107093811,-0.182360997104645,-0.130555976200104
0.801332525741975,-0.138523906803131,-0.12727554788589499,-0.161691230106354
0.801938219261054,0.206358905696869,-0.13206558694839501,-0.08505060510635419
0.802543912780133,0.120138202571869,-0.0266847275733948,0.0993658987998958
0.803149606299213,-0.061883281803131095,0.0164256239891052,0.0179352347373958
0.803755299818292,0.10816310491561901,-0.06740005960464479,0.152056328487396
0.804360993337371,-0.0642783013343811,-0.14643570413589502,0.106550957393646
0.804966686856451,-0.15049900445938103,-0.0841651963233948,-0.0539153512001042
0.80557238037553,0.124928241634369,0.0786961318016052,-0.168876288700104
0.806178073894609,-0.0738583794593811,0.184076991176605,-0.125765937137604
0.806783767413689,-0.17684421930313102,0.0427708388328552,0.0251202933311458
0.807389460932768,-0.037933086490631096,-0.110510411167145,-0.235936835575104
0.807995154451847,0.184803729915619,-0.0865602158546448,0.0323053519248958
0.808600847970927,0.292579608821869,-0.103325352573395,0.029910332393645798
0.809206541490006,-0.143313945865631,-0.06979507913589479,-0.0251751168251042
0.809812235009085,-0.19600437555313102,-0.103325352573395,0.159241387081146
0.810417928528165,0.0770278510093689,-0.103325352573395,0.137686211299896
0.811023622047244,-0.0307480278968811,0.00924056539535522,0.039490410518645803
0.811629315566323,-0.128943828678131,-0.112905430698395,0.283782402706146
0.812235009085403,-0.23192966852188102,-0.0171046494483948,0.334077812862396
0.812840702604482,-0.19600437555313102,0.124201502895355,-0.00361994104385424
0.813446396123562,-0.0594882622718811,-0.00512955179214478,0.08739080114364581
0.814052089642641,-0.128943828678131,-0.0554249619483948,0.207141777706146
0.81465778316172,-0.0714633599281311,-0.13685562601089502,0.0610455862998958
0.815263476680799,0.0818178900718689,0.0116355849266052,0.09218084020614581
0.815869170199879,-0.00200779352188111,-0.122485508823395,0.20474675817489602
0.816474863718958,-0.0690683403968811,-0.158410801792145,0.0706256644248958
0.817080557238038,-0.033143047428131095,0.117016444301605,0.219116875362396
0.817686250757117,-0.0451181450843811,0.00924056539535522,0.209536797237396
0.818291944276196,-0.0499081841468811,-0.0194996689796448,0.0251202933311458
0.818897637795276,-0.0690683403968811,0.057140956020355196,0.432273613643646
0.819503331314355,-0.00919285211563111,0.128991541957855,-0.185641425418854
0.820109024833434,0.0842129096031189,-0.0458448838233948,-0.5664495308876041
0.820714718352514,0.0434975775718689,-0.120090489292145,0.0658356253623958
0.821320411871593,-0.07625339899063109,0.15773177633285498,0.132896172237396
0.821926105390672,-0.0642783013343811,-0.0075245713233947804,0.11134099645614601
0.822531798909752,-0.116968731021881,-0.041054844760894806,-0.123370917606354
0.823137492428831,0.100978046321869,0.0834861708641052,0.0227252737998958
0.82374318594791,0.100978046321869,-0.0123146103858948,0.183191582393646
0.82434887946699,-0.0906235161781311,-0.139250645542145,0.029910332393645798
0.824954572986069,0.0482876166343689,-0.134460606479645,-0.135346015262604
0.825560266505148,0.0339174994468689,-0.16080582132339502,0.0347003714561458
0.826165960024228,0.124928241634369,-0.153620762729645,0.221511894893646
0.826771653543307,0.244679218196869,0.0691160536766052,-0.120975898075104
0.827377347062386,0.026732440853118898,0.145756678676605,-0.180851386356354
0.827983040581466,0.0147573431968689,0.16252181539535498,0.08499578161239581
0.828588734100545,0.20396388616561897,-0.0554249619483948,-0.106605780887604
0.829194427619624,0.0746328314781189,-0.158410801792145,-0.041940253543854195
0.829800121138704,-0.061883281803131095,-0.0075245713233947804,0.0706256644248958
0.830405814657783,-0.0475131646156311,0.0739060927391052,-0.0179900582313542
0.831011508176863,0.13211330022811898,0.19844710836410498,0.211931816768646
0.831617201695942,0.0434975775718689,0.057140956020355196,0.147266289424896
0.832222895215021,0.0482876166343689,0.0284007216453552,-0.0778655465126042
0.8328285887341,-0.114573711490631,-0.0793751572608948,0.0610455862998958
0.83343428225318,-0.0139828911781311,-0.278161778354645,0.168821465206146
0.834039975772259,0.0650527533531189,-0.153620762729645,-0.0275701363563542
0.834645669291339,-0.13612888727188102,-0.06740005960464479,0.039490410518645803
0.835251362810418,0.0363125189781189,-0.115300450229645,0.015540215206145801
0.835857056329497,0.0434975775718689,0.0667210341453552,-0.0706804879188542
0.836462749848577,0.026732440853118898,-0.06740005960464479,-0.0682854683876042
0.837068443367656,0.175223651790619,-0.182360997104645,-0.101815741825104
0.837674136886735,0.0387075385093689,-0.19673111429214502,-0.113790839481354
0.838279830405815,-0.0858334771156311,-0.0626100205421448,-0.049125312137604196
0.838885523924894,0.0339174994468689,0.22239730367660498,0.08739080114364581
0.839491217443973,-0.0259579888343811,-0.0626100205421448,0.14008123083114601
0.840096910963053,0.00517726507186889,-0.0841651963233948,0.161636406612396
0.840702604482132,-0.0594882622718811,-0.218286290073395,0.168821465206146
0.841308298001211,0.050682636165618904,0.0786961318016052,0.00596013708114576
0.841913991520291,0.053077655696868904,0.128991541957855,0.104155937862396
0.84251968503937,0.0411025580406189,-0.134460606479645,-0.0539153512001042
0.843125378558449,0.16324855413436898,-0.06979507913589479,-0.0251751168251042
0.843731072077529,0.13690333929061899,-0.021894688510894798,0.0131451956748958
0.844336765596608,0.0770278510093689,-0.122485508823395,-0.00122492151260424
0.844942459115687,0.151273456478119,-0.179965977573395,0.08978582067489581
0.845548152634767,0.0650527533531189,0.16731185445785499,0.0610455862998958
0.846153846153846,0.0770278510093689,0.0786961318016052,0.137686211299896
0.846759539672925,0.0363125189781189,0.0691160536766052,-0.039545234012604194
0.847365233192005,-0.0475131646156311,-0.0602150010108948,0.0682306448936458
0.847970926711084,0.021942401790618897,-0.0530299424171448,0.221511894893646
0.848576620230164,-0.160079082584381,-0.172780918979645,0.164031426143646
0.849182313749243,-0.14091892633438102,-0.167990879917145,-0.147321112918854
0.849788007268322,0.00278224554061889,0.0810911513328552,-0.310182441043854
0.850393700787402,-0.037933086490631096,-0.134460606479645,0.219116875362396
0.850999394306481,0.160853534603119,0.023610682582855202,0.525679375362396
0.85160508782556,-0.0882284966468811,0.0858811903953552,0.08978582067489581
0.85221078134464,-0.224744609928131,-0.22068130960464502,-0.166481269168854
0.852816474863719,-0.018772930240631102,-0.13685562601089502,-0.240726874637604
0.853422168382798,0.009967304134368889,-0.112905430698395,0.09218084020614581
0.854027861901878,-0.0307480278968811,-0.00512955179214478,0.183191582393646
0.854633555420957,0.009967304134368889,-0.021894688510894798,-0.0706804879188542
0.855239248940036,0.105768085384369,0.205632166957855,0.0323053519248958
0.855844942459116,0.0291274603843689,0.049955897426605195,0.108945976924896
0.856450635978195,-0.07864841852188109,-0.208706211948395,-0.00840998010635424
0.857056329497274,-0.061883281803131095,0.13857162008285498,-0.08505060510635419
0.857662023016354,0.0650527533531189,0.0307957411766052,-0.0802605660438542
0.858267716535433,0.103373065853119,-0.273371739292145,0.00596013708114576
0.858873410054512,-0.00440281305313111,-0.112905430698395,0.0370953909873958
0.859479103573592,-0.021167949771881103,-0.0961402939796448,-0.0634954293251042
0.860084797092671,0.115348163509369,-0.163200840854645,0.039490410518645803
0.86069049061175,-0.0906235161781311,-0.218286290073395,0.0251202933311458
0.86129618413083,-0.0858334771156311,-0.21589127054214502,-0.120975898075104
0.861901877649909,-0.033143047428131095,0.0667210341453552,-0.0108049996376042
0.862507571168988,-0.0690683403968811,-0.0482399033546448,0.104155937862396
0.863113264688068,-0.169659160709381,0.155336756801605,0.09457585973739581
0.863718958207147,-0.157684063053131,0.0427708388328552,0.247857109737396
0.864324651726227,0.0387075385093689,-0.0290797471046448,-0.049125312137604196
0.864930345245306,0.18719874944686898,0.0284007216453552,-0.0275701363563542
0.865536038764385,0.0770278510093689,-0.021894688510894798,0.195166680049896
0.866141732283465,0.141693378353119,0.105041346645355,-0.08984064416885419
0.866747425802544,0.16324855413436898,-0.0266847275733948,0.0706256644248958
0.867353119321623,0.0913979681968689,-0.00512955179214478,0.106550957393646
0.867958812840703,0.220729022884369,-0.031474766635894796,0.015540215206145801
0.868564506359782,-0.08104343805313109,0.021215663051605202,-0.15929621057510399
0.869170199878861,-0.126548809146881,0.006845545864105219,0.0730206839561458
0.869775893397941,-0.0738583794593811,-0.041054844760894806,-0.0515203316688542
0.87038158691702,0.0937929877281189,0.186472010707855,-0.104210761356354
0.870987280436099,0.00278224554061889,0.021215663051605202,0.0323053519248958
0.871592973955179,-0.15049900445938103,0.13378158102035498,-0.125765937137604
0.872198667474258,0.20396388616561897,-0.036264805698394804,-0.0515203316688542
0.872804360993337,0.053077655696868904,-0.184756016635895,-0.384428046512604
0.873410054512417,0.09858302679061891,0.0188206435203552,0.0227252737998958
0.874015748031496,0.0339174994468689,-0.163200840854645,-0.0754705269813542
0.874621441550575,-0.0139828911781311,0.131386561489105,-0.178456366825104
0.875227135069655,-0.0259579888343811,0.308618006801605,0.240672051143646
0.875832828588734,-0.037933086490631096,0.179286952114105,-0.168876288700104
0.876438522107813,0.0937929877281189,-0.07458511819839479,-0.149716132450104
0.877044215626893,-0.17684421930313102,-0.20152115335464502,0.14487126989364602
0.877649909145972,0.0650527533531189,0.054745936489105196,0.271807305049896
0.878255602665051,0.13690333929061899,0.0978562880516052,0.219116875362396
0.878861296184131,0.009967304134368889,-0.024289708042144798,-0.015595038700104199
0.87946698970321,0.0626577338218689,-0.124880528354645,-0.0275701363563542
0.880072683222289,0.026732440853118898,-0.158410801792145,-0.041940253543854195
0.880678376741369,0.00517726507186889,-0.10093033304214499,-0.0994207222938542
0.881284070260448,-0.0259579888343811,-0.0937452744483948,0.154451348018646
0.881889763779528,0.15366847600936898,0.049955897426605195,-0.0634954293251042
0.882495457298607,0.122533222103119,0.0882762099266052,0.0730206839561458
0.883101150817686,-0.037933086490631096,-0.0171046494483948,0.104155937862396
0.883706844336766,-0.0642783013343811,-0.0482399033546448,-0.164086249637604
0.884312537855845,0.0650527533531189,-0.208706211948395,0.209536797237396
0.884918231374924,0.0674477728843689,-0.0075245713233947804,-0.0778655465126042
0.885523924894004,-0.148103984928131,0.0260057021141052,-0.118580878543854
0.886129618413083,0.0434975775718689,0.0619309950828552,0.08739080114364581
0.886735311932162,0.0482876166343689,-0.0194996689796448,-0.0203850777626042
0.887341005451242,-0.13612888727188102,-0.352407383823395,0.044280449581145805
0.887946698970321,-0.00919285211563111,-0.024289708042144798,0.0562555472373958
0.8885523924894,-0.0738583794593811,0.243952479457855,0.00117009801864576
0.88915808600848,-0.133733867740631,0.119411463832855,0.0514655081748958
0.889763779527559,0.0434975775718689,-0.115300450229645,0.041885430049895804
0.890369473046638,-0.0978085747718811,0.224792323207855,-0.00840998010635424
0.890975166565718,-0.0930185357093811,0.220002284145355,0.137686211299896
0.891580860084797,0.0411025580406189,-0.105720372104645,0.0275153128623958
0.892186553603876,-0.0954135552406311,0.184076991176605,-0.0658904488563542
0.892792247122956,-0.0163779107093811,-0.0482399033546448,0.223906914424896
0.893397940642035,-0.104993633365631,-0.0961402939796448,0.0370953909873958
0.894003634161115,-0.0906235161781311,-0.108115391635895,-0.164086249637604
0.894609327680194,-0.0427231255531311,-0.15601578226089502,0.118526055049896
0.895215021199273,0.0291274603843689,-0.134460606479645,-0.106605780887604
0.895820714718352,0.0602627142906189,-0.0937452744483948,-0.08744562463760419
0.896426408237432,-0.018772930240631102,-0.0769801377296448,0.0682306448936458
0.897032101756511,0.11295314397811901,-0.15601578226089502,-0.149716132450104
0.897637795275591,-0.0882284966468811,-0.261396641635895,-0.0802605660438542
0.89824348879467,0.129718280696869,0.107436366176605,0.041885430049895804
0.898849182313749,-0.00919285211563111,0.119411463832855,0.128106133174896
0.899454875832829,-0.121758770084381,-0.117695469760895,-0.0108049996376042
0.900060569351908,0.11295314397811901,-0.115300450229645,0.195166680049896
0.900666262870987,-0.021167949771881103,-0.00273453226089478,0.11134099645614601
0.901271956390067,0.026732440853118898,-0.0123146103858948,0.0131451956748958
0.901877649909146,0.050682636165618904,-0.120090489292145,0.0107501761436458
0.902483343428225,0.0674477728843689,0.0331907607078552,0.0347003714561458
0.903089036947305,0.0339174994468689,-0.148830723667145,-0.128160956668854
0.903694730466384,-0.035538066959381095,0.0451658583641052,-0.0515203316688542
0.904300423985463,0.021942401790618897,-0.0075245713233947804,0.029910332393645798
0.904906117504543,0.15366847600936898,-0.167990879917145,-0.0251751168251042
0.905511811023622,0.15366847600936898,0.10025130758285501,0.0706256644248958
0.906117504542701,0.17761867132186898,0.0906712294578552,-0.267072089481354
0.906723198061781,-0.0067978325843811105,0.0164256239891052,-0.0275701363563542
0.90732889158086,0.0602627142906189,-0.036264805698394804,0.0706256644248958
0.907934585099939,0.14887843694686897,-0.021894688510894798,0.049070488643645806
0.908540278619019,-0.104993633365631,0.20802718648910498,0.108945976924896
0.909145972138098,-0.0307480278968811,-0.110510411167145,-0.257492011356354
0.909751665657177,-0.08104343805313109,0.128991541957855,0.408323418331146
0.910357359176257,-0.116968731021881,-0.0889552353858948,0.518494316768646
0.910963052695336,0.0794228705406189,-0.033869786167144804,0.523284355831146
0.911568746214416,-0.15528904352188103,0.16731185445785499,0.20474675817489602
0.912174439733495,-0.0523032036781311,-0.12727554788589499,-0.322157538700104
0.912780133252574,0.139298358821869,0.00445052633285522,0.173611504268646
0.913385826771653,-0.107388652896881,-0.0841651963233948,-0.106605780887604
0.913991520290733,0.0147573431968689,0.0667210341453552,-0.041940253543854195
0.914597213809812,0.057867694759368905,-0.024289708042144798,0.125711113643646
0.915202907328892,0.0842129096031189,0.049955897426605195,-0.168876288700104
0.915808600847971,-0.138523906803131,-0.0578199814796448,-0.0802605660438542
0.91641429436705,-0.143313945865631,-0.0985353135108948,-0.00601496057510424
0.91701998788613,0.0626577338218689,0.0763011122703552,0.101760918331146
0.917625681405209,0.11295314397811901,-0.0530299424171448,0.0179352347373958
0.918231374924288,0.057867694759368905,-0.112905430698395,-0.128160956668854
0.918837068443368,-0.0642783013343811,0.13378158102035498,0.240672051143646
0.919442761962447,0.0866079291343689,0.160126795864105,-0.00840998010635424
0.920048455481526,0.11055812444686901,-0.280556797885895,0.104155937862396
0.920654149000606,-0.0882284966468811,-0.14164566507339502,0.106550957393646
0.921259842519685,0.0458925971031189,-0.0530299424171448,-0.0730755074501042
0.921865536038764,0.0458925971031189,0.0020555068016052196,0.0251202933311458
0.922471229557844,-0.179239238834381,-0.014709629917144801,-0.0658904488563542
0.923076923076923,-0.0259579888343811,0.0188206435203552,0.108945976924896
0.923682616596002,-0.0163779107093811,0.0763011122703552,-0.08744562463760419
0.924288310115082,0.0123623236656189,0.0164256239891052,-0.123370917606354
0.924894003634161,0.0937929877281189,0.0786961318016052,0.0586505667686458
0.92549969715324,0.0482876166343689,-0.19194107522964501,-0.08984064416885419
0.92610539067232,0.20396388616561897,-0.0865602158546448,-0.0682854683876042
0.926711084191399,0.28060451116561896,0.160126795864105,-0.0587053902626042
0.927316777710478,-0.0666733208656311,0.231977381801605,-0.130555976200104
0.927922471229558,0.009967304134368889,-0.203916172885895,0.08739080114364581
0.928528164748637,0.115348163509369,-0.0458448838233948,-0.0275701363563542
0.929133858267717,0.0123623236656189,0.052350916957855195,-0.039545234012604194
0.929739551786796,-0.0307480278968811,-0.28774185647964495,0.00117009801864576
0.930345245305875,-0.0259579888343811,0.136176600551605,-0.161691230106354
0.930950938824954,0.026732440853118898,0.0667210341453552,0.0730206839561458
0.931556632344034,-0.121758770084381,-0.036264805698394804,-0.0634954293251042
0.932162325863113,0.0482876166343689,0.22718734273910499,0.00835515661239576
0.932768019382193,0.18240871038436898,-0.122485508823395,-0.0754705269813542
0.933373712901272,-0.0115878716468811,-0.112905430698395,-0.291022284793854
0.933979406420351,-0.0499081841468811,-0.108115391635895,0.0586505667686458
0.934585099939431,0.21354396429061898,0.0810911513328552,0.0586505667686458
0.93519079345851,0.024337421321868898,0.0786961318016052,-0.178456366825104
0.935796486977589,0.0626577338218689,-0.179965977573395,0.130501152706146
0.936402180496669,0.115348163509369,0.0643260146141052,0.135291191768646
0.937007874015748,0.0339174994468689,-0.06740005960464479,0.041885430049895804
0.937613567534827,0.100978046321869,-0.0458448838233948,0.049070488643645806
0.938219261053907,-0.0115878716468811,-0.129670567417145,-0.0706804879188542
0.938824954572986,-0.138523906803131,-0.014709629917144801,-0.0587053902626042
0.939430648092065,0.00278224554061889,0.00924056539535522,-0.247911933231354
0.940036341611145,0.0411025580406189,-0.189546055698395,-0.118580878543854
0.940642035130224,-0.0067978325843811105,0.0691160536766052,0.6526154105186459
0.941247728649303,0.00517726507186889,-0.153620762729645,0.0610455862998958
0.941853422168383,-0.0594882622718811,-0.261396641635895,-0.135346015262604
0.942459115687462,-0.0163779107093811,-0.0961402939796448,0.0323053519248958
0.943064809206541,-0.126548809146881,0.0763011122703552,-0.161691230106354
