Time (s),Accel X (m/s^2),Accel Y (m/s^2),Accel Z (m/s^2)
6.11375,0.25200086774825997,-0.033025728893279996,-0.343362442874908
6.114355693519079,0.13224989118576,0.08912026720046999,-0.393657853031158
6.114961387038158,0.18015028181075998,0.00529458360671997,-0.26911683740615805
6.115567080557238,0.17057020368575998,-0.14080160779953,-0.33138734521865804
6.1161727740763165,0.0723744029045105,-0.15517172498703,-0.403237931156158
6.116778467595396,0.0244740122795105,0.000504544544219973,-0.276301895999908
6.117384161114476,0.30948133649826004,0.01966470079422,-0.42000306787490804
6.117989854633555,0.27355604352951,-0.07374106092453,-0.343362442874908
6.118595548152634,0.0460291880607605,-0.20307211561202998,-0.23558656396865799
6.119201241671714,0.31666639509201,-0.18151693983078,-0.218821427249908
6.119806935190793,0.0771644419670105,-0.16235678358077998,-0.446348282718658
6.120412628709873,0.21847059431076,-0.16475180311203,-0.36970765771865804
6.121018322228951,0.29271619977951,-0.02584067029953,-0.194871231937408
6.121624015748031,0.13943494977951,-0.03063070936203,-0.326597306156158
6.122229709267111,0.23284071149826,-0.04979086561203,-0.17092103662490798
6.1228354027861895,0.20410047712326,-0.02344565076828,0.142826521968842
6.123441096305269,0.19931043806076,-0.00907553358078003,0.291317732906342
6.124046789824349,0.0196839732170105,0.01487466173172,0.008705428218841639
6.124652483343428,0.32624647321701,-0.12643149061203002,-0.295462052249908
6.125258176862507,0.060399305248260496,0.11786050157547,-0.23558656396865799
6.125863870381586,0.0699793833732605,0.08912026720046999,-0.30983216943740804
6.126469563900666,0.26876600446701004,-0.07374106092453,-0.484668595218658
6.127075257419746,0.22326063337326,0.10588540391922,-0.37928773584365805
6.127680950938824,0.16338514509201,-0.17672690076828,-0.178106095218658
6.128286644457904,0.0795594614982605,-0.16475180311203,-0.190081192874908
6.128892337976983,0.23763075056076,-0.02584067029953,-0.285881974124908
6.1294980314960625,0.36935682477951004,-0.07613608045578,-0.28827699365615805
6.130103725015142,0.22326063337326,-0.13122152967453,-0.173316056156158
6.130709418534221,-0.0785118275642395,-0.11685141248703,-0.252351700687408
6.131315112053301,0.14901502790451,0.055589993762970004,-0.233191544437408
6.13192080557238,0.26876600446701004,-0.01626059217453,-0.254746720218658
6.132526499091459,0.23523573102950998,0.09870034532547,-0.443953263187408
6.133132192610539,0.0987196177482605,-0.0018904749870300298,-0.226006485843658
6.133737886129618,0.14422498884201,-0.10248129529953,-0.384077774906158
6.134343579648697,0.22805067243576,-0.04500082654953,-0.42239808740615803
6.134949273167777,0.0244740122795105,-0.17433188123703,-0.32899232568740805
6.135554966686856,0.10590467634201,-0.07613608045578,-0.223611466312408
6.1361606602059355,0.22086561384201,-0.17672690076828,-0.27151185693740804
6.136766353725014,0.16578016462325998,-0.07374106092453,-0.386472794437408
6.137372047244094,0.11069471540451001,0.08193520860672,-0.276301895999908
6.137977740763174,0.25200086774825997,0.04361489610672,-0.396052872562408
6.1385834342822525,0.0867445200920105,-0.07613608045578,-0.233191544437408
6.139189127801332,0.050819227123260494,-0.02823568983078,-0.46790345849990805
6.139794821320412,0.39570203962326,-0.21025717420578,-0.534964005374908
6.140400514839491,0.28553114118576,-0.06416098279953,-0.501433731937408
6.14100620835857,0.41725721540451,0.09870034532547,-0.345757462406158
6.141611901877649,0.38612196149826,-0.01147055311203,-0.101465470218658
6.142217595396729,0.31666639509201,-0.10727133436203,-0.120625626468658
6.1428232889158085,0.20170545759201,-0.05218588514327999,-0.38886781396865805
6.143428982434887,0.16578016462325998,0.000504544544219973,-0.34096742334365804
6.144034675953967,0.33822157087326005,-0.20786215467452998,-0.40802797021865805
6.144640369473046,0.24481580915450998,-0.10008627576828,-0.475088517093658
6.1452460629921255,0.10350965681076,-0.13840658826827998,-0.43916322412490805
6.145851756511205,0.16578016462325998,-0.04260580701828,-0.40802797021865805
6.146457450030284,0.0101038950920105,0.02924477891922,-0.36252259912490803
6.147063143549364,0.0699793833732605,-0.04260580701828,-0.36970765771865804
6.147668837068443,0.33582655134201,-0.27731772108078,-0.115835587406158
6.148274530587522,0.26876600446701004,-0.02584067029953,-0.367312638187408
6.148880224106602,0.0651893443107605,-0.02823568983078,-0.333782364749908
6.149485917625681,0.28313612165451,-0.18630697889328,-0.424793106937408
6.15009161114476,0.0771644419670105,-0.02344565076828,-0.36252259912490803
6.15069730466384,-0.0234263783454895,-0.14559164686203,-0.336177384281158
6.151302998182919,0.0675843638420105,-0.08332113904953001,-0.352942520999908
6.1519086917019985,-0.11922715959548999,0.08912026720046999,-0.264326798343658
6.152514385221077,0.0771644419670105,-0.04021078748703,-0.0870953530311584
6.153120078740157,0.41007215681076004,0.00289956407546997,-0.544544083499908
6.153725772259237,0.28792616071701,0.05319497423172,0.0709759360313416
6.1543314657783155,0.23523573102950998,-0.08332113904953001,0.43980894384384195
6.154937159297395,0.27116102399826003,-0.15996176404953,-0.42000306787490804
6.155542852816475,0.23523573102950998,-0.08571615858078001,-0.376892716312408
6.156148546335554,0.42923231306076004,0.07714516954422,-0.45113832178115804
6.156754239854633,0.0005238169670104789,-0.033025728893279996,-0.37928773584365805
6.157359933373712,0.28074110212326003,0.08912026720046999,-0.25953675928115805
6.157965626892792,0.21607557477951,-0.00428549451828003,-0.36252259912490803
6.1585713204118715,0.16817518415451,-0.14319662733077998,-0.506223770999908
6.15917701393095,0.26876600446701004,-0.00428549451828003,-0.214031388187408
6.15978270745003,-0.061746690845489505,0.04600991563797,-0.446348282718658
6.160388400969109,0.0484242075920105,0.02445473985672,-0.211636368656158
6.1609940944881885,0.0771644419670105,-0.23181234998703,0.0134954672813416
6.161599788007268,0.12506483259201,-0.09290121717453001,-0.532568985843658
6.162205481526347,0.16099012556076,-0.04021078748703,-0.209241349124908
6.162811175045427,0.12506483259201,-0.14319662733077998,-0.216426407718658
6.163416868564506,0.27595106306076,-0.061765963268279996,-0.367312638187408
6.164022562083585,0.40288709821701,-0.10487631483078,-0.355337540531158
6.164628255602665,0.49868787946701004,-0.17912192029953,-0.33138734521865804
6.165233949121744,0.11308973493576001,-0.14080160779953,-0.427188126468658
6.165839642640823,0.055609266185760495,-0.0066805140495300305,-0.463113419437408
6.166445336159903,0.31187635602951,-0.03063070936203,-0.36012757959365804
6.167051029678982,0.0364491099357605,-0.17433188123703,-0.146970841312408
6.1676567231980615,0.16578016462325998,-0.08811117811203001,-0.166130997562408
6.16826241671714,0.14662000837326,-0.07613608045578,-0.412818009281158
6.16886811023622,0.15859510602951,-0.24378744764328,-0.29067201318740804
6.1694738037553,0.10350965681076,-0.06416098279953,-0.5780743569374079
6.170079497274378,0.19931043806076,-0.00428549451828003,-0.34815248193740805
6.170685190793458,0.37414686384201,-0.15756674451827998,0.0374456625938416
6.171290884312538,0.050819227123260494,-0.11924643201828,-0.168526017093658
6.171896577831617,0.14662000837326,0.012479642200469999,-0.333782364749908
6.172502271350696,0.27355604352951,-0.02105063123703,-0.254746720218658
6.173107964869775,0.11787977399826001,0.01487466173172,-0.173316056156158
6.173713658388855,0.14422498884201,-0.056975924205779994,-0.31941224756240805
6.1743193519079345,0.0460291880607605,-0.23660238904953,-0.163735978031158
6.174925045427013,0.27355604352951,0.10109536485672,-0.28109193506240804
6.175530738946093,0.36935682477951004,-0.10487631483078,-0.324202286624908
6.176136432465172,0.28074110212326003,-0.21504721326828,-0.27151185693740804
6.176742125984251,0.24002577009200998,-0.12882651014327998,-0.566099259281158
6.177347819503331,0.17536024274825998,-0.0066805140495300305,-0.355337540531158
6.17795351302241,0.17296522321701,-0.06655600233078,-0.295462052249908
6.17855920654149,0.36696180524826,-0.09290121717453001,-0.132600724124908
6.179164900060569,0.31427137556076,-0.05218588514327999,-0.142180802249908
6.179770593579648,0.26158094587326003,-0.20307211561202998,-0.214031388187408
6.180376287098728,0.26397596540451,-0.04260580701828,-0.209241349124908
6.180981980617807,0.12506483259201,-0.13122152967453,-0.35054750146865804
6.181587674136886,0.32145643415451003,-0.24139242811203,-0.37928773584365805
6.182193367655966,0.14182996931076,-0.17912192029953,-0.515803849124908
6.182799061175045,0.0005238169670104789,0.06277505235672,-0.151760880374908
6.183404754694124,0.32624647321701,0.13941567735672,-0.242771622562408
6.184010448213204,0.28792616071701,-0.07134604139328,0.178751814937592
6.184616141732283,0.23284071149826,-0.34916830701828,-0.38886781396865805
6.185221835251363,0.27116102399826003,-0.15996176404953,-0.712195450687408
6.185827528770441,0.17536024274825998,0.05079995470047,-0.221216446781158
6.186433222289521,0.10350965681076,-0.07134604139328,-0.285881974124908
6.187038915808601,0.0172889536857605,-0.11206137342453,-0.106255509281158
6.18764460932768,0.22326063337326,0.01726968126297,-0.161340958499908
6.188250302846759,0.28792616071701,0.08672524766921999,-0.326597306156158
6.188855996365838,0.23284071149826,-0.09769125623703,-0.573284317874908
6.189461689884918,0.13464491071700999,-0.17433188123703,-0.27151185693740804
6.190067383403997,0.31666639509201,-0.22223227186202998,-0.194871231937408
6.190673076923076,0.38612196149826,-0.07613608045578,-0.36012757959365804
6.191278770442156,0.0412391489982605,-0.09769125623703,-0.101465470218658
6.191884463961236,0.11548475446701001,-0.17433188123703,-0.0607501381874084
6.192490157480314,0.32864149274826004,-0.15517172498703,-0.46071839990615804
6.193095850999394,0.33343153181076,-0.15517172498703,-0.211636368656158
6.193701544518473,0.35259168806076,0.17294595079422,0.181146834468842
6.194307238037553,0.0867445200920105,-0.0066805140495300305,-0.166130997562408
6.194912931556632,0.0843495005607605,-0.0066805140495300305,-0.31222718896865803
6.195518625075711,0.40528211774826,-0.14319662733077998,-0.166130997562408
6.196124318594791,0.40528211774826,-0.08571615858078001,-0.242771622562408
6.1967300121138695,0.24481580915450998,-0.09050619764328001,-0.405632950687408
6.197335705632949,0.21607557477951,-0.12164145154953,-0.194871231937408
6.197941399152029,0.0771644419670105,0.057985013294220004,-0.168526017093658
6.198547092671108,0.26158094587326003,-0.11924643201828,-0.333782364749908
6.199152786190187,0.19212537946701,-0.07853109998703,-0.142180802249908
6.199758479709267,0.12745985212326,-0.02823568983078,-0.192476212406158
6.200364173228346,0.19691541852951,-0.04979086561203,-0.0799102944374084
6.200969866747426,0.14901502790451,-0.20546713514328,-0.38168275537490803
6.201575560266504,0.27116102399826003,0.02445473985672,-0.36970765771865804
6.202181253785584,0.14182996931076,-0.06416098279953,-0.30983216943740804
6.202786947304664,0.41246717634201,-0.09529623670578001,-0.36012757959365804
6.2033926408237425,0.18254530134201,0.09630532579421999,-0.178106095218658
6.203998334342822,0.13464491071700999,-0.09050619764328001,-0.30264711084365803
6.204604027861902,0.28074110212326003,-0.06655600233078,-0.264326798343658
6.205209721380981,0.0795594614982605,-0.056975924205779994,-0.393657853031158
6.20581541490006,0.0675843638420105,-0.07374106092453,-0.396052872562408
6.206421108419139,0.39330702009201,-0.18870199842452998,-0.223611466312408
6.207026801938219,0.25200086774825997,-0.054580904674529994,-0.453533341312408
6.207632495457299,0.31427137556076,-0.00907553358078003,-0.376892716312408
6.208238188976377,0.35259168806076,-0.14080160779953,-0.123020645999908
6.208843882495457,0.26876600446701004,-0.08811117811203001,-0.182896134281158
6.209449576014536,0.19931043806076,0.02205972032547,-0.45832338037490805
6.2100552695336155,0.15620008649826,0.06277505235672,-0.247561661624908
6.210660963052695,0.15141004743576,-0.10008627576828,-0.324202286624908
6.211266656571774,0.0172889536857605,-0.04739584608078,-0.556519181156158
6.211872350090854,0.37175184431076,-0.02584067029953,-0.317017228031158
6.212478043609933,0.31187635602951,-0.02823568983078,-0.206846329593658
6.213083737129012,0.17057020368575998,-0.10727133436203,0.166776717281342
6.213689430648092,0.10829969587326001,-0.09769125623703,-0.26911683740615805
6.214295124167171,0.21847059431076,0.01966470079422,0.322452986812592
6.21490081768625,0.18973035993575998,0.08672524766921999,-0.146970841312408
6.215506511205329,0.22086561384201,-0.059370943737029995,-0.506223770999908
6.216112204724409,0.22326063337326,-0.17433188123703,0.0877410727500916
6.2167178982434885,-0.0306114369392395,-0.061765963268279996,-0.26911683740615805
6.217323591762567,0.26637098493576,-0.16235678358077998,-0.185291153812408
6.217929285281647,0.23523573102950998,0.02924477891922,-0.41042298974990804
6.218534978800727,0.13224989118576,0.23761147813797,-0.214031388187408
6.2191406723198055,0.24960584821700998,0.00529458360671997,-0.46071839990615804
6.219746365838885,0.32864149274826004,-0.05218588514327999,-0.28109193506240804
6.220352059357965,0.12506483259201,-0.01386557264328,-0.211636368656158
6.220957752877044,-0.11204210100173999,-0.13122152967453,-0.38168275537490803
6.221563446396123,0.10590467634201,-0.061765963268279996,-0.233191544437408
6.222169139915202,0.19691541852951,-0.04979086561203,-0.27869691553115805
6.222774833434282,0.35259168806076,-0.035420748424529996,-0.472693497562408
6.2233805269533615,0.0987196177482605,-0.07853109998703,-0.496643692874908
6.22398622047244,0.11308973493576001,-0.24378744764328,-0.30025209131240804
6.22459191399152,0.20649549665451,-0.17672690076828,-0.28827699365615805
6.2251976075106,0.0747694224357605,0.02684975938797,-0.36252259912490803
6.2258033010296785,0.0699793833732605,0.02445473985672,-0.30264711084365803
6.226408994548757,0.0819544810295105,-0.22223227186202998,-0.31222718896865803
6.227014688067838,0.20170545759201,-0.12403647108078,-0.405632950687408
6.227620381586917,0.24721082868576,0.00289956407546997,-0.32899232568740805
6.2282260751059955,0.0220789927482605,-0.04739584608078,-0.393657853031158
6.228831768625075,0.38133192243576003,-0.15996176404953,-0.293067032718658
6.229437462144155,0.5250330943107601,-0.10727133436203,-0.34815248193740805
6.230043155663234,0.22086561384201,0.10588540391922,-0.549334122562408
6.230648849182313,0.15380506696701,-0.21025717420578,-0.27869691553115805
6.231254542701393,0.26876600446701004,-0.10966635389328,-0.45113832178115804
6.231860236220472,0.21368055524826,-0.05218588514327999,-0.5589142006874079
6.2324659297395515,0.11308973493576001,-0.06655600233078,-0.27151185693740804
6.23307162325863,0.43162733259201,-0.14798666639327998,-0.39844789209365805
6.23367731677771,0.36217176618576,-0.13840658826827998,-0.130205704593658
6.23428301029679,0.14901502790451,-0.13361654920577998,-0.44874330224990805
6.2348887038158685,0.17057020368575998,-0.09050619764328001,-0.403237931156158
6.235494397334948,0.0292640513420105,-0.02823568983078,-0.209241349124908
6.236100090854028,0.11308973493576001,-0.061765963268279996,-0.496643692874908
6.236705784373107,0.0340540904045105,0.02684975938797,-0.28827699365615805
6.237311477892186,0.0987196177482605,-0.06655600233078,-0.103860489749908
6.237917171411266,0.13464491071700999,-0.059370943737029995,-0.151760880374908
6.238522864930345,-0.0258213978767395,-0.16475180311203,-0.276301895999908
6.2391285584494245,0.28792616071701,-0.12643149061203002,-0.33857240381240805
6.239734251968503,0.17775526227951,-0.13122152967453,-0.252351700687408
6.240339945487583,0.14901502790451,0.007689603137969969,-0.30025209131240804
6.240945639006663,0.30469129743576,-0.21265219373702998,-0.29067201318740804
6.2415513325257415,0.34540662946701,-0.31084799451828,-0.317017228031158
6.24215702604482,0.14662000837326,0.01966470079422,-0.276301895999908
6.242762719563901,0.11069471540451001,-0.12643149061203002,-0.123020645999908
6.24336841308298,0.14901502790451,-0.31084799451828,-0.125415665531158
6.243974106602058,0.43162733259201,-0.061765963268279996,0.111691268062592
6.244579800121139,0.31666639509201,-0.09769125623703,0.154801619625092
6.245185493640218,0.0987196177482605,-0.04979086561203,-0.101465470218658
6.245791187159297,0.11069471540451001,-0.01386557264328,-0.37928773584365805
6.246396880678376,-0.0114512806892395,-0.19828207654952998,-0.427188126468658
6.247002574197456,0.18494032087325998,-0.02584067029953,-0.563704239749908
6.247608267716535,0.050819227123260494,-0.11924643201828,-0.357732560062408
6.2482139612356145,0.33582655134201,0.01008462266922,-0.0918853920936584
6.248819654754693,0.37175184431076,0.10349038438797,-0.192476212406158
6.249425348273773,0.0388441294670105,-0.18630697889328,-0.23558656396865799
6.250031041792853,0.014893934154510501,-0.09050619764328001,-0.41042298974990804
6.250636735311931,0.16817518415451,-0.0066805140495300305,-0.247561661624908
6.251242428831012,0.24721082868576,-0.054580904674529994,-0.0775152749061584
6.251848122350091,0.29511121931076,0.000504544544219973,-0.293067032718658
6.25245381586917,0.29511121931076,-0.12643149061203002,-0.393657853031158
6.253059509388249,0.36456678571701,0.01487466173172,-0.472693497562408
6.253665202907329,0.28313612165451,0.06517007188797,-0.36252259912490803
6.254270896426408,0.18015028181075998,-0.04739584608078,-0.190081192874908
6.2548765899454875,0.0220789927482605,-0.14080160779953,-0.249956681156158
6.255482283464566,-0.018636339282989498,-0.25815756483078,-0.218821427249908
6.256087976983646,0.11069471540451001,-0.14319662733077998,-0.443953263187408
6.256693670502726,0.22805067243576,-0.18630697889328,-0.23558656396865799
6.257299364021804,0.21607557477951,-0.13361654920577998,-0.297857071781158
6.257905057540883,0.14422498884201,-0.09290121717453001,-0.38168275537490803
6.258510751059964,0.29750623884201,-0.07613608045578,-0.0200348061561584
6.259116444579043,0.20410047712326,-0.15277670545577998,-0.139785782718658
6.259722138098121,0.21128553571701,0.012479642200469999,-0.228401505374908
6.260327831617202,0.25200086774825997,0.02205972032547,-0.034404923343658404
6.260933525136281,0.16817518415451,0.02684975938797,-0.221216446781158
6.26153921865536,0.28074110212326003,-0.08811117811203001,-0.273906876468658
6.262144912174439,0.32864149274826004,0.01487466173172,-0.216426407718658
6.262750605693519,0.33103651227951003,-0.00907553358078003,-0.36970765771865804
6.263356299212598,0.23763075056076,-0.10966635389328,-0.28827699365615805
6.263961992731677,0.22326063337326,0.12744057970046999,-0.252351700687408
6.264567686250756,0.38133192243576003,-0.16954184217453,-0.163735978031158
6.265173379769836,0.19212537946701,-0.18151693983078,-0.30264711084365803
6.265779073288916,0.12745985212326,-0.04739584608078,-0.376892716312408
6.266384766807994,0.0005238169670104789,-0.10487631483078,-0.202056290531158
6.266990460327075,0.34780164899826,-0.04260580701828,-0.197266251468658
6.267596153846154,0.45318250837326,0.09630532579421999,-0.403237931156158
6.268201847365233,0.15380506696701,0.07954018907547,-0.297857071781158
6.268807540884312,0.26637098493576,-0.16954184217453,-0.156550919437408
6.269413234403392,0.13464491071700999,-0.18151693983078,-0.252351700687408
6.270018927922471,0.16817518415451,-0.13840658826827998,-0.446348282718658
6.27062462144155,0.31666639509201,-0.14319662733077998,-0.29067201318740804
6.271230314960629,0.17057020368575998,-0.01865561170578,-0.283486954593658
6.271836008479709,-0.0162413197517395,-0.18391195936203,-0.221216446781158
6.272441701998789,0.12027479352951001,-0.23899740858078,0.109296248531342
6.273047395517867,0.24481580915450998,-0.10008627576828,-0.307437149906158
6.273653089036946,0.22805067243576,-0.02584067029953,-0.216426407718658
6.274258782556027,0.18254530134201,-0.09769125623703,0.432623885250092
6.274864476075106,0.0771644419670105,-0.08092611951828,-0.0511700600624084
6.275470169594184,0.21607557477951,-0.08332113904953001,-0.106255509281158
6.276075863113265,0.0651893443107605,-0.15038168592453,-0.125415665531158
6.276681556632344,0.0987196177482605,-0.16954184217453,-0.214031388187408
6.2772872501514225,0.21368055524826,-0.06655600233078,-0.0535650795936584
6.277892943670502,0.27355604352951,-0.01386557264328,-0.364917618656158
6.278498637189582,0.20889051618576,-0.02823568983078,-0.27869691553115805
6.279104330708661,0.20889051618576,0.08433022813796999,-0.405632950687408
6.27971002422774,0.28792616071701,-0.04739584608078,-0.173316056156158
6.280315717746819,0.27834608259201005,-0.15038168592453,-0.0942804116249084
6.280921411265899,0.42204725446701,-0.08092611951828,-0.125415665531158
6.2815271047849786,0.17775526227951,0.06517007188797,-0.36252259912490803
6.282132798304057,0.0939295786857605,-0.033025728893279996,-0.36970765771865804
6.282738491823136,-0.12401719865798999,0.06756509141922,-0.218821427249908
6.283344185342217,0.20410047712326,0.13223061876297001,-0.477483536624908
6.2839498788612955,0.37893690290451004,-0.19588705701828,-0.032009903812408404
6.284555572380375,-0.12401719865798999,-0.14080160779953,-0.415213028812408
6.285161265899455,0.10350965681076,-0.09769125623703,-0.616394669437408
6.285766959418534,0.29032118024826004,-0.20546713514328,-0.161340958499908
6.286372652937613,0.38133192243576003,0.036429837512970006,-0.412818009281158
6.286978346456692,0.22565565290450998,-0.18391195936203,-0.324202286624908
6.287584039975772,0.36456678571701,-0.21504721326828,-0.352942520999908
6.2881897334948516,0.21607557477951,0.09870034532547,-0.592444474124908
6.28879542701393,0.18015028181075998,-0.11445639295578,-0.27151185693740804
6.289401120533009,0.27116102399826003,0.01008462266922,-0.23079652490615798
6.29000681405209,0.19931043806076,-0.24378744764328,-0.46071839990615804
6.2906125075711685,0.0891395396232605,-0.17433188123703,-0.515803849124908
6.291218201090247,-0.0761168080329895,0.08433022813796999,-0.41042298974990804
6.291823894609328,0.19691541852951,-0.09050619764328001,-0.245166642093658
6.292429588128407,0.0795594614982605,-0.07374106092453,-0.357732560062408
6.2930352816474855,0.15859510602951,-0.00907553358078003,-0.37210267724990803
6.293640975166565,0.17296522321701,-0.15756674451827998,-0.0583551186561584
6.294246668685645,0.18494032087325998,-0.22462729139328,-0.17092103662490798
6.294852362204724,0.20170545759201,-0.07613608045578,-0.276301895999908
6.295458055723803,0.23763075056076,-0.15517172498703,-0.226006485843658
6.296063749242882,0.32385145368576,-0.12164145154953,-0.305042130374908
6.296669442761962,0.20889051618576,-0.18870199842452998,-0.273906876468658
6.2972751362810415,0.17536024274825998,-0.10008627576828,-0.453533341312408
6.29788082980012,0.25439588727951,-0.059370943737029995,-0.455928360843658
6.2984865233192,0.19931043806076,-0.07613608045578,-0.295462052249908
6.29909221683828,0.20170545759201,0.07235513048172,-0.23558656396865799
6.2996979103573585,0.22326063337326,-0.16475180311203,-0.32180726709365803
6.300303603876438,0.15380506696701,-0.01386557264328,-0.352942520999908
6.300909297395518,0.050819227123260494,0.06517007188797,-0.0823053139686584
6.301514990914597,0.0867445200920105,-0.35156332654953004,-0.142180802249908
6.302120684433676,0.0292640513420105,-0.23899740858078,-0.45113832178115804
6.302726377952755,0.0005238169670104789,-0.07853109998703,-0.343362442874908
6.303332071471835,0.0196839732170105,-0.26534262342453,0.193121932125092
6.3039377649909145,0.31427137556076,-0.33000815076828,0.121271346187592
6.304543458509993,0.13703993024826,-0.03781576795578,-0.767280899906158
6.305149152029073,-0.0162413197517395,-0.01147055311203,-0.625974747562408
6.305754845548153,0.26876600446701004,-0.24618246717453,-0.472693497562408
6.3063605390672315,0.0627943247795105,-0.23420736951828,-0.487063614749908
6.30696623258631,0.0651893443107605,-0.19588705701828,-0.30983216943740804
6.307571926105391,0.29032118024826004,-0.12882651014327998,-0.42958314599990804
6.30817761962447,0.19691541852951,0.13223061876297001,-0.30264711084365803
6.3087833131435485,0.0005238169670104789,0.03163979845047,-0.151760880374908
6.309389006662629,0.0412391489982605,-0.30845297498703,-0.333782364749908
6.309994700181708,0.20649549665451,-0.10966635389328,-0.5589142006874079
6.310600393700787,0.22086561384201,-0.08571615858078001,-0.305042130374908
6.311206087219866,0.15380506696701,-0.10248129529953,-0.139785782718658
6.311811780738946,0.26876600446701004,0.000504544544219973,-0.149365860843658
6.312417474258025,0.0891395396232605,-0.18391195936203,-0.29067201318740804
6.3130231677771045,0.32385145368576,-0.03781576795578,-0.611604630374908
6.313628861296183,0.35738172712326,-0.04500082654953,-0.45113832178115804
6.314234554815263,0.18733534040451,-0.16475180311203,-0.0870953530311584
6.314840248334343,0.23284071149826,0.03163979845047,-0.30025209131240804
6.3154459418534215,0.13464491071700999,-0.10248129529953,-0.28827699365615805
6.316051635372501,0.18015028181075998,-0.01147055311203,-0.305042130374908
6.316657328891581,0.0891395396232605,-0.09529623670578001,-0.384077774906158
6.31726302241066,0.20649549665451,-0.21983725233078,-0.161340958499908
6.317868715929739,0.17296522321701,-0.26055258436203,-0.427188126468658
6.318474409448819,0.19691541852951,-0.29168783826828004,-0.46071839990615804
6.319080102967898,0.19212537946701,-0.16714682264327999,-0.46071839990615804
6.3196857964869775,0.0244740122795105,-0.04500082654953,-0.415213028812408
6.320291490006056,0.11548475446701001,-0.02584067029953,-0.30025209131240804
6.320897183525136,0.11308973493576001,-0.15517172498703,-0.30025209131240804
6.321502877044216,0.21607557477951,-0.14798666639327998,-0.163735978031158
6.3221085705632944,0.18973035993575998,-0.17433188123703,-0.345757462406158
6.322714264082373,0.34540662946701,-0.04260580701828,-0.257141739749908
6.323319957601454,0.0005238169670104789,0.21845132188797,-0.386472794437408
6.323925651120533,0.13224989118576,-0.15038168592453,-0.38886781396865805
6.324531344639611,0.40767713727951,-0.10248129529953,-0.36252259912490803
6.325137038158692,-0.0066612416267395206,0.17055093126297002,-0.233191544437408
6.325742731677771,0.18254530134201,-0.12882651014327998,-0.333782364749908
6.32634842519685,0.17775526227951,-0.09529623670578001,-0.28827699365615805
6.326954118715929,-0.0809068470954895,0.05079995470047,-0.218821427249908
6.327559812235009,0.12985487165450998,-0.03781576795578,-0.23079652490615798
6.328165505754088,0.24721082868576,-0.02105063123703,-0.221216446781158
6.3287711992731674,0.19212537946701,0.08193520860672,-0.374497696781158
6.329376892792246,0.37893690290451004,-0.09050619764328001,-0.472693497562408
6.329982586311326,0.41007215681076004,-0.19109701795578,-0.249956681156158
6.330588279830406,0.28792616071701,-0.15756674451827998,-0.187686173343658
6.331193973349484,0.0843495005607605,0.10349038438797,-0.295462052249908
6.331799666868565,0.32385145368576,-0.16475180311203,-0.187686173343658
6.332405360387644,0.24242078962326,-0.01626059217453,-0.07033021631240839
6.333011053906723,0.14901502790451,-0.02584067029953,-0.352942520999908
6.333616747425802,0.26876600446701004,-0.14319662733077998,-0.46790345849990805
6.334222440944882,0.050819227123260494,0.060380032825470005,-0.345757462406158
6.334828134463961,0.13224989118576,-0.033025728893279996,0.114086287593842
6.3354338279830404,0.10111463727951,-0.08092611951828,-0.209241349124908
6.336039521502119,-0.037796495532989506,-0.15038168592453,-0.5205938881874079
6.336645215021199,0.13464491071700999,-0.15996176404953,-0.0607501381874084
6.337250908540279,0.24481580915450998,0.06277505235672,-0.283486954593658
6.337856602059357,0.17057020368575998,0.036429837512970006,-0.245166642093658
6.338462295578436,-0.0282164174079895,-0.16235678358077998,-0.317017228031158
6.339067989097517,0.10590467634201,-0.04979086561203,-0.357732560062408
6.339673682616596,0.40049207868576003,0.03163979845047,-0.305042130374908
6.340279376135674,0.17775526227951,0.01008462266922,-0.27151185693740804
6.340885069654755,0.31906141462326004,-0.13361654920577998,-0.204451310062408
6.341490763173834,0.22326063337326,-0.08092611951828,-0.173316056156158
6.3420964566929126,0.31187635602951,-0.24139242811203,-0.465508438968658
6.342702150211992,0.18254530134201,-0.11924643201828,-0.357732560062408
6.343307843731072,0.18973035993575998,-0.13361654920577998,-0.249956681156158
6.343913537250151,0.25439588727951,-0.14798666639327998,-0.242771622562408
6.34451923076923,0.18733534040451,-0.00428549451828003,-0.202056290531158
6.345124924288309,0.11787977399826001,0.20408120470047,-0.45832338037490805
6.345730617807389,0.19931043806076,0.02924477891922,-0.31941224756240805
6.346336311326469,0.37414686384201,-0.11206137342453,-0.49185365381240803
6.346942004845547,0.0172889536857605,-0.04979086561203,-0.0894903725624084
6.347547698364626,0.21368055524826,-0.04739584608078,-0.0918853920936584
6.348153391883707,0.22805067243576,-0.08332113904953001,-0.42958314599990804
6.3487590854027856,0.0939295786857605,-0.10248129529953,-0.132600724124908
6.349364778921865,0.25200086774825997,0.16097085313797002,-0.245166642093658
6.349970472440945,0.35019666852951004,-0.20067709608078,-0.33857240381240805
6.350576165960024,0.23763075056076,-0.10487631483078,-0.41042298974990804
6.351181859479103,0.11787977399826001,-0.035420748424529996,-0.314622208499908
6.351787552998182,0.0292640513420105,-0.09290121717453001,-0.37928773584365805
6.352393246517262,0.24002577009200998,-0.09769125623703,-0.30264711084365803
6.352998940036342,0.16338514509201,-0.15038168592453,-0.30983216943740804
6.35360463355542,-0.0114512806892395,-0.21744223279952998,-0.506223770999908
6.354210327074499,0.22326063337326,-0.35395834608078003,-0.563704239749908
6.35481602059358,0.29032118024826004,-0.02344565076828,-0.403237931156158
6.3554217141126585,0.27834608259201005,-0.03063070936203,-0.33138734521865804
6.356027407631737,0.0939295786857605,0.01008462266922,-0.28827699365615805
6.356633101150818,-0.033006456470489505,-0.07613608045578,-0.352942520999908
6.357238794669897,-0.04019151506423951,-0.09769125623703,-0.42239808740615803
6.3578444881889755,-0.0234263783454895,-0.08332113904953001,-0.317017228031158
6.358450181708055,0.16099012556076,-0.10487631483078,-0.355337540531158
6.359055875227135,0.23044569196700998,-0.09050619764328001,-0.43197816553115803
6.359661568746214,0.28553114118576,-0.44017904920578,-0.434373185062408
6.360267262265293,0.13224989118576,-0.11206137342453,-0.5804693764686579
6.360872955784372,0.21128553571701,-0.02823568983078,-0.34815248193740805
6.361478649303452,0.15859510602951,-0.16235678358077998,-0.211636368656158
6.3620843428225315,0.0029188364982604804,-0.16235678358077998,-0.202056290531158
6.36269003634161,-0.0162413197517395,-0.14080160779953,-0.386472794437408
6.36329572986069,0.23523573102950998,0.01487466173172,-0.5996295327186579
6.36390142337977,0.35977674665451004,-0.23899740858078,0.12845640478134202
6.3645071168988485,0.27595106306076,-0.16954184217453,0.176356795406342
6.365112810417928,0.0699793833732605,-0.12643149061203002,-0.317017228031158
6.365718503937008,0.0723744029045105,-0.17672690076828,-0.455928360843658
6.366324197456087,0.31187635602951,-0.25576254529952996,-0.35054750146865804
6.366929890975166,0.35498670759201,-0.13361654920577998,-0.37928773584365805
6.367535584494245,0.32385145368576,-0.15996176404953,-0.29067201318740804
6.368141278013325,0.16099012556076,-0.24378744764328,-0.214031388187408
6.3687469715324045,0.0460291880607605,0.04121987657547,-0.424793106937408
6.369352665051483,0.22805067243576,0.08433022813796999,-0.113440567874908
6.369958358570562,0.29750623884201,0.055589993762970004,-0.199661270999908
6.370564052089643,0.055609266185760495,-0.15038168592453,-0.47987855615615804
6.3711697456087215,0.24242078962326,-0.21744223279952998,-0.245166642093658
6.3717754391278,0.24002577009200998,0.06517007188797,-0.247561661624908
6.372381132646881,0.33343153181076,0.06756509141922,-0.336177384281158
6.37298682616596,0.27116102399826003,-0.20546713514328,-0.31941224756240805
6.3735925196850385,-0.04019151506423951,0.04840493516922,-0.477483536624908
6.374198213204118,0.18254530134201,0.18252602891922,-0.34815248193740805
6.374803906723198,0.27116102399826003,0.09151528673171999,-0.37928773584365805
6.375409600242277,0.32624647321701,-0.061765963268279996,-0.336177384281158
6.376015293761356,0.22086561384201,-0.22941733045578,-0.264326798343658
6.376620987280436,0.0292640513420105,-0.11685141248703,-0.44874330224990805
6.377226680799515,0.12506483259201,-0.11445639295578,-0.40084291162490804
6.3778323743185945,0.20889051618576,-0.08092611951828,-0.355337540531158
6.378438067837673,0.21847059431076,-0.04739584608078,-0.34096742334365804
6.379043761356753,0.27834608259201005,-0.09529623670578001,-0.293067032718658
6.379649454875833,-0.056956651782989504,-0.04021078748703,-0.223611466312408
6.3802551483949115,0.16099012556076,-0.15517172498703,-0.27151185693740804
6.380860841913991,0.17057020368575998,-0.14319662733077998,-0.285881974124908
6.381466535433071,0.21128553571701,-0.18630697889328,-0.23079652490615798
6.38207222895215,0.27355604352951,-0.14798666639327998,-0.494248673343658
6.382677922471229,0.31187635602951,0.02924477891922,-0.36012757959365804
6.383283615990308,0.36696180524826,0.02445473985672,-0.0799102944374084
6.383889309509388,0.11069471540451001,-0.16475180311203,-0.314622208499908
6.3844950030284675,0.12745985212326,-0.07134604139328,-0.31222718896865803
6.385100696547546,0.11548475446701001,-0.033025728893279996,-0.427188126468658
6.385706390066625,0.20170545759201,-0.17433188123703,-0.211636368656158
6.386312083585706,0.0292640513420105,-0.02105063123703,-0.0104547280311584
6.3869177771047845,0.20410047712326,-0.24857748670577998,-0.37210267724990803
6.387523470623863,0.24481580915450998,-0.38748861951828,-0.44155824365615803
6.388129164142944,0.22805067243576,-0.29168783826828004,-0.5205938881874079
6.388734857662023,0.21607557477951,-0.17672690076828,-0.49903871240615805
6.3893405511811014,0.29271619977951,-0.09769125623703,-0.46790345849990805
6.389946244700182,0.40049207868576003,0.13223061876297001,-0.276301895999908
6.390551938219261,0.24960584821700998,0.01008462266922,-0.305042130374908
6.39115763173834,0.12266981306076001,-0.16954184217453,-0.295462052249908
6.391763325257419,0.32145643415451003,-0.09050619764328001,-0.266721817874908
6.392369018776499,0.16338514509201,-0.16714682264327999,-0.242771622562408
6.392974712295578,0.22805067243576,-0.10487631483078,-0.32899232568740805
6.3935804058146575,0.18494032087325998,0.06756509141922,-0.45113832178115804
6.394186099333736,0.16817518415451,-0.12882651014327998,0.185936873531342
6.394791792852816,0.31666639509201,0.07475015001297,-0.26911683740615805
6.395397486371896,0.055609266185760495,0.08433022813796999,-0.297857071781158
6.396003179890974,0.0723744029045105,-0.24139242811203,-0.242771622562408
6.396608873410054,0.12985487165450998,0.06996011095047,-0.609209610843658
6.397214566929134,0.058004285717010495,-0.10727133436203,0.0326556235313416
6.397820260448213,0.0388441294670105,-0.33719320936203,-0.199661270999908
6.398425953967292,0.22086561384201,-0.29408285779953003,-0.412818009281158
6.399031647486372,0.050819227123260494,-0.04021078748703,-0.403237931156158
6.399637341005451,0.0987196177482605,-0.08811117811203001,-0.386472794437408
6.4002430345245305,0.19212537946701,-0.09050619764328001,-0.26193177881240803
6.400848728043609,0.45797254743576005,0.00289956407546997,-0.0535650795936584
6.401454421562689,0.0364491099357605,-0.035420748424529996,-0.151760880374908
6.402060115081769,-0.04019151506423951,-0.15756674451827998,-0.367312638187408
6.402665808600847,0.37893690290451004,-0.28929281873703,-0.254746720218658
6.403271502119926,-0.0210313588142395,0.02684975938797,-0.534964005374908
6.403877195639007,0.29511121931076,0.09151528673171999,-0.446348282718658
6.404482889158086,0.24960584821700998,-0.15756674451827998,-0.293067032718658
6.405088582677164,0.18973035993575998,-0.13361654920577998,-0.305042130374908
6.405694276196245,0.24481580915450998,-0.09290121717453001,-0.26193177881240803
6.406299969715324,0.21847059431076,-0.28929281873703,-0.257141739749908
6.406905663234403,0.21128553571701,-0.22462729139328,-0.384077774906158
6.407511356753482,0.19212537946701,0.00289956407546997,-0.355337540531158
6.408117050272562,0.25200086774825997,-0.02584067029953,-0.226006485843658
6.408722743791641,0.24721082868576,-0.09769125623703,-0.393657853031158
6.40932843731072,0.28313612165451,-0.14080160779953,-0.45113832178115804
6.409934130829799,0.16817518415451,-0.14559164686203,-0.28827699365615805
6.410539824348879,0.053214246654510494,-0.19828207654952998,-0.197266251468658
6.411145517867959,0.16578016462325998,-0.25336752576828,-0.530173966312408
6.411751211387037,0.20170545759201,0.12504556016922,-0.45113832178115804
6.412356904906118,0.0747694224357605,-0.0066805140495300305,-0.163735978031158
6.412962598425197,0.13943494977951,-0.16714682264327999,-0.199661270999908
6.413568291944276,0.23284071149826,-0.09290121717453001,-0.245166642093658
6.414173985463355,0.20410047712326,-0.18630697889328,-0.214031388187408
6.414779678982435,0.21128553571701,-0.20067709608078,-0.31222718896865803
6.415385372501514,0.26158094587326003,-0.056975924205779994,-0.506223770999908
6.415991066020593,0.20410047712326,-0.03063070936203,-0.34096742334365804
6.416596759539672,0.34540662946701,-0.21744223279952998,-0.23558656396865799
6.417202453058752,0.15859510602951,-0.14798666639327998,-0.42000306787490804
6.417808146577832,0.10590467634201,-0.22941733045578,-0.352942520999908
6.41841384009691,0.31427137556076,-0.18391195936203,-0.285881974124908
6.419019533615989,0.13703993024826,0.055589993762970004,-0.532568985843658
6.41962522713507,0.25679090681076,0.00529458360671997,-0.48945863428115804
6.420230920654149,0.26637098493576,-0.11924643201828,-0.237981583499908
6.420836614173227,0.14422498884201,-0.01147055311203,-0.228401505374908
6.421442307692308,0.27355604352951,-0.03781576795578,-0.233191544437408
6.422048001211387,0.26637098493576,0.060380032825470005,-0.276301895999908
6.4226536947304655,0.37414686384201,-0.22223227186202998,-0.36012757959365804
6.423259388249545,0.41486219587326,-0.21265219373702998,-0.314622208499908
6.423865081768625,0.24960584821700998,-0.00428549451828003,0.195516951656342
6.424470775287704,0.15620008649826,-0.06655600233078,-0.26193177881240803
6.425076468806783,0.32385145368576,-0.20546713514328,-0.345757462406158
6.425682162325862,0.37175184431076,-0.10008627576828,-0.166130997562408
6.426287855844942,0.33822157087326005,0.01008462266922,-0.39126283349990804
6.426893549364022,0.43881239118576004,-0.02823568983078,-0.35054750146865804
6.4274992428831,0.29032118024826004,-0.04979086561203,-0.30025209131240804
6.428104936402179,0.12985487165450998,-0.27492270154953,-0.27869691553115805
6.42871062992126,0.14901502790451,0.01487466173172,-0.44874330224990805
6.4293163234403385,0.0891395396232605,-0.10248129529953,-0.221216446781158
6.429922016959418,0.20649549665451,-0.02105063123703,-0.30983216943740804
6.430527710478498,0.13943494977951,-0.04260580701828,-0.293067032718658
6.431133403997577,0.27834608259201005,-0.08571615858078001,-0.293067032718658
6.431739097516656,0.30708631696701,0.19210610704422001,-0.202056290531158
6.432344791035735,0.10350965681076,-0.13361654920577998,-0.39844789209365805
6.432950484554815,0.27834608259201005,-0.02584067029953,-0.23079652490615798
6.433556178073895,0.24960584821700998,-0.07613608045578,-0.07512025537490839
6.434161871592973,0.13224989118576,-0.07613608045578,-0.465508438968658
6.434767565112052,0.23763075056076,-0.054580904674529994,-0.46071839990615804
6.435373258631133,0.19931043806076,0.012479642200469999,-0.192476212406158
6.4359789521502115,0.18015028181075998,-0.054580904674529994,-0.317017228031158
6.43658464566929,0.31906141462326004,-0.07853109998703,-0.40084291162490804
6.437190339188371,-0.061746690845489505,0.08433022813796999,-0.33138734521865804
6.43779603270745,0.24242078962326,-0.10487631483078,-0.28827699365615805
6.4384017262265285,0.44599744977951,0.02445473985672,-0.352942520999908
6.439007419745608,0.26158094587326003,0.01487466173172,-0.455928360843658
6.439613113264688,0.24960584821700998,-0.19588705701828,-0.192476212406158
6.440218806783767,0.24721082868576,-0.05218588514327999,-0.496643692874908
6.440824500302846,0.30708631696701,0.07954018907547,-0.48227357568740803
6.441430193821925,0.20889051618576,-0.22702231092452999,-0.357732560062408
6.442035887341005,0.24242078962326,-0.12164145154953,-0.40802797021865805
6.4426415808600845,0.29990125837326004,0.04600991563797,-0.283486954593658
6.443247274379163,0.16817518415451,-0.13361654920577998,-0.412818009281158
6.443852967898244,0.15380506696701,-0.28450277967453,-0.187686173343658
6.444458661417323,0.29990125837326004,-0.15996176404953,-0.443953263187408
6.4450643549364015,-0.0833018666267395,-0.15277670545577998,-0.26911683740615805
6.445670048455481,0.053214246654510494,-0.12403647108078,-0.127810685062408
6.446275741974561,0.42683729352951,0.10588540391922,-0.0894903725624084
6.44688143549364,0.18494032087325998,0.06277505235672,-0.137390763187408
6.447487129012719,-0.037796495532989506,-0.22702231092452999,-0.307437149906158
6.448092822531798,0.055609266185760495,-0.13361654920577998,-0.417608048343658
6.448698516050878,0.050819227123260494,-0.03781576795578,-0.412818009281158
6.4493042095699575,0.0651893443107605,-0.033025728893279996,-0.405632950687408
6.449909903089036,0.29511121931076,0.03163979845047,-0.43197816553115803
6.450515596608115,0.28792616071701,-0.10248129529953,-0.436768204593658
6.451121290127196,0.15620008649826,-0.09050619764328001,-0.31941224756240805
6.4517269836462745,0.00531385602951048,-0.09769125623703,-0.240376603031158
6.452332677165353,0.26637098493576,-0.06895102186203,-0.42958314599990804
6.452938370684434,0.0891395396232605,-0.11206137342453,-0.731355606937408
6.453544064203513,0.0843495005607605,-0.11685141248703,-0.573284317874908
6.4541497577225915,0.28074110212326003,0.22563638048172002,0.200306990718842
6.454755451241671,0.15859510602951,0.17294595079422,0.262577498531342
6.455361144760751,0.25439588727951,0.02924477891922,-0.30983216943740804
6.45596683827983,0.29032118024826004,-0.07613608045578,-0.384077774906158
6.456572531798909,0.17296522321701,-0.09529623670578001,-0.40084291162490804
6.457178225317989,0.19691541852951,-0.16235678358077998,-0.647529923343658
6.457783918837068,0.20410047712326,-0.18630697889328,-0.37928773584365805
6.4583896123561475,0.0843495005607605,0.012479642200469999,-0.5397540444374079
6.458995305875226,0.20170545759201,-0.02105063123703,-0.158945938968658
6.459600999394306,0.25918592634201004,-0.19109701795578,-0.158945938968658
6.460206692913386,0.20649549665451,-0.09769125623703,-0.317017228031158
6.4608123864324645,0.11787977399826001,-0.01386557264328,-0.185291153812408
6.461418079951544,0.11069471540451001,-0.09290121717453001,-0.264326798343658
6.462023773470624,0.10350965681076,-0.15277670545577998,-0.336177384281158
6.462629466989703,0.15380506696701,-0.02105063123703,-0.522988907718658
6.463235160508782,0.23284071149826,0.04600991563797,-0.295462052249908
6.463840854027861,0.15620008649826,-0.10248129529953,-0.226006485843658
6.464446547546941,0.23044569196700998,-0.09290121717453001,-0.35054750146865804
6.4650522410660205,0.31666639509201,-0.19109701795578,-0.276301895999908
6.465657934585099,0.27116102399826003,-0.16714682264327999,-0.36012757959365804
6.466263628104179,0.38133192243576003,-0.056975924205779994,-0.326597306156158
6.466869321623259,0.24960584821700998,-0.14559164686203,-0.237981583499908
6.4674750151423375,0.28313612165451,-0.30126791639328004,-0.209241349124908
6.468080708661416,0.27116102399826003,-0.08092611951828,-0.42000306787490804
6.468686402180497,0.14182996931076,0.007689603137969969,-0.276301895999908
6.469292095699576,0.33343153181076,-0.26773764295578,-0.216426407718658
6.469897789218654,0.18973035993575998,-0.09050619764328001,-0.34815248193740805
6.470503482737735,0.24242078962326,-0.13122152967453,-0.156550919437408
6.471109176256814,0.37893690290451004,-0.059370943737029995,-0.182896134281158
6.471714869775893,0.24002577009200998,-0.04021078748703,-0.142180802249908
6.472320563294972,-0.0210313588142395,-0.07613608045578,-0.237981583499908
6.472926256814052,0.12266981306076001,-0.06416098279953,-0.297857071781158
6.473531950333131,0.32385145368576,-0.19588705701828,-0.427188126468658
6.4741376438522105,0.16578016462325998,-0.14080160779953,-0.630764786624908
6.474743337371289,0.32864149274826004,-0.09769125623703,-0.47987855615615804
6.475349030890369,0.22805067243576,0.055589993762970004,-0.403237931156158
6.475954724409449,0.24960584821700998,-0.18630697889328,-0.264326798343658
6.476560417928527,0.22565565290450998,0.06756509141922,-0.31222718896865803
6.477166111447606,0.19691541852951,0.06517007188797,-0.30264711084365803
6.477771804966687,0.20410047712326,-0.14798666639327998,-0.28827699365615805
6.478377498485766,0.33582655134201,-0.16235678358077998,-0.218821427249908
6.478983192004845,0.37175184431076,0.05319497423172,-0.355337540531158
6.479588885523925,0.29032118024826004,0.18971108751297,-0.633159806156158
6.480194579043004,0.11787977399826001,-0.01865561170578,-0.376892716312408
6.4808002725620835,0.11069471540451001,0.16815591173172,-0.336177384281158
6.481405966081162,0.12745985212326,-0.04979086561203,-0.285881974124908
6.482011659600242,0.28553114118576,-0.07134604139328,-0.333782364749908
6.482617353119322,0.35019666852951004,-0.07853109998703,-0.31222718896865803
6.4832230466384,0.19212537946701,-0.21983725233078,-0.043985001468658406
6.483828740157479,0.32145643415451003,-0.20307211561202998,-0.563704239749908
6.48443443367656,0.46276258649826,-0.056975924205779994,-0.187686173343658
6.485040127195639,0.41246717634201,-0.00907553358078003,0.324848006343842
6.485645820714717,0.38851698102951004,-0.13122152967453,-0.137390763187408
6.486251514233798,0.58730360212326,-0.21983725233078,-0.0607501381874084
6.486857207752877,0.32624647321701,0.000504544544219973,-0.46071839990615804
6.487462901271956,0.34301160993576,0.000504544544219973,-0.415213028812408
6.488068594791035,0.38851698102951004,-0.01147055311203,-0.403237931156158
6.488674288310115,0.40528211774826,-0.10727133436203,-0.343362442874908
6.489279981829194,0.68070936384201,-0.10008627576828,-0.0894903725624084
6.489885675348273,0.44599744977951,0.15618081407547002,-0.453533341312408
6.490491368867352,0.36456678571701,-0.17672690076828,-0.297857071781158
6.491097062386432,0.44360243024826,-0.08571615858078001,-0.30264711084365803
6.491702755905512,0.41246717634201,-0.16954184217453,-0.434373185062408
6.49230844942459,0.22805067243576,-0.19349203748702998,-0.355337540531158
6.492914142943671,0.11308973493576001,-0.17672690076828,-0.237981583499908
6.49351983646275,0.34061659040451003,-0.18870199842452998,-0.34096742334365804
6.494125529981829,0.33582655134201,-0.14559164686203,-0.496643692874908
6.494731223500908,0.25679090681076,0.05319497423172,-0.324202286624908
6.495336917019988,0.46036756696701003,-0.059370943737029995,-0.36252259912490803
6.495942610539067,0.33343153181076,-0.17672690076828,-0.0870953530311584
6.496548304058146,-0.00426622209548952,0.04840493516922,-0.48945863428115804
6.497153997577225,0.18015028181075998,-0.19588705701828,-0.32899232568740805
6.497759691096305,0.12506483259201,0.03882485704422,-0.314622208499908
6.498365384615385,0.26397596540451,0.07235513048172,-0.551729142093658
6.498971078134463,0.15620008649826,0.03882485704422,-0.242771622562408
6.499576771653542,0.11787977399826001,-0.01626059217453,-0.293067032718658
6.500182465172623,0.36217176618576,-0.02344565076828,-0.25953675928115805
6.500788158691702,0.32145643415451003,-0.13361654920577998,-0.484668595218658
6.50139385221078,0.16578016462325998,0.07714516954422,-0.42239808740615803
6.501999545729861,0.31666639509201,-0.06655600233078,-0.192476212406158
6.50260523924894,0.54658827009201,-0.19588705701828,-0.305042130374908
6.5032109327680185,0.24242078962326,0.12025552110672,-0.6020245522499079
6.503816626287098,0.56095838727951,-0.08332113904953001,-0.41042298974990804
6.504422319806178,0.42444227399826,-0.06895102186203,-0.34815248193740805
6.505028013325257,0.43641737165451,-0.09050619764328001,-0.37928773584365805
6.505633706844336,0.71184461774826,-0.20067709608078,-0.393657853031158
6.506239400363415,0.69507948102951,-0.20546713514328,-0.5421490639686579
6.506845093882495,0.74058485212326,0.04840493516922,-0.326597306156158
6.507450787401575,0.55137830915451,0.01008462266922,-0.563704239749908
6.508056480920653,0.68070936384201,-0.20067709608078,-0.324202286624908
6.508662174439732,0.81004041852951,-0.07853109998703,-0.566099259281158
6.509267867958813,0.76693006696701,-0.061765963268279996,-0.625974747562408
6.5098735614778915,0.66873426618576,-0.18630697889328,-0.393657853031158
6.510479254996971,0.75974500837326,-0.10248129529953,-0.6187896889686579
6.511084948516051,0.70944959821701,-0.17193686170578,-0.352942520999908
6.51169064203513,0.73100477399826,-0.07613608045578,-0.33138734521865804
6.512296335554209,0.95613660993576,-0.0066805140495300305,-0.27869691553115805
6.512902029073288,0.91781629743576,-0.07613608045578,-0.776860978031158
6.513507722592368,0.85315077009201,-0.04021078748703,-0.551729142093658
6.514113416111448,0.74776991071701,0.000504544544219973,-0.705010392093658
6.514719109630526,0.87710096540451,-0.08092611951828,-0.915772110843658
6.515324803149605,0.71184461774826,-0.12643149061203002,-0.355337540531158
6.515930496668686,0.84596571149826,-0.07374106092453,-0.544544083499908
6.5165361901877645,0.71902967634201,-0.28210776014328004,-0.5613092202186579
6.517141883706843,0.44120741071701003,-0.11685141248703,-0.822366349124908
6.517747577225924,0.60646375837326,-0.035420748424529996,-0.42958314599990804
6.518353270745003,0.42444227399826,-0.29408285779953003,-0.233191544437408
6.5189589642640815,0.52742811384201,-0.17433188123703,-0.44874330224990805
6.519564657783161,0.6423890513420101,0.09391030626296999,-0.31222718896865803
6.520170351302241,0.34780164899826,-0.11206137342453,-0.314622208499908
6.52077604482132,0.21607557477951,-0.18630697889328,-0.199661270999908
6.521381738340399,0.46515760602951,-0.10248129529953,-0.5804693764686579
6.521987431859479,0.29511121931076,-0.10248129529953,-0.30025209131240804
6.522593125378558,0.22805067243576,0.13702065782547002,-0.254746720218658
6.5231988188976375,0.31906141462326004,-0.02584067029953,-0.544544083499908
6.523804512416716,0.18733534040451,-0.10727133436203,-0.36012757959365804
6.524410205935796,0.060399305248260496,-0.06416098279953,-0.27151185693740804
6.525015899454876,0.058004285717010495,-0.10727133436203,-0.285881974124908
6.5256215929739545,0.060399305248260496,-0.20307211561202998,-0.30025209131240804
6.526227286493034,-0.12401719865798999,-0.15996176404953,-0.515803849124908
6.526832980012114,0.058004285717010495,-0.18870199842452998,-0.45832338037490805
6.527438673531193,0.30948133649826004,-0.033025728893279996,-0.384077774906158
6.528044367050272,-0.10006700334549,-0.11685141248703,-0.345757462406158
6.528650060569351,-0.20784288225174,-0.25336752576828,-0.190081192874908
6.529255754088431,-0.0114512806892395,-0.07853109998703,-0.384077774906158
6.5298614476075105,0.0268690318107605,-0.08332113904953001,-0.252351700687408
6.530467141126589,-0.009056261157989519,-0.035420748424529996,-0.443953263187408
6.531072834645668,0.058004285717010495,-0.056975924205779994,-0.202056290531158
6.531678528164749,0.20649549665451,-0.13361654920577998,-0.130205704593658
6.5322842216838275,0.17536024274825998,-0.07134604139328,-0.34815248193740805
6.532889915202906,-0.0904869252204895,-0.13601156873703,-0.187686173343658
6.533495608721987,0.0101038950920105,-0.11445639295578,-0.228401505374908
6.534101302241066,0.14901502790451,-0.27492270154953,-0.29067201318740804
6.5347069957601445,0.16817518415451,-0.21025717420578,-0.384077774906158
6.535312689279225,0.13224989118576,0.00529458360671997,-0.30983216943740804
6.535918382798304,0.18973035993575998,-0.09529623670578001,-0.180501114749908
6.536524076317383,0.45797254743576005,-0.04979086561203,-0.29067201318740804
6.537129769836462,0.25439588727951,-0.059370943737029995,-0.34096742334365804
6.537735463355542,0.15380506696701,0.09391030626296999,-0.34096742334365804
6.538341156874621,0.25679090681076,0.02445473985672,-0.249956681156158
6.5389468503937005,0.40288709821701,-0.09769125623703,-0.233191544437408
6.539552543912779,0.21368055524826,-0.11445639295578,-0.245166642093658
6.540158237431859,0.21607557477951,-0.15996176404953,-0.33857240381240805
6.540763930950939,0.5657484263420101,-0.18630697889328,-0.149365860843658
6.5413696244700175,0.45557752790451,0.10349038438797,-0.37928773584365805
6.541975317989097,0.21368055524826,-0.11685141248703,-0.245166642093658
6.542581011508177,0.36456678571701,0.07714516954422,-0.134995743656158
6.543186705027256,0.37414686384201,0.036429837512970006,-0.27869691553115805
6.543792398546335,0.21847059431076,-0.20786215467452998,-0.38168275537490803
6.544398092065414,0.43881239118576004,0.00289956407546997,0.252997420406342
6.545003785584494,0.24481580915450998,0.04121987657547,0.621830428218842
6.5456094791035735,0.25200086774825997,0.02684975938797,-0.374497696781158
6.546215172622652,0.35019666852951004,-0.24857748670577998,-0.125415665531158
6.546820866141732,0.38612196149826,-0.04979086561203,-0.317017228031158
6.547426559660812,0.31666639509201,-0.12643149061203002,-0.333782364749908
6.5480322531798905,0.11308973493576001,-0.16475180311203,-0.106255509281158
6.548637946698969,0.11308973493576001,0.16576089220047002,-0.249956681156158
6.54924364021805,0.14662000837326,-0.21744223279952998,-0.0966754311561584
6.549849333737129,0.0675843638420105,-0.02344565076828,-0.6187896889686579
6.550455027256207,0.00770887556076048,0.28790688829422,-0.254746720218658
6.551060720775288,0.49150282087326,-0.48089438123703004,0.231442244625092
6.551666414294367,0.20889051618576,0.26635171251296996,-0.47987855615615804
6.552272107813446,0.0939295786857605,-0.08092611951828,-0.37928773584365805
6.552877801332525,0.34301160993576,-0.25097250623703,0.0709759360313416
6.553483494851605,0.45797254743576005,0.26156167345047,-0.688245255374908
6.554089188370684,0.0939295786857605,-0.14319662733077998,-0.252351700687408
6.5546948818897635,-0.27490342912674,-0.71800131483078,0.0182855063438416
6.555300575408842,0.77411512556076,0.29509194688796997,-1.01157289209366
6.555906268927922,0.19931043806076,0.42202798204422,-0.190081192874908
6.556511962447002,-0.5934410267829899,-0.94552817029953,-0.566099259281158
6.55711765596608,0.62801893415451,0.46992837266922,-0.0272198647499084
6.557723349485159,0.54898328962326,-0.18630697889328,-0.237981583499908
6.55832904300424,-0.62936631975174,-0.11445639295578,-1.00917787256241
6.558934736523319,-0.056956651782989504,-0.97666342420578,0.193121932125092
6.559540430042398,0.5226380747795101,1.00162270860672,-0.690640274906158
6.560146123561478,0.49389784040451,0.59686440782547,-1.3085553139686599
6.560751817080557,-0.71558702287674,-1.32394125623703,0.38711851415634196
6.5613575105996365,0.12985487165450998,0.7046402867317201,-0.764885880374908
6.561963204118715,1.49262098493576,-0.06416098279953,-0.6595050209999079
6.562568897637795,-0.59583604631424,0.75254067735672,-0.123020645999908
6.563174591156875,0.0939295786857605,-1.58978842420578,-0.33138734521865804
6.563780284675953,0.66154920759201,1.2698648961067198,-0.357732560062408
6.564385978195032,0.5034779185295101,-0.47131430311203004,-0.36252259912490803
6.564991671714113,-0.84731309709549,-0.47370932264328003,-0.27151185693740804
6.565597365233192,-0.15754747209549,0.7046402867317201,-1.10976869287491
6.56620305875227,1.71056776227951,-0.36832846326828,-0.032009903812408404
6.566808752271351,0.0196839732170105,0.36215249376297,-0.211636368656158
6.56741444579043,-0.33717393693923997,-2.2508138148307797,-0.934932267093658
6.568020139309509,0.0771644419670105,2.38833901720047,-0.793626114749908
6.568625832828588,1.51657118024826,-1.10599447889328,0.41825376806259196
6.569231526347668,-0.36351915178299,1.60995766954422,-1.39717103662491
6.569837219866747,-0.8521031361579899,-1.78618002576828,-0.352942520999908
6.570442913385826,1.5189661997795099,-0.40664877576828,0.121271346187592
6.571048606904905,0.98008680524826,2.2326627476692202,-1.0474981850624099
6.571654300423985,-1.81969102678299,-2.18614828748703,-1.1217437905311598
6.572259993943065,0.67352430524826,0.34059731798172,0.652965682125092
6.572865687462143,2.1129310435295103,-0.04260580701828,-0.6786651772499079
6.573471380981224,-0.52877549943924,1.18124917345047,-1.0474981850624099
6.574077074500303,-1.42211778459549,-3.59920981092453,0.185936873531342
6.574682768019382,1.3058094614982598,2.99906899766922,-1.01396791162491
6.575288461538461,2.20633680524826,0.97048745470047,-0.47987855615615804
6.575894155057541,-3.22556749162674,-2.47115561170578,-0.6379498452186579
6.57649984857662,0.74058485212326,0.25198159532547,-0.17092103662490798
6.577105542095699,2.9775330943107603,1.27465493516922,-0.5804693764686579
6.577711235614778,-1.69994005022049,0.71661538438797,-0.26911683740615805
6.578316929133858,-0.63894639787674,-3.38605307264328,0.344008162593842
6.578922622652938,0.7022645396232601,3.1810904820442203,-0.534964005374908
6.579528316172016,2.00276014509201,-1.92748617811203,0.006310408687591641
6.580134009691095,-2.0687730580329897,0.48190347032547,-0.293067032718658
6.580739703210176,-0.82815294084549,-0.7132112757682799,-2.1539972084999097
6.581345396729255,2.8745472544670103,0.32383218126297,0.26976255712509195
6.581951090248333,0.36696180524826,1.74647378282547,-0.113440567874908
6.582556783767414,-1.0508897572517402,-4.09737387342453,-0.9780426186561579
6.583162477286493,-0.40662950334549,3.34874184923172,-0.5589142006874079
6.5837681708055715,3.2673304575920104,-0.60304037733078,-0.0990704506874084
6.584373864324651,-2.03045274553299,0.9633023961067201,-0.716985489749908
6.584979557843731,-2.23402940568924,-3.29264731092453,-0.963672501468658
6.58558525136281,3.3032557505607603,2.30211831407547,0.0374456625938416
6.586190944881889,1.49980604352951,1.16927407579422,0.145221541500092
6.586796638400968,-3.86982774553299,-2.32505942029953,-1.2798150795936598
6.587402331920048,0.91781629743576,0.9465372593879701,-0.728960587406158
6.588008025439128,3.37271131696701,-0.49526449842453,-1.0474981850624099
6.588613718958206,-0.40423448381424,3.11881997423172,-1.05468324365616
6.589219412477286,-2.69147813615799,-5.27811850233078,0.32724302587509196
6.589825105996366,1.4040052622795098,2.99906899766922,-1.3564557045936598
6.5904307995154445,4.19180799665451,1.4447013218879698,-0.5613092202186579
6.591036493034524,-4.56198839006424,-1.55146811170578,-1.82348451318741
6.591642186553604,0.49868787946701004,-2.2771590296745297,2.2169134360313403
6.592247880072683,4.55824598493576,2.82423257188797,-0.204451310062408
6.592853573591762,-0.96945909318924,1.73449868516922,-1.97916078271866
6.593459267110841,-3.7548668080329897,-6.17146078748703,1.87921568212509
6.594064960629921,1.60279188337326,4.60852212266922,-0.676270157718658
6.5946706541490006,4.3762245005607605,0.23521645860672,-1.4426764077186598
6.595276347668079,-4.9044761830329895,-1.61134359998703,1.5606780844688402
6.595882041187158,-1.07962999162674,-1.2712508265495301,-3.23415101709366
6.596487734706239,4.44568006696701,3.22659585313797,-0.8008111733436579
6.5970934282253175,0.41725721540451,-0.36353842420578003,1.9462762290000901
6.597699121744396,-1.9154918080329901,-2.66515219373703,-1.7707940834999099
6.598304815263477,-0.69642686662674,2.5320401890754702,-0.295462052249908
6.598910508782556,3.47809217634201,-1.12275961561203,0.7775066977500921
6.5995162023016345,-2.14780870256424,3.0685245640754704,-0.829551407718658
6.600121895820714,-2.7010582142829898,-4.28418539686203,-0.932537247562408
6.600727589339794,3.3703162974357603,0.92977212266922,1.87921568212509
6.601333282858873,3.67687879743576,1.9572355015754699,-1.1816192788124098
6.601938976377952,-4.82783555803299,-2.3178743617057798,-1.76360902490616
6.602544669897032,-1.08681505022049,-0.96229330701828,-0.434373185062408
6.603150363416111,5.77012586774826,1.9189151890754699,0.241022322750092
6.6037560569351905,-0.49764024553298997,3.6169840367317203,-0.544544083499908
6.604361750454269,-4.80388536272049,-8.03718100233078,1.57025816259384
6.604967443973349,2.56558973493576,3.7295499547004702,-1.3899859780311599
6.605573137492429,5.36297254743576,2.74759194688797,-0.484668595218658
6.6061788310115075,-6.43968370256424,-2.3106893031120297,-1.01875795068741
6.606784524530586,0.0987196177482605,-2.6867073695182797,1.35231138525009
6.607390218049667,4.22533827009201,3.2505460484504702,-0.0128497475624084
6.607995911568746,0.0196839732170105,1.2866300328254698,-1.6462530678749099
6.608601605087825,-4.54043321428299,-4.950000826549529,0.27694761571884197
6.609207298606904,1.1692933482170098,2.70448159532547,-0.927747208499908
6.609812992125984,6.6778382700920105,1.3033951695442199,0.161986678218842
6.6104186856450635,-5.53197130022049,-0.22223227186202998,0.233837264156342
6.611024379164142,-2.82799424943924,-4.43507162733078,-3.55029359521866
6.611630072683221,6.38325086774826,5.11626626329422,-0.144575821781158
6.612235766202302,1.51178114118576,0.87708169298172,0.993058455562592
6.6128414597213805,-4.16441514787674,-4.59314291639328,-0.683455216312408
6.613447153240459,-0.36351915178299,2.02190102891922,0.344008162593842
6.61405284675954,5.17616102399826,0.46753335313797,-0.364917618656158
6.614658540278619,-2.98606553850174,2.23505776720047,-0.233191544437408
6.6152642337976975,-4.22908067522049,-4.30574057264328,-1.3612457436561598
6.615869927316778,4.32832410993576,1.2387296422004699,0.420648787593842
6.616475620835857,3.94751600446701,2.09854165391922,-0.913377091312408
6.617081314354936,-5.51281114397049,-1.98257162733078,-1.0570782631874098
6.617687007874015,-1.4532530385017401,-0.99821859998703,-1.10497865381241
6.618292701393095,6.3257703989982605,2.22547768907547,-0.214031388187408
6.618898394912174,0.6854994029045101,3.32958169298172,-0.424793106937408
6.6195040884312535,-6.27921739397049,-6.94984213514328,-0.101465470218658
6.620109781950332,1.97401991071701,1.69857339220047,-1.48339173974991
6.620715475469413,7.94959364118576,4.19418374376297,1.1918450766563402
6.621321168988492,-8.16409776506424,-0.35156332654953004,-2.9491436928749097
6.6219268625075705,-1.33589708147049,-6.22175619764328,1.77143980321884
6.622532556026649,6.41917616071701,4.39776040391922,0.581115096187592
6.62313824954573,0.66873426618576,3.27928628282547,-2.6928766030311597
6.623743943064809,-6.17862657365799,-6.74387045545578,0.930787947750092
6.624349636583888,0.99445692243576,2.0937516148567203,-0.934932267093658
6.624955330102967,7.51130506696701,2.87452798204422,-0.264326798343658
6.625561023622047,-5.08889268693924,-1.0868343226432802,0.521239607906342
6.6261667171411265,-3.76923692522049,-4.09737387342453,-3.1383502358436597
6.626772410660205,6.0790833872795105,4.22052895860672,-0.9995977944374079
6.627378104179284,3.47569715681076,0.84115640001297,1.5055926352500901
6.627983797698365,-5.15834825334549,-3.77644125623703,-0.434373185062408
6.6285894912174435,-1.5682139760017402,0.7884659703254701,-0.039194962406158405
6.629195184736522,6.7377137583732605,1.71294350938797,-0.827156388187408
6.629800878255603,-2.26995469865799,2.39791909532547,0.506869490718842
6.630406571774682,-5.9822349720954895,-4.38238119764328,-2.55396547021866
6.63101226529376,4.76661268415451,-1.0748592249870301,1.01700865087509
6.631617958812841,5.67672010602951,4.44087075548172,-0.867871720218658
6.63222365233192,-6.14270128068924,-0.92636801404953,-2.50846009912491
6.632829345850999,-2.8136241322517397,-3.86505697889328,1.0433538657188401
6.633435039370078,6.87662489118576,2.9080582554817203,-0.0847003334999084
6.634040732889158,1.28185926618576,3.51160317735672,-0.628369767093658
6.634646426408237,-7.27554551897049,-6.4277278773307795,1.01700865087509
6.6352521199273164,1.5357313364982599,0.59925942735672,-1.3516656655311599
6.635857813446395,8.74953016462326,4.76180337266922,0.0206805258750916
6.636463506965475,-7.34260606584549,-0.33000815076828,-1.83785463037491
6.637069200484555,-2.6938731556892397,-6.31755697889328,0.880492537593842
6.637674894003633,6.5652723521232605,3.9498917515754703,-0.26911683740615805
6.638280587522713,2.6518104380607603,3.18348550157547,-0.446348282718658
6.638886281041793,-7.5389976674079895,-5.39068442029953,-0.178106095218658
6.639491974560872,-0.12162217912673999,0.35736245470046996,-1.4330963295936598
6.64009766807995,8.00946912946701,3.14995522813797,1.10083433446884
6.64070336159903,-4.20513047990799,1.07107827501297,-0.8798468178749079
6.64130905511811,-4.80149034318924,-4.70331381483078,-1.9815558022499098
6.6419147486371894,4.91270887556076,1.50697182970047,0.26736753759384196
6.642520442156268,4.47442030134201,2.79788735704422,0.159591658687592
6.643126135675348,-5.15355821428299,-2.93339438123703,-0.611604630374908
6.643731829194428,-2.90463487443924,-1.74306967420578,-0.616394669437408
6.644337522713506,6.99398084821701,2.58473061876297,-0.443953263187408
6.644943216232585,-0.39704942522048997,2.84578774766922,0.00152036962509164
6.645548909751666,-8.02039659318924,-4.9907161585807795,-2.3336236733436597
6.646154603270745,4.47921034040451,-0.89762777967453,0.708051131343842
6.646760296789823,7.27419813337326,4.8959244664192205,-0.568494278812408
6.647365990308904,-6.20257676897049,-1.01019369764328,-1.58398256006241
6.647971683827983,-3.27346788225174,-3.37647299451828,-1.13132386865616
6.648577377347062,6.88141493024826,1.8638297398567198,-0.424793106937408
6.649183070866141,2.59912000837326,3.77745034532547,0.391908553218842
6.649788764385221,-7.30668077287674,-4.09737387342453,0.109296248531342
6.6503944579043,0.16578016462325998,-1.8316853968620301,-1.6725982827186598
6.651000151423379,8.55313856306076,4.62528725938797,-0.137390763187408
6.651605844942458,-4.73442979631424,0.47232339220047,-0.671480118656158
6.652211538461538,-4.31769639787674,-5.51762045545578,-0.396052872562408
6.652817231980618,5.94975233259201,2.03866616563797,0.32963804540634195
6.653422925499696,4.95342420759201,4.22292397813797,0.231442244625092
6.654028619018776,-7.47193712053299,-4.14048422498703,-0.853501603031158
6.654634312537856,-1.6232994252204902,-2.4400203577995296,-0.793626114749908
6.6552400060569346,9.02974744977951,4.82167886095047,0.32963804540634195
6.655845699576014,-3.4626744252204897,1.09742348985672,0.197911971187592
6.656451393095094,-6.15946641740799,-4.57398276014328,-2.33122865381241
6.657057086614173,5.08275526227951,0.69506020860672,-0.17092103662490798
6.657662780133252,4.79056287946701,3.16911538438797,0.549979842281342
6.658268473652331,-4.35362169084549,-1.44369223279953,-0.9780426186561579
6.658874167171411,-3.4027989369392397,-1.55625815076828,-0.728960587406158
6.659479860690491,6.18206922712326,0.85313149766922,-0.673875138187408
6.660085554209569,1.44472059431076,3.71757485704422,-0.544544083499908
6.660691247728648,-6.94263780412674,-3.4579036585807796,-0.5421490639686579
6.661296941247729,2.10814100446701,-3.28785727186203,-0.305042130374908
6.6619026347668076,7.71248670759201,5.54497475938797,-0.848711563968658
6.662508328285886,-4.35841172990799,-0.71800131483078,-0.07272523584365839
6.663114021804967,-5.74752305803299,-3.71177572889328,-1.75163392724991
6.663719715324046,6.96524061384201,0.54177895860672,0.166776717281342
6.6643254088431245,4.44328504743576,5.98805337266922,1.06251402196884
6.664931102362204,-8.35569932756424,-4.54763754529953,1.0864642172813401
6.665536795881284,-0.64613145647049,-3.13457602186203,-2.20189759912491
6.666142489400363,8.57229871931076,6.100619290637971,-0.26193177881240803
6.666748182919442,-4.20034044084549,-0.21025717420578,-0.293067032718658
6.667353876438522,-4.80628038225174,-4.12371908826828,-1.5696124428749099
6.667959569957601,4.87917860212326,0.6064444859504701,0.35837827978134196
6.6685652634766805,4.35706434431076,4.08880288438797,-0.036799942874908405
6.669170956995759,-4.91405626115799,-2.9525545374870297,-0.434373185062408
6.669776650514839,-3.33813340959549,-2.22925863904953,-1.28221009912491
6.670382344033919,7.69093153181076,2.41707925157547,-0.343362442874908
6.6709880375529975,-0.37788926897048997,2.42665932970047,1.2062151938438401
6.671593731072077,-7.85035020647049,-3.66627035779953,-3.10721498193741
6.672199424591157,4.43130994977951,-1.92269613904953,-1.2798150795936598
6.672805118110236,6.41917616071701,5.03962563829422,0.681705916500092
6.673410811629315,-4.3320665150642395,-1.11796957654953,-0.211636368656158
6.674016505148394,-4.83023057756424,-2.6364119593620297,0.126061385250092
6.674622198667474,5.91143202009201,0.06996011095047,-1.22951966943741
6.6752278921865535,2.5320594614982603,4.929454739856721,-0.0847003334999084
6.675833585705632,-7.04322862443924,-3.09146567029953,-0.0631451577186584
6.676439279224711,0.98966688337326,-3.8770320765495296,-0.990017716312408
6.677044972743792,7.1041517466545105,5.29110268907547,-0.867871720218658
6.6776506662628705,-4.08058946428299,0.18252602891922,-0.669085099124908
6.678256359781949,-4.62665391740799,-3.3716829554557797,-1.26783998193741
6.67886205330103,5.40608289899826,-1.04611899061203,-0.364917618656158
6.679467746820109,4.80972303571701,5.95931313829422,0.40867368993759196
6.6800734403391875,-6.25766221818924,-3.7477010218620297,0.763136580562592
6.680679133858268,-3.09863145647049,-2.7633479945182797,-2.81741761865616
6.681284827377347,9.22374403181076,4.0241373570442205,-0.182896134281158
6.681890520896426,-2.75135362443924,2.11530679063797,-0.190081192874908
6.682496214415505,-5.68764756975174,-3.8842171351432797,-0.623579728031158
6.683101907934585,4.45526014509201,-2.4208602015495297,0.303292830562592
6.683707601453664,5.08275526227951,5.51144448595047,-0.8008111733436579
6.6843132949727435,-4.23147569475174,-1.8484505335807802,-0.592444474124908
6.684918988491822,-3.69978135881424,-1.80294516248703,-0.788836075687408
6.685524682010902,6.51018690290451,0.52022378282547,-0.06793519678115839
6.686130375529982,0.53700819196701,3.35592690782547,0.28892271337509196
6.6867360690490605,-6.46602891740799,-2.70107748670578,-1.74684388818741
6.687341762568139,2.14646131696701,-3.3956331507682798,-1.35885072412491
6.68794745608722,6.75208387556076,4.65881753282547,0.236232283687592
6.688553149606299,-2.8399693470954896,0.01008462266922,-0.36252259912490803
6.689158843125378,-6.02774034318924,-2.3178743617057798,-0.27151185693740804
6.689764536644457,6.02878797712326,-1.58499838514328,-0.726565567874908
6.690370230163537,3.3272059458732604,6.879000638294221,-0.46071839990615804
6.6909759236826165,-6.67200059709549,-3.48903891248703,0.585905135250092
6.691581617201695,-0.5718858510017399,-4.63625326795578,-1.7492389077186599
6.692187310720774,7.60710584821701,4.13191323595047,-0.748120743656158
6.692793004239855,-2.54298692522049,1.87580483751297,-0.07512025537490839
6.6933986977589335,-5.29246934709549,-2.74897787733078,-1.15287904443741
6.694004391278012,4.9151038950920105,-2.71784262342453,-0.7577008217811579
6.694610084797093,4.49358045759201,5.62401040391922,0.902047713375092
6.695215778316172,-5.08649766740799,-2.7729280726432797,0.573930037593842
6.6958214718352504,-3.45309434709549,-1.69277426404953,-1.73965882959366
6.696427165354331,7.90169325056076,0.75254067735672,-0.26911683740615805
6.69703285887341,-0.84012803850174,3.34634682970047,-0.297857071781158
6.697638552392489,-5.66609239397049,-3.11302084608078,-0.774465958499908
6.698244245911568,2.7883265513420104,-3.0028499476432797,-0.7217755288124079
6.698849939430648,6.19164930524826,5.04681069688797,-0.134995743656158
6.699455632949727,-3.41477403459549,-0.66052084608078,-0.197266251468658
6.7000613264688065,-4.9978819447517395,-1.74785971326828,-0.211636368656158
6.700667019987885,6.18446424665451,-2.41128012342453,-0.5613092202186579
6.701272713506965,1.8063685435295098,6.20839516954422,-0.743330704593658
6.701878407026045,-5.86966905412674,-2.21967856092453,-0.043985001468658406
6.7024841005451234,0.42204725446701,-4.34406088514328,-0.9014019936561579
6.703089794064202,6.87901991071701,3.74152505235672,-0.748120743656158
6.703695487583283,-2.8303892689704897,1.15490395860672,-0.154155899906158
6.704301181102362,-5.00506700334549,-2.39451498670578,-0.693035294437408
6.704906874621441,4.74266248884201,-2.4136751429557797,-0.992412735843658
6.70551256814052,4.03134168806076,6.186839993762971,0.181146834468842
6.7061182616596,-4.80628038225174,-3.5848396937370297,1.83131529150009
6.7067239551786795,-3.2662828236579897,-2.48552572889328,-3.1718805092811597
6.707329648697758,8.165145398998261,1.74647378282547,-0.0870953530311584
6.707935342216838,-2.2819297963142398,3.90438638048172,0.0733709555625916
6.708541035735918,-5.55113145647049,-3.10823080701828,-1.0834234780311598
6.709146729254996,3.66490369977951,-3.5153841273307798,0.142826521968842
6.709752422774075,4.69236707868576,4.87436929063797,-0.748120743656158
6.710358116293156,-3.28544297990799,-1.09880942029953,-0.154155899906158
6.710963809812235,-4.53803819475174,-0.26534262342453,-1.4714166420936599
6.711569503331313,6.41917616071701,-1.92748617811203,0.473339217281342
6.712175196850394,0.51066297712326,5.30307778673172,0.0757659750938416
6.712780890369473,-5.72836290178299,-2.7801131312370297,-0.872661759281158
6.713386583888552,1.3608949107170099,-3.82673666639328,-1.00678285303116
6.713992277407631,6.91015516462326,4.01216225938797,-0.812786270999908
6.714597970926711,-2.34420030412674,0.14660073595047002,0.6362005454063421
6.71520366444579,-5.8624839955329895,-1.2544856898307801,-0.25953675928115805
6.715809357964869,5.3605775279045105,-3.4052132288932797,-1.8186944741249098
6.716415051483948,3.34876112165451,6.60117837266922,0.549979842281342
6.717020745003028,-5.77865831193924,-2.03286703748703,0.32724302587509196
6.717626438522108,-1.38619249162674,-4.27700033826828,-1.66541322412491
6.718232132041186,7.5232801646232605,1.8422745640754699,-0.31941224756240805
6.718837825560266,-2.26037462053299,3.1810904820442203,-0.487063614749908
6.719443519079346,-4.58833360490799,-1.51793783826828,-1.8186944741249098
6.720049212598425,3.30565077009201,-3.46029867811203,-0.946907364749908
6.720654906117503,4.55106092634201,4.30914468126297,0.672125838375092
6.721260599636584,-3.75726182756424,-1.15389486951828,-0.0918853920936584
6.721866293155663,-4.12848985490799,-1.33352133436203,-1.61511781396866
6.722471986674742,7.46100965681076,-1.3359163538932801,-0.8606866616249079
6.723077680193821,-1.32631700334549,5.80603188829422,-0.6379498452186579
6.723683373712901,-4.83262559709549,-3.5513094202995297,0.360773299312592
6.724289067231981,1.7896034068107598,-3.0627254359245297,-1.64146302881241
6.724894760751059,5.76533582868576,3.33676675157547,-0.855896622562408
6.725500454270138,-2.69147813615799,0.99922768907547,0.26976255712509195
6.726106147789219,-4.90687120256424,-1.22574545545578,0.193121932125092
6.726711841308298,5.57612928571701,-4.00157309217453,-0.49903871240615805
6.727317534827376,1.53812635602951,6.5987833531379705,-0.0631451577186584
6.727923228346457,-4.96674669084549,-1.89635092420578,-0.788836075687408
6.728528921865536,-0.0904869252204895,-3.34054770154953,-1.46902162256241
6.7291346153846145,6.7113685435295105,1.0686832554817198,0.37035337743759195
6.729740308903694,-2.74177354631424,2.54162026720047,-0.575679337406158
6.730346002422774,-4.12130479631424,-1.42213705701828,-0.8798468178749079
6.730951695941853,3.98104627790451,-3.39084311170578,-1.33729554834366
6.731557389460932,3.9786512583732603,5.42522378282547,-0.295462052249908
6.732163082980011,-3.45788438615799,-1.77899496717453,2.3031341391563402
6.732768776499091,-3.61116563615799,-2.2340486781120297,-2.39589418115616
6.733374470018171,7.92085340681076,-0.44257406873703004,-1.60553773584366
6.733980163537249,-1.59216417131424,5.288707669544221,-0.530173966312408
6.734585857056329,-4.47097764787674,-2.6795223109245296,0.566744979000092
6.735191550575409,2.75000623884201,-3.53214926404953,-0.245166642093658
6.7357972440944875,4.86001844587326,3.83732583360672,-1.5097369545936599
6.736402937613567,-2.8734996205329897,0.48908852891922,1.05293394384384
6.737008631132647,-4.52127305803299,-0.46173422498703004,-1.26544496240616
6.737614324651726,6.02160291852951,-3.11781088514328,-0.5589142006874079
6.738220018170805,0.0843495005607605,5.08034097032547,0.787086775875092
6.738825711689884,-4.88292100725174,-2.03047201795578,-1.0953985756874098
6.739431405208964,0.87470594587326,-2.33463949842453,-1.8570147866249098
6.740037098728044,6.29463514509201,0.73338052110672,-0.0200348061561584
6.740642792247122,-1.7741856556892401,2.38354897813797,-0.0152447670936584
6.741248485766201,-5.37150499162674,-1.2496956507682802,0.49010435400009195
6.741854179285282,4.05768690290451,-4.05426352186203,-1.18401429834366
6.7424598728043605,3.57389295759201,5.97607827501297,-0.824761368656158
6.743065566323439,-5.1104478627204895,-0.5120296351432799,0.49968443212509195
6.74367125984252,-1.35984727678299,-3.6351351038932798,-0.7409356850624079
6.744276953361599,7.08499159040451,-0.51681967420578,-1.6606231850624098
6.7448826468806775,-1.73347032365799,4.77377847032547,0.0374456625938416
6.745488340399757,-4.40870714006424,-1.80773520154953,-0.043985001468658406
6.746094033918837,3.03980360212326,-2.90225912733078,-1.0043878334999101
6.746699727437916,4.80253797712326,2.8984781773567203,0.157196639156342
6.747305420956995,-4.01831895647049,-0.67968100233078,1.11759947118759
6.747911114476075,-3.6183506947517396,-0.46652426404953,-1.70133851709366
6.748516807995154,6.57964246931076,-2.08555746717453,-1.78276918115616
6.7491225015142335,-1.2305162220954902,4.85520913438797,0.0997161704063416
6.749728195033312,-3.5656602650642397,-2.2603938929557796,0.0398406821250916
6.750333888552392,1.2794642466545099,-2.58611654920578,-1.4211212319374098
6.750939582071472,5.72222547712326,0.60165444688797,0.37035337743759195
6.7515452755905505,-2.62681260881424,3.49244302110672,-1.0043878334999101
6.75215096910963,-4.23387071428299,-0.9287630335807799,0.169171736812592
6.75275666262871,4.62770155134201,-4.40633139295578,-0.31222718896865803
6.753362356147789,1.93090955915451,5.35816323595047,-0.755305802249908
6.753968049666868,-4.20992051897049,-0.21504721326828,-0.00326966943740836
6.754573743185947,-0.85689317522049,-2.57414145154953,-0.48945863428115804
6.755179436705027,6.67304823102951,-0.9143929163932799,0.0446307211875916
6.7557851302241065,-2.76332872209549,4.0576676304817205,-0.7600958413124079
6.756390823743185,-3.8578526478767396,-2.22925863904953,0.284132674312592
6.756996517262264,3.2098499888420102,-2.49271078748703,-1.77797914209366
6.757602210781345,4.14869764509201,3.68404458360672,-0.0847003334999084
6.7582079043004235,-3.61116563615799,-0.48089438123703004,2.49713072118759
6.758813597819502,-3.0531260853767397,-1.5754183070182801,-2.79825746240616
6.759419291338583,6.66346815290451,-2.58611654920578,-1.80432435693741
6.760024984857662,-2.04721788225174,5.29589272813797,0.588300154781342
6.7606306783767405,-3.4985997181892396,-1.15868490858078,-0.745725724124908
6.761236371895821,1.7249378794670098,-3.56088949842453,-0.606814591312408
6.7618420654149,5.1809510630607605,0.6064444859504701,0.25778745946884196
6.762447758933979,-2.56933214006424,2.8218375523567203,-0.769675919437408
6.763053452453058,-4.26261094865799,-0.51681967420578,-1.08821351709366
6.763659145972138,5.18334608259201,-3.62316000623703,-0.44155824365615803
6.764264839491217,0.68789442243576,4.81209878282547,0.0685809165000916
6.7648705330102965,-4.44702745256424,-1.15868490858078,-0.40084291162490804
6.765476226529375,-0.06653672990798949,-2.2603938929557796,-1.4714166420936599
6.766081920048455,6.76645399274826,-0.33479818983078,-0.508618790531158
6.766687613567535,-2.3681504994392397,3.87804116563797,-0.204451310062408
6.7672933070866135,-4.18357530412674,-1.85803061170578,1.54151792821884
6.767899000605692,3.9091956919670103,-2.76574301404953,-2.41744935693741
6.768504694124773,2.68294569196701,3.4277774937629704,-0.709800431156158
6.769110387643852,-3.97999864397049,0.59686440782547,1.96543638525009
6.769716081162931,-1.3981675892829901,-1.6855892054557802,-1.88336000146866
6.77032177468201,6.1988343638420105,-2.4304402796745297,-1.13132386865616
6.77092746820109,-1.6759898549079901,4.84083901720047,0.38951353368759195
6.7715331617201695,-3.36447862443924,-0.83775229139328,-1.31095033349991
6.772138855239248,1.8614539927482598,-2.74897787733078,-1.2151495522499098
6.772744548758327,4.68997205915451,0.48429848985671997,0.966713240718842
6.773350242277408,-3.4985997181892396,2.25900796251297,0.102111189937592
6.7739559357964865,-3.8578526478767396,-0.9718733851432799,-1.12653382959366
6.774561629315565,6.32098035993576,-3.36928793592453,-0.956487442874908
6.775167322834646,-0.8712632924079899,5.29828774766922,-1.4330963295936598
6.775773016353725,-2.98846055803299,-2.10950766248703,1.4193719321250902
6.776378709872803,0.91302625837326,-1.91551108045578,-1.2199395913124098
6.776984403391884,5.96172743024826,-0.54316488904953,-0.724170548343658
6.777590096910963,-2.7800938588142396,4.15825845079422,-0.642739884281158
6.778195790430042,-3.59440049943924,-1.40297690076828,0.712841170406342
6.778801483949121,4.3762245005607605,-3.42916342420578,-0.851106583499908
6.779407177468201,1.46627577009201,3.74152505235672,-1.0307330483436599
6.78001287098728,-3.94886339006424,0.17055093126297002,1.28046079931259
6.7806185645063595,-0.76109239397049,-0.94313315076828,-2.11807191553116
6.781224258025438,5.92340711774826,-2.44960043592453,-0.791231095218658
6.781829951544518,-2.43521104631424,3.66488442735672,0.123666365718842
6.782435645063598,-3.48662462053299,-0.55993002576828,-0.8582916420936579
6.783041338582676,2.74282118024826,-2.14543295545578,-1.3181353920936598
6.783647032101755,4.02415662946701,1.06149819688797,0.154801619625092
6.784252725620836,-2.81841417131424,1.6889933140754698,2.29115904150009
6.784858419139915,-3.03396592912674,-1.8053401820182802,-1.65343812646866
6.785464112658993,6.28505506696701,-3.14415609998703,-1.69175843896866
6.786069806178073,-0.99580430803299,5.4946793492317205,-0.45832338037490805
6.786675499697153,-3.3860338002204897,-0.5144246546745299,0.135641463375092
6.7872811932162325,1.38484510602951,-3.26390707654953,-0.415213028812408
6.787886886735311,5.15221082868576,-0.25097250623703,-1.48578675928116
6.788492580254391,-2.29629991350174,3.35832192735672,0.720026229000092
6.789098273773471,-4.14046495256424,-0.50963461561203,-0.812786270999908
6.789703967292549,5.14502577009201,-2.42804526014328,-1.45225648584366
6.790309660811628,0.53221815290451,2.36199380235672,0.0877410727500916
6.790915354330709,-4.3991270619392395,-0.38509359998703,0.0685809165000916
6.791521047849788,0.49150282087326,-1.1083894984245302,-1.9719757241249098
6.792126741368866,5.91861707868576,-1.58978842420578,-0.9588824624061579
6.792732434887947,-2.09990831193924,3.20504067735672,0.664940779781342
6.793338128407026,-3.4985997181892396,-0.34916830701828,0.590695174312592
6.793943821926105,2.98950819196701,-3.09386068983078,-1.4809967202186598
6.794549515445184,2.93202772321701,1.13813882188797,-1.5959576577186598
6.795155208964264,-3.6255357533454897,3.6265641148567203,0.885282576656342
6.795760902483343,-1.16106065568924,-2.9094441859245297,0.674520857906342
6.796366596002422,5.31028211774826,-2.8567537562370298,-1.99113588037491
6.796972289521501,-1.1874058705329902,4.85760415391922,-0.326597306156158
6.797577983040581,-3.2662828236579897,-0.19349203748702998,-0.125415665531158
6.798183676559661,1.89737928571701,-2.29152914686203,-0.5996295327186579
6.798789370078739,4.95102918806076,-0.8090120570182799,0.049420760250091594
6.799395063597819,-4.0063438588142395,2.93440347032547,-0.0535650795936584
6.800000757116899,-3.12497667131424,-1.3526814906120301,-0.805601212406158
6.800606450635978,5.93777723493576,-2.0352620570182802,-1.5911676186561599
6.801212144155057,-0.7922276478767399,3.20264565782547,-0.944512345218658
6.801817837674137,-3.2926280385017397,-0.14559164686203,1.07448911962509
6.802423531193216,0.99445692243576,-1.28562094373703,-1.25586488428116
6.803029224712295,5.01808973493576,-2.76095297498703,-0.34815248193740805
6.803634918231374,-2.58370225725174,4.57978188829422,-0.424793106937408
6.804240611750454,-2.90942491350174,0.21126626329422002,-0.103860489749908
6.804846305269534,3.03261854352951,-3.5081990687370297,-0.5804693764686579
6.805451998788612,2.23028700056076,0.92019204454422,-0.6619000405311579
6.806057692307691,-3.3093931752204897,3.33197671251297,-0.652319962406158
6.806663385826772,-0.94550889787674,-2.1981233851432798,-0.352942520999908
6.807269079345851,5.35578748884201,-2.68431234998703,-0.173316056156158
6.807874772864929,-1.9107017689704902,4.32111977891922,-0.702615372562408
6.80848046638401,-3.4554893666267397,-0.83535727186203,0.0637908774375916
6.809086159903089,2.17520155134201,-1.7550447718620301,-1.2702350014686599
6.8096918534221675,4.31874403181076,0.19689614610672002,-0.487063614749908
6.810297546941247,-3.52015489397049,2.4697696812629704,2.24086363134384
6.810903240460327,-2.11427842912674,-2.0975325648307797,-1.1935943764686598
6.811508933979406,5.94256727399826,-1.81252524061203,-2.75035707178116
6.812114627498485,-1.91309678850174,2.6326310093879703,0.394303572750092
6.812720321017564,-3.0100157338142397,0.97048745470047,0.693681014156342
6.813326014536644,1.3010194224357599,-1.8700057093620301,-1.7875592202186599
6.813931708055724,4.12474744977951,-2.73460776014328,0.056605818843841596
6.814537401574802,-1.9059117299079902,3.9067814000129704,1.62294859228134
6.815143095093882,-3.25430772600174,0.37652261095046996,-1.68696839990616
6.815748788612962,3.77028455915451,-2.30589926404953,-0.867871720218658
6.8163544821320405,0.95613660993576,0.71661538438797,0.5954852133750921
6.81696017565112,-3.88898790178299,2.1129117711067202,-0.884636856937408
6.8175658691702,-0.11683214006423999,-2.1310628382682797,-0.5804693764686579
6.818171562689279,5.91143202009201,-2.60767172498703,-0.7193805092811579
6.818777256208358,-1.93465196428299,4.19178872423172,-1.09779359521866
6.819382949727437,-3.39321885881424,-1.03893393201828,2.40851499853134
6.819988643246517,3.37271131696701,-1.92030111951828,-2.0510113686561597
6.820594336765597,3.05656873884201,0.20647622423172002,-1.71810365381241
6.821200030284675,-4.19076036272049,3.4469376500129703,1.57504820165634
6.821805723803754,-0.52638047990799,-2.16219809217453,-0.324202286624908
6.822411417322835,5.03964491071701,-1.96101645154953,-2.3599688881874097
6.8230171108419135,-1.24249131975174,2.4290543492317203,0.526029646968842
6.823622804360992,-2.90942491350174,0.63518472032547,0.221862166500092
6.824228497880073,1.6435072154045098,-0.78266684217453,-2.4366095131874097
6.824834191399152,4.30197889509201,-2.44481039686203,0.39669859228134197
6.8254398849182305,-3.54410508928299,3.13319009141922,0.39909361181259195
6.82604557843731,-2.49508653459549,-0.5120296351432799,-1.09300355615616
6.82665127195639,4.89354871931076,-2.0089168421745303,-1.09300355615616
6.827256965475469,-0.43776475725173997,1.32734536485672,-1.0690533608436599
6.827862658994548,-2.51185167131424,1.23393960313797,1.51996275243759
6.828468352513628,0.52982313337326,-2.1214827601432797,-0.690640274906158
6.829074046032707,4.96779432477951,-2.7130525843620297,-1.2199395913124098
6.8296797395517865,-2.32264512834549,4.55822671251297,-1.3013702553749098
6.830285433070865,-2.99564561662674,-0.21504721326828,1.39542173681259
6.830891126589945,3.23859022321701,-2.66275717420578,-0.27869691553115805
6.831496820109025,1.90695936384201,0.24719155626297,-1.65822816553116
6.8321025136281035,-3.7955821400642398,3.12361001329422,0.8589373618125921
6.832708207147183,-0.38746934709548997,-1.35747152967453,-0.884636856937408
6.833313900666263,5.27196180524826,-1.7286995570182802,-1.4594415444374098
6.833919594185342,-1.9226768666267402,1.66983315782547,0.284132674312592
6.834525287704421,-3.1393467885017396,0.87468667345047,-0.0535650795936584
6.8351309812235,2.2686073130607602,-0.6892610804557799,-2.30488343896866
6.83573667474258,3.7295692271232603,-1.68319418592453,-0.156550919437408
6.8363423682616595,-3.0866563588142397,2.77393716173172,2.98810972509384
6.836948061780738,-1.9059117299079902,-0.8329622523307799,-2.58749574365616
6.837553755299817,4.56064100446701,-2.75137289686203,-2.29769838037491
6.838159448818898,-1.16824571428299,1.3800357945442199,-0.443953263187408
6.8387651423379765,-2.5046666127204897,3.27928628282547,0.202702010250092
6.839370835857055,0.63999403181076,-3.10344076795578,0.743976424312592
6.839976529376136,4.07445203962326,-2.72502768201828,-1.2917901772499099
6.840582222895215,-1.92028184709549,4.55343667345047,-0.190081192874908
6.8411879164142935,-3.52973497209549,0.20647622423172002,-0.511013810062408
6.841793609933374,4.06008192243576,-1.92030111951828,-0.630764786624908
6.842399303452453,1.2028236216545098,0.22803140001297,-0.616394669437408
6.843004996971532,-4.43265733537674,1.90454507188797,0.207492049312592
6.843610690490611,0.39809705915451005,-1.97538656873703,-0.522988907718658
6.844216384009691,5.70546034040451,-1.3646565882682802,-1.6510431069374099
6.84482207752877,-2.08314317522049,1.7177335484504699,0.741581404781342
6.8454277710478495,-3.06749620256424,0.6064444859504701,2.02770689306259
6.846033464566928,2.94639784040451,-1.34310141248703,-2.45576966943741
6.846639158086008,2.1296961802482604,-1.81731527967453,-1.10258363428116
6.847244851605088,-3.64948594865799,3.55231850938797,0.808641951656342
6.8478505451241665,0.0484242075920105,-0.96708334608078,-0.534964005374908
6.848456238643245,3.64334852399826,-2.60288168592453,-1.51692201318741
6.849061932162326,-0.7347471791267399,0.28551186876296997,0.28892271337509196
6.849667625681405,-2.30587999162674,3.7870304234504704,-1.18640931787491
6.850273319200484,0.99445692243576,-2.1574080531120297,0.18833189306259202
6.850879012719563,4.49358045759201,-2.46157553358078,0.315267928218842
6.851484706238643,-2.62681260881424,3.6505143101692203,-0.807996231937408
6.8520903997577225,-3.42674913225174,-1.34310141248703,-0.022429825687408398
6.852696093276801,4.6492567271232605,-1.5921834437370301,-1.45704652490616
6.85330178679588,0.10590467634201,1.29381509141922,-1.87138490381241
6.853907480314961,-2.91181993303299,1.23393960313797,1.23016538915634
6.8545131738340395,0.9848768443107601,-1.8700057093620301,-0.257141739749908
6.855118867353118,4.93186903181076,-1.68319418592453,-1.6606231850624098
6.855724560872199,-2.43521104631424,2.14883706407547,-0.254746720218658
6.856330254391278,-2.67950303850174,1.43272622423172,1.03616880712509
6.856935947910356,3.53796766462326,-1.62092367811203,-1.4546515053749098
6.857541641429437,1.49980604352951,-1.62810873670578,-0.688245255374908
6.858147334948516,-3.04115098772049,3.26491616563797,0.0302606040000916
6.858753028467595,-0.20305284318924,-0.02584067029953,-1.2486798256874099
6.859358721986674,3.73675428571701,-2.0783724085807798,-0.32180726709365803
6.859964415505754,-0.98143419084549,0.51543374376297,-0.386472794437408
6.860570109024833,-2.59328233537674,2.52006509141922,-0.285881974124908
6.8611758025439125,1.15731825056076,-2.12387777967453,-0.613999649906158
6.861781496062991,4.08642713727951,-1.5921834437370301,-0.40084291162490804
6.862387189582071,-2.4280259877204897,2.80986245470047,1.40500181493759
6.862992883101151,-2.4783213978767398,-1.1562898890495301,-1.41393617334366
6.863598576620229,4.58698621931076,-1.5155428187370301,-2.72401185693741
6.864204270139309,-0.86407823381424,0.13462563829422,-1.07623841943741
6.864809963658389,-3.15371690568924,3.04217934923172,1.04095884618759
6.865415657177468,1.68422254743576,-2.22686361951828,0.142826521968842
6.866021350696546,3.59065809431076,-1.73588461561203,-2.27135316553116
6.866627044215626,-1.6927549916267401,1.92610024766922,1.59181333837509
6.867232737734706,-3.18245714006424,1.73449868516922,-0.297857071781158
6.8678384312537855,3.33199598493576,-0.84254233045578,-2.2641681069374098
6.868444124772864,1.3992152232170099,-1.7286995570182802,0.28892271337509196
6.869049818291944,-3.69020128068924,2.38354897813797,0.0997161704063416
6.869655511811024,0.0316590708732605,-0.72758139295578,-1.8139044350624098
6.870261205330102,4.32592909040451,-1.4891976038932802,-0.750515763187408
6.870866898849181,-0.81617784318924,0.34059731798172,0.571535018062592
6.871472592368262,-3.3357383900642397,2.2230826695442203,0.947553084468842
6.872078285887341,2.35482801618576,-2.0879524867057797,-1.57679750146866
6.872683979406419,2.82904188337326,-1.19700522108078,-2.11807191553116
6.8732896729255,-3.0866563588142397,3.3008414586067203,0.990663436031342
6.873895366444579,-0.60541612443924,-0.97666342420578,1.2828558188438401
6.874501059963658,3.4733021372795103,-1.43171713514328,-2.17555238428116
6.875106753482737,-0.33477891740799,-0.27252768201828004,-1.3828009194374098
6.875712447001817,-3.22796251115799,3.29844643907547,0.322452986812592
6.876318140520896,1.44951063337326,-1.82450033826828,-0.0248248452186584
6.876923834039975,4.03613172712326,-1.6352937952995301,-1.42351625146866
6.877529527559054,-2.55256700334549,1.51894692735672,1.02898374853134
6.878135221078134,-3.02199083147049,0.93456216173172,-0.46790345849990805
6.878740914597214,4.29239881696701,-1.04611899061203,-2.21626771631241
6.879346608116292,0.66633924665451,-0.87607260389328,-0.463113419437408
6.879952301635372,-3.5225499135017397,2.27816811876297,0.0158904868125916
6.880557995154452,1.19563856306076,-1.20179526014328,-0.966067520999908
6.881163688673531,3.89003553571701,-2.2077034632682797,-1.1001886147499098
6.88176938219261,-1.25925645647049,0.40047280626297,-1.1001886147499098
6.88237507571169,-2.29390489397049,2.99427895860672,1.8001800375938402
6.882980769230769,2.0219203013420097,-2.02807699842453,0.236232283687592
6.883586462749848,1.88061414899826,-1.58978842420578,-2.07496156396866
6.884192156268927,-2.6603428822517396,3.26012612657547,-0.415213028812408
6.884797849788007,-0.54314561662674,-0.40904379529953,0.29610777196884197
6.885403543307087,3.88764051618576,-1.41016195936203,-0.568494278812408
6.886009236826165,-0.74193223772049,0.22084634141922002,-1.15287904443741
6.886614930345244,-3.1465318470954897,2.16799722032547,0.0446307211875916
6.887220623864325,1.68901258649826,-2.00652182264328,-0.726565567874908
6.887826317383404,3.9618861216545103,-0.7323714320182799,-0.9588824624061579
6.888432010902482,-2.41365587053299,0.52980386095047,2.22170347509384
6.889037704421563,-2.40886583147049,1.0303629429817198,-2.4102642983436597
6.889643397940642,4.29958387556076,-1.42692709608078,-2.18273744287491
6.8902490914597205,-0.68205674943924,-1.0700691859245302,-0.374497696781158
6.8908547849788,-2.2986949330329898,2.80746743516922,1.2517205649375902
6.89146047849788,0.9417664927482601,-0.7108162562370299,-0.554124161624908
6.892066172016959,2.63744032087326,-2.34900961561203,-1.39238099756241
6.892671865536038,-0.67966172990799,-0.07134604139328,-0.156550919437408
6.893277559055117,-2.67471299943924,3.9498917515754703,-0.836736466312408
6.893883252574197,2.6350453013420103,-2.5597713343620296,1.1152044516563402
6.894488946093277,1.4423255747795098,-1.07725424451828,-0.934932267093658
6.895094639612355,-3.6590660267829898,2.4290543492317203,-0.455928360843658
6.895700333131435,-0.46650499162674,-1.39339682264328,-0.43197816553115803
6.896306026650515,4.80253797712326,-1.05809408826828,-0.9995977944374079
6.8969117201695935,-0.80659776506424,-0.05218588514327999,0.0637908774375916
6.897517413688673,-3.9776036244392396,2.4098941929817204,0.660150740718842
6.898123107207753,2.9511878794670103,-1.6736141077995301,-1.8091143959999099
6.898728800726832,2.74282118024826,-1.3646565882682802,-1.5528473061561598
6.899334494245911,-2.76811876115799,0.81241616563797,2.3797747641563403
6.89994018776499,-0.7539073353767399,1.8087442906379698,-0.5181988686561579
6.90054588128407,3.67687879743576,-1.2113753382682801,-2.74556703271866
6.90115157480315,-0.84012803850174,-2.13345785779953,0.26736753759384196
6.901757268322228,-2.30587999162674,3.26970620470047,-0.609209610843658
6.902362961841307,1.64111219587326,-0.74195151014328,-0.27151185693740804
6.902968655360388,2.68534071149826,-1.72630453748703,0.26736753759384196
6.9035743488794665,-1.47720323381424,-0.14080160779953,0.272157576656342
6.904180042398545,-3.1369517689704898,2.57036050157547,-1.0618683022499098
6.904785735917626,3.67687879743576,-2.37295981092453,-0.446348282718658
6.905391429436705,0.97050672712326,-0.27971274061203,-1.06665834131241
6.9059971229557835,-2.81841417131424,2.16560220079422,0.28892271337509196
6.906602816474864,0.36217176618576,-1.6688240687370302,0.42783384618759196
6.907208509993943,4.21575819196701,-1.06288412733078,-1.5265020913124099
6.907814203513022,-1.2736265736579901,0.13223061876297001,-1.77797914209366
6.908419897032101,-3.03396592912674,2.78112222032547,2.3534295493125903
6.909025590551181,3.18829481306076,-1.8484505335807802,-0.206846329593658
6.90963128407026,1.52136121931076,-1.12275961561203,-2.39589418115616
6.9102369775893395,-2.8734996205329897,0.9872525914192201,1.52954283056259
6.910842671108418,-0.52398546037674,1.14771890001297,-0.527778946781158
6.911448364627498,3.58826307477951,-0.6485457484245299,-1.8139044350624098
6.912054058146578,-1.00777940568924,-1.83647543592453,0.482919295406342
6.9126597516656565,-2.96451036272049,2.69490151720047,-0.17571107568740799
6.913265445184735,1.21479871931076,-0.82577719373703,-1.4666266030311599
6.913871138703816,3.18110975446701,-1.3311263148307801,-0.41042298974990804
6.914476832222895,-1.1874058705329902,-0.12882651014327998,1.46487730321884
6.915082525741974,-2.76572374162674,2.42665932970047,-1.8953350991249098
6.915688219261053,4.12953748884201,-2.28673910779953,-0.705010392093658
6.916293912780133,-0.40662950334549,-0.29408285779953003,-1.28939515771866
6.9168996062992125,-2.68908311662674,2.60628579454422,-0.101465470218658
6.917505299818291,1.3561048716545099,-0.98145346326828,1.70916929540634
6.91811099333737,3.1308143443107603,-1.18024008436203,-1.64385804834366
6.918716686856451,-1.03651964006424,-0.66052084608078,-1.63188295068741
6.9193223803755295,-2.8639195424079897,3.6936246617317203,0.820617049312592
6.919928073894608,2.8314369029045103,-1.7885750452995302,0.190726912593842
6.920533767413689,1.43274549665451,-0.53837484998703,-1.7276837319374099
6.921139460932768,-3.0267808705329897,0.7285904820442201,1.29004087743759
6.9217451544518465,-0.39465440568924,0.18252602891922,-1.30376527490616
6.922350847970927,4.47921034040451,-0.6150154749870299,-1.76121400537491
6.922956541490006,-0.62218126115799,-1.47482748670578,1.2134002524375902
6.923562235009085,-3.46746446428299,3.0278092320442203,0.43022886571884195
6.924167928528164,2.77395643415451,-1.0964144007682801,-2.10609681787491
6.924773622047244,2.21352186384201,-1.67840414686203,-1.27263002099991
6.925379315566323,-2.19091905412674,0.25677163438796996,1.43374204931259
6.9259850090854025,-0.94071885881424,2.45060952501297,0.147616561031342
6.926590702604481,3.0278285044670104,-1.92748617811203,-0.7385406655311579
6.927196396123562,-0.5120103627204899,-1.69277426404953,-1.8402496499061598
6.927802089642641,-2.1981041127204897,3.0948697789192203,-1.10497865381241
6.9284077831617195,1.24832899274826,-1.12036459608078,1.7905999594688402
6.929013476680798,3.13560438337326,-1.2113753382682801,-0.8990069741249079
6.929619170199879,-1.30236680803299,0.13941567735672,-1.31574037256241
6.930224863718958,-3.79079210100174,1.93807534532547,0.31047788915634195
6.930830557238037,4.10079725446701,-1.80773520154953,-0.930142228031158
6.931436250757116,1.00403700056076,0.46753335313797,-2.10609681787491
6.932041944276196,-3.03396592912674,-0.02584067029953,0.803851912593842
6.9326476377952755,0.73818983259201,0.67111001329422,-0.609209610843658
6.933253331314354,4.03134168806076,-1.5442830531120302,-0.788836075687408
6.933859024833433,-1.62569444475174,-1.46285238904953,-0.611604630374908
6.934464718352514,-2.39689073381424,3.39185220079422,0.6553607016563421
6.9350704118715925,2.95837293806076,-0.65573080701828,-0.40802797021865805
6.935676105390671,1.10702284040451,-1.45806234998703,-1.1385089272499098
6.936281798909752,-1.92028184709549,-0.6509407679557799,0.159591658687592
6.936887492428831,-0.45452989397049,2.8050724156379703,-0.815181290531158
6.937493185947909,2.77874647321701,-1.93227621717453,0.353588240718842
6.93809887946699,-0.5934410267829899,-0.48807943983078,-1.21754457178116
6.938704572986069,-2.6771080189704897,2.5488053257942203,-1.16485414209366
6.939310266505148,0.55137830915451,-1.85803061170578,0.411068709468842
6.939915960024227,3.43737684431076,-0.21025717420578,-0.38886781396865805
6.940521653543307,-1.3502671986579902,-0.38030356092453,0.933182967281342
6.941127347062386,-3.33813340959549,1.63630288438797,-2.06538148584366
6.9417330405814655,4.06487196149826,-1.6137386195182801,-1.51692201318741
6.942338734100544,-0.15754747209549,-0.02584067029953,-1.0522882241249099
6.942944427619624,-2.34659532365799,0.20887124376297,1.13915464696884
6.943550121138704,0.95134657087326,1.45188638048172,0.190726912593842
6.944155814657782,3.07333387556076,-1.28083090467453,-1.6606231850624098
6.944761508176862,-1.34068712053299,-2.08316244764328,-0.0176397866249084
6.945367201695942,-2.37533555803299,3.71278481798172,-0.139785782718658
6.945972895215021,2.75958631696701,-0.6341756312370299,-0.374497696781158
6.946578588734099,0.74058485212326,-0.84014731092453,-0.824761368656158
6.947184282253179,-1.64724962053299,-0.39467367811203,0.226652205562592
6.947789975772259,-0.84491807756424,1.9284952672004698,-1.55045228662491
6.9483956692913385,3.58826307477951,-2.3873299281120297,-0.039194962406158405
6.949001362810417,0.25679090681076,-0.43778402967453,0.492499373531342
6.949607056329497,-3.65427598772049,2.97751382188797,-0.872661759281158
6.950212749848577,1.6818275279045098,-1.71911947889328,-0.836736466312408
6.950818443367655,3.4565370005607603,-0.47370932264328003,-1.56003236474991
6.951424136886734,-1.8843565541267402,-0.92636801404953,1.03137876806259
6.952029830405815,-2.04721788225174,2.59670571641922,0.0254705649375916
6.952635523924894,3.8493202036857603,-0.91678793592453,-1.47860170068741
6.953241217443972,-0.6724766713142399,-1.15389486951828,-1.7660040444374099
6.953846910963053,-2.3513853627204897,0.51303872423172,0.808641951656342
6.954452604482132,1.41119032087326,0.9848575718879701,0.480524275875092
6.955058298001211,2.88891737165451,-0.28689779920578,-2.31925355615616
6.95566399152029,-1.2041710072517402,-2.1382478968620298,0.892467635250092
6.95626968503937,-2.84236436662674,2.51527505235672,0.106901229000092
6.956875378558449,3.33199598493576,-1.01019369764328,-1.6941534584999098
6.957481072077528,0.93458143415451,-0.82098715467453,-0.37928773584365805
6.958086765596607,-2.21247422990799,-0.01865561170578,-0.0559600991249084
6.958692459115687,-0.48327012834549,2.01471597032547,-0.635554825687408
6.959298152634767,3.70801405134201,-2.45918051404953,-0.568494278812408
6.959903846153845,-0.64613145647049,-0.8305672327995299,-1.3468756264686599
6.960509539672925,-2.9501402455329897,2.65658120470047,0.672125838375092
6.961115233192005,2.63744032087326,-0.6533357874870299,0.652965682125092
6.961720926711084,1.85905897321701,-1.1083894984245302,-1.71331361474991
6.962326620230163,-2.09990831193924,-0.58388022108078,-1.3133453530311598
6.962932313749243,-1.1059752064704902,2.4889298375129703,0.906837752437592
6.963538007268322,3.17631971540451,-1.10599447889328,-0.848711563968658
6.964143700787401,-0.31322374162674,-0.04260580701828,-1.3947760170936598
6.96474939430648,-2.56933214006424,0.25198159532547,0.791876814937592
6.96535508782556,0.80764539899826,0.14181069688797002,0.593090193843842
6.96596078134464,3.6960389536857603,-0.35874838514328,-1.09779359521866
6.966566474863718,-1.2520713978767402,-1.5921834437370301,0.921207869625092
6.967172168382797,-2.8902647572517397,2.55120034532547,-1.8618048256874098
6.967777861901878,3.7726795786857603,-1.39818686170578,-1.08821351709366
6.9683835554209566,0.30229627790451,-0.57909018201828,-0.125415665531158
6.968989248940035,-1.8843565541267402,-0.78266684217453,-0.307437149906158
6.969594942459116,0.80046034040451,2.33085854845047,0.054210799312591595
6.970200635978195,2.83622694196701,-1.59697348279953,-0.822366349124908
6.9708063294972735,-1.1921959095954902,-1.52991293592453,-1.4546515053749098
6.971412023016353,-1.58737413225174,3.17630044298172,-0.30264711084365803
6.972017716535433,1.39442518415451,-0.9503182093620299,1.48643247900009
6.972623410054512,1.53333631696701,-0.15996176404953,-1.0618683022499098
6.973229103573591,-1.6711998158454902,-0.49286947889328003,-0.652319962406158
6.973834797092671,-1.4316978627204902,1.3297403843879698,-0.0056646889686583594
6.97444049061175,3.86369032087326,-1.75264975233078,-0.669085099124908
6.9750461841308296,-0.32759385881423997,0.13941567735672,0.0757659750938416
6.975651877649908,-3.03875596818924,0.93456216173172,-0.465508438968658
6.976257571168988,1.9596497935295099,0.35975747423172,-1.22472963037491
6.976863264688068,2.76677137556076,-1.09401938123703,-1.25107484521866
6.9774689582071465,-2.23642442522049,-1.73588461561203,1.71156431493759
6.978074651726226,-1.6759898549079901,3.2481510289192204,-0.8199713295936579
6.978680345245306,3.46851209821701,-0.6485457484245299,-1.42591127099991
6.979286038764385,-0.74432725725174,-0.94313315076828,-0.855896622562408
6.979891732283464,-1.30955186662674,-0.7323714320182799,-0.463113419437408
6.980497425802543,0.97529676618576,2.41707925157547,0.39909361181259195
6.981103119321623,2.33806287946701,-1.47722250623703,-0.37928773584365805
6.9817088128407025,-0.62457628068924,-1.05809408826828,-0.38168275537490803
6.982314506359781,-2.89265977678299,2.17757729845047,-1.0906085366249099
6.98292019987886,2.54642957868576,-1.6951692835807801,0.00152036962509164
6.983525893397941,1.5357313364982599,0.63039468126297,-0.673875138187408
6.9841315869170195,-2.37054551897049,-0.21744223279952998,-1.44507142724991
6.984737280436098,-0.35154405412674,0.6878751500129701,0.5787200766563421
6.985342973955179,4.06247694196701,-1.62331869764328,-1.0570782631874098
6.985948667474258,-1.1371104603767401,-0.42580893201828,-1.35406068506241
6.9865543609933365,-2.3513853627204897,0.46753335313797,1.4313470297813402
6.987160054512417,2.4386536997795103,1.85185464220047,-1.38759095849991
6.987765748031496,2.0530555552482603,-1.72630453748703,-1.4115411538124099
6.988371441550575,-1.79813585100174,-1.69277426404953,0.173961775875092
6.988977135069654,-0.62697130022049,2.69729653673172,-0.44155824365615803
6.989582828588734,2.7380311411857603,-0.32042807264328,-1.20796449365616
6.990188522107813,-0.86168321428299,-0.16954184217453,-0.180501114749908
6.9907942156268925,-1.53707872209549,-0.81619711561203,-0.575679337406158
6.991399909145971,0.40288709821701,1.43512124376297,-0.0583551186561584
6.992005602665051,3.2769105357170103,-1.88198080701828,0.281737654781342
6.992611296184131,-1.0221495228767399,0.16815591173172,-0.716985489749908
6.9932169897032095,-2.29390489397049,1.9668155797004698,-1.5959576577186598
6.993822683222288,2.80988172712326,-1.93706625623703,0.863727400875092
6.994428376741369,0.95853162946701,0.97527749376297,-0.695430313968658
6.995034070260448,-1.8628013783454902,-1.4125569788932801,-0.549334122562408
6.995639763779527,-0.15036241350174,2.20152749376297,1.17747495946884
6.996245457298606,3.94991102399826,-0.8880477015495299,-1.2367047280311598
6.996851150817686,-1.54905381975174,-1.2449056117057802,-1.58158754053116
6.9974568443367655,-1.53707872209549,0.71661538438797,1.22537535009384
6.998062537855844,1.70098768415451,1.1285587437629698,-0.173316056156158
6.998668231374923,1.5620765513420098,-0.20307211561202998,-1.5025518959999098
6.999273924894004,-1.4532530385017401,-2.0711873499870297,1.12717954931259
6.9998796184130825,-1.2856016713142402,2.26379800157547,-0.8391314858436579
7.000485311932161,3.64813856306076,-1.3263362757682802,-1.2965802163124098
7.001091005451242,-0.84252305803299,0.04121987657547,0.197911971187592
7.001696698970321,-1.9370469838142401,0.34538735704421997,-0.987622696781158
7.0023023924893995,1.09744276227951,0.89624184923172,-1.18640931787491
7.00290808600848,2.8505970591545102,-2.48792074842453,0.0757659750938416
7.003513779527559,-1.1658506947517402,-0.15277670545577998,-0.0272198647499084
7.004119473046638,-2.2412144642829896,2.38833901720047,-1.3085553139686599
7.004725166565717,3.1140492075920103,-1.2880159632682802,0.7583465415000921
7.005330860084797,0.0675843638420105,-0.01147055311203,-1.62709291162491
7.005936553603876,-1.36942735490799,-1.52272787733078,-1.1888043374061599
7.0065422471229555,0.050819227123260494,2.1296769078254703,2.0205218344688403
7.007147940642034,3.25535535993576,-0.55753500623703,-1.28939515771866
7.007753634161115,-1.1107652455329902,-0.45933920545578,-0.946907364749908
7.008359327680194,-2.67950303850174,-0.061765963268279996,1.29004087743759
7.0089650211992724,2.53445448102951,0.7621207554817201,-1.67499330224991
7.009570714718351,1.5668665904045098,-0.056975924205779994,-0.776860978031158
7.010176408237432,-2.10469835100174,-1.41016195936203,-0.223611466312408
7.010782101756511,-0.18868272600174002,1.97639565782547,-0.733750626468658
7.01138779527559,3.70322401227951,-1.4125569788932801,-1.3684308022499099
7.011993488794669,-1.6328795033454901,-0.9886385218620299,-0.40802797021865805
7.012599182313749,-1.52749864397049,0.000504544544219973,0.640990584468842
7.0132048758328285,1.5572865122795099,2.22547768907547,-1.00678285303116
7.013810569351907,1.82073866071701,-2.51187094373703,0.00152036962509164
7.014416262870987,-1.78855577287674,-0.16235678358077998,-1.28221009912491
7.015021956390067,-1.03172960100174,1.7273136265754698,0.0302606040000916
7.0156276499091454,2.13448621931076,-0.68686606092453,0.6385955649375921
7.016233343428224,-0.06414171037673949,0.75972573595047,-1.15287904443741
7.016839036947305,-1.32631700334549,-1.4245320765495302,-1.1888043374061599
7.017444730466384,-0.34435899553299,0.74056557970047,0.686495955562592
7.018050423985462,3.85171522321701,-1.42213705701828,-0.5421490639686579
7.018656117504543,-1.57539903459549,1.05431313829422,-1.0834234780311598
7.019261811023622,-2.13583360490799,-0.30126791639328004,-0.252351700687408
7.019867504542701,2.76916639509201,0.21366128282547,-0.985227677249908
7.02047319806178,0.90584119977951,-0.19349203748702998,-0.32899232568740805
7.02107889158086,-2.4208409291267396,-2.5070809046745297,-0.889426895999908
7.021684585099939,0.13703993024826,3.03978432970047,-0.0248248452186584
7.0222902786190184,3.35594618024826,-0.14319662733077998,-0.985227677249908
7.022895972138097,-1.9322569447517401,-1.52272787733078,-1.01875795068741
7.023501665657177,-0.5718858510017399,-0.32521811170578,0.720026229000092
7.024107359176257,0.95374159040451,2.67334634141922,-0.0008746499061583601
7.024713052695335,1.47825086774826,-1.7071443812370302,1.0864642172813401
7.025318746214415,-0.7922276478767399,-0.40425375623703,-0.793626114749908
7.025924439733495,-1.3119468861579902,1.3249503453254698,-1.6007476967811598
7.026530133252574,2.5512196177482602,-2.02328695936203,0.157196639156342
7.027135826771652,0.30229627790451,1.6674381382942198,-0.0918853920936584
7.027741520290733,-1.5514488392829902,0.18971108751297,-1.61511781396866
7.028347213809812,0.40288709821701,0.09630532579421999,-0.228401505374908
7.028952907328891,3.51401746931076,-1.36705160779953,0.047025740718841594
7.02955860084797,-1.4149327260017401,-0.08811117811203001,0.28892271337509196
7.03016429436705,-1.9490220814704902,0.22803140001297,-0.8774517983436579
7.03076998788613,2.69971082868576,1.54050210313797,-1.3612457436561598
7.031375681405208,0.23523573102950998,-0.71800131483078,-1.10258363428116
7.031981374924287,-1.6448546010017402,-3.0555403773307797,0.36795835790634196
7.032587068443368,0.30708631696701,2.85297280626297,0.193121932125092
7.033192761962447,2.62546522321701,-0.29168783826828004,-1.28939515771866
7.033798455481525,-1.72149522600174,-0.30126791639328004,0.0350506430625916
7.034404149000606,-0.98622422990799,-0.40664877576828,0.18354185400009201
7.035009842519685,1.27227918806076,1.4063810093879698,-1.64385804834366
7.0356155360387636,1.28664930524826,-1.3311263148307801,0.185936873531342
7.036221229557843,-1.6280894642829902,0.49387856798172,-1.4762066811561598
7.036826923076923,-0.24137315568924,0.87229165391922,0.00391538915634164
7.037432616596002,3.13320936384201,-2.0879524867057797,0.0230755454063416
7.038038310115081,-0.6533165150642399,0.51303872423172,-1.24388978662491
7.03864400363416,-1.52031358537674,-0.74674154920578,-0.515803849124908
7.03924969715324,1.1094178599357598,2.3595987828254703,-0.38886781396865805
7.03985539067232,2.63744032087326,-1.9346712367057801,-0.149365860843658
7.040461084191398,-1.7861607533454902,-0.16954184217453,-1.3732208413124098
7.041066777710478,-0.84252305803299,-0.21504721326828,1.0265887290000901
7.041672471229558,2.18717664899826,1.46865151720047,-1.32771547021866
7.0422781647486365,-0.28208848772049,1.42075112657547,-2.0845416420936598
7.042883858267716,-1.1442955189704902,-2.88070395154953,0.473339217281342
7.043489551786796,0.058004285717010495,1.43512124376297,0.6984710532188421
7.044095245305875,3.3631312388420103,-0.8305672327995299,-1.19119935693741
7.0447009388249535,-2.2220543080329898,0.9034269078254701,-0.728960587406158
7.045306632344033,-0.5551207142829899,-0.6485457484245299,0.207492049312592
7.045912325863113,1.70577772321701,0.67829507188797,-0.8606866616249079
7.046518019382193,1.1046278208732598,-1.4460872523307802,0.971503279781342
7.047123712901271,-1.99452745256424,-0.6485457484245299,-2.14681214990616
7.04772940642035,-0.61978624162674,2.00034585313797,-0.714590470218658
7.048335099939431,3.9259608286857604,-0.9096028773307799,1.3594964438438402
7.0489407934585095,-1.68077989397049,0.24240151720047,-2.21626771631241
7.049546486977588,-0.5144053822517399,-1.2880159632682802,-0.37210267724990803
7.050152180496669,0.41486219587326,2.70687661485672,0.494894393062592
7.050757874015748,2.3021375864982603,-1.23053549451828,0.118876326656342
7.0513635675348265,-1.37421739397049,0.25677163438796996,-1.13611390771866
7.051969261053906,-1.66880479631424,-0.58388022108078,0.674520857906342
7.052574954572986,2.52966444196701,0.12504556016922,-1.09779359521866
7.053180648092065,0.00770887556076048,1.6794132359504699,-0.6810601967811579
7.053786341611144,-1.31913194475174,-2.11669272108078,0.140431502437592
7.054392035130224,0.75734998884201,1.3249503453254698,-0.824761368656158
7.054997728649303,3.66490369977951,-1.3095711390495302,0.0805560141563416
7.0556034221683825,-2.0951182728767397,-0.32521811170578,0.581115096187592
7.056209115687461,-1.39577256975174,0.01487466173172,-0.944512345218658
7.056814809206541,2.76677137556076,1.94765542345047,-0.649924942874908
7.057420502725621,-0.52877549943924,-1.32394125623703,-0.0152447670936584
7.0580261962446995,-1.01256944475174,-1.97538656873703,-0.628369767093658
7.058631889763779,0.0915345591545105,2.9583536656379703,-1.36364076318741
7.059237583282859,1.85905897321701,-1.13233969373703,0.37753843603134196
7.059843276801938,-1.02693956193924,0.55135903673172,-0.0272198647499084
7.060448970321017,-0.89042344865799,-1.06767416639328,-0.688245255374908
7.061054663840096,0.0771644419670105,0.75733071641922,-0.645134903812408
7.061660357359176,2.0961659068107603,-0.7084212367057799,0.238627303218842
7.0622660508782555,-1.8292711049079902,1.09263345079422,-1.69175843896866
7.062871744397334,-0.35393907365799,-1.31915121717453,0.32005796728134195
7.063477437916413,3.4301917857170103,-0.13361654920577998,-0.846316544437408
7.064083131435494,-0.92155870256424,0.55375405626297,-0.7984161538124079
7.0646888249545725,-1.80532090959549,-1.89635092420578,0.264972518062592
7.065294518473651,1.43993055524826,2.75477700548172,-0.762490860843658
7.065900211992732,2.66378553571701,-1.1299446742057802,-0.5397540444374079
7.066505905511811,-2.5214317494392398,-0.84254233045578,-0.48945863428115804
7.0671115990308895,-0.0785118275642395,-1.3526814906120301,-0.07033021631240839
7.06771729254997,2.40991346540451,3.1810904820442203,-1.1888043374061599
7.068322986069049,-0.70600694475174,-0.39946371717453,0.169171736812592
7.068928679588128,-0.70840196428299,-1.56344320936203,-0.506223770999908
7.069534373107207,0.0460291880607605,1.5381070836067199,-0.0248248452186584
7.070140066626287,2.9511878794670103,-1.6903792445182801,-0.158945938968658
7.070745760145366,-1.6113243275642402,1.6674381382942198,-0.484668595218658
7.0713514536644455,-0.5718858510017399,-0.90002279920578,-0.6810601967811579
7.071957147183524,1.17168836774826,0.48429848985671997,-0.266721817874908
7.072562840702604,1.4686707896232598,-0.75871664686203,0.32005796728134195
7.073168534221684,-1.9705772572517402,-0.11924643201828,-2.55157045068741
7.0737742277407625,-0.52398546037674,0.36215249376297,0.494894393062592
7.074379921259841,3.5068324107170104,0.7022452672004701,0.432623885250092
7.074985614778922,-1.58018907365799,-0.08332113904953001,-2.4797198647499097
7.075591308298001,-0.63894639787674,-2.3442195765495297,0.988268416500092
7.07619700181708,0.58011854352951,2.85776284532547,-0.0152447670936584
7.076802695336159,1.98359998884201,0.04600991563797,-1.16964418115616
7.077408388855239,-2.05679796037674,0.5872843297004701,-0.36252259912490803
7.0780140823743185,-0.28927354631423996,-1.72630453748703,0.813431990718842
7.078619775893397,2.0626356333732603,0.8435514195442201,-1.13611390771866
7.079225469412476,-0.72037706193924,0.27353677110672,-0.137390763187408
7.079831162931557,-0.45931993303298996,-0.92397299451828,-0.343362442874908
7.0804368564506355,0.5250330943107601,0.9656974156379701,-0.867871720218658
7.081042549969714,2.35003797712326,-1.83647543592453,-0.149365860843658
7.081648243488795,-1.24009630022049,0.9848575718879701,0.161986678218842
7.082253937007874,-1.36224229631424,-1.01019369764328,-1.8785699624061598
7.082859630526952,1.93569959821701,1.98597573595047,-0.649924942874908
7.083465324046033,1.0399622935295099,-0.87846762342453,0.6362005454063421
7.084071017565112,-1.95141710100174,-1.3862117640495302,-1.35406068506241
7.084676711084191,0.058004285717010495,1.09742348985672,0.890072615718842
7.08528240460327,2.23507703962326,0.18971108751297,0.18833189306259202
7.08588809812235,-1.01017442522049,1.4063810093879698,-2.06538148584366
7.086493791641429,-0.92395372209549,-2.4639705531120297,1.50798765478134
7.0870994851605085,0.23763075056076,1.34411050157547,-0.625974747562408
7.087705178679587,2.02431532087326,-0.23899740858078,-0.575679337406158
7.088310872198667,-2.5741221791267397,0.83636636095047,-1.33250550928116
7.088916565717747,0.79088026227951,-1.9514363734245301,0.933182967281342
7.089522259236825,2.8314369029045103,1.2004093297004699,-0.9804376381874079
7.090127952755904,-1.3239219838142402,-0.68207602186203,-0.604419571781158
7.090733646274985,-1.00538438615799,-1.52991293592453,0.473339217281342
7.091339339794064,0.71423963727951,2.68053140001297,-2.07496156396866
7.091945033313143,2.71408094587326,-1.93706625623703,0.648175643062592
7.092550726832222,-1.72389024553299,0.6232096226692201,-0.6187896889686579
7.093156420351302,-0.56709581193924,-1.52272787733078,-0.793626114749908
