Time (s),Accel X (m/s^2),Accel Y (m/s^2),Accel Z (m/s^2)
10.198125,-0.146853522777557,-0.122888732814789,-0.421345027256012
10.19873106060606,-0.0534477610588074,-0.204319396877289,-0.201003230381012
10.199337121212121,-0.0582378001213074,0.032787536716461195,-0.38541973428726195
10.199943181818181,0.0351679615974426,-0.197134338283539,-0.5650461991310121
10.200549242424241,-0.0271025462150574,-0.34802056875228904,-0.440505183506012
10.201155303030303,-0.0630278391838074,-0.187554260158539,-0.615341609287262
10.201761363636363,-0.154038581371307,-0.0486431273460388,-0.5075657303810119
10.202367424242423,-0.13966846418380702,-0.26898492422103903,-0.490800593662262
10.202973484848483,-0.012732429027557399,-0.230664611721039,-0.32314922647476196
10.203579545454545,-0.314504889965057,-0.0965435179710388,-0.40218487100601197
10.204185606060605,-0.18996387434005702,-0.154023986721039,-0.29201397256851197
10.204791666666665,-0.30971485090255696,0.10942816171646101,-0.356679499912262
10.205397727272727,-0.13487842512130702,0.0423676148414612,-0.459665339756012
10.206003787878787,-0.228284186840057,-0.0797783812522888,-0.186633113193512
10.206609848484847,-0.00554737043380738,-0.199529357814789,-0.191423152256012
10.207215909090909,-0.0103374094963074,-0.199529357814789,0.117534367275238
10.207821969696969,-0.235469245433807,0.150143493747711,-0.35188946084976197
10.208428030303029,0.00882274675369262,-0.0749883421897888,-0.550676081943512
10.20903409090909,-0.146853522777557,-0.23784967031478899,0.0600538985252376
10.209640151515151,-0.142063483715057,0.0208124390602112,-0.593786433506012
10.210246212121211,-0.017522468090057402,-0.0294829710960388,-0.387814753818512
10.210852272727273,-0.0462627024650574,0.0256024781227112,-0.289618953037262
10.211458333333333,-0.36001026105880696,-0.058223205471038805,-0.378234675693512
10.212064393939393,-0.237864264965057,0.0232074585914612,-0.28482891397476195
10.212670454545453,0.0806733326911926,-0.180369201564789,-0.450085261631012
10.213276515151515,-0.24983936262130702,-0.156419006252289,-0.31596416788101195
10.213882575757575,-0.415095710277557,0.133378357028961,-0.31596416788101195
10.214488636363635,-0.120508307933807,-0.051038146877288804,-0.246508601474762
10.215094696969697,-0.204333991527557,-0.127678771877289,-0.47403545694351196
10.215700757575757,-0.12529834699630701,-0.25700982656478905,-0.387814753818512
10.216306818181817,0.0351679615974426,-0.113308654689789,-0.41415996866226196
10.216912878787879,-0.163618659496307,0.0950580445289612,-0.18423809366226201
10.217518939393939,-0.221099128246307,0.0998480835914612,-0.39499981241226195
10.218124999999999,-0.0366826243400574,0.0399725953102112,-0.486010554599762
10.21873106060606,-0.252234382152557,0.037577575778961196,-0.32314922647476196
10.21933712121212,-0.333665046215057,-0.0175078734397888,-0.502775691318512
10.21994318181818,-0.10613819074630701,0.0303925171852112,-0.268063777256012
10.22054924242424,0.0686982350349426,-0.015112853908538799,-0.268063777256012
10.221155303030303,-0.0965581126213074,-0.290540100002289,-0.258483699131012
10.221761363636363,-0.336060065746307,-0.283355041408539,-0.25608867959976195
10.222367424242423,-0.32168994855880695,-0.151628967189789,-0.33512432413101195
10.222973484848485,-0.218704108715057,0.00883734140396119,-0.428530085849762
10.223579545454545,-0.230679206371307,-0.101333557033539,-0.308779109287262
10.224185606060605,-0.30013477277755696,-0.142048889064789,-0.390209773349762
10.224791666666667,-0.13008838605880702,-0.0917534789085388,-0.277643855381012
10.225397727272727,0.231559563159943,0.0447626343727112,-0.28482891397476195
10.226003787878787,-0.0702128977775574,0.202833923435211,-0.6057615311622621
10.226609848484848,-0.115718268871307,0.0399725953102112,-0.378234675693512
10.227215909090908,0.0758832936286926,-0.247429748439789,-0.174658015537262
10.227821969696969,0.0830683522224426,-0.23305963125228898,-0.481220515537262
10.22842803030303,0.0207978444099426,-0.0821734007835388,-0.553071101474762
10.22903409090909,-0.10853321027755701,0.061527771091461195,-0.356679499912262
10.22964015151515,-0.304924811840057,0.13098333749771102,-0.32314922647476196
10.23024621212121,-0.228284186840057,-0.154023986721039,-0.26566875772476195
10.230852272727272,-0.08937305402755741,-0.185159240627289,-0.31596416788101195
10.231458333333332,-0.30971485090255696,-0.0941484984397888,-0.553071101474762
10.232064393939392,-0.192358893871307,-0.00792779531478881,-0.447690242099762
10.232670454545454,-0.0558427805900574,-0.122888732814789,-0.169867976474762
10.233276515151514,-0.206729011058807,-0.216294494533539,-0.529120906162262
10.233882575757574,-0.19475391340255702,-0.108518615627289,-0.7039573319435121
10.234488636363636,-0.213914069652557,-0.0103228148460388,-0.593786433506012
10.235094696969696,-0.247444343090057,0.07110784921646121,-0.5650461991310121
10.235700757575756,-0.26899951887130696,0.07110784921646121,-0.416554988193512
10.236306818181818,-0.266604499340057,-0.144443908596039,-0.47403545694351196
10.236912878787878,-0.0750029368400574,-0.16839410390853898,-0.208188288974762
10.237518939393938,-0.295344733715057,-0.027087951564788798,-0.34230938272476197
10.238124999999998,-0.371985358715057,-0.122888732814789,-0.105202449131012
10.23873106060606,-0.216309089183807,-0.0007427367210388131,0.26363055868148805
10.23933712121212,-0.35761524152755697,0.018417419528961202,0.28279071493148805
10.23994318181818,-0.39833057355880697,-0.175579162502289,-0.215373347568512
10.240549242424242,-0.142063483715057,-0.189949279689789,-0.519540828037262
10.241155303030302,-0.201938971996307,-0.0127178343772888,-0.41415996866226196
10.241761363636362,-0.30971485090255696,0.12619329843521102,-0.497985652256012
10.242367424242424,-0.237864264965057,-0.149233947658539,-0.37344463663101196
10.242973484848484,0.0782783131599426,-0.0414580687522888,-0.514750788974762
10.243579545454544,-0.043867682933807405,-0.058223205471038805,-0.349494441318512
10.244185606060606,-0.177988776683807,-0.170789123439789,-0.371049617099762
10.244791666666666,-0.144458503246307,0.0998480835914612,-0.481220515537262
10.245397727272726,-0.166013679027557,0.0974530640602112,-0.38302471475601196
10.246003787878788,-0.230679206371307,-0.206714416408539,-0.30398907022476196
10.246609848484848,-0.209124030590057,-0.180369201564789,-0.572231257724762
10.247215909090908,-0.0534477610588074,0.162118591403961,-0.466850398349762
10.247821969696968,-0.137273444652557,-0.0366680296897888,-0.25608867959976195
10.24842803030303,-0.307319831371307,-0.137258850002289,-0.24411358194351201
10.24903409090909,-0.295344733715057,-0.115703674221039,-0.34230938272476197
10.24964015151515,-0.304924811840057,-0.0749883421897888,-0.466850398349762
10.250246212121212,-0.29773975324630697,0.0782929078102112,-0.30398907022476196
10.250852272727272,-0.0630278391838074,0.00883734140396119,-0.32314922647476196
10.251458333333332,-0.211519050121307,-0.0917534789085388,-0.26327373819351196
10.252064393939394,-0.18996387434005702,-0.22826959218978898,-0.30398907022476196
10.252670454545454,-0.158828620433807,-0.134863830471039,-0.560256160068512
10.253276515151514,-0.08937305402755741,0.176488708591461,-0.26327373819351196
10.253882575757576,-0.158828620433807,0.0902680054664612,-0.193818171787262
10.254488636363636,-0.08697803449630741,-0.15881402578353898,-0.320754206943512
10.255094696969696,-0.285764655590057,-0.113308654689789,-0.538700984287262
10.255700757575756,-0.403120612621307,-0.211504455471039,-0.34470440225601195
10.256306818181818,-0.118113288402557,-0.247429748439789,-0.36386455850601196
10.256912878787878,-0.28815967512130697,-0.120493713283539,-0.586601374912262
10.257518939393938,-0.228284186840057,-0.127678771877289,-0.378234675693512
10.258125,-0.0989531321525574,-0.16839410390853898,-0.239323542881012
10.25873106060606,-0.10613819074630701,-0.118098693752289,-0.32314922647476196
10.25933712121212,-0.27139453840255695,0.00644232187271119,-0.514750788974762
10.259943181818182,-0.19475391340255702,0.0806879273414612,-0.406974910068512
10.260549242424242,-0.35043018293380696,-0.015112853908538799,-0.220163386631012
10.261155303030302,-0.29055469465255696,-0.154023986721039,-0.41415996866226196
10.261761363636364,-0.285764655590057,0.018417419528961202,-0.428530085849762
10.262367424242424,-0.209124030590057,-0.120493713283539,-0.45248028116226197
10.262973484848484,0.195634270191193,-0.0821734007835388,-0.426135066318512
10.263579545454546,-0.137273444652557,0.116613220310211,-0.512355769443512
10.264185606060606,-0.0917680735588074,-0.290540100002289,-0.486010554599762
10.264791666666666,-0.158828620433807,-0.249824767971039,-0.40218487100601197
10.265397727272726,-0.443835944652557,-0.106123596096039,-0.675217097568512
10.266003787878788,-0.27139453840255695,-0.0007427367210388131,-0.466850398349762
10.266609848484848,-0.13966846418380702,0.0279974976539612,-0.371049617099762
10.267215909090908,-0.5587968821525571,-0.206714416408539,-0.0764622147560124
10.26782196969697,-0.376775397777557,-0.0007427367210388131,-0.466850398349762
10.26842803030303,-0.10134815168380701,-0.0845684203147888,0.0480788008689876
10.26903409090909,-0.18517383527755701,-0.0175078734397888,0.191779972743988
10.269640151515151,-0.218704108715057,-0.0630132445335388,-0.133942683506012
10.270246212121211,-0.137273444652557,-0.32646539297103905,-0.157892878818512
10.270852272727272,-0.10374317121505701,-0.247429748439789,-0.749462703037262
10.271458333333333,-0.228284186840057,-0.051038146877288804,-0.608156550693512
10.272064393939393,-0.292949714183807,0.233969177341461,-0.5243308670997621
10.272670454545453,-0.283369636058807,0.14056341562271102,-0.457270320224762
10.273276515151514,-0.209124030590057,-0.0893584593772888,-0.569836238193512
10.273882575757575,-0.27139453840255695,-0.340835510158539,-0.33512432413101195
10.274488636363635,-0.19475391340255702,-0.295330139064789,-0.349494441318512
10.275094696969695,-0.554006843090057,0.037577575778961196,-0.6440818436622621
10.275700757575757,-0.32168994855880695,-0.0630132445335388,-0.339914363193512
10.276306818181817,-0.0702128977775574,-0.0869634398460388,-0.00461162881851244
10.276912878787877,-0.0366826243400574,-0.139653869533539,-0.368654597568512
10.27751893939394,-0.0582378001213074,-0.194739318752289,-0.49319561319351196
10.278125,-0.374380378246307,0.12619329843521102,-0.260878718662262
10.27873106060606,-0.446230964183807,0.293844665622711,-0.327939265537262
10.279337121212121,-0.25941944074630696,-0.0007427367210388131,-0.29440899209976196
10.279943181818181,-0.292949714183807,-0.23305963125228898,-0.44290020303726196
10.280549242424241,-0.146853522777557,-0.0869634398460388,-0.37583965616226195
10.281155303030301,-0.0989531321525574,-0.0486431273460388,-0.378234675693512
10.281761363636363,-0.187568854808807,0.10703314218521101,-0.490800593662262
10.282367424242423,-0.273789557933807,0.0232074585914612,-0.42374004678726196
10.282973484848483,-0.24983936262130702,-0.101333557033539,-0.378234675693512
10.283579545454545,-0.142063483715057,-0.130073791408539,-0.330334285068512
10.284185606060605,-0.316899909496307,-0.0654082640647888,-0.227348445224762
10.284791666666665,-0.233074225902557,-0.187554260158539,-0.555466121006012
10.285397727272727,-0.187568854808807,-0.285750060939789,-0.670427058506012
10.286003787878787,-0.19475391340255702,-0.151628967189789,-0.378234675693512
10.286609848484847,-0.235469245433807,-0.242639709377289,-0.306384089756012
10.287215909090909,-0.10613819074630701,-0.0678032835960388,-0.289618953037262
10.287821969696969,-0.113323249340057,0.119008239841461,-0.459665339756012
10.288428030303029,-0.187568854808807,0.07110784921646121,-0.399789851474762
10.289034090909091,-0.0797929759025574,-0.235454650783539,-0.181843074131012
10.289640151515151,-0.08458301496505741,-0.185159240627289,-0.5075657303810119
10.290246212121211,0.0207978444099426,-0.0055327757835388095,-0.37583965616226195
10.290852272727271,-0.29055469465255696,0.27947454843521097,-0.196213191318512
10.291458333333333,-0.48934131574630696,0.018417419528961202,-0.296804011631012
10.292064393939393,-0.10374317121505701,-0.312095275783539,-0.440505183506012
10.292670454545453,-0.127693366527557,-0.189949279689789,-0.7039573319435121
10.293276515151515,-0.0534477610588074,-0.137258850002289,-0.514750788974762
10.293882575757575,-0.19475391340255702,-0.00313775625228881,-0.157892878818512
10.294488636363635,-0.235469245433807,-0.0175078734397888,-0.198608210849762
10.295094696969697,-0.276184577465057,-0.302515197658539,-0.24890362100601202
10.295700757575757,-0.170803718090057,-0.0725933226585388,-0.778202937412262
10.296306818181817,0.0423530201911926,-0.058223205471038805,-0.6440818436622621
10.296912878787879,-0.225889167308807,-0.0893584593772888,-0.114782527256012
10.297518939393939,-0.204333991527557,0.0232074585914612,-0.497985652256012
10.298124999999999,-0.18517383527755701,-0.0869634398460388,-0.46445537881851195
10.29873106060606,-0.163618659496307,-0.127678771877289,-0.27285381631851197
10.29933712121212,0.0399580006599426,-0.144443908596039,0.160644718837738
10.29994318181818,-0.132483405590057,-0.0989385375022888,-0.133942683506012
10.30054924242424,-0.35761524152755697,-0.0390630492210388,-0.49559063272476195
10.301155303030303,-0.0342876048088074,0.06631781015396121,-0.35188946084976197
10.301761363636363,-0.24504932355880701,-0.0869634398460388,-0.155497859287262
10.302367424242423,-0.443835944652557,-0.221084533596039,-0.43571514444351195
10.302973484848485,-0.26181446027755695,-0.0941484984397888,-0.447690242099762
10.303579545454545,-0.0989531321525574,0.12619329843521102,-0.203398249912262
10.304185606060605,-0.10613819074630701,0.0447626343727112,-0.270458796787262
10.304791666666667,-0.182778815746307,0.0567377320289612,-0.224953425693512
10.305397727272727,-0.144458503246307,-0.180369201564789,-0.311174128818512
10.306003787878787,-0.13487842512130702,0.150143493747711,-0.5434910233497621
10.306609848484847,-0.209124030590057,0.188463806247711,-0.306384089756012
10.307215909090909,-0.316899909496307,-0.156419006252289,-0.241718562412262
10.307821969696969,-0.175593757152557,-0.194739318752289,-0.44529522256851195
10.308428030303029,-0.0558427805900574,-0.110913635158539,-0.5219358475685121
10.30903409090909,-0.0797929759025574,0.0471576539039612,-0.311174128818512
10.30964015151515,-0.233074225902557,-0.0845684203147888,-0.36386455850601196
10.31024621212121,-0.230679206371307,-0.230664611721039,-0.306384089756012
10.310852272727272,-0.333665046215057,-0.27856500234603904,-0.481220515537262
10.311458333333333,-0.230679206371307,0.013627380466461201,-0.586601374912262
10.312064393939393,-0.0271025462150574,0.224389099216461,-0.34470440225601195
10.312670454545454,-0.223494147777557,-0.0654082640647888,-0.5219358475685121
10.313276515151514,-0.12529834699630701,-0.230664611721039,-0.165077937412262
10.313882575757575,-0.132483405590057,-0.0414580687522888,-0.28243389444351197
10.314488636363635,-0.18517383527755701,-0.103728576564789,-0.689587214756012
10.315094696969696,-0.127693366527557,-0.0941484984397888,-0.299199031162262
10.315700757575756,-0.154038581371307,0.035182556247711196,-0.236928523349762
10.316306818181816,-0.10374317121505701,-0.211504455471039,-0.447690242099762
10.316912878787878,-0.0917680735588074,-0.247429748439789,-0.428530085849762
10.317518939393938,-0.0318925852775574,-0.120493713283539,-0.497985652256012
10.318124999999998,-0.5180815501213071,0.0878729859352112,-0.371049617099762
10.31873106060606,-0.530056647777557,0.035182556247711196,-0.40218487100601197
10.31933712121212,-0.0773979563713074,-0.187554260158539,-0.301594050693512
10.31994318181818,-0.144458503246307,-0.137258850002289,-0.40457989053726195
10.32054924242424,-0.225889167308807,-0.273774963283539,-0.459665339756012
10.321155303030302,0.047143059253692596,-0.101333557033539,-0.490800593662262
10.321761363636364,-0.161223639965057,0.0758978882789612,-0.220163386631012
10.322367424242422,-0.374380378246307,-0.0797783812522888,-0.177053035068512
10.322973484848484,-0.170803718090057,-0.0869634398460388,-0.318359187412262
10.323579545454544,-0.18517383527755701,-0.139653869533539,-0.222558406162262
10.324185606060606,-0.0965581126213074,-0.0127178343772888,-0.277643855381012
10.324791666666666,-0.28097461652755695,0.037577575778961196,-0.205793269443512
10.325397727272726,-0.211519050121307,0.00404730234146119,-0.347099421787262
10.326003787878788,-0.223494147777557,-0.0175078734397888,-0.36386455850601196
10.326609848484848,-0.10134815168380701,-0.127678771877289,-0.46445537881851195
10.327215909090908,-0.266604499340057,-0.0318779906272888,-0.327939265537262
10.32782196969697,-0.496526374340057,0.0399725953102112,-0.46445537881851195
10.32842803030303,-0.362405280590057,-0.0869634398460388,-0.6225266678810121
10.32903409090909,-0.201938971996307,-0.206714416408539,-0.0764622147560124
10.329640151515152,-0.0582378001213074,-0.115703674221039,0.141484562587738
10.330246212121212,-0.177988776683807,0.0830829468727112,-0.12915264444351202
10.330852272727272,0.0734882740974426,0.0974530640602112,-0.44290020303726196
10.331458333333332,-0.0630278391838074,0.0758978882789612,-0.320754206943512
10.332064393939394,-0.175593757152557,-0.024692932033538798,-0.49319561319351196
10.332670454545454,-0.110928229808807,-0.115703674221039,-0.44529522256851195
10.333276515151514,-0.08697803449630741,0.152538513278961,-0.172262996006012
10.333882575757576,0.0327729420661926,-0.0175078734397888,-0.253693660068512
10.334488636363636,-0.161223639965057,-0.130073791408539,-0.268063777256012
10.335094696969696,-0.247444343090057,-0.0318779906272888,-0.699167292881012
10.335700757575758,-0.235469245433807,-0.110913635158539,-0.6656370194435121
10.336306818181818,-0.197148932933807,-0.0438530882835388,-0.416554988193512
10.336912878787878,-0.18996387434005702,-0.0893584593772888,-0.538700984287262
10.337518939393938,-0.173198737621307,-0.024692932033538798,-0.33272930459976197
10.338125,-0.285764655590057,-0.216294494533539,-0.361469538974762
10.33873106060606,-0.242654304027557,-0.0414580687522888,-0.555466121006012
10.33933712121212,-0.307319831371307,0.13577337656021102,-0.43571514444351195
10.339943181818182,-0.34085010480880695,-0.0175078734397888,-0.416554988193512
10.340549242424242,-0.204333991527557,0.152538513278961,-0.29440899209976196
10.341155303030302,-0.127693366527557,-0.120493713283539,-0.399789851474762
10.341761363636364,-0.28097461652755695,-0.060618225002288806,-0.450085261631012
10.342367424242424,-0.314504889965057,-0.0438530882835388,-0.32554424600601195
10.342973484848484,-0.27857959699630697,-0.144443908596039,-0.378234675693512
10.343579545454544,-0.177988776683807,-0.0318779906272888,-0.35428448038101196
10.344185606060606,-0.0654228587150574,-0.0965435179710388,-0.109992488193512
10.344791666666666,-0.154038581371307,-0.187554260158539,-0.208188288974762
10.345397727272726,-0.10374317121505701,-0.0701983031272888,-0.6608469803810121
10.346003787878788,-0.30971485090255696,0.27947454843521097,-0.241718562412262
10.346609848484848,-0.113323249340057,0.10942816171646101,-0.253693660068512
10.347215909090908,-0.0510527415275574,-0.22826959218978898,-0.43571514444351195
10.34782196969697,-0.0941630930900574,0.00165228281021119,-0.517145808506012
10.34842803030303,-0.0773979563713074,-0.0294829710960388,-0.361469538974762
10.34903409090909,-0.144458503246307,-0.120493713283539,-0.387814753818512
10.349640151515151,-0.223494147777557,-0.149233947658539,-0.48361553506851196
10.350246212121212,-0.043867682933807405,-0.23305963125228898,-0.5650461991310121
10.350852272727272,-0.144458503246307,-0.142048889064789,-0.610551570224762
10.351458333333332,-0.156433600902557,-0.0103228148460388,-0.196213191318512
10.352064393939393,-0.0582378001213074,-0.213899475002289,-0.241718562412262
10.352670454545454,-0.19475391340255702,-0.0318779906272888,-0.34470440225601195
10.353276515151514,-0.307319831371307,-0.154023986721039,-0.44290020303726196
10.353882575757575,-0.41030567121505696,-0.46777154531478904,-0.512355769443512
10.354488636363635,-0.225889167308807,-0.120493713283539,-0.656056941318512
10.355094696969696,-0.10134815168380701,-0.151628967189789,-0.41176494913101197
10.355700757575757,-0.254629401683807,-0.060618225002288806,-0.36386455850601196
10.356306818181817,-0.252234382152557,0.06871282968521121,-0.5099607499122619
10.356912878787877,-0.0486577219963074,-0.17797418203353899,-0.421345027256012
10.357518939393938,-0.0941630930900574,-0.0773833617210388,0.139089543056488
10.358125,-0.19954395246505702,-0.0318779906272888,-0.579416316318512
10.35873106060606,-0.345640143871307,-0.245034728908539,-0.47403545694351196
10.35933712121212,-0.326479987621307,-0.271379943752289,-0.320754206943512
10.359943181818181,-0.374380378246307,-0.16360406484603898,-0.5818113358497621
10.360549242424241,-0.228284186840057,-0.0773833617210388,-0.236928523349762
10.361155303030301,-0.247444343090057,-0.0318779906272888,-0.438110163974762
10.361761363636363,-0.154038581371307,0.0160223999977112,-0.33512432413101195
10.362367424242423,-0.285764655590057,-0.060618225002288806,-0.258483699131012
10.362973484848483,-0.0821879954338074,0.037577575778961196,-0.44529522256851195
10.363579545454543,0.0974384694099426,-0.120493713283539,-0.44290020303726196
10.364185606060605,-0.197148932933807,-0.0366680296897888,-0.117177546787262
10.364791666666667,-0.0654228587150574,0.166908630466461,-0.215373347568512
10.365397727272725,-0.0726079173088074,-0.0725933226585388,-0.24890362100601202
10.366003787878787,-0.158828620433807,-0.295330139064789,-0.47403545694351196
10.366609848484847,-0.34085010480880695,0.0495526734352112,-0.5243308670997621
10.367215909090909,-0.237864264965057,-0.051038146877288804,-0.241718562412262
10.36782196969697,-0.115718268871307,-0.154023986721039,-0.232138484287262
10.36842803030303,-0.08697803449630741,0.018417419528961202,-0.24890362100601202
10.369034090909091,-0.434255866527557,-0.0989385375022888,-0.31596416788101195
10.369640151515151,-0.30013477277755696,-0.211504455471039,-0.438110163974762
10.370246212121211,-0.13966846418380702,0.0232074585914612,-0.490800593662262
10.370852272727273,-0.41988574934005696,0.169303649997711,-0.636896785068512
10.371458333333333,-0.39114551496505695,-0.0414580687522888,-0.593786433506012
10.372064393939393,-0.33127002668380695,-0.146838928127289,-0.636896785068512
10.372670454545455,-0.0989531321525574,-0.108518615627289,-0.40457989053726195
10.373276515151515,-0.257024421215057,0.10224310312271101,-0.40218487100601197
10.373882575757575,-0.182778815746307,0.159723571872711,-0.33512432413101195
10.374488636363635,-0.24504932355880701,0.236364196872711,-0.133942683506012
10.375094696969697,-0.156433600902557,-0.0965435179710388,-0.46206035928726197
10.375700757575757,-0.146853522777557,-0.23305963125228898,-0.430925105381012
10.376306818181817,-0.302529792308807,-0.254614807033539,-0.418950007724762
10.376912878787879,-0.13966846418380702,-0.161209045314789,-0.550676081943512
10.377518939393939,-0.352825202465057,0.059132751560211194,-0.39260479288101197
10.378124999999999,-0.28815967512130697,-0.0701983031272888,-0.6009714920997621
10.37873106060606,-0.127693366527557,-0.185159240627289,-0.550676081943512
10.37933712121212,0.0016376881599426201,-0.0725933226585388,-0.596181453037262
10.37994318181818,-0.393540534496307,0.06631781015396121,-0.397394831943512
10.380549242424241,-0.273789557933807,-0.106123596096039,-0.38541973428726195
10.381155303030303,-0.137273444652557,-0.182764221096039,-0.337519343662262
10.381761363636363,-0.0941630930900574,-0.0294829710960388,-0.459665339756012
10.382367424242423,-0.0678178782463074,-0.144443908596039,-0.567441218662262
10.382973484848485,0.00882274675369262,-0.132468810939789,-0.371049617099762
10.383579545454545,-0.156433600902557,0.0974530640602112,-0.390209773349762
10.384185606060605,-0.343245124340057,0.0878729859352112,-0.311174128818512
10.384791666666667,-0.113323249340057,-0.0749883421897888,-0.557861140537262
10.385397727272727,-0.19954395246505702,-0.0678032835960388,-0.320754206943512
10.386003787878787,-0.10613819074630701,-0.027087951564788798,-0.198608210849762
10.386609848484847,-0.192358893871307,-0.0989385375022888,-0.191423152256012
10.387215909090909,-0.113323249340057,0.0854779664039612,-0.198608210849762
10.387821969696969,-0.110928229808807,-0.0294829710960388,-0.38541973428726195
10.388428030303029,-0.25941944074630696,0.013627380466461201,-0.6632419999122621
10.38903409090909,-0.283369636058807,0.10942816171646101,-0.5075657303810119
10.38964015151515,-0.175593757152557,-0.182764221096039,-0.12915264444351202
10.39024621212121,-0.122903327465057,-0.312095275783539,-0.320754206943512
10.390852272727273,-0.32887500715255696,-0.144443908596039,-0.48361553506851196
10.391458333333333,-0.28097461652755695,-0.146838928127289,-0.47403545694351196
10.392064393939393,-0.132483405590057,0.0926630249977112,-0.378234675693512
10.392670454545454,-0.34803516340255697,0.032787536716461195,-0.430925105381012
10.393276515151515,-0.177988776683807,-0.324070373439789,-0.35188946084976197
10.393882575757575,0.186054192066193,-0.0678032835960388,-0.270458796787262
10.394488636363635,-0.0965581126213074,-0.015112853908538799,-0.47164043741226197
10.395094696969696,-0.24504932355880701,-0.120493713283539,-0.514750788974762
10.395700757575757,-0.474971198558807,0.0639227906227112,-0.29201397256851197
10.396306818181817,-0.376775397777557,-0.060618225002288806,-0.28482891397476195
10.396912878787878,-0.237864264965057,-0.201924377346039,-0.572231257724762
10.397518939393938,-0.115718268871307,-0.0486431273460388,-0.7039573319435121
10.398124999999999,-0.154038581371307,-0.108518615627289,-0.35428448038101196
10.39873106060606,-0.28815967512130697,-0.15881402578353898,-0.277643855381012
10.39933712121212,-0.0366826243400574,-0.271379943752289,-0.648871882724762
10.39994318181818,-0.252234382152557,-0.024692932033538798,-0.608156550693512
10.40054924242424,-0.230679206371307,0.0232074585914612,-0.37583965616226195
10.401155303030302,-0.211519050121307,-0.0438530882835388,-0.35428448038101196
10.401761363636362,-0.201938971996307,0.0567377320289612,-0.356679499912262
10.402367424242422,-0.10374317121505701,0.0782929078102112,-0.287223933506012
10.402973484848484,-0.386355475902557,0.00883734140396119,-0.380629695224762
10.403579545454544,-0.10374317121505701,-0.304910217189789,-0.418950007724762
10.404185606060604,-0.206729011058807,-0.0486431273460388,-0.447690242099762
10.404791666666666,-0.240259284496307,0.128588317966461,-0.30398907022476196
10.405397727272726,-0.26181446027755695,-0.024692932033538798,-0.359074519443512
10.406003787878788,-0.326479987621307,-0.170789123439789,-0.287223933506012
10.406609848484846,-0.122903327465057,-0.0821734007835388,-0.43571514444351195
10.407215909090908,-0.24983936262130702,-0.0294829710960388,-0.517145808506012
10.40782196969697,-0.0390776438713074,-0.0989385375022888,-0.191423152256012
10.408428030303028,-0.0462627024650574,0.0279974976539612,-0.253693660068512
10.40903409090909,-0.0294975657463074,0.00883734140396119,-0.289618953037262
10.409640151515152,-0.302529792308807,-0.182764221096039,-0.208188288974762
10.410246212121212,-0.0941630930900574,0.0399725953102112,-0.387814753818512
10.410852272727272,-0.247444343090057,0.284264587497711,-0.24411358194351201
10.411458333333332,-0.26899951887130696,0.07110784921646121,-0.27524883584976195
10.412064393939394,-0.0271025462150574,0.00165228281021119,-0.490800593662262
10.412670454545454,-0.019917487621307402,-0.0414580687522888,-0.366259578037262
10.413276515151514,-0.10374317121505701,0.0112323609352112,-0.157892878818512
10.413882575757576,-0.240259284496307,-0.0462481078147888,0.00496844930648756
10.414488636363636,-0.180383796215057,-0.0749883421897888,-0.320754206943512
10.415094696969696,-0.221099128246307,-0.0438530882835388,-0.371049617099762
10.415700757575758,0.0543281178474426,-0.0989385375022888,-0.450085261631012
10.416306818181818,-0.177988776683807,-0.0390630492210388,-0.29440899209976196
10.416912878787878,-0.144458503246307,-0.149233947658539,-0.141127742099762
10.417518939393938,-0.0773979563713074,0.0160223999977112,-0.459665339756012
10.418125,-0.27139453840255695,-0.0965435179710388,-0.229743464756012
10.41873106060606,-0.0702128977775574,-0.132468810939789,-0.418950007724762
10.41933712121212,-0.173198737621307,-0.051038146877288804,-0.6416868241310121
10.419943181818182,-0.240259284496307,-0.130073791408539,-0.390209773349762
10.420549242424242,-0.0462627024650574,0.013627380466461201,-0.41415996866226196
10.421155303030302,-0.10853321027755701,-0.185159240627289,-0.46445537881851195
10.421761363636364,-0.35043018293380696,-0.00313775625228881,-0.430925105381012
10.422367424242424,-0.266604499340057,0.0208124390602112,-0.29440899209976196
10.422973484848484,-0.221099128246307,-0.0989385375022888,-0.37344463663101196
10.423579545454544,-0.173198737621307,0.0830829468727112,-0.43332012491226196
10.424185606060606,-0.0797929759025574,-0.154023986721039,-0.280038874912262
10.424791666666666,-0.211519050121307,-0.0941484984397888,-0.339914363193512
10.425397727272726,-0.326479987621307,0.229179138278961,-0.289618953037262
10.426003787878788,-0.168408698558807,0.00883734140396119,-0.301594050693512
10.426609848484848,-0.28815967512130697,-0.0222979125022888,-0.224953425693512
10.427215909090908,-0.230679206371307,-0.0222979125022888,-0.153102839756012
10.42782196969697,-0.0630278391838074,-0.125283752346039,-0.438110163974762
10.42842803030303,-0.36959033918380696,-0.170789123439789,-0.368654597568512
10.42903409090909,-0.29773975324630697,-0.139653869533539,-0.46206035928726197
10.429640151515152,-0.257024421215057,0.20043890390396102,-0.45487530069351195
10.430246212121212,-0.29773975324630697,0.0926630249977112,-0.311174128818512
10.430852272727272,-0.27857959699630697,-0.125283752346039,-0.29440899209976196
10.431458333333332,0.00642772722244262,-0.0103228148460388,-0.239323542881012
10.432064393939394,-0.00794238996505738,-0.25940484609603903,-0.49319561319351196
10.432670454545454,-0.12529834699630701,-0.304910217189789,-0.6249216874122621
10.433276515151514,-0.26181446027755695,-0.31928033437728903,-0.490800593662262
10.433882575757575,-0.247444343090057,-0.118098693752289,-0.502775691318512
10.434488636363636,-0.13008838605880702,0.188463806247711,-0.41415996866226196
10.435094696969696,-0.10613819074630701,0.00165228281021119,-0.327939265537262
10.435700757575757,-0.156433600902557,0.128588317966461,-0.208188288974762
10.436306818181817,-0.216309089183807,-0.0701983031272888,-0.301594050693512
10.436912878787878,-0.00554737043380738,-0.206714416408539,-0.497985652256012
10.437518939393938,-0.12529834699630701,-0.0917534789085388,-0.46445537881851195
10.438125,-0.213914069652557,-0.216294494533539,-0.418950007724762
10.43873106060606,-0.118113288402557,-0.118098693752289,-0.32554424600601195
10.43933712121212,-0.285764655590057,-0.139653869533539,-0.311174128818512
10.439943181818181,-0.18517383527755701,-0.216294494533539,-0.26327373819351196
10.440549242424241,-0.163618659496307,-0.106123596096039,-0.430925105381012
10.441155303030301,-0.144458503246307,-0.103728576564789,-0.193818171787262
10.441761363636363,-0.0294975657463074,-0.015112853908538799,-0.253693660068512
10.442367424242423,-0.175593757152557,-0.120493713283539,-0.49559063272476195
10.442973484848483,0.0016376881599426201,-0.17318414297103898,-0.35188946084976197
10.443579545454543,-0.10853321027755701,0.147748474216461,-0.40218487100601197
10.444185606060605,-0.225889167308807,-0.0821734007835388,-0.481220515537262
10.444791666666665,-0.316899909496307,-0.0175078734397888,-0.236928523349762
10.445397727272725,-0.0366826243400574,0.20043890390396102,-0.143522761631012
10.446003787878787,-0.00075733137130738,-0.0725933226585388,-0.579416316318512
10.446609848484847,-0.175593757152557,-0.0797783812522888,-0.45248028116226197
10.447215909090907,-0.35043018293380696,0.0256024781227112,-0.268063777256012
10.44782196969697,-0.266604499340057,0.0232074585914612,-0.49319561319351196
10.44842803030303,0.0854633717536926,0.0806879273414612,-0.668032038974762
10.449034090909091,-0.0510527415275574,-0.0965435179710388,0.139089543056488
10.449640151515151,-0.118113288402557,-0.122888732814789,0.143879582118988
10.450246212121211,-0.0366826243400574,-0.024692932033538798,-0.639291804599762
10.450852272727273,-0.00075733137130738,0.0902680054664612,-0.43571514444351195
10.451458333333333,-0.209124030590057,0.123798278903961,-0.39499981241226195
10.452064393939393,-0.168408698558807,-0.225874572658539,-0.421345027256012
10.452670454545455,-0.0702128977775574,-0.0989385375022888,-0.447690242099762
10.453276515151515,-0.149248542308807,0.018417419528961202,-0.45248028116226197
10.453882575757575,-0.29055469465255696,-0.0294829710960388,-0.31356914834976196
10.454488636363635,-0.19475391340255702,0.0806879273414612,-0.160287898349762
10.455094696969697,-0.192358893871307,-0.106123596096039,-0.27524883584976195
10.455700757575757,-0.240259284496307,-0.331255432033539,-0.399789851474762
10.456306818181817,-0.0462627024650574,0.00165228281021119,-0.428530085849762
10.456912878787879,-0.28097461652755695,0.037577575778961196,-0.36386455850601196
10.457518939393939,-0.292949714183807,-0.154023986721039,-0.430925105381012
10.458124999999999,-0.304924811840057,0.0447626343727112,-0.430925105381012
10.45873106060606,-0.30971485090255696,-0.17318414297103898,-0.46206035928726197
10.459337121212121,-0.0797929759025574,-0.230664611721039,-0.632106746006012
10.459943181818181,-0.154038581371307,-0.0989385375022888,-0.438110163974762
10.460549242424241,-0.161223639965057,0.018417419528961202,-0.32314922647476196
10.461155303030303,-0.168408698558807,0.0279974976539612,-0.33512432413101195
10.461761363636363,-0.0031523509025573803,0.0974530640602112,-0.46206035928726197
10.462367424242423,-0.137273444652557,-0.106123596096039,-0.229743464756012
10.462973484848485,-0.170803718090057,-0.125283752346039,-0.18423809366226201
10.463579545454545,-0.0582378001213074,0.013627380466461201,-0.191423152256012
10.464185606060605,-0.237864264965057,0.0423676148414612,-0.287223933506012
10.464791666666667,-0.218704108715057,0.0232074585914612,-0.5626511795997621
10.465397727272727,-0.18517383527755701,-0.0869634398460388,-0.497985652256012
10.466003787878787,-0.494131354808807,0.169303649997711,-0.450085261631012
10.466609848484847,-0.192358893871307,0.0399725953102112,-0.224953425693512
10.467215909090909,-0.08937305402755741,-0.213899475002289,-0.241718562412262
10.467821969696969,-0.12529834699630701,-0.053433166408538804,-0.567441218662262
10.468428030303029,-0.019917487621307402,0.0423676148414612,-0.459665339756012
10.46903409090909,-0.173198737621307,-0.0438530882835388,-0.512355769443512
10.46964015151515,-0.0797929759025574,-0.0438530882835388,-0.260878718662262
10.47024621212121,-0.324084968090057,-0.180369201564789,-0.239323542881012
10.470852272727273,-0.386355475902557,-0.0654082640647888,-0.49319561319351196
10.471458333333333,-0.0031523509025573803,-0.0869634398460388,-0.466850398349762
10.472064393939393,-0.10374317121505701,-0.149233947658539,-0.179448054599762
10.472670454545455,-0.182778815746307,-0.0821734007835388,-0.126757624912262
10.473276515151515,-0.13008838605880702,-0.0725933226585388,-0.36386455850601196
10.473882575757575,-0.36001026105880696,-0.125283752346039,-0.30398907022476196
10.474488636363635,-0.362405280590057,-0.146838928127289,-0.368654597568512
10.475094696969697,-0.223494147777557,-0.051038146877288804,-0.359074519443512
10.475700757575757,-0.41988574934005696,-0.0725933226585388,-0.33272930459976197
10.476306818181817,-0.367195319652557,-0.139653869533539,-0.37344463663101196
10.476912878787878,-0.0271025462150574,-0.185159240627289,-0.356679499912262
10.477518939393939,-0.235469245433807,-0.209109435939789,-0.548281062412262
10.478124999999999,-0.197148932933807,0.12619329843521102,-0.8237083085060121
10.47873106060606,-0.144458503246307,0.0902680054664612,-0.43332012491226196
10.47933712121212,-0.0558427805900574,-0.055828185939788805,0.203755070400238
10.47994318181818,-0.00075733137130738,-0.0366680296897888,-0.406974910068512
10.48054924242424,-0.28815967512130697,-0.221084533596039,-0.43332012491226196
10.481155303030302,-0.228284186840057,-0.0486431273460388,-0.270458796787262
10.481761363636362,-0.0750029368400574,0.119008239841461,-0.596181453037262
10.482367424242423,-0.25941944074630696,0.0279974976539612,-0.476430476474762
10.482973484848484,-0.374380378246307,-0.273774963283539,-0.42374004678726196
10.483579545454544,-0.146853522777557,-0.0917534789085388,-0.41415996866226196
10.484185606060604,-0.08458301496505741,0.00165228281021119,-0.634501765537262
10.484791666666666,-0.32168994855880695,-0.0630132445335388,-0.371049617099762
10.485397727272726,-0.173198737621307,0.0926630249977112,-0.49319561319351196
10.486003787878786,-0.206729011058807,0.00883734140396119,-0.612946589756012
10.486609848484848,-0.216309089183807,-0.240244689846039,-0.440505183506012
10.487215909090908,-0.13008838605880702,-0.103728576564789,-0.33272930459976197
10.48782196969697,-0.405515632152557,0.0998480835914612,-0.49559063272476195
10.488428030303028,-0.264209479808807,-0.027087951564788798,-0.38541973428726195
10.48903409090909,-0.302529792308807,0.00165228281021119,-0.155497859287262
10.489640151515152,-0.422280768871307,-0.0989385375022888,-0.368654597568512
10.49024621212121,-0.204333991527557,-0.0175078734397888,-0.39260479288101197
10.490852272727272,-0.46778613996505697,0.0303925171852112,-0.430925105381012
10.491458333333332,-0.30013477277755696,-0.127678771877289,-0.29201397256851197
10.492064393939394,-0.197148932933807,-0.16839410390853898,-0.253693660068512
10.492670454545454,-0.27857959699630697,-0.027087951564788798,-0.6632419999122621
10.493276515151514,-0.166013679027557,0.0806879273414612,-0.5650461991310121
10.493882575757576,-0.254629401683807,0.0854779664039612,-0.236928523349762
10.494488636363636,-0.161223639965057,-0.0294829710960388,-0.40457989053726195
10.495094696969696,-0.304924811840057,-0.142048889064789,-0.459665339756012
10.495700757575758,-0.13966846418380702,-0.101333557033539,-0.35428448038101196
10.496306818181818,0.111808586597443,-0.175579162502289,-0.33512432413101195
10.496912878787878,-0.216309089183807,-0.0127178343772888,-0.30398907022476196
10.497518939393938,-0.233074225902557,0.114218200778961,-0.289618953037262
10.498125,0.0854633717536926,-0.0845684203147888,-0.196213191318512
10.49873106060606,-0.151643561840057,-0.209109435939789,-0.440505183506012
10.49933712121212,-0.206729011058807,-0.292935119533539,-0.6033665116310121
10.499943181818182,-0.158828620433807,0.0471576539039612,-0.49319561319351196
10.500549242424242,-0.237864264965057,0.00644232187271119,-0.172262996006012
10.501155303030302,-0.285764655590057,-0.180369201564789,-0.368654597568512
10.501761363636364,-0.161223639965057,-0.0749883421897888,-0.49559063272476195
10.502367424242424,-0.292949714183807,-0.125283752346039,-0.339914363193512
10.502973484848484,0.0016376881599426201,-0.113308654689789,-0.366259578037262
10.503579545454544,-0.0271025462150574,-0.199529357814789,-0.136337703037262
10.504185606060606,-0.18996387434005702,0.119008239841461,-0.517145808506012
10.504791666666666,0.0016376881599426201,-0.110913635158539,-0.210583308506012
10.505397727272726,-0.163618659496307,-0.295330139064789,-0.239323542881012
10.506003787878788,-0.120508307933807,-0.0318779906272888,-0.43571514444351195
10.506609848484848,-0.273789557933807,-0.0055327757835388095,-0.18902813272476202
10.507215909090908,-0.180383796215057,-0.113308654689789,-0.457270320224762
10.50782196969697,-0.132483405590057,-0.245034728908539,-0.670427058506012
10.50842803030303,-0.34803516340255697,-0.213899475002289,-0.639291804599762
10.50903409090909,-0.223494147777557,-0.165999084377289,0.0289186446189876
10.509640151515152,-0.206729011058807,0.0279974976539612,-0.347099421787262
10.510246212121212,-0.273789557933807,-0.024692932033538798,-0.46445537881851195
10.510852272727272,-0.316899909496307,-0.182764221096039,-0.418950007724762
10.511458333333332,-0.436650886058807,-0.245034728908539,-0.6057615311622621
10.512064393939394,-0.0486577219963074,0.00404730234146119,-0.366259578037262
10.512670454545454,0.0423530201911926,0.128588317966461,-0.32554424600601195
10.513276515151514,-0.144458503246307,-0.0725933226585388,-0.45487530069351195
10.513882575757576,-0.235469245433807,-0.0917534789085388,-0.490800593662262
10.514488636363636,-0.127693366527557,-0.0989385375022888,-0.366259578037262
10.515094696969696,-0.120508307933807,-0.0294829710960388,-0.38541973428726195
10.515700757575758,-0.204333991527557,0.27228948984146095,-0.337519343662262
10.516306818181818,-0.146853522777557,0.0926630249977112,-0.426135066318512
10.516912878787878,-0.0965581126213074,-0.146838928127289,-0.007006648349762439
10.517518939393938,-0.24504932355880701,-0.0869634398460388,-0.0764622147560124
10.518125,-0.302529792308807,-0.103728576564789,-0.241718562412262
10.51873106060606,-0.230679206371307,0.0447626343727112,-0.186633113193512
10.51933712121212,-0.154038581371307,-0.137258850002289,-0.31356914834976196
10.519943181818181,-0.31929492902755696,-0.285750060939789,-0.35188946084976197
10.520549242424241,-0.242654304027557,-0.38873590078353903,-0.517145808506012
10.521155303030302,0.126178703784943,-0.127678771877289,-0.447690242099762
10.521761363636363,-0.225889167308807,0.0447626343727112,-0.46206035928726197
10.522367424242423,-0.247444343090057,-0.321675353908539,-0.5099607499122619
10.522973484848483,-0.166013679027557,-0.264194885158539,-0.500380671787262
10.523579545454544,-0.27857959699630697,-0.17797418203353899,-0.653661921787262
10.524185606060605,-0.120508307933807,-0.0654082640647888,-0.447690242099762
10.524791666666665,-0.24983936262130702,0.0950580445289612,-0.124362605381012
10.525397727272725,-0.30013477277755696,0.00644232187271119,-0.277643855381012
10.526003787878787,-0.28815967512130697,-0.22826959218978898,-0.43332012491226196
10.526609848484847,-0.31929492902755696,-0.189949279689789,-0.224953425693512
10.527215909090907,-0.161223639965057,-0.0342730101585388,-0.478825496006012
10.52782196969697,-0.223494147777557,0.0399725953102112,-0.38541973428726195
10.52842803030303,-0.216309089183807,-0.235454650783539,-0.131547663974762
10.52903409090909,-0.187568854808807,-0.16360406484603898,-0.6440818436622621
10.529640151515151,-0.30013477277755696,-0.0989385375022888,-0.7805979569435121
10.530246212121211,-0.154038581371307,-0.221084533596039,-0.38302471475601196
10.530852272727273,-0.295344733715057,0.0878729859352112,-0.191423152256012
10.531458333333331,-0.08458301496505741,0.0806879273414612,-0.390209773349762
10.532064393939393,-0.0702128977775574,-0.106123596096039,-0.447690242099762
10.532670454545455,-0.240259284496307,-0.204319396877289,-0.318359187412262
10.533276515151513,-0.0678178782463074,-0.149233947658539,-0.47164043741226197
10.533882575757575,-0.0486577219963074,0.0735028687477112,-0.378234675693512
10.534488636363635,-0.175593757152557,-0.0318779906272888,-0.296804011631012
10.535094696969697,-0.32887500715255696,-0.209109435939789,-0.318359187412262
10.535700757575757,-0.110928229808807,-0.0797783812522888,-0.39260479288101197
10.536306818181817,-0.247444343090057,0.12619329843521102,-0.34230938272476197
10.536912878787879,-0.233074225902557,-0.0701983031272888,-0.33272930459976197
10.537518939393939,-0.187568854808807,-0.16360406484603898,-0.428530085849762
10.538124999999999,-0.149248542308807,-0.108518615627289,0.0552638594627376
10.538731060606061,-0.0247075266838074,-0.0893584593772888,0.0408937422752376
10.539337121212121,-0.362405280590057,-0.0797783812522888,-0.457270320224762
10.539943181818181,0.0160078053474426,-0.0749883421897888,-0.26566875772476195
10.540549242424241,-0.0582378001213074,-0.0678032835960388,-0.227348445224762
10.541155303030303,-0.28097461652755695,-0.0725933226585388,-0.366259578037262
10.541761363636363,-0.24504932355880701,-0.261799865627289,-0.224953425693512
10.542367424242423,-0.486946296215057,-0.201924377346039,-0.512355769443512
10.542973484848485,-0.18517383527755701,0.00883734140396119,-0.5434910233497621
10.543579545454545,-0.0151274485588074,-0.055828185939788805,-0.409369929599762
10.544185606060605,-0.266604499340057,-0.39831597890853904,-0.330334285068512
10.544791666666667,-0.10853321027755701,-0.245034728908539,-0.349494441318512
10.545397727272727,-0.0103374094963074,0.138168396091461,-0.47403545694351196
10.546003787878787,-0.201938971996307,0.253129333591461,-0.25608867959976195
10.546609848484849,-0.35761524152755697,0.14056341562271102,-0.33512432413101195
10.547215909090909,-0.149248542308807,-0.110913635158539,-0.347099421787262
10.547821969696969,-0.0941630930900574,0.00404730234146119,-0.224953425693512
10.548428030303029,-0.166013679027557,-0.26898492422103903,-0.579416316318512
10.54903409090909,-0.266604499340057,-0.060618225002288806,-0.677612117099762
10.54964015151515,-0.36959033918380696,0.193253845310211,-0.397394831943512
10.55024621212121,-0.0941630930900574,-0.0701983031272888,-0.5434910233497621
10.550852272727273,-0.235469245433807,-0.30012017812728903,-0.28482891397476195
10.551458333333333,-0.209124030590057,-0.0965435179710388,-0.40457989053726195
10.552064393939393,-0.31929492902755696,0.0926630249977112,-0.40218487100601197
10.552670454545455,-0.254629401683807,-0.0917534789085388,-0.25608867959976195
10.553276515151515,-0.0582378001213074,0.013627380466461201,-0.49319561319351196
10.553882575757575,-0.192358893871307,-0.115703674221039,-0.490800593662262
10.554488636363635,0.116598625659943,-0.221084533596039,-0.390209773349762
10.555094696969697,-0.218704108715057,0.123798278903961,-0.457270320224762
10.555700757575757,-0.127693366527557,0.138168396091461,-0.33272930459976197
10.556306818181817,-0.0750029368400574,0.138168396091461,-0.203398249912262
10.556912878787879,-0.465391120433807,-0.0773833617210388,-0.481220515537262
10.557518939393939,-0.00794238996505738,-0.0318779906272888,-0.416554988193512
10.558124999999999,-0.237864264965057,0.142958435153961,-0.39499981241226195
10.55873106060606,-0.31929492902755696,0.18127874765396101,-0.409369929599762
10.55933712121212,-0.012732429027557399,0.0303925171852112,-0.318359187412262
10.55994318181818,-0.154038581371307,-0.0797783812522888,-0.347099421787262
10.56054924242424,-0.276184577465057,0.0495526734352112,-0.236928523349762
10.561155303030302,-0.146853522777557,-0.051038146877288804,-0.222558406162262
10.561761363636363,-0.233074225902557,0.0735028687477112,-0.41415996866226196
10.562367424242423,-0.221099128246307,0.032787536716461195,-0.306384089756012
10.562973484848484,-0.149248542308807,-0.27856500234603904,-0.33512432413101195
10.563579545454544,0.0207978444099426,-0.247429748439789,-0.5410960038185121
10.564185606060605,-0.163618659496307,-0.108518615627289,-0.457270320224762
10.564791666666666,-0.34803516340255697,-0.0222979125022888,-0.287223933506012
10.565397727272726,-0.221099128246307,-0.161209045314789,-0.459665339756012
10.566003787878786,-0.216309089183807,-0.156419006252289,-0.591391413974762
10.566609848484847,0.0639081959724426,0.0447626343727112,-0.299199031162262
10.567215909090908,-0.0797929759025574,-0.0797783812522888,-0.114782527256012
10.567821969696968,-0.120508307933807,0.0735028687477112,-0.339914363193512
10.568428030303028,-0.32168994855880695,0.0806879273414612,0.0504738204002376
10.56903409090909,-0.264209479808807,-0.28814508047103904,0.32590106649398803
10.569640151515152,0.027982903003692598,-0.115703674221039,-0.222558406162262
10.57024621212121,-0.307319831371307,0.119008239841461,-0.459665339756012
10.570852272727272,-0.376775397777557,-0.0414580687522888,-0.308779109287262
10.571458333333332,-0.182778815746307,-0.134863830471039,-0.35428448038101196
10.572064393939392,-0.177988776683807,-0.252219787502289,-0.33512432413101195
10.572670454545454,-0.0103374094963074,-0.27616998281478905,-0.529120906162262
10.573276515151514,0.0375629811286926,-0.146838928127289,-0.421345027256012
10.573882575757576,-0.142063483715057,-0.154023986721039,-0.371049617099762
10.574488636363636,-0.201938971996307,0.0543427124977112,-0.596181453037262
10.575094696969696,-0.0702128977775574,-0.0869634398460388,-0.476430476474762
10.575700757575758,0.0782783131599426,-0.182764221096039,-0.466850398349762
10.576306818181818,-0.240259284496307,0.0160223999977112,-0.596181453037262
10.576912878787878,-0.137273444652557,-0.130073791408539,-0.112387507724762
10.577518939393938,-0.19475391340255702,-0.142048889064789,-0.36386455850601196
10.578125,-0.211519050121307,-0.213899475002289,-0.430925105381012
10.57873106060606,-0.29055469465255696,-0.0654082640647888,-0.327939265537262
10.57933712121212,-0.292949714183807,0.059132751560211194,-0.406974910068512
10.579943181818182,-0.132483405590057,0.0543427124977112,-0.220163386631012
10.580549242424242,-0.233074225902557,-0.00792779531478881,-0.49559063272476195
10.581155303030302,-0.36959033918380696,-0.146838928127289,-0.5099607499122619
10.581761363636364,-0.276184577465057,-0.120493713283539,-0.421345027256012
10.582367424242424,-0.27139453840255695,-0.0127178343772888,-0.232138484287262
10.582973484848484,-0.276184577465057,0.0830829468727112,-0.46206035928726197
10.583579545454544,-0.10134815168380701,0.13098333749771102,-0.306384089756012
10.584185606060606,-0.276184577465057,-0.060618225002288806,-0.526725886631012
10.584791666666666,-0.192358893871307,-0.134863830471039,-0.490800593662262
10.585397727272726,-0.216309089183807,-0.0390630492210388,-0.0956223710060124
10.586003787878788,-0.302529792308807,0.145353454685211,-0.239323542881012
10.586609848484848,-0.5037114329338069,0.0639227906227112,-0.49319561319351196
10.587215909090908,-0.182778815746307,-0.118098693752289,-0.512355769443512
10.58782196969697,-0.0606328196525574,-0.0390630492210388,-0.260878718662262
10.58842803030303,-0.35043018293380696,0.00883734140396119,-0.28482891397476195
10.58903409090909,-0.34803516340255697,-0.0462481078147888,-0.155497859287262
10.589640151515152,-0.304924811840057,0.0495526734352112,-0.311174128818512
10.590246212121212,-0.343245124340057,-0.0055327757835388095,-0.44290020303726196
10.590852272727272,-0.201938971996307,-0.185159240627289,-0.478825496006012
10.591458333333332,-0.118113288402557,-0.0965435179710388,-0.46445537881851195
10.592064393939394,-0.242654304027557,0.0471576539039612,-0.361469538974762
10.592670454545454,0.0136127858161926,-0.060618225002288806,-0.466850398349762
10.593276515151514,-0.127693366527557,0.037577575778961196,-0.191423152256012
10.593882575757576,-0.156433600902557,-0.00792779531478881,-0.26566875772476195
10.594488636363636,-0.0558427805900574,-0.182764221096039,-0.632106746006012
10.595094696969696,-0.237864264965057,-0.187554260158539,-0.46206035928726197
10.595700757575758,-0.228284186840057,-0.0701983031272888,-0.421345027256012
10.596306818181818,-0.326479987621307,0.0782929078102112,-0.529120906162262
10.596912878787878,-0.204333991527557,-0.285750060939789,-0.409369929599762
10.597518939393938,-0.115718268871307,-0.175579162502289,0.25644550008773803
10.598125,-0.18517383527755701,0.032787536716461195,-0.421345027256012
10.59873106060606,-0.173198737621307,-0.0055327757835388095,-0.0764622147560124
10.59933712121212,-0.12529834699630701,-0.161209045314789,0.242075382900238
10.599943181818182,-0.00794238996505738,-0.0893584593772888,-0.5818113358497621
10.600549242424242,-0.235469245433807,-0.0678032835960388,-0.48361553506851196
10.601155303030302,-0.230679206371307,0.0423676148414612,-0.31356914834976196
10.601761363636363,-0.132483405590057,0.10224310312271101,-0.31596416788101195
10.602367424242424,-0.0750029368400574,-0.142048889064789,-0.416554988193512
10.602973484848484,-0.122903327465057,-0.16839410390853898,-0.28243389444351197
10.603579545454544,-0.192358893871307,0.0423676148414612,-0.5650461991310121
10.604185606060605,-0.453416022777557,-0.0678032835960388,-0.438110163974762
10.604791666666666,-0.412700690746307,-0.0845684203147888,-0.390209773349762
10.605397727272726,-0.0989531321525574,-0.015112853908538799,-0.378234675693512
10.606003787878787,-0.28815967512130697,-0.118098693752289,-0.38541973428726195
10.606609848484847,-0.158828620433807,-0.242639709377289,-0.538700984287262
10.607215909090908,0.049538078784942596,0.0567377320289612,-0.447690242099762
10.60782196969697,-0.10374317121505701,0.00165228281021119,-0.418950007724762
10.60842803030303,-0.158828620433807,-0.187554260158539,-0.145917781162262
10.60903409090909,-0.110928229808807,-0.0127178343772888,-0.41176494913101197
10.609640151515151,-0.10853321027755701,-0.16360406484603898,-0.36386455850601196
10.610246212121211,-0.13487842512130702,-0.0965435179710388,-0.430925105381012
10.610852272727271,-0.39114551496505695,0.061527771091461195,-0.5434910233497621
10.611458333333331,-0.24983936262130702,0.11182318124771101,-0.296804011631012
10.612064393939393,-0.166013679027557,-0.185159240627289,-0.08125225381851241
10.612670454545455,-0.163618659496307,-0.35760064687728904,-0.260878718662262
10.613276515151513,-0.142063483715057,-0.058223205471038805,-0.43332012491226196
10.613882575757575,-0.168408698558807,0.0543427124977112,-0.24890362100601202
10.614488636363635,-0.173198737621307,0.037577575778961196,-0.327939265537262
10.615094696969695,-0.295344733715057,-0.187554260158539,-0.308779109287262
10.615700757575757,-0.223494147777557,-0.29772515859603904,-0.536305964756012
10.616306818181817,-0.34085010480880695,-0.0773833617210388,-0.481220515537262
10.616912878787879,-0.10134815168380701,0.0782929078102112,-0.29440899209976196
10.617518939393939,-0.118113288402557,0.0423676148414612,-0.287223933506012
10.618125,-0.324084968090057,-0.134863830471039,-0.32554424600601195
10.618731060606061,-0.158828620433807,0.00644232187271119,-0.33272930459976197
10.619337121212121,-0.304924811840057,-0.146838928127289,-0.39499981241226195
10.619943181818181,-0.367195319652557,-0.120493713283539,-0.327939265537262
10.620549242424241,-0.312109870433807,-0.0127178343772888,-0.239323542881012
10.621155303030303,-0.257024421215057,-0.22347955312728898,-0.368654597568512
10.621761363636363,-0.170803718090057,-0.31928033437728903,-0.46206035928726197
10.622367424242423,-0.0702128977775574,-0.015112853908538799,-0.45487530069351195
10.622973484848485,-0.012732429027557399,0.0160223999977112,-0.31356914834976196
10.623579545454545,-0.24504932355880701,-0.106123596096039,-0.205793269443512
10.624185606060605,-0.235469245433807,0.327374939060211,-0.40218487100601197
10.624791666666667,-0.10374317121505701,-0.39831597890853904,-0.459665339756012
10.625397727272727,-0.431860846996307,-0.460586486721039,-0.476430476474762
10.626003787878787,-0.19954395246505702,0.703393005466461,0.110349308681488
10.626609848484847,-0.0510527415275574,0.308214782810211,-0.809338191318512
10.627215909090909,-0.551611823558807,-1.38027398672104,-0.6033665116310121
10.627821969696969,0.35849559831619304,1.0458807984352099,0.182199894618988
10.628428030303029,0.31059520769119303,0.37048529062271096,0.0768190352439876
10.62903409090909,-1.0473808665275601,-1.28686822500229,-0.0980173905372624
10.62964015151515,-0.0342876048088074,0.780033630466461,0.122324406337738
10.630246212121211,0.26748485612869305,0.540531677341461,-0.308779109287262
10.630852272727273,-0.951580085277557,-0.927615295314789,-1.23325664834976
10.631458333333333,-0.565981940746307,-0.280960021877289,-0.548281062412262
10.632064393939393,1.56798046159744,0.751293396091461,-0.0668821366310124
10.632670454545455,0.150128899097443,-0.23305963125228898,-0.486010554599762
10.633276515151515,-1.7012211985588102,-0.44861138906478903,-0.246508601474762
10.633882575757575,-0.953975104808807,1.03390570077896,-0.430925105381012
10.634488636363635,0.954855461597443,-0.9228252562522891,-0.519540828037262
10.635094696969697,-0.0247075266838074,0.542926696872711,-0.799758113193512
10.635700757575757,-1.3419682688713102,0.621962341403961,0.0217335860252376
10.636306818181817,0.212399406909943,-2.68076959218979,-0.43332012491226196
10.636912878787879,1.5368452076911898,2.5858783570289603,-0.878793757724762
10.637518939393939,-1.2868828196525601,-0.314490295314789,-0.418950007724762
10.638124999999999,-2.24968067121506,-2.20176568593979,-0.854843562412262
10.63873106060606,2.4828779225349398,1.54883489999771,0.0624489180564876
10.63933712121212,0.49740673112869305,1.66858587656021,-0.31356914834976196
10.63994318181818,-3.37054981184006,-2.4532427367210397,-1.13027080850601
10.64054924242424,-0.127693366527557,-1.1096367796897901,-0.610551570224762
10.641155303030303,3.70433788347244,4.98329290781021,-1.1111106522560101
10.641761363636363,-2.2377055735588103,-3.0424175414085397,-0.34230938272476197
10.642367424242423,-2.4939726634025603,-1.16472222890854,-0.40218487100601197
10.642973484848484,2.79662548112869,1.63266058359146,-0.18902813272476202
10.643579545454545,0.830314445972443,0.830329040622711,-0.35428448038101196
10.644185606060605,-2.8029301829338102,-1.5886406859397901,-0.806943171787262
10.644791666666666,-0.982715339183807,-0.7240386351585391,-0.670427058506012
10.645397727272726,2.9882270436286897,2.5355829468727102,-0.593786433506012
10.646003787878787,-1.08809619855881,-2.11554498281479,-0.38541973428726195
10.646609848484847,-1.82815723371506,0.808773864841461,-0.459665339756012
10.647215909090908,0.906955070972443,-0.453401428127289,-0.668032038974762
10.647821969696968,2.28409130144119,1.78354681406021,-0.141127742099762
10.648428030303029,-2.47960254621506,-0.539622131252289,0.26602557821273803
10.64903409090909,-3.69627246809006,-2.2640361937522897,-1.2979221756935102
10.64964015151515,3.67080761003494,2.67688909921646,-0.222558406162262
10.65024621212121,0.530937004566193,0.346535095310211,0.0169435469627376
10.650852272727272,-4.07947559309006,-2.06524957265854,-2.1888694413185097
10.651458333333332,1.0961616139411898,-1.21741265859604,0.460022160243988
10.652064393939392,3.99174022722244,4.33903265390396,0.00257342977523756
10.652670454545454,-2.64725391340256,-1.8712529906272901,-1.1997263749122602
10.653276515151514,-3.4783256907463103,-1.75629205312729,-0.10041241006851201
10.653882575757574,3.39777538347244,2.5355829468727102,-0.699167292881012
10.654488636363634,0.842289543628693,-0.472561584377289,-0.124362605381012
10.655094696969696,-3.43761035871506,-0.647398010158539,-0.550676081943512
10.655700757575758,-1.1886870188713101,-1.45691461172104,-0.711142390537262
10.656306818181818,4.66474071550369,4.00372991952896,-0.9841746170997621
10.656912878787878,-1.56949512434006,-1.9478936156272901,0.0696339766502376
10.657518939393938,-4.56566455793381,-1.90717828359604,0.450442082118988
10.658125,4.27195751237869,0.871044372653961,0.179804875087738
10.65873106060606,1.6949164967536898,1.36920843515396,-0.869213679599762
10.65933712121212,-3.8208134837150602,-0.49651177968978905,-0.0764622147560124
10.659943181818182,-2.85083057355881,-3.61961724843979,-0.929089167881012
10.660549242424242,5.83111522722244,4.262392028903959,-0.349494441318512
10.661155303030302,-0.37917041730880696,-0.460586486721039,0.0911891524314876
10.661761363636364,-4.90815235090256,-2.56820367422104,-2.0595383866310097
10.662367424242424,2.34157177019119,0.176488708591461,0.0672389571189876
10.662973484848484,3.08881786394119,3.50556585702896,0.189384953212738
10.663579545454544,-2.99213672590256,-1.89041314687729,-1.4488084061622601
10.664185606060606,-3.54299121809006,-2.2975664671897897,-0.40218487100601197
10.664791666666666,5.02159862565994,3.73788275156021,-0.6632419999122621
10.665397727272726,0.272274895191193,-0.645002990627289,-0.160287898349762
10.666003787878788,-4.72373584699631,-1.55750543203354,-0.737487605381012
10.666609848484848,-0.0965581126213074,-1.31321343984604,-1.15661602334976
10.667215909090908,6.02032177019119,4.57374456796646,0.198965031337738
10.66782196969697,-3.51425098371506,-2.3239116820335397,-0.5075657303810119
10.66842803030303,-5.28177539777756,-2.03650933828354,-0.718327449131012
10.66903409090909,5.18206493425369,1.85300238046646,-0.653661921787262
10.66964015151515,1.17040721940994,0.475866149997711,0.388171574306488
10.670246212121212,-4.19204151105881,0.224389099216461,-0.816523249912262
10.670852272727272,-2.0077836985588102,-3.41604058828354,-0.754252742099762
10.671458333333332,4.99525341081619,3.92469427499771,-0.5818113358497621
10.672064393939394,-0.994690436840057,-0.31928033437728903,-0.699167292881012
10.672670454545454,-5.20752979230881,-1.83532769765854,-0.48361553506851196
10.673276515151514,3.01217723894119,0.00883734140396119,0.160644718837738
10.673882575757576,3.96539501237869,3.85523870859146,-0.277643855381012
10.674488636363636,-5.03508838605881,-2.17542047109604,-1.77453106241226
10.675094696969696,-4.72852588605881,-3.8567241820335396,-0.45248028116226197
10.675700757575758,7.93873241472244,6.15685247812271,0.419306828212738
10.676306818181818,-0.886914557933807,-0.8437896117210391,-0.986569636631012
10.676912878787878,-6.87446338605881,-4.0052153929710395,-1.28355205850601
10.677518939393938,3.26604930925369,-0.0893584593772888,-0.143522761631012
10.678125,4.88508251237869,5.04316839609146,-0.816523249912262
10.67873106060606,-4.33813770246506,-4.29501275625229,-0.191423152256012
10.67933712121212,-4.12977100324631,-0.8222344359397891,-0.478825496006012
10.679943181818182,6.0634321217536895,2.79424505624771,-0.406974910068512
10.680549242424242,0.114203606128693,-1.39464410390854,-0.028561824131012402
10.681155303030302,-4.60398487043381,0.6147772828102109,-0.7805979569435121
10.681761363636364,-0.9396049876213071,-2.5825737914085396,-1.19493633584976
10.682367424242424,6.04906200456619,3.75464788827896,0.450442082118988
10.682973484848484,-1.92635303449631,0.0447626343727112,-0.25129864053726203
10.683579545454544,-6.85051319074631,-3.3082647093772897,-1.00333477334976
10.684185606060606,4.83718212175369,1.45063909921646,-0.153102839756012
10.684791666666666,3.9797651295661898,3.26366888437271,-0.0644871170997624
10.685397727272726,-5.72724903059006,-2.8819512328147896,-1.2524168045997601
10.686003787878787,-3.38012988996506,-3.42322564687729,0.0169435469627376
10.686609848484848,7.81898143815994,5.000058044528959,0.249260441493988
10.687215909090908,-1.1359965891838102,0.114218200778961,-1.77213604288101
10.68782196969697,-7.03492969465256,-3.36335015859604,-0.715932429599762
10.68842803030303,3.5007612233161898,-0.5036968382835391,0.46481219930648804
10.68903409090909,4.69108593034744,5.100648864841459,-0.708747371006012
10.689640151515151,-4.8003764719963105,-3.06636773672104,-1.1877512772560102
10.690246212121211,-4.36448291730881,-2.4268975218772897,-0.874003718662262
10.690852272727271,7.55313427019119,4.74379095468521,-0.239323542881012
10.691458333333332,0.29862011003494304,-1.15993218984604,-0.153102839756012
10.692064393939393,-7.08762012434006,-2.1275200804710397,-1.0584202225685102
10.692670454545453,1.25662792253494,-0.812654357814789,-0.938669246006012
10.693276515151513,6.88971386003494,4.57374456796646,-0.579416316318512
10.693882575757575,-4.37645801496506,-2.8220757445335396,-0.224953425693512
10.694488636363635,-6.01704639387131,-2.32151666250229,-0.117177546787262
10.695094696969695,6.67416210222244,2.18112005624771,-1.33145244913101
10.695700757575757,1.43146434831619,0.5932221070289609,0.17022479696273798
10.696306818181817,-5.4326616282463105,0.202833923435211,-0.612946589756012
10.696912878787877,-2.26884082746506,-3.8878594359397898,-0.972199519443512
10.697518939393937,6.89450389909744,4.255206970310209,0.8743605391502379
10.698125,-1.6365556712150602,0.8925995484352109,-1.0680003006935102
10.698731060606061,-7.10438526105881,-3.8375640257835397,-1.5637693436622602
10.699337121212121,5.09823925065994,0.45191595468521095,0.29476581258773804
10.699943181818181,4.53780468034744,5.08388372812271,-0.48361553506851196
10.700549242424241,-6.07452686262131,-3.4280156859397897,-1.02728496866226
10.701155303030303,-4.76445117902756,-3.95491998281479,-0.126757624912262
10.701761363636363,9.179352531909942,7.26574652109146,-1.1781711991310102
10.702367424242423,-1.07133106184006,-1.86885797109604,-1.59250957803726
10.702973484848485,-8.25399463605881,-3.2651543578147897,0.38338153524398805
10.703579545454545,3.00738719987869,-0.37915582265853903,0.517502628993988
10.704185606060605,6.23347850847244,5.19644964609146,-1.00812481241226
10.704791666666667,-5.24345508527756,-3.14061334218979,-0.636896785068512
10.705397727272727,-5.14525928449631,-3.06397271718979,-0.751857722568512
10.706003787878787,7.89083202409744,4.19293646249771,-0.526725886631012
10.706609848484849,0.30820018815994304,-1.1910674437522901,-0.0141917069435124
10.707215909090909,-6.04578662824631,-0.225874572658539,-0.790178035068512
10.707821969696969,-0.383960456371307,-2.03650933828354,-0.996149714756012
10.708428030303029,7.46930858659744,3.9797797242164603,0.292370793056488
10.70903409090909,-3.03045703840256,-0.494116760158539,-0.0764622147560124
10.709640151515151,-8.301895026683809,-3.16695855703354,-0.919509089756012
10.710246212121211,6.09456737565994,0.969240173435211,-0.31356914834976196
10.710852272727273,4.8323920826911895,4.3031073609352095,-0.339914363193512
10.711458333333333,-7.24090137434006,-2.7166948851585397,-1.01051983194351
10.712064393939393,-3.36575977277756,-4.61115533437729,-0.497985652256012
10.712670454545455,9.74697216081619,6.95199896249771,0.17022479696273798
10.713276515151515,-1.88803272199631,-0.510881896877289,-0.850053523349762
10.713882575757575,-8.16537891340256,-4.11778131093979,-0.766227839756012
10.714488636363635,4.54498973894119,0.586037048435211,-0.28243389444351197
10.715094696969697,5.31618602800369,4.68631048593521,-0.418950007724762
10.715700757575757,-5.96435596418381,-3.04481256093979,-0.38302471475601196
10.716306818181817,-4.96084278059006,-1.9862139281272901,-1.18535625772476
10.716912878787879,8.84883983659744,4.15222113046646,-0.548281062412262
10.717518939393939,0.624342766284943,-0.508486877346039,0.0241286055564876
10.718124999999999,-8.42643604230881,-2.13949517812729,-0.0381419022560124
10.71873106060606,1.61109081315994,-1.87843804922104,0.182199894618988
10.71933712121212,7.44775341081619,5.53654241952896,-0.835683406162262
10.71994318181818,-4.72373584699631,-1.8113775023460401,0.0840040938377376
10.72054924242424,-7.36544238996506,-3.76331842031479,-0.711142390537262
10.721155303030303,7.98902782487869,2.42780706796646,-0.555466121006012
10.721761363636363,2.7583051686286897,2.4062518921852103,0.299555851650238
10.722367424242423,-7.50674854230881,-1.86885797109604,-1.66915020303726
10.722973484848485,-1.36112842512131,-3.7944536742210397,-0.6608469803810121
10.723579545454545,8.635683098316191,5.45750677499771,0.369011418056488
10.724185606060605,-2.39577686262131,-0.853369689846039,0.0648439375877376
10.724791666666667,-8.34261035871506,-3.54537164297104,-1.2739719803810101
10.725397727272727,5.94128612565994,1.00037542734146,-0.0716721756935124
10.726003787878787,5.10781932878494,4.21209661874771,-0.629711726474762
10.726609848484847,-6.77866260480881,-3.24359918203354,-0.9242991288185121
10.727215909090908,-4.63512012434006,-4.18244683828354,-0.711142390537262
10.727821969696969,10.233161125659901,6.98792425546646,-0.826103328037262
10.728428030303029,-0.8198540110588071,-0.728828674221039,-0.172262996006012
10.72903409090909,-9.987988776683808,-3.13103326406479,-0.289618953037262
10.72964015151515,3.71870800065994,-0.321675353908539,-0.629711726474762
10.73024621212121,7.01664989519119,4.93060247812271,-0.37583965616226195
10.730852272727272,-5.52367237043381,-2.6328692015647897,-0.0501169999122624
10.731458333333332,-5.93322071027756,-3.1382183226585396,-1.1278757889747602
10.732064393939392,8.18781444597244,3.7905731812477104,-0.519540828037262
10.732670454545454,1.50810497331619,0.29144964609146096,-0.0309568436622624
10.733276515151514,-7.47561328840256,-1.09766168203354,-0.555466121006012
10.733882575757574,-0.28815967512130697,-3.0256524046897897,-0.356679499912262
10.734488636363634,8.53269725847244,5.83112982187271,0.105559269618988
10.735094696969696,-3.80883838605881,-1.21741265859604,-0.320754206943512
10.735700757575756,-9.16170703840256,-4.180051818752291,-1.13745586709976
10.736306818181816,8.12314891862869,1.7811517945289599,-0.42374004678726196
10.736912878787878,4.79646678972244,4.35100775156021,-0.208188288974762
10.737518939393938,-9.154521979808809,-3.3010796507835396,-1.05363018350601
10.738125,-2.78377002668381,-3.8375640257835397,-1.25720684366226
10.73873106060606,10.6379194264412,7.02624456796646,-0.18423809366226201
10.73933712121212,-2.24249561262131,-1.97423883047104,0.00975848836898756
10.73994318181818,-9.10662158918381,-2.82686578359604,-0.459665339756012
10.74054924242424,4.72940624284744,0.717763122653961,-0.308779109287262
10.741155303030302,5.68022899675369,3.96540960702896,-0.567441218662262
10.741761363636364,-5.91645557355881,-2.74543511953354,-0.31356914834976196
10.742367424242424,-4.6542802805900605,-2.75501519765854,-0.45487530069351195
10.742973484848484,9.016491203784941,4.03965521249771,-0.988964656162262
10.743579545454544,0.966830559253693,0.677047790622711,0.107954289150238
10.744185606060606,-9.432344245433809,-2.4005523070335397,-0.153102839756012
10.744791666666666,1.70449657487869,-2.36941705312729,-0.7422776444435121
10.745397727272726,8.35307079362869,5.50780218515396,-0.512355769443512
10.746003787878788,-5.45182178449631,-1.29405328359604,0.33548114461898804
10.746609848484848,-8.30668506574631,-4.02677056875229,-2.02121807413101
10.747215909090908,8.77459423112869,2.25536566171646,0.198965031337738
10.74782196969697,3.77379344987869,3.42892523202896,0.39296161336898805
10.74842803030303,-9.13057178449631,-3.66991265859604,-1.89188701944351
10.74903409090909,-1.1575517649650602,-3.38251031484604,-0.169867976474762
10.749640151515152,9.749367180347441,6.896913513278959,-0.596181453037262
10.750246212121212,-3.3849199290275602,-1.84251275625229,-0.6440818436622621
10.750852272727272,-8.414460944652559,-3.5717168578147898,-0.35188946084976197
10.751458333333332,6.47777050065994,1.46021917734146,-0.732697566318512
10.752064393939394,5.42635692644119,3.6971674195289603,-0.8811887772560121
10.752670454545454,-7.41573780012131,-2.8699761351585398,0.110349308681488
10.753276515151514,-4.41956836652756,-3.5884819945335398,-1.4655735428810102
10.753882575757576,11.339660149097401,5.373681091403959,-0.009401667881012439
10.754488636363636,-1.4018437571525602,-0.898875060939789,0.400146671962738
10.755094696969696,-10.9699467844963,-2.2903814085960397,-0.6440818436622621
10.755700757575758,4.13783641862869,-1.0282061156272901,-0.7805979569435121
10.756306818181818,7.01664989519119,4.27915716562271,-0.553071101474762
10.756912878787878,-5.74161914777756,-1.47607476797104,0.242075382900238
10.757518939393938,-6.44814990949631,-3.9932402953147896,-1.70747051553726
10.758125,8.604547844409941,3.0121918335914604,-0.497985652256012
10.75873106060606,2.24816600847244,2.34877142343521,-0.36386455850601196
10.75933712121212,-8.790479011058808,-2.6328692015647897,-1.1877512772560102
10.759943181818182,-0.12529834699630701,-3.55974176015854,-0.0836472733497624
10.760549242424242,9.75415721940994,6.55442572031021,-0.157892878818512
10.761155303030302,-4.44591358137131,-1.41619927968979,-0.41415996866226196
10.761761363636364,-10.426277350902598,-4.19202691640854,-1.6715452225685101
10.762367424242424,9.31347362565994,2.41104193124771,-0.37583965616226195
10.762973484848484,4.82999706315994,3.9103241578102104,-0.150707820224762
10.763579545454544,-10.019124030590099,-4.08904107656479,-0.550676081943512
10.764185606060606,-2.07963428449631,-3.5741118773460396,-0.5842063553810121
10.764791666666666,11.0259125905037,6.530475524997709,-0.9242991288185121
10.765397727272726,-2.7598198313713103,-2.1610503539085397,0.34506122274398804
10.766003787878788,-9.27187793684006,-2.2376909789085397,-0.517145808506012
10.766609848484848,5.2515205006599395,0.123798278903961,-0.878793757724762
10.767215909090908,5.66825389909744,3.17984320077896,-0.260878718662262
10.76782196969697,-6.15835254621506,-1.08089654531479,-0.0596970780372624
10.76842803030303,-5.2530351634025605,-3.34658502187729,-0.9410642655372621
10.76903409090909,9.58171581315994,3.60136663827896,-0.874003718662262
10.769640151515151,1.45780956315994,1.78833685312271,0.524687687587738
10.770246212121211,-10.6226689524651,-2.8627910765647897,-0.7638328202247621
10.770852272727272,1.4290693287849399,-2.16584039297104,-0.890768855381012
10.771458333333332,10.031979485034901,5.811969665622709,0.706709171962738
10.772064393939393,-6.02423145246506,-1.72755181875229,-0.177053035068512
10.772670454545453,-8.86232959699631,-4.56804498281479,-2.19365948038101
10.773276515151514,9.64159130144119,2.44217718515396,-0.0453269608497624
10.773882575757575,3.59416698503494,3.88876898202896,-1.27876201944351
10.774488636363635,-9.62394580793381,-4.17765679922104,-0.608156550693512
10.775094696969695,-0.9372099680900571,-2.78136041250229,0.222915226650238
10.775700757575757,10.0774848561287,6.45383489999771,-1.05363018350601
10.776306818181817,-3.7777031321525603,-1.9263384398460401,-0.34470440225601195
10.776912878787877,-9.022795905590058,-2.5107232054710398,-0.399789851474762
10.777518939393937,6.34604442644119,1.33807318124771,-0.790178035068512
10.778125,5.94847118425369,3.1678681031227103,-0.43332012491226196
10.77873106060606,-8.39769580793381,-2.3766021117210396,-0.102807429599762
10.77933712121212,-4.48183887434006,-3.56213677968979,-1.69070537881851
10.779943181818181,11.7563935475349,4.94976263437271,0.0337086836814876
10.780549242424241,-1.56949512434006,0.00165228281021119,0.946211125087738
10.781155303030303,-11.0609575266838,-2.6304741820335398,-1.0512351639747601
10.781761363636363,4.09472606706619,-1.65570123281479,-0.854843562412262
10.782367424242423,7.83095653581619,4.60487982187271,0.151064640712738
10.782973484848483,-6.44335987043381,-0.908455139064789,-0.8811887772560121
10.783579545454543,-7.15468067121506,-4.42434381093979,-2.0858836014747597
10.784185606060605,9.41645946550369,2.8780707398414602,0.42409686727523804
10.784791666666667,2.47090282487869,2.9954266968727103,-0.356679499912262
10.785397727272727,-9.86344776105881,-3.03762750234604,-0.907533992099762
10.786003787878787,0.09264843034744259,-3.11426812734604,0.143879582118988
10.786609848484847,10.5181684498787,6.86098822031021,-0.569836238193512
10.787215909090909,-5.18118457746506,-1.47846978750229,0.0504738204002376
10.787821969696969,-10.0526543040276,-4.64708062734604,-0.993754695224762
10.788428030303029,9.11708202409744,2.5762982789039603,-1.09674053506851
10.789034090909091,4.54498973894119,3.42653021249771,-0.28243389444351197
10.789640151515151,-10.1652202219963,-3.5573467406272896,-0.169867976474762
10.790246212121211,-1.9455131907463101,-3.2124639281272898,-0.201003230381012
10.790852272727273,11.4474360280037,5.39044622812271,-1.02728496866226
10.791458333333333,-3.19331836652756,-1.20304254140854,0.0648439375877376
10.792064393939393,-9.329358405590058,-2.09638482656479,-0.49559063272476195
10.792670454545455,5.42396190690994,-0.415081115627289,-1.0727903397560101
10.793276515151515,6.06103710222244,3.2516937867164604,0.198965031337738
10.793882575757575,-6.52718555402756,-0.32646539297103905,-0.260878718662262
10.794488636363635,-5.51409229230881,-3.75613336172104,-2.1026487381935097
10.795094696969697,10.2834565358162,3.14631292734146,-0.45487530069351195
10.795700757575757,1.4602045826911898,2.82298529062271,0.34266620321273805
10.796306818181817,-11.1375981516838,-2.9561968382835397,-1.29313213663101
10.796912878787879,1.2662080006599399,-2.9993071898460397,-0.29440899209976196
10.797518939393939,10.621154289722401,6.76279241952896,0.0432887618064876
10.798124999999999,-6.84572315168381,-1.58145562734604,-0.919509089756012
10.79873106060606,-8.87430469465256,-5.14284967031479,-0.8644236405372621
10.79933712121212,10.2547163014412,2.95710638437271,-0.236928523349762
10.79994318181818,3.1678535084724397,3.88876898202896,-1.55418926553726
10.80054924242424,-10.1652202219963,-4.2327422484397905,0.378591496181488
10.801155303030303,-0.431860846996307,-2.66160943593979,-0.49319561319351196
10.801761363636363,10.532538567066199,5.83112982187271,-0.5099607499122619
10.802367424242423,-4.08666065168381,-1.59343072500229,0.210940128993988
10.802973484848485,-9.09943653059006,-2.2736162718772897,-1.11350567178726
10.803579545454545,6.51130077409744,0.689022888278961,-1.09195049600601
10.804185606060605,6.20234325456619,2.96429144296646,-0.00221660928726244
10.804791666666667,-8.752158698558809,-1.60301080312729,-0.553071101474762
10.805397727272727,-4.48902393293381,-3.71541802968979,-1.39611797647476
10.806003787878787,11.251044426441199,4.18096136484146,-0.0333518631935124
10.806609848484849,-1.2389824290275602,1.32609808359146,-0.406974910068512
10.807215909090909,-10.8070854563713,-3.3513750609397897,-0.548281062412262
10.807821969696969,3.8432490162849398,-1.90238824453354,-0.416554988193512
10.808428030303029,8.582992668628691,5.46229681406021,0.689944035243988
10.80903409090909,-6.42898975324631,-0.597102600002289,-1.7649509842872602
10.80964015151515,-7.21934619855881,-5.178774963283541,-1.87751690225601
10.81024621212121,9.996054192066191,2.8349603882789602,0.857595402431488
10.810852272727272,2.17871044206619,3.34030950937271,-0.909929011631012
10.811458333333333,-10.6777544016838,-3.54297662343979,-0.586601374912262
10.812064393939393,0.5117768483161931,-2.54185845937729,-0.356679499912262
10.812670454545454,10.7480903248787,5.78322943124771,-0.7039573319435121
10.813276515151514,-5.10933399152756,-1.04257623281479,-0.24411358194351201
10.813882575757575,-10.0789995188713,-4.27824761953354,-0.850053523349762
10.814488636363635,8.12314891862869,2.2673407593727104,-1.22846660928726
10.815094696969696,4.94735302019119,3.84805364999771,-0.44290020303726196
10.815700757575756,-9.882607917308809,-3.0855278929710397,0.0384987227439876
10.816306818181816,-2.45804737043381,-3.4974712523460396,-0.028561824131012402
10.816912878787878,11.579162102222401,5.08627874765396,-1.00812481241226
10.817518939393938,-2.96339649152756,0.169303649997711,-0.387814753818512
10.818124999999998,-9.84907764387131,-2.1347051390647898,-0.459665339756012
10.81873106060606,5.47186229753494,-1.10245172109604,-0.919509089756012
10.81933712121212,6.59991649675369,3.6277118531227104,0.160644718837738
10.819943181818182,-7.16665576887131,0.018417419528961202,-0.426135066318512
10.82054924242424,-5.7056938548088105,-4.25190240468979,-1.71944561319351
10.821155303030302,10.515773430347402,3.0744623414039602,-0.141127742099762
10.821761363636362,1.35961376237869,2.97387152109146,-0.24411358194351201
10.822367424242422,-11.4681108469963,-3.5214214476585397,-0.953039363193512
10.822973484848484,1.53445018815994,-2.8532109984397898,-0.450085261631012
10.823579545454544,11.018727531909901,6.96876409921646,0.0648439375877376
10.824185606060606,-7.45645313215256,-1.67486138906479,-1.1182957108497602
10.824791666666666,-8.56055713605881,-5.1236895140647905,-0.988964656162262
10.825397727272726,10.3696772389412,2.6720990601539603,-0.615341609287262
10.826003787878788,3.26844432878494,3.6301068726539603,-1.16380108194351
10.826609848484848,-10.1987504954338,-3.17653863515854,0.328296086025238
10.827215909090908,-0.690522956371307,-2.36223199453354,-0.818918269443512
10.82782196969697,10.6762397389412,4.588114685153959,-0.33272930459976197
10.82842803030303,-3.83039356184006,-0.927615295314789,0.237285343837738
10.82903409090909,-9.72693164777756,-1.73952691640854,-1.1877512772560102
10.82964015151515,6.28856395769119,-0.23784967031478899,-1.07758037881851
10.830246212121212,7.11245067644119,3.5965765992164602,0.131904484462738
10.830852272727272,-9.12099170637131,-0.886899963283539,-0.270458796787262
10.831458333333332,-4.68302051496506,-4.94885308828354,-0.9434592850685121
10.832064393939394,11.4953364186287,3.78578314218521,-0.759042781162262
10.832670454545454,-0.39833057355880697,3.38341986093521,-0.378234675693512
10.833276515151514,-11.1256230540276,-4.23034722890854,-0.320754206943512
10.833882575757576,3.45765087175369,-2.50593316640854,-1.13745586709976
10.834488636363636,9.622431145191191,6.37000921640396,0.728264347743988
10.835094696969696,-6.97744922590256,-1.2126226195335401,-1.10392559366226
10.835700757575758,-7.54267383527756,-5.12129449453354,-1.51826397256851
10.836306818181818,10.5133784108162,3.03374700937271,0.5103175704002381
10.836912878787878,2.3631269459724398,3.2948041382789603,-0.38302471475601196
10.837518939393938,-10.7927153391838,-3.62680230703354,-0.28243389444351197
10.838125,0.794389153003693,-2.19218560781479,-0.711142390537262
10.83873106060606,10.7576704030037,5.126994079685209,0.246865421962738
10.83933712121212,-4.70936572980881,-0.630632873439789,0.960581242275238
10.839943181818182,-9.58802051496506,-3.87827935781479,-0.121967585849762
10.840549242424242,7.58426952409744,1.4434540406227099,-1.2596018631935102
10.841155303030302,5.35929637956619,3.74267279062271,-0.859633601474762
10.841761363636364,-9.48982471418381,-1.64612115468979,0.244470402431488
10.842367424242424,-3.73938281965256,-3.9573150023460397,-0.49319561319351196
10.842973484848484,11.4929413990974,3.5438861695289603,-1.1542210038185101
10.843579545454546,-1.5718901438713102,2.28171087656021,-0.481220515537262
10.844185606060606,-10.349636725902599,-3.58369195547104,-0.938669246006012
10.844791666666666,4.60726024675369,-1.80419244375229,-0.34230938272476197
10.845397727272726,7.87167186784744,4.95215765390396,0.639648625087738
10.846003787878788,-7.41573780012131,-0.894085021877289,-0.909929011631012
10.846609848484848,-6.36671924543381,-4.75006646718979,-1.42485821084976
10.847215909090908,10.532538567066199,3.23253363046646,0.052868839931487596
10.84782196969697,1.4506245045661899,3.4073700562477103,-0.735092585849762
10.84842803030303,-11.5519365305901,-3.88306939687729,-0.0980173905372624
10.84903409090909,1.00994091081619,-2.5705986937522898,-0.926694148349762
10.84964015151515,11.6486176686287,6.16643255624771,-0.972199519443512
10.850246212121212,-7.06606494855881,-1.55990045156479,0.0624489180564876
10.850852272727272,-8.962920417308808,-3.96929010000229,-0.639291804599762
10.851458333333332,9.711046867847442,1.96796331796646,-0.818918269443512
10.852064393939393,3.85522411394119,3.28282904062271,-0.31596416788101195
10.852670454545454,-9.64071094465256,-2.32870172109604,-0.114782527256012
10.853276515151514,-1.68685108137131,-2.6999297484397897,-0.950644343662262
10.853882575757575,10.2571113209724,3.65166204843521,-0.529120906162262
10.854488636363635,-2.38619678449631,1.03151068124771,0.143879582118988
10.855094696969696,-9.777227057933809,-2.13231011953354,-0.9003489335060121
10.855700757575757,5.34253124284744,-1.85927789297104,-1.06081524209976
10.856306818181817,8.10159374284744,4.84438177499771,0.0073634688377375605
10.856912878787877,-8.347400397777559,-0.707273498439789,-0.028561824131012402
10.857518939393938,-5.48535205793381,-5.384746642971041,-1.0416550858497602
10.858125,11.368400383472402,3.5079608765602104,-0.670427058506012
10.85873106060606,0.243534660816193,3.9701996460914604,-0.933879206943512
10.85933712121212,-11.9399296946526,-4.98956842031479,-0.708747371006012
10.859943181818181,3.28041942644119,-2.08201470937729,-1.07518535928726
10.860549242424241,10.151730461597401,6.350849060153959,-0.126757624912262
10.861155303030301,-7.31275196027756,-1.74431695547104,-0.387814753818512
10.861761363636363,-7.49716846418381,-4.091436096096039,-1.04405010538101
10.862367424242423,9.727812004566191,2.36793157968521,-0.406974910068512
10.862973484848485,2.49724803972244,3.0217719117164603,-0.0860422928810124
10.863579545454543,-9.949668464183809,-2.5131182250022897,-0.30398907022476196
10.864185606060605,0.243534660816193,-2.54185845937729,-0.730302546787262
10.864791666666665,9.845167961597442,3.84805364999771,-0.634501765537262
10.865397727272725,-3.5645463938713102,0.669862732028961,-0.371049617099762
10.866003787878787,-10.081394538402598,-3.9477349242210398,-0.0405369217872624
10.866609848484847,6.87055370378494,0.176488708591461,-1.21170147256851
10.867215909090909,6.49214061784744,3.92469427499771,-0.157892878818512
10.86782196969697,-9.873027839183809,-0.570757385158539,-0.198608210849762
10.86842803030303,-4.09384571027756,-4.91532281484604,-1.45599346475601
10.869034090909091,12.0174506764412,2.80143011484146,-0.308779109287262
10.869640151515151,-0.870149421215057,3.87200384531021,0.141484562587738
10.870246212121211,-11.1711284251213,-4.819522033596041,-1.05602520303726
10.870852272727273,4.6264204030036895,-1.35632379140854,-0.7614378006935121
10.871458333333333,9.02128124284744,5.35212591562271,-0.36386455850601196
10.872064393939393,-7.29598682355881,-1.51679010000229,-0.296804011631012
10.872670454545455,-6.74513233137131,-3.77289849843979,-0.555466121006012
10.873276515151515,10.367282219409901,2.6361737671852103,-0.6249216874122621
10.873882575757575,2.43737255144119,3.3043842164039603,-0.25129864053726203
10.874488636363635,-11.2333989329338,-3.54297662343979,-0.155497859287262
10.875094696969697,0.930905266284943,-3.1214531859397896,-0.998544734287262
10.875700757575757,11.6126923756599,5.53175238046646,-0.653661921787262
10.876306818181817,-6.56311084699631,-0.6426079710960391,0.476787296962738
10.876912878787879,-9.044351081371309,-3.4711260375022897,-1.09195049600601
10.877518939393939,8.63807811784744,0.657887634372711,-0.749462703037262
10.878124999999999,4.88029247331619,3.57502142343521,0.39296161336898805
10.87873106060606,-9.688611335277558,-1.05694635000229,-0.629711726474762
10.87933712121212,-2.94184131574631,-3.68907281484604,-1.77213604288101
10.87994318181818,10.9851972584724,3.0553021851539603,-0.150707820224762
10.880549242424241,-1.32999317121506,2.45415228281021,-0.27285381631851197
10.881155303030303,-10.4358574290276,-3.4280156859397897,-1.46317852334976
10.881761363636363,5.06231395769119,-1.95507867422104,-0.280038874912262
10.882367424242423,8.88476512956619,5.57486273202896,-0.588996394443512
10.882973484848485,-8.855144538402559,-1.36350885000229,0.129509464931488
10.883579545454545,-6.00267627668381,-5.15482476797104,-0.629711726474762
10.884185606060605,10.9013715748787,3.0121918335914604,-1.00812481241226
10.884791666666667,1.03868114519119,4.262392028903959,-0.739882624912262
10.885397727272727,-12.1722465891838,-4.28303765859604,0.151064640712738
10.886003787878787,3.1774335865974397,-2.02932427968979,-1.26678692178726
10.886609848484847,10.9157416920662,5.186869567966459,-0.833288386631012
10.887215909090909,-7.21934619855881,-1.53834527578354,0.9150758711814879
10.887821969696969,-7.93785205793381,-2.92027154531479,-1.62603985147476
10.888428030303029,8.468031731128692,1.0626459351539599,-0.869213679599762
10.88903409090909,3.75463329362869,3.2876190796852103,1.1090724532127398
10.88964015151515,-9.913743171215058,-1.60780084218979,-0.6632419999122621
10.89024621212121,-1.2054521555900601,-3.43999078359604,-1.4775486405372602
10.890852272727273,10.2044208912849,3.5079608765602104,0.0337086836814876
10.891458333333333,-2.52989795637131,2.2601557007789603,-0.37344463663101196
10.892064393939393,-10.3951420969963,-4.146521545314791,-0.560256160068512
10.892670454545454,5.91254589128494,-0.9228252562522891,-0.850053523349762
10.893276515151515,7.90759716081619,4.887492126560209,-0.18902813272476202
10.893882575757575,-9.853867682933808,-0.46777154531478904,-0.5842063553810121
10.894488636363635,-5.05185352277756,-5.358401428127291,-0.519540828037262
10.895094696969696,11.780343742847402,2.85412054452896,-0.450085261631012
10.895700757575757,-0.33127002668380695,3.9270892945289604,-1.55658428506851
10.896306818181817,-11.307644538402599,-4.958433166408541,-0.035746882724762404
10.896912878787878,4.09472606706619,-1.01383599843979,-0.866818660068512
10.897518939393938,9.15540233659744,4.64320013437271,-0.38302471475601196
10.898124999999999,-7.38699756574631,-1.39703912343979,0.31392596883773805
10.89873106060606,-6.55832080793381,-2.90350640859604,-0.857238581943512
10.89933712121212,9.660751457691191,1.71648626718521,-0.0956223710060124
10.89994318181818,2.7487250905036897,2.68407415781021,0.503132511806488
10.90054924242424,-11.1902885813713,-1.7515020140647901,-0.34230938272476197
10.901155303030302,-0.08697803449630741,-3.43280572500229,-0.974594538974762
10.901761363636362,11.5168915944099,3.99175482187271,-1.00572979288101
10.902367424242422,-5.3129106516838105,1.23029730234146,-0.0716721756935124
10.902973484848484,-9.358098639965059,-3.68188775625229,-0.8428684647560121
10.903579545454544,7.67767528581619,-0.750383850002289,-0.5099607499122619
10.904185606060604,6.00116161394119,4.49949896249771,0.7522145430564879
10.904791666666666,-9.64071094465256,-1.01623101797104,-1.0296799881935101
10.905397727272726,-3.54299121809006,-4.759646545314791,-1.5901145585060101
10.906003787878788,11.3037348561287,3.0576972046852102,0.268420597743988
10.906609848484848,-1.2940678782463102,2.94992132577896,-0.9051389725685121
10.907215909090908,-10.6059038157463,-3.44717584218979,-0.9650144608497621
10.90782196969697,4.64318553972244,-1.66767633047104,-0.653661921787262
10.908428030303028,9.50028514909744,4.82522161874771,-0.754252742099762
10.90903409090909,-8.716233405590058,-0.956355529689789,0.44325702352523805
10.909640151515152,-6.19188281965256,-4.63031549062729,-0.538700984287262
10.910246212121212,10.1301752858162,2.1571698609352103,-1.27157696084976
10.910852272727272,1.47457469987869,4.434833435153959,-0.502775691318512
10.911458333333332,-11.599836921215099,-3.9836602171897897,0.5534279219627379
10.912064393939394,1.9128632740974398,-2.27840631093979,-1.2907371170997601
10.912670454545454,10.807965813159901,4.09953070077896,-0.5099607499122619
10.913276515151514,-6.17511768293381,-0.26898492422103903,0.390566593837738
10.913882575757576,-7.93066699934006,-2.6735845335960398,-1.8463816483497602
10.914488636363636,7.67528026628494,-0.846184631252289,-0.912324031162262
10.915094696969696,4.74856639909744,4.415673278903959,1.29588397665024
10.915700757575758,-10.067024421215098,-0.846184631252289,-0.7015623124122621
10.916306818181818,-1.95509326887131,-4.39799859609604,-2.0403782303810103
10.916912878787878,10.7816205983162,3.08404241952896,0.110349308681488
10.917518939393938,-1.7275664134025601,2.8517255249977103,-0.787783015537262
10.918125,-10.7256547923088,-4.7644365843772905,-0.9219041092872621
10.91873106060606,5.23475536394119,-1.04497125234604,-0.830893367099762
10.91933712121212,8.80093944597244,5.91016546640396,-0.191423152256012
10.919943181818182,-9.36767871809006,-0.855764709377289,-0.466850398349762
10.920549242424242,-5.54283252668381,-5.39911676015854,-0.10041241006851201
10.921155303030302,11.1217133717537,2.8493305054664604,-0.687192195224762
10.921761363636364,0.341730461597443,3.8839789429664604,-1.3937229569435101
10.922367424242424,-11.1399931712151,-4.160891662502291,0.134299503993988
10.922973484848484,3.8432490162849398,-1.29644830312729,-0.871608699131012
10.923579545454544,9.404484367847441,3.0576972046852102,-0.818918269443512
10.924185606060606,-6.48647022199631,0.0423676148414612,0.26363055868148805
10.924791666666666,-7.21455615949631,-2.46761285390854,-0.766227839756012
10.925397727272726,8.468031731128692,-0.106123596096039,-1.0727903397560101
10.926003787878788,4.11867626237869,3.85523870859146,0.725869328212738
10.926609848484848,-11.1088579173088,-1.12161187734604,-0.371049617099762
10.927215909090908,-0.9970854563713071,-4.69737603750229,-1.44162334756851
10.92782196969697,11.3947455983162,3.9558295289039602,-0.488405574131012
10.92842803030303,-4.00043994855881,3.19900335702896,0.34266620321273805
10.92903409090909,-9.77243701887131,-4.63510552968979,-1.5637693436622602
10.929640151515152,6.78672802019119,-1.27968316640854,0.182199894618988
10.930246212121212,7.1076606373786895,5.5341473999977095,0.903100773525238
10.930852272727272,-9.52814502668381,-1.14556207265854,-1.56137432413101
10.931458333333332,-4.12258594465256,-4.69498101797104,-0.39499981241226195
10.932064393939394,11.0450727467537,2.99303167734146,-0.25129864053726203
10.932670454545454,-0.594722175121307,2.8158002320289603,-0.632106746006012
10.933276515151514,-10.7520000071526,-3.38969537343979,-0.486010554599762
10.933882575757575,4.30788280534744,-1.53834527578354,-1.0799753983497602
10.934488636363636,9.67033153581619,4.36537786874771,-0.339914363193512
10.935094696969696,-7.94264209699631,-0.0893584593772888,0.704314152431488
10.935700757575757,-6.29486865949631,-4.359678283596041,-0.34230938272476197
10.936306818181817,9.196117668628691,1.05785589609146,-1.53981914834976
10.936912878787878,2.39186718034744,4.88988714609146,-0.658451960849762
10.937518939393938,-10.9962919993401,-2.9322466429710397,0.6731788985252379
10.938125,0.985990715503693,-3.1956987914085397,-1.87751690225601
10.93873106060606,10.6618696217537,3.6372919312477103,-0.234533503818512
10.93933712121212,-5.06382862043381,1.68535101327896,0.158249699306488
10.939943181818181,-8.41206592512131,-3.2124639281272898,-1.7098655350685101
10.940549242424241,6.67176708269119,-1.56948052968979,-0.133942683506012
10.941155303030301,5.75207958269119,5.40481634531021,0.824065128993988
10.941761363636363,-9.710166511058809,-1.20304254140854,-1.0584202225685102
10.942367424242423,-2.47241748762131,-5.01591363515854,-1.3577976639747602
10.942973484848483,10.5516987233162,3.3570746460914602,0.582168156337738
10.943579545454543,-1.56949512434006,3.4480853882789604,-1.03926006631851
10.944185606060605,-10.7064946360588,-4.838682189846041,-0.239323542881012
10.944791666666667,4.94974803972244,-0.8821099242210391,-1.2476267655372602
10.945397727272725,9.10989696550369,4.84677679452896,-0.811733210849762
10.946003787878787,-9.05393115949631,-0.405501037502289,0.42649188680648803
10.946609848484847,-6.25894336652756,-4.4051836546897905,-0.121967585849762
10.947215909090907,10.4008124928474,1.36920843515396,-1.4535984452247601
10.94782196969697,0.823129387378693,4.07558050546646,-0.6824021561622621
10.94842803030303,-10.680149421215098,-3.4878911742210397,0.194174992275238
10.949034090909091,2.40144725847244,-1.91196832265854,-1.58771953897476
10.949640151515151,9.22246288347244,2.64096380624771,-0.308779109287262
10.950246212121211,-5.30333057355881,1.39076361093521,0.32350604696273805
10.950852272727273,-7.89713672590256,-3.11426812734604,-1.23565166788101
10.951458333333331,7.96028759050369,-1.30842340078354,-0.967409480381012
10.952064393939393,4.47553417253494,5.06951361093521,0.431281925868988
10.952670454545455,-10.6106938548088,-0.884504943752289,-0.10041241006851201
10.953276515151515,-2.13232471418381,-5.2434404906272905,-1.4991038163185102
10.953882575757575,11.5983222584724,3.69477239999771,-0.696772273349762
10.954488636363635,-3.2388237376213103,3.24211370859146,-0.339914363193512
10.955094696969697,-10.5412382884026,-5.197935119533541,-1.09913555459976
10.955700757575757,6.30532909440994,-1.1910674437522901,-0.280038874912262
10.956306818181817,7.51481395769119,5.5006171265602095,-0.227348445224762
10.956912878787879,-9.372468757152559,-1.03060113515854,-0.713537410068512
10.957518939393939,-4.37885303449631,-4.580020080471041,-0.136337703037262
10.958124999999999,10.5948090748787,2.74394964609146,-0.7446726639747621
10.95873106060606,-0.424675788402557,2.7918500367164603,-0.737487605381012
10.959337121212121,-10.1963554759026,-3.05678765859604,0.34266620321273805
10.959943181818181,3.5438715748786898,-1.9694487914085401,-0.751857722568512
10.960549242424241,9.174562492847441,3.23253363046646,-0.888373835849762
10.961155303030303,-6.87925342512131,1.10096624765396,0.601328312587738
10.961761363636363,-6.85769824934006,-4.29501275625229,-0.34230938272476197
10.962367424242423,8.408156242847442,-0.187554260158539,-1.41288311319351
10.962973484848485,3.43130565690994,4.90665228281021,0.17022479696273798
10.963579545454545,-11.142388190746301,-1.75868707265854,0.33548114461898804
10.964185606060605,0.0734882740974426,-3.7106279906272897,-2.22479473428726
10.964791666666667,11.0211225514412,2.7894550171852104,0.541452824306488
10.965397727272727,-4.06510547590256,3.2349286499977103,-0.6057615311622621
10.966003787878787,-9.05632617902756,-4.49140435781479,-1.67633526163101
10.966609848484847,6.44663524675369,-1.63654107656479,-0.124362605381012
10.967215909090909,6.59752147722244,5.99638616952896,0.220520207118988
10.967821969696969,-9.75088184309006,-1.76108209218979,-0.680007136631012
10.968428030303029,-2.9131010813713103,-4.479429260158541,-1.1182957108497602
10.96903409090909,10.053534660816199,2.74394964609146,-0.32314922647476196
10.96964015151515,-1.2437724680900601,3.4935907593727102,-1.0680003006935102
10.97024621212121,-10.426277350902598,-4.62073541250229,0.0911891524314876
10.970852272727273,4.38452343034744,-1.11921685781479,-1.76734600381851
10.971458333333333,9.09313182878494,4.29831732187271,-0.39260479288101197
10.972064393939393,-8.555767096996309,-0.0175078734397888,0.8743605391502379
10.972670454545455,-6.15356250715256,-3.54537164297104,-0.751857722568512
10.973276515151515,9.87390819597244,0.255524353122711,-1.55418926553726
10.973882575757575,1.6254609303474399,4.07558050546646,-0.0740671952247624
10.974488636363635,-10.3616118235588,-2.1778154906272897,0.139089543056488
10.975094696969697,1.0793964772224398,-2.6903496703147898,-2.08109356241226
10.975700757575757,9.26796825456619,2.1499848023414603,-0.26566875772476195
10.976306818181817,-4.30939746809006,2.95710638437271,0.28279071493148805
10.976912878787878,-8.15100879621506,-4.08425103750229,-1.39851299600601
10.977518939393939,7.4142231373786895,-1.41619927968979,-0.47164043741226197
10.978124999999999,5.72333934831619,5.879030212497709,0.160644718837738
10.97873106060606,-10.364006843090099,-1.87604302968979,-0.177053035068512
10.97933712121212,-2.43888721418381,-5.138059631252291,-1.43443828897476
10.97994318181818,11.7468134694099,3.4504804078102103,-0.7614378006935121
10.98054924242424,-2.9059160227775602,3.4409003296852103,-0.397394831943512
10.981155303030302,-10.7543950266838,-4.539304748439791,-0.6440818436622621
10.981761363636362,6.51848583269119,-1.1862774046897901,-0.38541973428726195
10.982367424242423,7.8261664967536895,4.57853460702896,-0.7422776444435121
10.982973484848484,-9.207212409496309,-0.788704162502289,0.43607196493148803
10.983579545454544,-4.59200977277756,-3.1358233031272897,-0.7015623124122621
10.984185606060604,9.67991161394119,1.5033295289039599,-1.14703594522476
10.984791666666666,0.29862011003494304,2.8421454468727103,-0.212978328037262
10.985397727272726,-9.731721686840059,-1.44014947500229,-0.6009714920997621
10.986003787878786,2.7583051686286897,-2.59215386953354,-1.2739719803810101
10.986609848484846,8.865604973316191,3.0457221070289604,-0.917114070224762
10.987215909090908,-5.55001758527756,2.17872503671646,1.1857130782127399
10.98782196969697,-7.48758838605881,-4.80036187734604,-0.591391413974762
10.988428030303028,7.38787792253494,-1.35871881093979,-1.09674053506851
10.98903409090909,4.52343456315994,6.31492376718521,0.620488468837738
10.98964015151515,-11.4968510813713,-1.33476861562729,0.34506122274398804
10.99024621212121,-1.0641460032463101,-5.164404846096041,-1.59969463663101
10.990852272727272,11.1432685475349,3.2445087281227103,0.0241286055564876
10.991458333333332,-3.52383106184006,3.54867620859146,-0.25608867959976195
10.992064393939394,-9.71974658918381,-5.13326959218979,-1.42964824991226
10.992670454545454,6.58075634050369,-0.884504943752289,-0.29201397256851197
10.993276515151514,7.16993114519119,5.72095892343521,-0.117177546787262
10.993882575757576,-9.57844043684006,-1.76587213125229,-0.169867976474762
10.994488636363636,-2.94902637434006,-3.3082647093772897,-0.756647761631012
10.995094696969696,9.358978996753692,1.73325140390396,-0.730302546787262
10.995700757575758,-0.120508307933807,3.3882098999977104,-0.124362605381012
10.996306818181818,-10.3328715891838,-3.3154497679710397,-0.0381419022560124
10.996912878787878,3.94383983659744,-1.86167291250229,-1.6883103592872601
10.997518939393938,9.083551750659941,3.28282904062271,-0.308779109287262
10.998125,-7.78457080793381,1.35004827890396,0.761794621181488
10.99873106060606,-6.12721729230881,-3.53579156484604,-0.778202937412262
10.99933712121212,8.85602489519119,-1.4257793578147901,-1.07518535928726
10.999943181818182,2.7151948170661897,5.03837835702896,0.390566593837738
11.000549242424242,-10.2107255930901,-1.3706939085960401,-0.366259578037262
11.001155303030302,0.42076610612869303,-3.96210504140854,-2.34454571084976
11.001761363636364,9.79247753190994,2.3367963257789603,0.318716007900238
11.002367424242424,-3.81362842512131,3.88158392343521,-0.0261668045997624
11.002973484848484,-8.670728034496308,-4.84107720937729,-1.38174785928726
11.003579545454544,7.00706981706619,-1.17430230703354,-0.40457989053726195
11.004185606060606,6.23108348894119,5.273090271091459,0.0361037032127376
11.004791666666666,-10.5484233469963,-1.38506402578354,-0.102807429599762
11.005397727272726,-2.84843555402756,-4.76922662343979,-1.2045164139747602
11.006003787878788,10.5804389576912,3.05290716562271,-1.20212139444351
11.006609848484848,-2.43170215559006,4.00612493906021,-0.32314922647476196
11.007215909090908,-10.244255866527599,-4.991963439846041,-0.41176494913101197
11.00782196969697,5.68501903581619,-1.19585748281479,-0.950644343662262
11.00842803030303,7.74473583269119,3.60136663827896,-0.428530085849762
11.00903409090909,-8.752158698558809,-0.113308654689789,0.5725880782127379
11.009640151515152,-4.72852588605881,-2.53467340078354,-0.8620286210060121
11.010246212121212,8.784174309253691,-0.118098693752289,-1.19733135538101
11.010852272727272,1.2374677662849398,3.59178656015396,0.213335148525238
11.011458333333332,-9.674241218090058,-0.752778869533539,-0.5075657303810119
11.012064393939394,2.0397993092536897,-3.68188775625229,-2.03558819131851
11.012670454545454,9.13863719987869,3.00740179452896,-0.41176494913101197
11.013276515151514,-5.22429492902756,3.36186468515396,1.05638202352524
11.013882575757576,-7.35825733137131,-5.051838928127291,-1.02249492959976
11.014488636363636,7.0477851490974395,-1.82335260000229,-1.23325664834976
11.015094696969696,5.59640331315994,7.14120550546646,0.962976261806488
11.015700757575758,-11.144783210277598,-1.35153375234604,-0.6416868241310121
11.016306818181818,-1.82815723371506,-5.43504205312729,-1.7170505936622602
11.016912878787878,11.2534394459724,3.50556585702896,0.0384987227439876
11.017518939393938,-3.72022266340256,3.0984125367164603,-1.12069073038101
11.018125,-9.164102057933809,-5.018308654689791,-0.0501169999122624
11.01873106060606,6.25982372331619,-0.654583068752289,-0.768622859287262
11.01933712121212,6.95198436784744,4.2767621460914595,0.838435246181488
11.019943181818181,-8.900649909496309,-1.1479570921897901,1.32462421102524
11.020549242424241,-3.84476367902756,-2.9729619750022898,-1.37456280069351
11.021155303030302,9.25120311784744,0.612382263278961,-0.610551570224762
11.021761363636363,0.26029979753494303,3.8001532593727103,0.5725880782127379
11.022367424242423,-10.6154838938713,-2.0915947875022898,-0.648871882724762
11.022973484848483,3.42891063737869,-2.39815728750229,-1.81524639444351
11.023579545454544,8.95422069597244,2.7894550171852104,-0.0860422928810124
11.024185606060605,-6.88883350324631,2.9882416382789603,0.644438664150238
11.024791666666665,-6.53197559309006,-4.11778131093979,-0.866818660068512
11.025397727272725,7.9794477467536895,-1.98142388906479,-1.07039532022476
11.026003787878787,3.77858348894119,5.84310491952896,0.6923390547752379
11.026609848484847,-10.4334624094963,-1.55750543203354,-1.0464451249122602
11.027215909090907,-0.352825202465057,-4.15131158437729,-1.7697410233497601
11.02782196969697,9.749367180347441,2.4302020874977104,-0.0261668045997624
11.02842803030303,-3.36096973371506,3.7833881226539603,-0.44529522256851195
11.02903409090909,-8.795269050121309,-5.08057916250229,-0.45248028116226197
11.029640151515151,6.49693065690994,-1.1264019164085401,-0.7638328202247621
11.030246212121211,6.53046093034744,5.2946454468727095,-0.193818171787262
11.030852272727273,-10.6154838938713,-0.870134826564789,-0.0501169999122624
11.031458333333333,-2.65443897199631,-4.2255571898460405,-0.9817795975685121
11.032064393939393,9.99365917253494,2.4469672242164604,-1.4535984452247601
11.032670454545455,-2.1011894602775603,3.7738080445289603,0.0624489180564876
11.033276515151513,-9.523354987621309,-3.6004570921897896,-0.009401667881012439
11.033882575757575,4.55456981706619,-1.67725640859604,-1.07758037881851
11.034488636363635,7.91717723894119,2.50205267343521,-0.0141917069435124
11.035094696969697,-7.73188037824631,1.6877460328102099,-0.0381419022560124
11.035700757575757,-5.2865654368400605,-3.49268121328354,-1.36498272256851
11.036306818181817,8.20457958269119,-1.10484674062729,-0.7207224686622621
11.036912878787879,2.19068553972244,4.48991888437271,0.431281925868988
11.037518939393939,-9.72932666730881,-0.805469299221039,-0.8811887772560121
11.038124999999999,0.9596455006599429,-4.27824761953354,-2.06432842569351
11.038731060606061,9.531420403003692,2.9355512085914603,-0.416554988193512
11.039337121212121,-4.84109180402756,3.95103948984146,0.31392596883773805
11.039943181818181,-7.7414604563713105,-5.62185357656479,-0.675217097568512
11.040549242424241,6.86576366472244,-1.7515020140647901,-1.6284348710060101
11.041155303030303,6.23347850847244,7.01187445077896,-0.011796687412262401
11.041761363636363,-10.7448149485588,-1.36829888906479,-0.18423809366226201
11.042367424242423,-2.1442998118400602,-5.36798150625229,-1.36498272256851
11.042973484848485,10.568463860034901,2.65772894296646,-0.529120906162262
11.043579545454545,-3.16457813215256,3.6301068726539603,-0.318359187412262
11.044185606060605,-9.32456836652756,-4.42913385000229,0.0145485274314876
11.044791666666667,5.48144237565994,-1.0665264281272901,-1.35300762491226
11.045397727272727,7.16514110612869,3.9893598023414603,0.0384987227439876
11.046003787878787,-8.301895026683809,-0.240244689846039,0.155854679775238
11.046609848484849,-3.73938281965256,-2.8532109984397898,-1.24523174600601
11.047215909090909,7.96028759050369,-0.6809282835960391,-0.859633601474762
11.047821969696969,1.11532177019119,4.588114685153959,0.524687687587738
11.048428030303029,-9.86344776105881,-1.64133111562729,-0.751857722568512
11.04903409090909,2.15476024675369,-3.5310015257835397,-2.08348858194351
11.04964015151515,9.047626457691191,2.74394964609146,0.26363055868148805
11.05024621212121,-5.88053028059006,4.116295837497709,0.663598820400238
11.050852272727273,-6.85530322980881,-5.03028375234604,-1.0632102616310102
11.051458333333333,7.58187450456619,-2.4364776000022896,-0.936274226474762
11.052064393939393,4.6862958912849395,6.650226501560209,-0.177053035068512
11.052670454545453,-9.978408698558809,-1.5072100218772901,-1.05602520303726
11.053276515151515,-1.1288115305900601,-4.70935113515854,-0.919509089756012
11.053882575757575,9.60327098894119,2.2002802124977103,-0.739882624912262
11.054488636363635,-2.80532520246506,4.09953070077896,-0.287223933506012
11.055094696969697,-8.85274951887131,-4.400393615627291,-0.234533503818512
11.055700757575757,6.20713329362869,-1.14556207265854,-1.07039532022476
11.056306818181817,6.24784862565994,4.31268743906021,-0.24411358194351201
11.056912878787879,-9.35330860090256,0.207623962497711,0.163039738368988
11.057518939393939,-3.2723540110588103,-4.299802795314791,-0.991359675693512
11.058124999999999,9.136242180347441,1.1057562867164599,-1.32187237100601
11.05873106060606,-1.05217090559006,4.707865661716459,0.0408937422752376
11.05933712121212,-9.394023932933809,-3.0017022093772896,0.0959791914939876
11.05994318181818,3.6133271412849397,-2.17542047109604,-1.73381573038101
11.06054924242424,7.82856151628494,2.12842962656021,0.658808781337738
11.061155303030302,-6.60143115949631,3.08643743906021,-0.155497859287262
11.061761363636363,-5.5787578196525605,-3.96929010000229,-1.39611797647476
11.062367424242423,7.1148456959724395,-1.6868364867210401,-0.28243389444351197
11.062973484848484,3.14869335222244,5.56528265390396,-0.260878718662262
11.063579545454544,-9.274272956371309,-1.34434869375229,-0.950644343662262
11.064185606060605,-0.0558427805900574,-4.95364312734604,-1.3937229569435101
11.064791666666666,9.27515331315994,3.29240911874771,-0.0333518631935124
11.065397727272726,-4.32376758527756,4.6024848023414595,-0.0237717850685124
11.066003787878786,-7.8540263743400605,-5.85896051015854,-0.25608867959976195
11.066609848484848,5.93889110612869,-1.6700713500022901,-1.5517942460060101
11.067215909090908,6.28377391862869,6.13050726327896,0.0720289961814876
11.067821969696968,-9.992778815746309,-0.812654357814789,0.491157414150238
11.068428030303028,-2.8029301829338102,-4.546489807033541,-0.967409480381012
11.06903409090909,10.0846699147224,1.48895941171646,-1.11350567178726
11.06964015151515,-2.17543506574631,3.7905731812477104,-0.0644871170997624
11.07024621212121,-8.64438281965256,-3.53339654531479,0.122324406337738
11.070852272727272,4.54977977800369,-1.46409967031479,-2.08109356241226
11.071458333333332,6.78433300065994,3.13912786874771,0.23010028524398798
11.072064393939392,-6.75471240949631,1.15365667734146,0.519897648525238
11.072670454545454,-4.26389209699631,-3.24599420156479,-1.41527813272476
11.073276515151514,7.25854686784744,-1.5670855101585401,-0.517145808506012
11.073882575757576,2.04458934831619,5.68742864999771,0.194174992275238
11.074488636363636,-9.633525886058809,-1.83532769765854,-0.32314922647476196
11.075094696969696,1.56319042253494,-4.25669244375229,-2.0595383866310097
11.075700757575758,8.78896434831619,2.4589423218727102,-0.157892878818512
11.076306818181816,-5.25782520246506,4.57134954843521,0.682758976650238
11.076912878787878,-7.30077686262131,-5.08057916250229,-0.993754695224762
11.077518939393938,6.89450389909744,-2.24487603750229,-0.936274226474762
11.078125,5.08626415300369,6.690941833591459,-0.514750788974762
11.07873106060606,-9.671846198558809,-1.50002496328354,0.0432887618064876
11.07933712121212,-1.46411426496506,-4.44110894765854,0.400146671962738
11.079943181818182,9.16019237565994,1.97275335702896,-0.608156550693512
11.080549242424242,-2.48199756574631,4.2097015992164595,-0.138732722568512
11.081155303030302,-8.67312305402756,-4.01000543203354,-0.359074519443512
11.081761363636364,5.84548534440994,-1.29884332265854,-1.20212139444351
11.082367424242424,6.26461376237869,3.72830267343521,-0.0189817460060124
11.082973484848484,-8.340215339183809,1.03630072031021,0.249260441493988
11.083579545454544,-3.7345927805900603,-4.25429742422104,-0.9027439530372621
11.084185606060606,8.537487297534941,0.133378357028961,-1.27157696084976
11.084791666666666,-0.168408698558807,5.05274847421646,0.6133034102439879
11.085397727272726,-9.140151862621309,-2.5226983031272896,-0.0692771561622624
11.086003787878788,3.00978221940994,-3.19330377187729,-2.73972393350601
11.086609848484848,7.87646190690994,2.32242620859146,0.857595402431488
11.087215909090908,-5.4590068430900605,3.90553411874771,-0.0980173905372624
11.08782196969697,-6.27331348371506,-4.82191705312729,-1.44641338663101
11.08842803030303,7.05257518815994,-1.35632379140854,0.100769230556488
11.08903409090909,4.05640575456619,5.9532758179664595,-0.850053523349762
11.08964015151515,-9.379653815746309,-1.43775445547104,-0.406974910068512
11.090246212121212,0.0375629811286926,-4.5848101195335405,-1.01051983194351
11.090852272727272,8.812914543628692,2.68167913827896,-0.397394831943512
11.091458333333332,-3.61244678449631,4.475548767185209,0.177409855556488
11.092064393939394,-7.55225391340256,-5.33205621328354,-0.447690242099762
11.092670454545454,5.26589061784744,-1.97184381093979,-1.35300762491226
11.093276515151514,6.30772411394119,5.313805603122709,0.388171574306488
11.093882575757576,-9.312593268871309,0.43036077890396096,0.910285832118988
11.094488636363636,-2.7861650462150602,-4.453084045314791,-1.2140964920997601
11.095094696969696,9.524235344409941,0.746503357028961,-1.5901145585060101
11.095700757575758,-1.45453418684006,4.70307562265396,0.17501483602523799
11.096306818181818,-8.33782031965256,-3.1118731078147897,0.479182316493988
11.096912878787878,3.32831981706619,-2.12273004140854,-2.4451365311622597
11.097518939393938,7.07892040300369,2.89723089609146,0.330691105556488
11.098125,-6.2373881907463105,2.5188178101539602,0.30434589071273804
11.09873106060606,-4.92491748762131,-4.09383111562729,-1.9781077225685102
11.09933712121212,7.3208173756599395,-1.63654107656479,-0.31356914834976196
11.099943181818182,2.37031200456619,6.14008734140396,0.41451678915023804
11.100549242424242,-9.554490241527558,-2.24487603750229,-0.418950007724762
11.101155303030302,1.13687694597244,-4.13694146718979,-1.8368015702247602
11.101761363636363,8.33870067644119,2.5331879273414604,-0.26327373819351196
11.102367424242424,-4.79319141340256,4.801271423435209,0.0337086836814876
11.102973484848484,-7.21695117902756,-4.932087951564791,-0.620131648349762
11.103579545454544,6.48495555925369,-2.59454888906479,-1.1230857499122602
11.104185606060605,5.2850507740974395,5.58204779062271,-0.895558894443512
11.104791666666666,-9.245532721996309,-0.9827007445335391,0.627673527431488
11.105397727272726,-1.6245805735588101,-3.4016704710960397,-0.699167292881012
11.106003787878787,8.51832714128494,1.11773138437271,-1.3075022538185102
11.106609848484847,-1.82815723371506,4.29352728281021,0.460022160243988
11.107215909090908,-7.99054248762131,-3.59327203359604,-0.109992488193512
11.10782196969697,4.50427440690994,-2.2041607054710397,-1.6404099686622602
11.10842803030303,6.04906200456619,3.6540570679664603,-0.28482891397476195
11.10903409090909,-7.31754199934006,2.08292425546646,0.237285343837738
11.109640151515151,-4.07468555402756,-4.96322320547104,-0.8620286210060121
11.110246212121211,8.14470409440994,-0.5013018187522891,-0.926694148349762
11.110852272727271,0.566862297534943,6.16164251718521,0.347456242275238
11.111458333333331,-9.343728522777559,-2.6328692015647897,-0.529120906162262
11.112064393939393,2.01824413347244,-3.8639092406272897,-2.61997295694351
11.112670454545455,8.19499950456619,2.3367963257789603,0.5941432539939879
11.113276515151515,-4.67583545637131,4.40369818124771,-0.428530085849762
11.113882575757575,-6.70441699934006,-5.6362236937522905,-0.579416316318512
11.114488636363635,6.6286567311286895,-0.994675842189789,-0.160287898349762
11.115094696969695,3.99174022722244,5.50301214609146,-1.05363018350601
11.115700757575757,-9.382048835277558,-1.5072100218772901,0.0289186446189876
11.116306818181817,-0.34803516340255697,-3.9142046507835397,-1.2140964920997601
11.116912878787879,8.424921379566191,1.7859418335914599,-0.766227839756012
11.117518939393939,-2.98495166730881,4.50668402109146,0.8336452071189879
11.118125,-7.63847461652756,-4.20160699453354,-0.828498347568512
11.118731060606061,4.4803242115974395,-2.7190899046897896,-1.8296165116310101
11.119337121212121,6.35083446550369,4.51147406015396,0.699524113368988
11.119943181818181,-8.26117969465256,1.61110540781021,0.661203800868988
11.120549242424241,-3.5813115305900602,-4.879397521877291,-1.7481858475685101
11.121155303030303,8.56143749284744,-0.592312560939789,-1.27157696084976
11.121761363636363,-0.0558427805900574,5.10304388437271,0.886335636806488
11.122367424242423,-8.34979541730881,-2.36462701406479,-0.0381419022560124
11.122973484848485,2.3463618092536898,-3.1956987914085397,-2.84989483194351
11.123579545454545,7.6537250905036895,2.7750848999977102,0.764189640712738
11.124185606060605,-5.59312793684006,3.1654730835914604,0.201360050868988
11.124791666666667,-5.40871143293381,-4.62313043203354,-1.8296165116310101
11.125397727272727,6.73643261003494,-1.61738092031479,-0.41415996866226196
11.126003787878787,3.3474799733161897,5.97004095468521,-0.169867976474762
11.126609848484847,-9.568860358715058,-1.98142388906479,-0.167472956943512
11.127215909090909,0.36089061784744303,-3.6148272093772897,-1.83919658975601
11.127821969696969,8.17344432878494,1.72846136484146,-0.318359187412262
11.128428030303029,-4.2351518626213105,4.681520446872709,0.644438664150238
11.12903409090909,-7.42531787824631,-4.2854326781272905,-0.696772273349762
11.12964015151515,6.13528270769119,-2.5035381468772897,-0.675217097568512
11.130246212121211,5.4982075123786895,4.57853460702896,-0.8045481522560121
11.130852272727273,-8.70904834699631,-0.32646539297103905,0.8743605391502379
11.131458333333333,-1.9910185618400602,-2.7166948851585397,-0.852448542881012
11.132064393939393,7.73036571550369,-0.027087951564788798,-1.93499737100601
11.132670454545455,-0.6785478587150571,4.71744573984146,0.8312501875877379
11.133276515151515,-7.96419727277756,-2.4101323851585397,-0.339914363193512
11.133882575757575,3.79055858659744,-3.0184673460960396,-2.1289939530372597
11.134488636363635,6.59273143815994,3.39299993906021,-0.0668821366310124
11.135094696969697,-6.64693653059006,2.94992132577896,0.371406437587738
11.135700757575757,-4.56566455793381,-5.33924127187729,-1.4823386795997602
11.136306818181817,7.59863964128494,-0.9036651000022891,-0.6608469803810121
11.136912878787879,1.97513378190994,6.8777533570289595,0.39296161336898805
11.137518939393939,-8.97968555402756,-2.74543511953354,-1.1829612381935102
11.138124999999999,1.0746064381599398,-3.94533990468979,-1.1494309647560101
11.13873106060606,8.32433055925369,2.0972943726539603,1.4467702071189898
11.13933712121212,-4.61356494855881,4.14503607187271,-1.06081524209976
11.13994318181818,-6.66609668684006,-4.759646545314791,0.0552638594627376
11.14054924242424,6.41789501237869,-1.3108184203147901,-0.229743464756012
11.141155303030303,4.6000751881599395,4.41327825937271,-1.23325664834976
11.141761363636363,-8.735393561840059,-0.8222344359397891,0.7354494063377379
11.142367424242423,-1.11683643293381,-3.3849053343772897,-1.74100078897476
11.142973484848484,8.13033397722244,0.643517517185211,-0.9051389725685121
11.143579545454545,-2.22333545637131,5.04316839609146,1.09949237508774
11.144185606060605,-7.26485156965256,-3.0519976195335397,-1.43443828897476
11.144791666666666,3.63488231706619,-3.80642877187729,-1.7433958085060102
11.145397727272726,6.41070995378494,4.27915716562271,0.31632098836898803
11.146003787878787,-7.15228565168381,3.2971991578102102,0.00017841024398755802
11.146609848484847,-4.18725147199631,-6.3547295531272905,-1.7481858475685101
11.147215909090908,7.77587108659744,-0.6641631468772891,-1.21649151163101
11.147821969696968,1.17040721940994,6.63346136484146,0.7354494063377379
11.148428030303029,-8.910229987621308,-2.56820367422104,-1.1877512772560102
11.14903409090909,1.88412303972244,-4.07467095937729,-1.8679368241310101
11.14964015151515,7.72797069597244,2.99063665781021,0.725869328212738
11.15024621212121,-4.86983203840256,3.72111761484146,-0.5410960038185121
11.150852272727272,-5.6386333079338105,-5.43264703359604,-0.976989558506012
11.151458333333332,6.16402294206619,-1.0665264281272901,-0.972199519443512
11.152064393939392,4.27195751237869,5.46229681406021,0.43367694540023805
11.152670454545454,-9.28624805402756,-1.54313531484604,0.34506122274398804
11.153276515151514,0.212399406909943,-3.20048883047104,-1.99726787881851
11.153882575757574,7.49565380144119,0.7536884156227109,-0.854843562412262
11.154488636363634,-3.2986992259025603,5.40960638437271,0.43367694540023805
11.155094696969696,-6.91038867902756,-3.63877740468979,-0.0573020585060124
11.155700757575758,4.56893993425369,-3.50944635000229,-1.9014670975685102
11.156306818181818,5.74489452409744,4.37974798593521,-0.390209773349762
